Trial,Order,Block,Type,Stimuli_File1,Stimuli_File2,Stimuli_File3,Stimuli_File4,Cue_File1,Cue_File2,Response_File_Yes,Response_File_No,Match,Cue_Dimension,Pair1_Dimension,Pair2_Dimension,Key,Cue1_Duration,Cue1_Onset,Cue2_Duration,Cue2_Onset,ResponseYes_Duration,ResponseYes_Onset,ResponseNo_Duration,ResponseNo_Onset,ITI_Within,ITI_Between,Image1_Duration,Image1_Onset,Image2_Duration,Image2_Onset,Image3_Duration,Image3_Onset,Image4_Duration,Image4_Onset,Sound1_Duration,Sound1_Onset,Sound2_Duration,Sound2_Onset,Sound3_Duration,Sound3_Onset,Sound4_Duration,Sound4_Onset,Fixation_Duration,trials_2.thisRepN,trials_2.thisTrialN,trials_2.thisN,trials_2.thisIndex,trials.thisRepN,trials.thisTrialN,trials.thisN,trials.thisIndex,text_start.started,key_resp_start.started,key_resp_start.keys,key_resp_start.rt,text2.started,key_resp_2.started,key_resp_2.keys,key_resp_2.rt,cue_file1.started,cue_file1.stopped,image_1.started,image_1.stopped,image_2.started,image_2.stopped,sound_icon1.started,sound_icon1.stopped,sound_1.started,sound_1.stopped,sound_icon2.started,sound_icon2.stopped,sound_2.started,sound_2.stopped,image_blank_1.started,image_blank_1.stopped,key_press.started,key_press.stopped,fixation_text.started,cue_file2.started,cue_file2.stopped,image_3.started,image_3.stopped,image_4.started,image_4.stopped,sound_icon3.started,sound_icon3.stopped,sound_3.started,sound_3.stopped,sound_icon4.started,sound_icon4.stopped,sound_4.started,sound_4.stopped,response_yes.started,response_yes.stopped,response_no.started,response_no.stopped,iti_blank.started,iti_blank.stopped,fixation_text.stopped,key_press.keys,key_press.corr,key_press.rt,participant,session,date,expName,psychopyVersion,frameRate,
,,,,,,,,,,,,,,,,,,,,,,,,,,,,,,,,,,,,,,,,,,,,,,,,,,,,9.695771624999907,9.695771624999907,2,1.2229779999997845,,,,,,,,,,,,,,,,,,,,,,,,,,,,,,,,,,,,,,,,,,,,,,,,reldom2_s002,001,2025-01-23_15h25.00.305,Where-A-Scan_AC,2022.2.5,None,
,,,,,,,,,,,,,,,,,,,,,,,,,,,,,,,,,,,,,,,,,,,,0,0,0,0,,,,,,,,,10.946923416999198,10.946923416999198,5,17.78630258299927,,,,,,,,,,,,,,,,,,,,,,,,,,,,,,,,,,,,,,,,,,,,reldom2_s002,001,2025-01-23_15h25.00.305,Where-A-Scan_AC,2022.2.5,None,
,,,,,,,,,,,,,,,,,,,,,,,,,,,,,,,,,,,,,,,,,,,,1,0,1,0,,,,,,,,,28.738304167000024,28.738304167000024,5,1.9942112079988874,,,,,,,,,,,,,,,,,,,,,,,,,,,,,,,,,,,,,,,,,,,,reldom2_s002,001,2025-01-23_15h25.00.305,Where-A-Scan_AC,2022.2.5,None,
,,,,,,,,,,,,,,,,,,,,,,,,,,,,,,,,,,,,,,,,,,,,2,0,2,0,,,,,,,,,30.747509750000972,30.747509750000972,5,1.9853270820003672,,,,,,,,,,,,,,,,,,,,,,,,,,,,,,,,,,,,,,,,,,,,reldom2_s002,001,2025-01-23_15h25.00.305,Where-A-Scan_AC,2022.2.5,None,
,,,,,,,,,,,,,,,,,,,,,,,,,,,,,,,,,,,,,,,,,,,,3,0,3,0,,,,,,,,,32.74808312499954,32.74808312499954,5,1.9854739570000675,,,,,,,,,,,,,,,,,,,,,,,,,,,,,,,,,,,,,,,,,,,,reldom2_s002,001,2025-01-23_15h25.00.305,Where-A-Scan_AC,2022.2.5,None,
0,0.0,None,fixation,stimulus/viswhere_stim/blank_white.png,stimulus/viswhere_stim/blank_white.png,stimulus/audwhere_stim/blank_white.png,stimulus/audwhere_stim/blank_white.png,stimulus/viswhere_stim/blank_white.png,stimulus/viswhere_stim/blank_white.png,stimulus/viswhere_stim/blank_white.png,stimulus/viswhere_stim/blank_white.png,0.0,0.0,0.0,0.0,0,0.0,0,0.0,0,0.0,0,0.0,0,0.0,0.0,0,0.0,0,0.0,0,0.0,0,0.0,0,0.0,0,0.0,0,0.0,0,0.0,16,,,,,0,0,0,0,,,,,,,,,34.93835924999985,34.93835924999985,34.93835924999985,34.93835924999985,34.93835924999985,34.93835924999985,34.93835924999985,34.93835924999985,34.8362760420001,34.93835924999985,34.93835924999985,34.93835924999985,34.8362760420001,34.93835924999985,34.93835924999985,34.93835924999985,34.93835924999985,34.93835924999985,34.93835924999985,34.93835924999985,34.93835924999985,34.93835924999985,34.93835924999985,34.93835924999985,34.93835924999985,34.93835924999985,34.93835924999985,34.902942708666764,34.93835924999985,34.93835924999985,34.93835924999985,34.902942708666764,34.93835924999985,34.93835924999985,34.93835924999985,34.93835924999985,34.93835924999985,40.15313895899999,40.15313895899999,51.145556999999826,None,0,,reldom2_s002,001,2025-01-23_15h25.00.305,Where-A-Scan_AC,2022.2.5,None,
1,First_Order,1.0,viswhere,stimulus/viswhere_stim/blank_white.png,stimulus/viswhere_stim/blank_white.png,stimulus/viswhere_stim/60-deg_dot-left_peru.png,stimulus/viswhere_stim/60-deg_dot-right_turquoise.png,stimulus/viswhere_stim/blank_white.png,stimulus/viswhere_stim/dot_box.png,stimulus/viswhere_stim/dot_yes.png,stimulus/viswhere_stim/dot_no.png,None,Dot,None,Line,2,0.0,0,5.125,0,5.125,0,5.125,0,0.0,0.625,0,0.0,0,0.0,1,0.5,1,2.125,0,0.0,0,0.0,0,0.0,0,0.0,0,,,,,0,1,1,1,,,,,,,,,51.145556999999826,51.145556999999826,51.145556999999826,51.145556999999826,51.145556999999826,51.145556999999826,51.145556999999826,51.145556999999826,51.11837849999974,51.145556999999826,51.145556999999826,51.145556999999826,51.11837849999974,51.145556999999826,51.145556999999826,51.145556999999826,53.245508125000924,57.206875459,51.145556999999826,51.145556999999826,56.27589491700019,51.62768191699979,52.629689499999586,53.245508125000924,54.251705624999886,51.145556999999826,51.145556999999826,51.13504516666641,51.145556999999826,51.145556999999826,51.145556999999826,51.13504516666641,51.145556999999826,51.145556999999826,56.27589491700019,51.145556999999826,56.27589491700019,56.37137887499921,57.002841292000085,51.145556999999826,2,1,0.5931534999981523,reldom2_s002,001,2025-01-23_15h25.00.305,Where-A-Scan_AC,2022.2.5,None,
2,First_Order,1.0,viswhere,stimulus/viswhere_stim/blank_white.png,stimulus/viswhere_stim/blank_white.png,stimulus/viswhere_stim/60-deg_dot-right_turquoise.png,stimulus/viswhere_stim/60-deg_dot-left_turquoise.png,stimulus/viswhere_stim/blank_white.png,stimulus/viswhere_stim/line_box.png,stimulus/viswhere_stim/line_yes.png,stimulus/viswhere_stim/line_no.png,None,Line,None,Line,1,0.0,0,5.125,0,5.125,0,5.125,0,0.0,0.625,0,0.0,0,0.0,1,0.5,1,2.125,0,0.0,0,0.0,0,0.0,0,0.0,0,,,,,0,2,2,2,,,,,,,,,57.206875459,57.206875459,57.206875459,57.206875459,57.206875459,57.206875459,57.206875459,57.206875459,57.1846515423343,57.206875459,57.206875459,57.206875459,57.1846515423343,57.206875459,57.206875459,57.206875459,59.3127388339999,63.26849675000085,57.206875459,57.206875459,62.33954774999984,57.68958104199919,58.69492083399928,59.3127388339999,60.326806625000245,57.206875459,57.206875459,57.201318209000966,57.206875459,57.206875459,57.206875459,57.201318209000966,57.206875459,57.206875459,62.33954774999984,57.206875459,62.33954774999984,62.43608429199958,63.06492112500018,57.206875459,1,1,0.6704645819991129,reldom2_s002,001,2025-01-23_15h25.00.305,Where-A-Scan_AC,2022.2.5,None,
3,First_Order,1.0,viswhere,stimulus/viswhere_stim/blank_white.png,stimulus/viswhere_stim/blank_white.png,stimulus/viswhere_stim/30-deg_dot-left_salmon.png,stimulus/viswhere_stim/120-deg_dot-left_royalblue.png,stimulus/viswhere_stim/blank_white.png,stimulus/viswhere_stim/line_box.png,stimulus/viswhere_stim/line_yes.png,stimulus/viswhere_stim/line_no.png,None,Line,None,Dot,2,0.0,0,5.125,0,5.125,0,5.125,0,0.0,0.625,0,0.0,0,0.0,1,0.5,1,2.125,0,0.0,0,0.0,0,0.0,0,0.0,0,,,,,0,3,3,3,,,,,,,,,63.26849675000085,63.26849675000085,63.26849675000085,63.26849675000085,63.26849675000085,63.26849675000085,63.26849675000085,63.26849675000085,63.245956750333185,63.26849675000085,63.26849675000085,63.26849675000085,63.245956750333185,63.26849675000085,63.26849675000085,63.26849675000085,65.38061433400071,69.33651116700094,63.26849675000085,63.26849675000085,68.3913937920006,63.75325412500024,64.7621342500006,65.38061433400071,66.3954333340007,63.26849675000085,63.26849675000085,63.26262341699985,63.26849675000085,63.26849675000085,63.26849675000085,63.26262341699985,63.26849675000085,63.26849675000085,68.3913937920006,63.26849675000085,68.3913937920006,68.48894720899989,69.11736691700025,63.26849675000085,2,1,0.5904783329988277,reldom2_s002,001,2025-01-23_15h25.00.305,Where-A-Scan_AC,2022.2.5,None,
4,First_Order,1.0,viswhere,stimulus/viswhere_stim/blank_white.png,stimulus/viswhere_stim/blank_white.png,stimulus/viswhere_stim/150-deg_dot-right_salmon.png,stimulus/viswhere_stim/90-deg_dot-right_goldenrod.png,stimulus/viswhere_stim/blank_white.png,stimulus/viswhere_stim/line_box.png,stimulus/viswhere_stim/line_yes.png,stimulus/viswhere_stim/line_no.png,None,Line,None,Dot,2,0.0,0,5.125,0,5.125,0,5.125,0,0.0,0.625,0,0.0,0,0.0,1,0.5,1,2.125,0,0.0,0,0.0,0,0.0,0,0.0,0,,,,,0,4,4,4,,,,,,,,,69.33651116700094,69.33651116700094,69.33651116700094,69.33651116700094,69.33651116700094,69.33651116700094,69.33651116700094,69.33651116700094,69.31255516733411,69.33651116700094,69.33651116700094,69.33651116700094,69.31255516733411,69.33651116700094,69.33651116700094,69.33651116700094,71.44971883399921,75.48760354200022,69.33651116700094,69.33651116700094,74.46511099999952,69.82555745900027,70.84448812499977,71.44971883399921,72.45243062500049,69.33651116700094,69.33651116700094,69.32922183400078,69.33651116700094,69.33651116700094,69.33651116700094,69.32922183400078,69.33651116700094,69.33651116700094,74.46511099999952,69.33651116700094,74.46511099999952,74.5637977919996,75.18730358399989,69.33651116700094,2,1,0.6501034999982949,reldom2_s002,001,2025-01-23_15h25.00.305,Where-A-Scan_AC,2022.2.5,None,
0,0.0,None,fixation,stimulus/viswhere_stim/blank_white.png,stimulus/viswhere_stim/blank_white.png,stimulus/audwhere_stim/blank_white.png,stimulus/audwhere_stim/blank_white.png,stimulus/viswhere_stim/blank_white.png,stimulus/viswhere_stim/blank_white.png,stimulus/viswhere_stim/blank_white.png,stimulus/viswhere_stim/blank_white.png,0.0,0.0,0.0,0.0,0,0.0,0,0.0,0,0.0,0,0.0,0,0.0,0.0,0,0.0,0,0.0,0,0.0,0,0.0,0,0.0,0,0.0,0,0.0,0,0.0,9,,,,,0,5,5,5,,,,,,,,,75.48760354200022,75.48760354200022,75.48760354200022,75.48760354200022,75.48760354200022,75.48760354200022,75.48760354200022,75.48760354200022,75.38234137533375,75.48760354200022,75.48760354200022,75.48760354200022,75.38234137533375,75.48760354200022,75.48760354200022,75.48760354200022,75.48760354200022,75.48760354200022,75.48760354200022,75.48760354200022,75.48760354200022,75.48760354200022,75.48760354200022,75.48760354200022,75.48760354200022,75.48760354200022,75.48760354200022,75.43234137533375,75.48760354200022,75.48760354200022,75.48760354200022,75.43234137533375,75.48760354200022,75.48760354200022,75.48760354200022,75.48760354200022,75.48760354200022,80.69015387500076,80.69015387500076,84.60205900000074,None,0,,reldom2_s002,001,2025-01-23_15h25.00.305,Where-A-Scan_AC,2022.2.5,None,
5,Second_Order,1.0,viswhere,stimulus/viswhere_stim/90-deg_dot-right_mediumslateblue.png,stimulus/viswhere_stim/90-deg_dot-left_peru.png,stimulus/viswhere_stim/150-deg_dot-left_seagreen.png,stimulus/viswhere_stim/120-deg_dot-left_mediumslateblue.png,stimulus/viswhere_stim/match_blank.png,stimulus/viswhere_stim/match_box.png,stimulus/viswhere_stim/match_yes.png,stimulus/viswhere_stim/match_no.png,2.0,Match,Line,Dot,2,5.125,0,5.125,0,5.125,0,5.125,0,0.75,0.75,1,0.5,1,2.125,1,0.5,1,2.125,0,0.0,0,0.0,0,0.0,0,0.0,0,,,,,0,6,6,6,,,,,,,,,84.60205900000074,89.72503424999923,85.08487508399958,86.08323304199985,86.7064228750005,87.7035524999992,84.60205900000074,84.60205900000074,84.61376325033427,84.60205900000074,84.60205900000074,84.60205900000074,84.61376325033427,84.60205900000074,89.72503424999923,90.50761395900008,92.60440195900082,96.49360750000051,90.50761395900008,90.50761395900008,95.63273337499959,90.9798820420001,91.9998472089992,92.60440195900082,93.61084558400034,90.50761395900008,90.50761395900008,90.49311462533345,90.50761395900008,90.50761395900008,90.50761395900008,90.49311462533345,90.50761395900008,90.50761395900008,95.63273337499959,90.50761395900008,95.63273337499959,95.72125045900066,96.49360750000051,90.50761395900008,1,0,1.3982089159999305,reldom2_s002,001,2025-01-23_15h25.00.305,Where-A-Scan_AC,2022.2.5,None,
6,Second_Order,1.0,viswhere,stimulus/viswhere_stim/60-deg_dot-right_salmon.png,stimulus/viswhere_stim/150-deg_dot-right_cyan.png,stimulus/viswhere_stim/120-deg_dot-left_lightsseagreen.png,stimulus/viswhere_stim/90-deg_dot-left_goldenrod.png,stimulus/viswhere_stim/match_blank.png,stimulus/viswhere_stim/match_box.png,stimulus/viswhere_stim/match_yes.png,stimulus/viswhere_stim/match_no.png,1.0,Match,Dot,Dot,1,5.125,0,5.125,0,5.125,0,5.125,0,0.625,0.625,1,0.5,1,2.125,1,0.5,1,2.125,0,0.0,0,0.0,0,0.0,0,0.0,0,,,,,0,7,7,7,,,,,,,,,96.49360750000051,101.60652179200042,96.97912387500037,97.97694341699935,98.6018312920005,99.59737212499931,96.49360750000051,96.49360750000051,96.50603699999992,96.49360750000051,96.49360750000051,96.49360750000051,96.50603699999992,96.49360750000051,101.60652179200042,102.26554899999974,104.3493566670004,108.39429387500059,102.26554899999974,102.26554899999974,107.40079791700009,102.73279833400011,103.74738733400045,104.3493566670004,105.35231095900053,102.26554899999974,102.26554899999974,102.25370450033418,102.26554899999974,102.26554899999974,102.26554899999974,102.25370450033418,102.26554899999974,102.26554899999974,107.40079791700009,102.26554899999974,107.40079791700009,107.47010374999991,108.09665179200056,102.26554899999974,1,1,0.7680087489989091,reldom2_s002,001,2025-01-23_15h25.00.305,Where-A-Scan_AC,2022.2.5,None,
0,0.0,None,fixation,stimulus/viswhere_stim/blank_white.png,stimulus/viswhere_stim/blank_white.png,stimulus/audwhere_stim/blank_white.png,stimulus/audwhere_stim/blank_white.png,stimulus/viswhere_stim/blank_white.png,stimulus/viswhere_stim/blank_white.png,stimulus/viswhere_stim/blank_white.png,stimulus/viswhere_stim/blank_white.png,0.0,0.0,0.0,0.0,0,0.0,0,0.0,0,0.0,0,0.0,0,0.0,0.0,0,0.0,0,0.0,0,0.0,0,0.0,0,0.0,0,0.0,0,0.0,0,0.0,8,,,,,0,8,8,8,,,,,,,,,108.39429387500059,108.39429387500059,108.39429387500059,108.39429387500059,108.39429387500059,108.39429387500059,108.39429387500059,108.39429387500059,108.2910188333329,108.39429387500059,108.39429387500059,108.39429387500059,108.2910188333329,108.39429387500059,108.39429387500059,108.39429387500059,108.39429387500059,108.39429387500059,108.39429387500059,108.39429387500059,108.39429387500059,108.39429387500059,108.39429387500059,108.39429387500059,108.39429387500059,108.39429387500059,108.39429387500059,108.3410188333329,108.39429387500059,108.39429387500059,108.39429387500059,108.3410188333329,108.39429387500059,108.39429387500059,108.39429387500059,108.39429387500059,108.39429387500059,113.58506262499941,113.58506262499941,116.58493604199975,None,0,,reldom2_s002,001,2025-01-23_15h25.00.305,Where-A-Scan_AC,2022.2.5,None,
7,First_Order,2.0,viswhere,stimulus/viswhere_stim/blank_white.png,stimulus/viswhere_stim/blank_white.png,stimulus/viswhere_stim/30-deg_dot-right_cyan.png,stimulus/viswhere_stim/30-deg_dot-left_cyan.png,stimulus/viswhere_stim/blank_white.png,stimulus/viswhere_stim/line_box.png,stimulus/viswhere_stim/line_yes.png,stimulus/viswhere_stim/line_no.png,None,Line,None,Line,1,0.0,0,5.125,0,5.125,0,5.125,0,0.0,0.625,0,0.0,0,0.0,1,0.5,1,2.125,0,0.0,0,0.0,0,0.0,0,0.0,0,,,,,0,9,9,9,,,,,,,,,116.58493604199975,116.58493604199975,116.58493604199975,116.58493604199975,116.58493604199975,116.58493604199975,116.58493604199975,116.58493604199975,116.55794004166698,116.58493604199975,116.58493604199975,116.58493604199975,116.55794004166698,116.58493604199975,116.58493604199975,116.58493604199975,118.68428954199953,122.64492308400077,116.58493604199975,116.58493604199975,121.72485812500054,117.0538792089992,118.0641717920007,118.68428954199953,119.70081675000074,116.58493604199975,116.58493604199975,116.57460670833365,116.58493604199975,116.58493604199975,116.58493604199975,116.57460670833365,116.58493604199975,116.58493604199975,121.72485812500054,116.58493604199975,121.72485812500054,121.79513079199933,122.42667179199998,116.58493604199975,1,1,1.163978082999165,reldom2_s002,001,2025-01-23_15h25.00.305,Where-A-Scan_AC,2022.2.5,None,
8,First_Order,2.0,viswhere,stimulus/viswhere_stim/blank_white.png,stimulus/viswhere_stim/blank_white.png,stimulus/viswhere_stim/60-deg_dot-right_slateblue.png,stimulus/viswhere_stim/60-deg_dot-left_goldenrod.png,stimulus/viswhere_stim/blank_white.png,stimulus/viswhere_stim/dot_box.png,stimulus/viswhere_stim/dot_yes.png,stimulus/viswhere_stim/dot_no.png,None,Dot,None,Line,2,0.0,0,5.125,0,5.125,0,5.125,0,0.0,0.625,0,0.0,0,0.0,1,0.5,1,2.125,0,0.0,0,0.0,0,0.0,0,0.0,0,,,,,0,10,10,10,,,,,,,,,122.64492308400077,122.64492308400077,122.64492308400077,122.64492308400077,122.64492308400077,122.64492308400077,122.64492308400077,122.64492308400077,122.62099420833268,122.64492308400077,122.64492308400077,122.64492308400077,122.62099420833268,122.64492308400077,122.64492308400077,122.64492308400077,124.75983741699929,128.71635729199988,122.64492308400077,122.64492308400077,127.7712215419997,123.13168204199974,124.14109854200069,124.75983741699929,125.77545654200003,122.64492308400077,122.64492308400077,122.63766087499934,122.64492308400077,122.64492308400077,122.64492308400077,122.63766087499934,122.64492308400077,122.64492308400077,127.7712215419997,122.64492308400077,127.7712215419997,127.87301070899957,128.4992385839996,122.64492308400077,2,1,0.7234198749993084,reldom2_s002,001,2025-01-23_15h25.00.305,Where-A-Scan_AC,2022.2.5,None,
9,First_Order,2.0,viswhere,stimulus/viswhere_stim/blank_white.png,stimulus/viswhere_stim/blank_white.png,stimulus/viswhere_stim/90-deg_dot-right_cyan.png,stimulus/viswhere_stim/60-deg_dot-right_slateblue.png,stimulus/viswhere_stim/blank_white.png,stimulus/viswhere_stim/dot_box.png,stimulus/viswhere_stim/dot_yes.png,stimulus/viswhere_stim/dot_no.png,None,Dot,None,Dot,1,0.0,0,5.125,0,5.125,0,5.125,0,0.0,0.625,0,0.0,0,0.0,1,0.5,1,2.125,0,0.0,0,0.0,0,0.0,0,0.0,0,,,,,0,11,11,11,,,,,,,,,128.71635729199988,128.71635729199988,128.71635729199988,128.71635729199988,128.71635729199988,128.71635729199988,128.71635729199988,128.71635729199988,128.69393395833262,128.71635729199988,128.71635729199988,128.71635729199988,128.69393395833262,128.71635729199988,128.71635729199988,128.71635729199988,130.81817962499917,134.78757533399948,128.71635729199988,128.71635729199988,133.8534080419995,129.2044874589992,130.21583912499955,130.81817962499917,131.83383099999992,128.71635729199988,128.71635729199988,128.7106006249993,128.71635729199988,128.71635729199988,128.71635729199988,128.7106006249993,128.71635729199988,128.71635729199988,133.8534080419995,128.71635729199988,133.8534080419995,133.93728733399985,134.56302362499991,128.71635729199988,1,1,0.9317520819986385,reldom2_s002,001,2025-01-23_15h25.00.305,Where-A-Scan_AC,2022.2.5,None,
10,First_Order,2.0,viswhere,stimulus/viswhere_stim/blank_white.png,stimulus/viswhere_stim/blank_white.png,stimulus/viswhere_stim/60-deg_dot-left_mediumslateblue.png,stimulus/viswhere_stim/150-deg_dot-left_peru.png,stimulus/viswhere_stim/blank_white.png,stimulus/viswhere_stim/dot_box.png,stimulus/viswhere_stim/dot_yes.png,stimulus/viswhere_stim/dot_no.png,None,Dot,None,Dot,1,0.0,0,5.125,0,5.125,0,5.125,0,0.0,0.625,0,0.0,0,0.0,1,0.5,1,2.125,0,0.0,0,0.0,0,0.0,0,0.0,0,,,,,0,12,12,12,,,,,,,,,134.78757533399948,134.78757533399948,134.78757533399948,134.78757533399948,134.78757533399948,134.78757533399948,134.78757533399948,134.78757533399948,134.7610120423336,134.78757533399948,134.78757533399948,134.78757533399948,134.7610120423336,134.78757533399948,134.78757533399948,134.78757533399948,136.89588095900035,140.9364257920006,134.78757533399948,134.78757533399948,139.91631866699936,135.27534150000065,136.29091433400026,136.89588095900035,137.91507887499938,134.78757533399948,134.78757533399948,134.77767870900027,134.78757533399948,134.78757533399948,134.78757533399948,134.77767870900027,134.78757533399948,134.78757533399948,139.91631866699936,134.78757533399948,139.91631866699936,140.01543049999964,140.6382660420004,134.78757533399948,1,1,1.312307874997714,reldom2_s002,001,2025-01-23_15h25.00.305,Where-A-Scan_AC,2022.2.5,None,
0,0.0,None,fixation,stimulus/viswhere_stim/blank_white.png,stimulus/viswhere_stim/blank_white.png,stimulus/audwhere_stim/blank_white.png,stimulus/audwhere_stim/blank_white.png,stimulus/viswhere_stim/blank_white.png,stimulus/viswhere_stim/blank_white.png,stimulus/viswhere_stim/blank_white.png,stimulus/viswhere_stim/blank_white.png,0.0,0.0,0.0,0.0,0,0.0,0,0.0,0,0.0,0,0.0,0,0.0,0.0,0,0.0,0,0.0,0,0.0,0,0.0,0,0.0,0,0.0,0,0.0,0,0.0,10,,,,,0,13,13,13,,,,,,,,,140.9364257920006,140.9364257920006,140.9364257920006,140.9364257920006,140.9364257920006,140.9364257920006,140.9364257920006,140.9364257920006,140.83427150033398,140.9364257920006,140.9364257920006,140.9364257920006,140.83427150033398,140.9364257920006,140.9364257920006,140.9364257920006,140.9364257920006,140.9364257920006,140.9364257920006,140.9364257920006,140.9364257920006,140.9364257920006,140.9364257920006,140.9364257920006,140.9364257920006,140.9364257920006,140.9364257920006,140.884271500334,140.9364257920006,140.9364257920006,140.9364257920006,140.884271500334,140.9364257920006,140.9364257920006,140.9364257920006,140.9364257920006,140.9364257920006,146.16683725000075,146.16683725000075,151.07959541700075,None,0,,reldom2_s002,001,2025-01-23_15h25.00.305,Where-A-Scan_AC,2022.2.5,None,
11,Second_Order,2.0,viswhere,stimulus/viswhere_stim/120-deg_dot-right_turquoise.png,stimulus/viswhere_stim/120-deg_dot-left_goldenrod.png,stimulus/viswhere_stim/60-deg_dot-left_turquoise.png,stimulus/viswhere_stim/150-deg_dot-left_seagreen.png,stimulus/viswhere_stim/match_blank.png,stimulus/viswhere_stim/match_box.png,stimulus/viswhere_stim/match_yes.png,stimulus/viswhere_stim/match_no.png,2.0,Match,Line,Dot,2,5.125,0,5.125,0,5.125,0,5.125,0,0.75,0.75,1,0.5,1,2.125,1,0.5,1,2.125,0,0.0,0,0.0,0,0.0,0,0.0,0,,,,,0,14,14,14,,,,,,,,,151.07959541700075,156.19946091699967,151.56746295899939,152.55666487500093,153.18790695899952,154.17686358399988,151.07959541700075,151.07959541700075,151.09156604233263,151.07959541700075,151.07959541700075,151.07959541700075,151.09156604233263,151.07959541700075,156.19946091699967,156.97270791700066,159.0731948749999,162.9582933340007,156.97270791700066,156.97270791700066,162.10053279199929,157.44438641700071,158.46517412499998,159.0731948749999,160.07875033399978,156.97270791700066,156.97270791700066,156.96629833333333,156.97270791700066,156.97270791700066,156.97270791700066,156.96629833333333,156.97270791700066,156.97270791700066,162.10053279199929,156.97270791700066,162.10053279199929,162.18578541699935,162.9582933340007,156.97270791700066,2,1,1.7850350829976378,reldom2_s002,001,2025-01-23_15h25.00.305,Where-A-Scan_AC,2022.2.5,None,
12,Second_Order,2.0,viswhere,stimulus/viswhere_stim/30-deg_dot-right_mediumslateblue.png,stimulus/viswhere_stim/30-deg_dot-left_seagreen.png,stimulus/viswhere_stim/120-deg_dot-right_goldenrod.png,stimulus/viswhere_stim/120-deg_dot-left_salmon.png,stimulus/viswhere_stim/match_blank.png,stimulus/viswhere_stim/match_box.png,stimulus/viswhere_stim/match_yes.png,stimulus/viswhere_stim/match_no.png,1.0,Match,Line,Line,1,5.125,0,5.125,0,5.125,0,5.125,0,0.625,0.625,1,0.5,1,2.125,1,0.5,1,2.125,0,0.0,0,0.0,0,0.0,0,0.0,0,,,,,0,15,15,15,,,,,,,,,162.9582933340007,168.07787083400035,163.43232908400023,164.43014162500003,165.0703250839997,166.06753558399942,162.9582933340007,162.9582933340007,162.9703267920002,162.9582933340007,162.9582933340007,162.9582933340007,162.9703267920002,162.9582933340007,168.07787083400035,168.73474729199916,170.8207050839992,174.86953441699916,168.73474729199916,168.73474729199916,173.87372900000082,169.20392012500088,170.2164142090005,170.8207050839992,171.82299483399947,168.73474729199916,168.73474729199916,168.72399783333327,168.73474729199916,168.73474729199916,168.73474729199916,168.72399783333327,168.73474729199916,168.73474729199916,173.87372900000082,168.73474729199916,173.87372900000082,173.9430898749997,174.56947208400015,168.73474729199916,1,1,1.6722282499977155,reldom2_s002,001,2025-01-23_15h25.00.305,Where-A-Scan_AC,2022.2.5,None,
0,0.0,None,fixation,stimulus/viswhere_stim/blank_white.png,stimulus/viswhere_stim/blank_white.png,stimulus/audwhere_stim/blank_white.png,stimulus/audwhere_stim/blank_white.png,stimulus/viswhere_stim/blank_white.png,stimulus/viswhere_stim/blank_white.png,stimulus/viswhere_stim/blank_white.png,stimulus/viswhere_stim/blank_white.png,0.0,0.0,0.0,0.0,0,0.0,0,0.0,0,0.0,0,0.0,0,0.0,0.0,0,0.0,0,0.0,0,0.0,0,0.0,0,0.0,0,0.0,0,0.0,0,0.0,8,,,,,0,16,16,16,,,,,,,,,174.86953441699916,174.86953441699916,174.86953441699916,174.86953441699916,174.86953441699916,174.86953441699916,174.86953441699916,174.86953441699916,174.7638389583329,174.86953441699916,174.86953441699916,174.86953441699916,174.7638389583329,174.86953441699916,174.86953441699916,174.86953441699916,174.86953441699916,174.86953441699916,174.86953441699916,174.86953441699916,174.86953441699916,174.86953441699916,174.86953441699916,174.86953441699916,174.86953441699916,174.86953441699916,174.86953441699916,174.81383895833292,174.86953441699916,174.86953441699916,174.86953441699916,174.81383895833292,174.86953441699916,174.86953441699916,174.86953441699916,174.86953441699916,174.86953441699916,180.0725480839992,180.0725480839992,183.13661120899997,None,0,,reldom2_s002,001,2025-01-23_15h25.00.305,Where-A-Scan_AC,2022.2.5,None,
13,First_Order,3.0,audwhere,stimulus/audwhere_stim/dummy.wav,stimulus/audwhere_stim/dummy.wav,stimulus/audwhere_stim/right_away_290h.wav,stimulus/audwhere_stim/right_toward_280h.wav,stimulus/audwhere_stim/blank_white.png,stimulus/audwhere_stim/side_box.png,stimulus/audwhere_stim/side_yes.png,stimulus/audwhere_stim/side_no.png,None,Side,None,Side,1,0.0,0,5.125,0,5.125,0,5.125,0,0.0,0.625,0,0.0,0,0.0,0,0.0,0,0.0,0,0.0,0,0.0,1,0.5,1,2.125,0,,,,,0,17,17,17,,,,,,,,,183.13661120899997,183.13661120899997,183.13661120899997,183.13661120899997,183.13661120899997,183.13661120899997,183.13661120899997,183.13661120899997,183.06030604166762,183.13661120899997,183.13661120899997,183.13661120899997,183.06030604166762,183.13661120899997,183.13661120899997,183.13661120899997,185.2125500000002,,183.13661120899997,183.13661120899997,188.32235958400088,183.13661120899997,183.13661120899997,183.13661120899997,183.13661120899997,183.6081780000004,184.64416254199932,183.57727950066717,,185.2125500000002,186.25156600000082,185.1818387916667,,183.13661120899997,188.32235958400088,183.13661120899997,188.32235958400088,188.36399012500078,189.02963883399934,183.13661120899997,2,0,1.6100086240003293,reldom2_s002,001,2025-01-23_15h25.00.305,Where-A-Scan_AC,2022.2.5,None,
14,First_Order,3.0,audwhere,stimulus/audwhere_stim/dummy.wav,stimulus/audwhere_stim/dummy.wav,stimulus/audwhere_stim/right_away_300h.wav,stimulus/audwhere_stim/left_away_300h.wav,stimulus/audwhere_stim/blank_white.png,stimulus/audwhere_stim/side_box.png,stimulus/audwhere_stim/side_yes.png,stimulus/audwhere_stim/side_no.png,None,Side,None,Direction,2,0.0,0,5.125,0,5.125,0,5.125,0,0.0,0.625,0,0.0,0,0.0,0,0.0,0,0.0,0,0.0,0,0.0,1,0.5,1,2.125,0,,,,,0,18,18,18,,,,,,,,,189.24559354200028,189.24559354200028,189.24559354200028,189.24559354200028,189.24559354200028,189.24559354200028,189.24559354200028,189.24559354200028,189.1629721673327,189.24559354200028,189.24559354200028,189.24559354200028,189.1629721673327,189.24559354200028,189.24559354200028,189.24559354200028,191.31985874999918,,189.24559354200028,189.24559354200028,194.43141749999995,189.24559354200028,189.24559354200028,189.24559354200028,189.24559354200028,189.71604425000078,190.75436383399938,189.68533954166585,,191.31985874999918,192.36015600000064,191.2890361666671,,189.24559354200028,194.43141749999995,189.24559354200028,194.43141749999995,194.4730446249996,195.14048524999998,189.24559354200028,2,1,0.8705035409984703,reldom2_s002,001,2025-01-23_15h25.00.305,Where-A-Scan_AC,2022.2.5,None,
15,First_Order,3.0,audwhere,stimulus/audwhere_stim/dummy.wav,stimulus/audwhere_stim/dummy.wav,stimulus/audwhere_stim/left_away_290h.wav,stimulus/audwhere_stim/right_away_280h.wav,stimulus/audwhere_stim/blank_white.png,stimulus/audwhere_stim/direction_box.png,stimulus/audwhere_stim/direction_yes.png,stimulus/audwhere_stim/direction_no.png,None,Direction,None,Direction,1,0.0,0,5.125,0,5.125,0,5.125,0,0.0,0.625,0,0.0,0,0.0,0,0.0,0,0.0,0,0.0,0,0.0,1,0.5,1,2.125,0,,,,,0,19,19,19,,,,,,,,,195.35762145899935,195.35762145899935,195.35762145899935,195.35762145899935,195.35762145899935,195.35762145899935,195.35762145899935,195.35762145899935,195.27381858333334,195.35762145899935,195.35762145899935,195.35762145899935,195.27381858333334,195.35762145899935,195.35762145899935,195.35762145899935,197.45089029200062,,195.35762145899935,195.35762145899935,200.5343345000001,195.35762145899935,195.35762145899935,195.35762145899935,195.35762145899935,195.83217729200078,196.88351470899943,195.80128887566596,196.83607608400052,197.45089029200062,198.49592375000066,197.41994825066675,,195.35762145899935,200.5343345000001,195.35762145899935,200.5343345000001,200.5759804999998,201.2434646670008,195.35762145899935,1,1,1.247349248998944,reldom2_s002,001,2025-01-23_15h25.00.305,Where-A-Scan_AC,2022.2.5,None,
16,First_Order,3.0,audwhere,stimulus/audwhere_stim/dummy.wav,stimulus/audwhere_stim/dummy.wav,stimulus/audwhere_stim/right_toward_270h.wav,stimulus/audwhere_stim/right_away_300h.wav,stimulus/audwhere_stim/blank_white.png,stimulus/audwhere_stim/direction_box.png,stimulus/audwhere_stim/direction_yes.png,stimulus/audwhere_stim/direction_no.png,None,Direction,None,Side,2,0.0,0,5.125,0,5.125,0,5.125,0,0.0,0.625,0,0.0,0,0.0,0,0.0,0,0.0,0,0.0,0,0.0,1,0.5,1,2.125,0,,,,,0,20,20,20,,,,,,,,,201.46007312499933,201.46007312499933,201.46007312499933,201.46007312499933,201.46007312499933,201.46007312499933,201.46007312499933,201.46007312499933,201.37679800033416,201.46007312499933,201.46007312499933,201.46007312499933,201.37679800033416,201.46007312499933,201.46007312499933,201.46007312499933,203.5491800840009,,201.46007312499933,201.46007312499933,206.63048433400036,201.46007312499933,201.46007312499933,201.46007312499933,201.46007312499933,201.93545562500003,202.98071091699967,201.9046481666667,,203.5491800840009,204.59392766699966,203.51859683366663,,201.46007312499933,206.63048433400036,201.46007312499933,206.63048433400036,206.67242479199922,207.3426400419994,201.46007312499933,2,1,1.1006491239986644,reldom2_s002,001,2025-01-23_15h25.00.305,Where-A-Scan_AC,2022.2.5,None,
0,0.0,None,fixation,stimulus/viswhere_stim/blank_white.png,stimulus/viswhere_stim/blank_white.png,stimulus/audwhere_stim/blank_white.png,stimulus/audwhere_stim/blank_white.png,stimulus/viswhere_stim/blank_white.png,stimulus/viswhere_stim/blank_white.png,stimulus/viswhere_stim/blank_white.png,stimulus/viswhere_stim/blank_white.png,0.0,0.0,0.0,0.0,0,0.0,0,0.0,0,0.0,0,0.0,0,0.0,0.0,0,0.0,0,0.0,0,0.0,0,0.0,0,0.0,0,0.0,0,0.0,0,0.0,9,,,,,0,21,21,21,,,,,,,,,207.58176241699948,207.58176241699948,207.58176241699948,207.58176241699948,207.58176241699948,207.58176241699948,207.58176241699948,207.58176241699948,207.47597337533276,207.58176241699948,207.58176241699948,207.58176241699948,207.47597337533276,207.58176241699948,207.58176241699948,207.58176241699948,207.58176241699948,207.58176241699948,207.58176241699948,207.58176241699948,207.58176241699948,207.58176241699948,207.58176241699948,207.58176241699948,207.58176241699948,207.58176241699948,207.58176241699948,207.54264004199942,207.58176241699948,207.58176241699948,207.58176241699948,207.54264004199942,207.58176241699948,207.58176241699948,207.58176241699948,207.58176241699948,207.58176241699948,212.80981341699953,212.80981341699953,216.71220141699996,None,0,,reldom2_s002,001,2025-01-23_15h25.00.305,Where-A-Scan_AC,2022.2.5,None,
17,Second_Order,3.0,audwhere,stimulus/audwhere_stim/right_away_270h.wav,stimulus/audwhere_stim/left_away_270h.wav,stimulus/audwhere_stim/right_toward_280h.wav,stimulus/audwhere_stim/left_toward_280h.wav,stimulus/viswhere_stim/match_blank.png,stimulus/audwhere_stim/match_box.png,stimulus/viswhere_stim/match_yes.png,stimulus/viswhere_stim/match_no.png,1.0,Match,Direction,Direction,1,5.125,0,5.125,0,5.125,0,5.125,0,0.75,0.75,0,0.0,0,0.0,0,0.0,0,0.0,1,0.5,1,2.125,1,0.5,1,2.125,0,,,,,0,22,22,22,,,,,,,,,216.71220141699996,221.8344789999992,216.71220141699996,216.71220141699996,216.71220141699996,216.71220141699996,217.16847699999926,218.1624260839999,217.17183291666723,218.1624260839999,218.79358016699916,219.79131299999972,218.80554808366676,219.79910691700024,221.8344789999992,222.66701395900054,224.74228883400065,228.6812756670006,222.66701395900054,222.66701395900054,227.85626262500045,222.66701395900054,222.66701395900054,222.66701395900054,222.66701395900054,223.14056574999995,224.17518104199917,223.11025108366655,,224.74228883400065,225.7825689170004,224.71031875066754,,222.66701395900054,227.85626262500045,222.66701395900054,227.85626262500045,227.85626262500045,,222.66701395900054,1,1,1.4914328750001005,reldom2_s002,001,2025-01-23_15h25.00.305,Where-A-Scan_AC,2022.2.5,None,
18,Second_Order,3.0,audwhere,stimulus/audwhere_stim/left_away_300h.wav,stimulus/audwhere_stim/right_away_290h.wav,stimulus/audwhere_stim/left_toward_300h.wav,stimulus/audwhere_stim/left_away_290h.wav,stimulus/viswhere_stim/match_blank.png,stimulus/audwhere_stim/match_box.png,stimulus/viswhere_stim/match_yes.png,stimulus/viswhere_stim/match_no.png,2.0,Match,Direction,Side,2,5.125,0,5.125,0,5.125,0,5.125,0,0.625,0.625,0,0.0,0,0.0,0,0.0,0,0.0,1,0.5,1,2.125,1,0.5,1,2.125,0,,,,,0,23,23,23,,,,,,,,,228.6812756670006,233.79559016699932,228.6812756670006,228.6812756670006,228.6812756670006,228.6812756670006,229.13384929200038,230.13168312500056,229.146240166667,230.14057120899997,230.75500687500062,231.75244399999974,230.7669258756671,231.76044150000052,233.79559016699932,234.50322379200043,236.57473299999947,,234.50322379200043,234.50322379200043,239.68024279199926,234.50322379200043,234.50322379200043,234.50322379200043,234.50322379200043,234.9748529999997,236.01135716700082,234.9442420006674,,236.57473299999947,237.6120048749999,236.5441365836671,,234.50322379200043,239.68024279199926,234.50322379200043,239.68024279199926,239.72181187500064,240.38224400000036,234.50322379200043,2,1,2.0757909989988548,reldom2_s002,001,2025-01-23_15h25.00.305,Where-A-Scan_AC,2022.2.5,None,
0,0.0,None,fixation,stimulus/viswhere_stim/blank_white.png,stimulus/viswhere_stim/blank_white.png,stimulus/audwhere_stim/blank_white.png,stimulus/audwhere_stim/blank_white.png,stimulus/viswhere_stim/blank_white.png,stimulus/viswhere_stim/blank_white.png,stimulus/viswhere_stim/blank_white.png,stimulus/viswhere_stim/blank_white.png,0.0,0.0,0.0,0.0,0,0.0,0,0.0,0,0.0,0,0.0,0,0.0,0.0,0,0.0,0,0.0,0,0.0,0,0.0,0,0.0,0,0.0,0,0.0,0,0.0,9,,,,,0,24,24,24,,,,,,,,,240.62064495900086,240.62064495900086,240.62064495900086,240.62064495900086,240.62064495900086,240.62064495900086,240.62064495900086,240.62064495900086,240.5155773333337,240.62064495900086,240.62064495900086,240.62064495900086,240.5155773333337,240.62064495900086,240.62064495900086,240.62064495900086,240.62064495900086,240.62064495900086,240.62064495900086,240.62064495900086,240.62064495900086,240.62064495900086,240.62064495900086,240.62064495900086,240.62064495900086,240.62064495900086,240.62064495900086,240.58224400000037,240.62064495900086,240.62064495900086,240.62064495900086,240.58224400000037,240.62064495900086,240.62064495900086,240.62064495900086,240.62064495900086,240.62064495900086,245.81997737500024,245.81997737500024,249.85534554200058,None,0,,reldom2_s002,001,2025-01-23_15h25.00.305,Where-A-Scan_AC,2022.2.5,None,
19,First_Order,4.0,audwhere,stimulus/audwhere_stim/dummy.wav,stimulus/audwhere_stim/dummy.wav,stimulus/audwhere_stim/right_away_300h.wav,stimulus/audwhere_stim/left_away_280h.wav,stimulus/audwhere_stim/blank_white.png,stimulus/audwhere_stim/direction_box.png,stimulus/audwhere_stim/direction_yes.png,stimulus/audwhere_stim/direction_no.png,None,Direction,None,Direction,1,0.0,0,5.125,0,5.125,0,5.125,0,0.0,0.625,0,0.0,0,0.0,0,0.0,0,0.0,0,0.0,0,0.0,1,0.5,1,2.125,0,,,,,0,25,25,25,,,,,,,,,249.85534554200058,249.85534554200058,249.85534554200058,249.85534554200058,249.85534554200058,249.85534554200058,249.85534554200058,249.85534554200058,249.77914454166665,249.85534554200058,249.85534554200058,249.85534554200058,249.77914454166665,249.85534554200058,249.85534554200058,249.85534554200058,251.94350170899997,,249.85534554200058,249.85534554200058,255.02534458400078,249.85534554200058,249.85534554200058,249.85534554200058,249.85534554200058,250.33099799999945,251.3753158340005,250.30022008366748,,251.94350170899997,252.98833775000094,251.91246220866586,,249.85534554200058,255.02534458400078,249.85534554200058,255.02534458400078,255.0669347919993,255.73470437499964,249.85534554200058,1,1,2.06567133200042,reldom2_s002,001,2025-01-23_15h25.00.305,Where-A-Scan_AC,2022.2.5,None,
20,First_Order,4.0,audwhere,stimulus/audwhere_stim/dummy.wav,stimulus/audwhere_stim/dummy.wav,stimulus/audwhere_stim/right_toward_270h.wav,stimulus/audwhere_stim/right_away_280h.wav,stimulus/audwhere_stim/blank_white.png,stimulus/audwhere_stim/direction_box.png,stimulus/audwhere_stim/direction_yes.png,stimulus/audwhere_stim/direction_no.png,None,Direction,None,Side,2,0.0,0,5.125,0,5.125,0,5.125,0,0.0,0.625,0,0.0,0,0.0,0,0.0,0,0.0,0,0.0,0,0.0,1,0.5,1,2.125,0,,,,,0,26,26,26,,,,,,,,,255.95189479200053,255.95189479200053,255.95189479200053,255.95189479200053,255.95189479200053,255.95189479200053,255.95189479200053,255.95189479200053,255.868037708333,255.95189479200053,255.95189479200053,255.95189479200053,255.868037708333,255.95189479200053,255.95189479200053,255.95189479200053,258.0360130000008,262.0817861249998,255.95189479200053,255.95189479200053,261.1175627089997,255.95189479200053,255.95189479200053,255.95189479200053,255.95189479200053,256.42553916699944,257.46926062500097,256.394314000667,,258.0360130000008,259.0804855000006,258.00559395866753,,255.95189479200053,261.1175627089997,255.95189479200053,261.1175627089997,261.1594921249998,261.8241405000008,255.95189479200053,2,1,1.2755177909984923,reldom2_s002,001,2025-01-23_15h25.00.305,Where-A-Scan_AC,2022.2.5,None,
21,First_Order,4.0,audwhere,stimulus/audwhere_stim/dummy.wav,stimulus/audwhere_stim/dummy.wav,stimulus/audwhere_stim/left_toward_300h.wav,stimulus/audwhere_stim/left_away_300h.wav,stimulus/audwhere_stim/blank_white.png,stimulus/audwhere_stim/side_box.png,stimulus/audwhere_stim/side_yes.png,stimulus/audwhere_stim/side_no.png,None,Side,None,Side,1,0.0,0,5.125,0,5.125,0,5.125,0,0.0,0.625,0,0.0,0,0.0,0,0.0,0,0.0,0,0.0,0,0.0,1,0.5,1,2.125,0,,,,,0,27,27,27,,,,,,,,,262.0817861249998,262.0817861249998,262.0817861249998,262.0817861249998,262.0817861249998,262.0817861249998,262.0817861249998,262.0817861249998,261.9992463753334,262.0817861249998,262.0817861249998,262.0817861249998,261.9992463753334,262.0817861249998,262.0817861249998,262.0817861249998,264.1600002920004,268.1999262499994,262.0817861249998,262.0817861249998,267.27573524999934,262.0817861249998,262.0817861249998,262.0817861249998,262.0817861249998,262.55462500000067,263.59437075000096,262.52356750066633,,264.1600002920004,265.2036772499996,264.129326708666,,262.0817861249998,267.27573524999934,262.0817861249998,267.27573524999934,267.27573524999934,267.94071895900015,262.0817861249998,1,1,0.8016944159990089,reldom2_s002,001,2025-01-23_15h25.00.305,Where-A-Scan_AC,2022.2.5,None,
22,First_Order,4.0,audwhere,stimulus/audwhere_stim/dummy.wav,stimulus/audwhere_stim/dummy.wav,stimulus/audwhere_stim/right_away_270h.wav,stimulus/audwhere_stim/left_away_300h.wav,stimulus/audwhere_stim/blank_white.png,stimulus/audwhere_stim/side_box.png,stimulus/audwhere_stim/side_yes.png,stimulus/audwhere_stim/side_no.png,None,Side,None,Direction,2,0.0,0,5.125,0,5.125,0,5.125,0,0.0,0.625,0,0.0,0,0.0,0,0.0,0,0.0,0,0.0,0,0.0,1,0.5,1,2.125,0,,,,,0,28,28,28,,,,,,,,,268.1999262499994,268.1999262499994,268.1999262499994,268.1999262499994,268.1999262499994,268.1999262499994,268.1999262499994,268.1999262499994,268.1155405833325,268.1999262499994,268.1999262499994,268.1999262499994,268.1155405833325,268.1999262499994,268.1999262499994,268.1999262499994,270.2741389589992,,268.1999262499994,268.1999262499994,273.39108766699974,268.1999262499994,268.1999262499994,268.1999262499994,268.1999262499994,268.67132474999926,269.7094423340004,268.640788875666,,270.2741389589992,271.3170126669993,270.2433529166667,,268.1999262499994,273.39108766699974,268.1999262499994,273.39108766699974,273.39108766699974,274.0551494169995,268.1999262499994,1,0,0.9255056239999249,reldom2_s002,001,2025-01-23_15h25.00.305,Where-A-Scan_AC,2022.2.5,None,
0,0.0,None,fixation,stimulus/viswhere_stim/blank_white.png,stimulus/viswhere_stim/blank_white.png,stimulus/audwhere_stim/blank_white.png,stimulus/audwhere_stim/blank_white.png,stimulus/viswhere_stim/blank_white.png,stimulus/viswhere_stim/blank_white.png,stimulus/viswhere_stim/blank_white.png,stimulus/viswhere_stim/blank_white.png,0.0,0.0,0.0,0.0,0,0.0,0,0.0,0,0.0,0,0.0,0,0.0,0.0,0,0.0,0,0.0,0,0.0,0,0.0,0,0.0,0,0.0,0,0.0,0,0.0,9,,,,,0,29,29,29,,,,,,,,,274.33615795900005,274.33615795900005,274.33615795900005,274.33615795900005,274.33615795900005,274.33615795900005,274.33615795900005,274.33615795900005,274.23031054233263,274.33615795900005,274.33615795900005,274.33615795900005,274.23031054233263,274.33615795900005,274.33615795900005,274.33615795900005,274.33615795900005,274.33615795900005,274.33615795900005,274.33615795900005,274.33615795900005,274.33615795900005,274.33615795900005,274.33615795900005,274.33615795900005,274.33615795900005,274.33615795900005,274.2969772089993,274.33615795900005,274.33615795900005,274.33615795900005,274.2969772089993,274.33615795900005,274.33615795900005,274.33615795900005,274.33615795900005,274.33615795900005,279.55437358400013,279.55437358400013,283.50768204199994,None,0,,reldom2_s002,001,2025-01-23_15h25.00.305,Where-A-Scan_AC,2022.2.5,None,
23,Second_Order,4.0,audwhere,stimulus/audwhere_stim/left_away_270h.wav,stimulus/audwhere_stim/left_toward_290h.wav,stimulus/audwhere_stim/left_toward_300h.wav,stimulus/audwhere_stim/right_toward_280h.wav,stimulus/viswhere_stim/match_blank.png,stimulus/audwhere_stim/match_box.png,stimulus/viswhere_stim/match_yes.png,stimulus/viswhere_stim/match_no.png,2.0,Match,Side,Direction,2,5.125,0,5.125,0,5.125,0,5.125,0,0.75,0.75,0,0.0,0,0.0,0,0.0,0,0.0,1,0.5,1,2.125,1,0.5,1,2.125,0,,,,,0,30,30,30,,,,,,,,,283.50768204199994,288.62157720899995,283.50768204199994,283.50768204199994,283.50768204199994,283.50768204199994,283.96029500000077,284.9583136250003,283.9728727506665,284.96630341700074,285.5809807500009,286.57861895899987,285.592916208667,286.58648104200074,288.62157720899995,289.4515376670006,291.52794129200083,295.47082749999936,289.4515376670006,289.4515376670006,294.6446046250003,289.4515376670006,289.4515376670006,289.4515376670006,289.4515376670006,289.9228893750005,290.9626327500009,289.89239804166596,,291.52794129200083,292.5674428750008,291.49679066666636,,289.4515376670006,294.6446046250003,289.4515376670006,294.6446046250003,294.6446046250003,,289.4515376670006,2,1,1.4814547909991234,reldom2_s002,001,2025-01-23_15h25.00.305,Where-A-Scan_AC,2022.2.5,None,
24,Second_Order,4.0,audwhere,stimulus/audwhere_stim/right_toward_290h.wav,stimulus/audwhere_stim/right_away_290h.wav,stimulus/audwhere_stim/left_away_300h.wav,stimulus/audwhere_stim/left_toward_270h.wav,stimulus/viswhere_stim/match_blank.png,stimulus/audwhere_stim/match_box.png,stimulus/viswhere_stim/match_yes.png,stimulus/viswhere_stim/match_no.png,1.0,Match,Side,Side,1,5.125,0,5.125,0,5.125,0,5.125,0,0.625,0.625,0,0.0,0,0.0,0,0.0,0,0.0,1,0.5,1,2.125,1,0.5,1,2.125,0,,,,,0,31,31,31,,,,,,,,,295.47082749999936,300.59475700000075,295.47082749999936,295.47082749999936,295.47082749999936,295.47082749999936,295.9204034590002,296.90649370900064,295.9334000416659,296.92675070900077,297.55413554200095,298.5438654999998,297.5588630006662,298.5565145420005,300.59475700000075,301.3087872920005,303.3767771670009,,301.3087872920005,301.3087872920005,306.47768041699965,301.3087872920005,301.3087872920005,301.3087872920005,301.3087872920005,301.77751112499936,302.8135720419996,301.7470804166662,,303.3767771670009,304.4148126250002,303.3462930006665,,301.3087872920005,306.47768041699965,301.3087872920005,306.47768041699965,306.5192212919992,307.1825104590007,301.3087872920005,1,1,0.9004701659996499,reldom2_s002,001,2025-01-23_15h25.00.305,Where-A-Scan_AC,2022.2.5,None,
0,0.0,None,fixation,stimulus/viswhere_stim/blank_white.png,stimulus/viswhere_stim/blank_white.png,stimulus/audwhere_stim/blank_white.png,stimulus/audwhere_stim/blank_white.png,stimulus/viswhere_stim/blank_white.png,stimulus/viswhere_stim/blank_white.png,stimulus/viswhere_stim/blank_white.png,stimulus/viswhere_stim/blank_white.png,0.0,0.0,0.0,0.0,0,0.0,0,0.0,0,0.0,0,0.0,0,0.0,0.0,0,0.0,0,0.0,0,0.0,0,0.0,0,0.0,0,0.0,0,0.0,0,0.0,10,,,,,0,32,32,32,,,,,,,,,307.4201848339999,307.4201848339999,307.4201848339999,307.4201848339999,307.4201848339999,307.4201848339999,307.4201848339999,307.4201848339999,307.315843792334,307.4201848339999,307.4201848339999,307.4201848339999,307.315843792334,307.4201848339999,307.4201848339999,307.4201848339999,307.4201848339999,307.4201848339999,307.4201848339999,307.4201848339999,307.4201848339999,307.4201848339999,307.4201848339999,307.4201848339999,307.4201848339999,307.4201848339999,307.4201848339999,307.36584379233403,307.4201848339999,307.4201848339999,307.4201848339999,307.36584379233403,307.4201848339999,307.4201848339999,307.4201848339999,307.4201848339999,307.4201848339999,312.61774200000036,312.61774200000036,317.6341722500001,None,0,,reldom2_s002,001,2025-01-23_15h25.00.305,Where-A-Scan_AC,2022.2.5,None,
25,First_Order,5.0,viswhere,stimulus/viswhere_stim/blank_white.png,stimulus/viswhere_stim/blank_white.png,stimulus/viswhere_stim/120-deg_dot-right_goldenrod.png,stimulus/viswhere_stim/150-deg_dot-right_turquoise.png,stimulus/viswhere_stim/blank_white.png,stimulus/viswhere_stim/dot_box.png,stimulus/viswhere_stim/dot_yes.png,stimulus/viswhere_stim/dot_no.png,None,Dot,None,Dot,1,0.0,0,5.125,0,5.125,0,5.125,0,0.0,0.625,0,0.0,0,0.0,1,0.5,1,2.125,0,0.0,0,0.0,0,0.0,0,0.0,0,,,,,0,33,33,33,,,,,,,,,317.6341722500001,317.6341722500001,317.6341722500001,317.6341722500001,317.6341722500001,317.6341722500001,317.6341722500001,317.6341722500001,317.61103416666685,317.6341722500001,317.6341722500001,317.6341722500001,317.61103416666685,317.6341722500001,317.6341722500001,317.6341722500001,319.7394427500003,323.6943203339997,317.6341722500001,317.6341722500001,322.7654981249998,318.12132500000007,319.13604687500083,319.7394427500003,320.7596316250001,317.6341722500001,317.6341722500001,317.62770083333356,317.6341722500001,317.6341722500001,317.6341722500001,317.62770083333356,317.6341722500001,317.6341722500001,322.7654981249998,317.6341722500001,322.7654981249998,322.8499872499997,323.4768469169994,317.6341722500001,1,1,0.9335947910003597,reldom2_s002,001,2025-01-23_15h25.00.305,Where-A-Scan_AC,2022.2.5,None,
26,First_Order,5.0,viswhere,stimulus/viswhere_stim/blank_white.png,stimulus/viswhere_stim/blank_white.png,stimulus/viswhere_stim/90-deg_dot-right_royalblue.png,stimulus/viswhere_stim/120-deg_dot-right_seagreen.png,stimulus/viswhere_stim/blank_white.png,stimulus/viswhere_stim/line_box.png,stimulus/viswhere_stim/line_yes.png,stimulus/viswhere_stim/line_no.png,None,Line,None,Dot,2,0.0,0,5.125,0,5.125,0,5.125,0,0.0,0.625,0,0.0,0,0.0,1,0.5,1,2.125,0,0.0,0,0.0,0,0.0,0,0.0,0,,,,,0,34,34,34,,,,,,,,,323.6943203339997,323.6943203339997,323.6943203339997,323.6943203339997,323.6943203339997,323.6943203339997,323.6943203339997,323.6943203339997,323.6712386253342,323.6943203339997,323.6943203339997,323.6943203339997,323.6712386253342,323.6943203339997,323.6943203339997,323.6943203339997,325.7986577089996,329.7641480839993,323.6943203339997,323.6943203339997,328.8218591250006,324.18249508400004,325.1956957500006,325.7986577089996,326.81882045900056,323.6943203339997,323.6943203339997,323.68790529200083,323.6943203339997,323.6943203339997,323.6943203339997,323.68790529200083,323.6943203339997,323.6943203339997,328.8218591250006,323.6943203339997,328.8218591250006,328.9201622920009,329.54654745900007,323.6943203339997,2,1,0.6408162499992613,reldom2_s002,001,2025-01-23_15h25.00.305,Where-A-Scan_AC,2022.2.5,None,
27,First_Order,5.0,viswhere,stimulus/viswhere_stim/blank_white.png,stimulus/viswhere_stim/blank_white.png,stimulus/viswhere_stim/60-deg_dot-left_lightsseagreen.png,stimulus/viswhere_stim/60-deg_dot-right_slateblue.png,stimulus/viswhere_stim/blank_white.png,stimulus/viswhere_stim/line_box.png,stimulus/viswhere_stim/line_yes.png,stimulus/viswhere_stim/line_no.png,None,Line,None,Line,1,0.0,0,5.125,0,5.125,0,5.125,0,0.0,0.625,0,0.0,0,0.0,1,0.5,1,2.125,0,0.0,0,0.0,0,0.0,0,0.0,0,,,,,0,35,35,35,,,,,,,,,329.7641480839993,329.7641480839993,329.7641480839993,329.7641480839993,329.7641480839993,329.7641480839993,329.7641480839993,329.7641480839993,329.7408810003338,329.7641480839993,329.7641480839993,329.7641480839993,329.7408810003338,329.7641480839993,329.7641480839993,329.7641480839993,331.8805273750004,335.83438616700005,329.7641480839993,329.7641480839993,334.9062753750004,330.24902875000043,331.2605080840003,331.8805273750004,332.8951452090005,329.7641480839993,329.7641480839993,329.75754766700044,329.7641480839993,329.7641480839993,329.7641480839993,329.75754766700044,329.7641480839993,329.7641480839993,334.9062753750004,329.7641480839993,334.9062753750004,334.9895227090001,335.61553537500004,329.7641480839993,1,1,1.8368876249987807,reldom2_s002,001,2025-01-23_15h25.00.305,Where-A-Scan_AC,2022.2.5,None,
28,First_Order,5.0,viswhere,stimulus/viswhere_stim/blank_white.png,stimulus/viswhere_stim/blank_white.png,stimulus/viswhere_stim/120-deg_dot-right_slateblue.png,stimulus/viswhere_stim/90-deg_dot-right_cyan.png,stimulus/viswhere_stim/blank_white.png,stimulus/viswhere_stim/dot_box.png,stimulus/viswhere_stim/dot_yes.png,stimulus/viswhere_stim/dot_no.png,None,Dot,None,Dot,1,0.0,0,5.125,0,5.125,0,5.125,0,0.0,0.625,0,0.0,0,0.0,1,0.5,1,2.125,0,0.0,0,0.0,0,0.0,0,0.0,0,,,,,0,36,36,36,,,,,,,,,335.83438616700005,335.83438616700005,335.83438616700005,335.83438616700005,335.83438616700005,335.83438616700005,335.83438616700005,335.83438616700005,335.8103547503336,335.83438616700005,335.83438616700005,335.83438616700005,335.8103547503336,335.83438616700005,335.83438616700005,335.83438616700005,337.93234216699966,341.98148033399957,335.83438616700005,335.83438616700005,340.9557657919995,336.32033358400076,337.3325777499995,337.93234216699966,338.9523736249994,335.83438616700005,335.83438616700005,335.82702141700025,335.83438616700005,335.83438616700005,335.83438616700005,335.82702141700025,335.83438616700005,335.83438616700005,340.9557657919995,335.83438616700005,340.9557657919995,341.0703457920008,341.6992769169992,335.83438616700005,1,1,0.7428255409995472,reldom2_s002,001,2025-01-23_15h25.00.305,Where-A-Scan_AC,2022.2.5,None,
0,0.0,None,fixation,stimulus/viswhere_stim/blank_white.png,stimulus/viswhere_stim/blank_white.png,stimulus/audwhere_stim/blank_white.png,stimulus/audwhere_stim/blank_white.png,stimulus/viswhere_stim/blank_white.png,stimulus/viswhere_stim/blank_white.png,stimulus/viswhere_stim/blank_white.png,stimulus/viswhere_stim/blank_white.png,0.0,0.0,0.0,0.0,0,0.0,0,0.0,0,0.0,0,0.0,0,0.0,0.0,0,0.0,0,0.0,0,0.0,0,0.0,0,0.0,0,0.0,0,0.0,0,0.0,9,,,,,0,37,37,37,,,,,,,,,341.98148033399957,341.98148033399957,341.98148033399957,341.98148033399957,341.98148033399957,341.98148033399957,341.98148033399957,341.98148033399957,341.87983533333255,341.98148033399957,341.98148033399957,341.98148033399957,341.87983533333255,341.98148033399957,341.98148033399957,341.98148033399957,341.98148033399957,341.98148033399957,341.98148033399957,341.98148033399957,341.98148033399957,341.98148033399957,341.98148033399957,341.98148033399957,341.98148033399957,341.98148033399957,341.98148033399957,341.92983533333256,341.98148033399957,341.98148033399957,341.98148033399957,341.92983533333256,341.98148033399957,341.98148033399957,341.98148033399957,341.98148033399957,341.98148033399957,347.2056407500004,347.2056407500004,351.13761320900085,None,0,,reldom2_s002,001,2025-01-23_15h25.00.305,Where-A-Scan_AC,2022.2.5,None,
29,Second_Order,5.0,viswhere,stimulus/viswhere_stim/150-deg_dot-right_cyan.png,stimulus/viswhere_stim/150-deg_dot-left_peru.png,stimulus/viswhere_stim/90-deg_dot-left_goldenrod.png,stimulus/viswhere_stim/90-deg_dot-right_mediumslateblue.png,stimulus/viswhere_stim/match_blank.png,stimulus/viswhere_stim/match_box.png,stimulus/viswhere_stim/match_yes.png,stimulus/viswhere_stim/match_no.png,1.0,Match,Line,Line,1,5.125,0,5.125,0,5.125,0,5.125,0,0.75,0.75,1,0.5,1,2.125,1,0.5,1,2.125,0,0.0,0,0.0,0,0.0,0,0.0,0,,,,,0,38,38,38,,,,,,,,,351.13761320900085,356.26099104199966,351.61636200000066,352.61555879200023,353.23758375000034,354.2349930420005,351.13761320900085,351.13761320900085,351.14959112533336,351.13761320900085,351.13761320900085,351.13761320900085,351.14959112533336,351.13761320900085,356.26099104199966,357.0405821250006,359.14064300000064,363.0172982919994,357.0405821250006,357.0405821250006,362.1856992089997,357.5118531669996,358.5317704169993,359.14064300000064,360.14867304200015,357.0405821250006,357.0405821250006,357.02782095833254,357.0405821250006,357.0405821250006,357.0405821250006,357.02782095833254,357.0405821250006,357.0405821250006,362.1856992089997,357.0405821250006,362.1856992089997,362.2443371249992,363.0172982919994,357.0405821250006,1,1,0.6494809159994475,reldom2_s002,001,2025-01-23_15h25.00.305,Where-A-Scan_AC,2022.2.5,None,
30,Second_Order,5.0,viswhere,stimulus/viswhere_stim/90-deg_dot-right_royalblue.png,stimulus/viswhere_stim/60-deg_dot-right_peru.png,stimulus/viswhere_stim/30-deg_dot-left_slateblue.png,stimulus/viswhere_stim/90-deg_dot-left_seagreen.png,stimulus/viswhere_stim/match_blank.png,stimulus/viswhere_stim/match_box.png,stimulus/viswhere_stim/match_yes.png,stimulus/viswhere_stim/match_no.png,1.0,Match,Dot,Dot,1,5.125,0,5.125,0,5.125,0,5.125,0,0.625,0.625,1,0.5,1,2.125,1,0.5,1,2.125,0,0.0,0,0.0,0,0.0,0,0.0,0,,,,,0,39,39,39,,,,,,,,,363.0172982919994,368.1386516670009,363.4937757919997,364.49176525000075,365.12695616699966,366.1151608750006,363.0172982919994,363.0172982919994,363.02913512500055,363.0172982919994,363.0172982919994,363.0172982919994,363.02913512500055,363.0172982919994,368.1386516670009,368.79074004200083,370.88102045900087,374.93481512499966,368.79074004200083,368.79074004200083,373.9208610839996,369.2595265,370.27544087500064,370.88102045900087,371.8845956669993,368.79074004200083,368.79074004200083,368.7853131253328,368.79074004200083,368.79074004200083,368.79074004200083,368.7853131253328,368.79074004200083,368.79074004200083,373.9208610839996,368.79074004200083,373.9208610839996,374.0044485420003,374.63087149999956,368.79074004200083,1,1,0.556291749000593,reldom2_s002,001,2025-01-23_15h25.00.305,Where-A-Scan_AC,2022.2.5,None,
0,0.0,None,fixation,stimulus/viswhere_stim/blank_white.png,stimulus/viswhere_stim/blank_white.png,stimulus/audwhere_stim/blank_white.png,stimulus/audwhere_stim/blank_white.png,stimulus/viswhere_stim/blank_white.png,stimulus/viswhere_stim/blank_white.png,stimulus/viswhere_stim/blank_white.png,stimulus/viswhere_stim/blank_white.png,0.0,0.0,0.0,0.0,0,0.0,0,0.0,0,0.0,0,0.0,0,0.0,0.0,0,0.0,0,0.0,0,0.0,0,0.0,0,0.0,0,0.0,0,0.0,0,0.0,8,,,,,0,40,40,40,,,,,,,,,374.93481512499966,374.93481512499966,374.93481512499966,374.93481512499966,374.93481512499966,374.93481512499966,374.93481512499966,374.93481512499966,374.82897125033315,374.93481512499966,374.93481512499966,374.93481512499966,374.82897125033315,374.93481512499966,374.93481512499966,374.93481512499966,374.93481512499966,374.93481512499966,374.93481512499966,374.93481512499966,374.93481512499966,374.93481512499966,374.93481512499966,374.93481512499966,374.93481512499966,374.93481512499966,374.93481512499966,374.87897125033317,374.93481512499966,374.93481512499966,374.93481512499966,374.87897125033317,374.93481512499966,374.93481512499966,374.93481512499966,374.93481512499966,374.93481512499966,380.1537121670008,380.1537121670008,383.1174702089993,None,0,,reldom2_s002,001,2025-01-23_15h25.00.305,Where-A-Scan_AC,2022.2.5,None,
31,First_Order,6.0,viswhere,stimulus/viswhere_stim/blank_white.png,stimulus/viswhere_stim/blank_white.png,stimulus/viswhere_stim/90-deg_dot-right_lightsseagreen.png,stimulus/viswhere_stim/90-deg_dot-left_turquoise.png,stimulus/viswhere_stim/blank_white.png,stimulus/viswhere_stim/line_box.png,stimulus/viswhere_stim/line_yes.png,stimulus/viswhere_stim/line_no.png,None,Line,None,Line,1,0.0,0,5.125,0,5.125,0,5.125,0,0.0,0.625,0,0.0,0,0.0,1,0.5,1,2.125,0,0.0,0,0.0,0,0.0,0,0.0,0,,,,,0,41,41,41,,,,,,,,,383.1174702089993,383.1174702089993,383.1174702089993,383.1174702089993,383.1174702089993,383.1174702089993,383.1174702089993,383.1174702089993,383.09274025066645,383.1174702089993,383.1174702089993,383.1174702089993,383.09274025066645,383.1174702089993,383.1174702089993,383.1174702089993,385.22737908400086,389.1846120000009,383.1174702089993,383.1174702089993,388.2407579589999,383.58685029200024,384.60188299999936,385.22737908400086,386.2470940839994,383.1174702089993,383.1174702089993,383.10940691733316,383.1174702089993,383.1174702089993,383.1174702089993,383.10940691733316,383.1174702089993,383.1174702089993,388.2407579589999,383.1174702089993,388.2407579589999,388.3435446250005,388.9664482089993,383.1174702089993,1,1,1.1345765409987507,reldom2_s002,001,2025-01-23_15h25.00.305,Where-A-Scan_AC,2022.2.5,None,
32,First_Order,6.0,viswhere,stimulus/viswhere_stim/blank_white.png,stimulus/viswhere_stim/blank_white.png,stimulus/viswhere_stim/30-deg_dot-right_goldenrod.png,stimulus/viswhere_stim/30-deg_dot-left_seagreen.png,stimulus/viswhere_stim/blank_white.png,stimulus/viswhere_stim/dot_box.png,stimulus/viswhere_stim/dot_yes.png,stimulus/viswhere_stim/dot_no.png,None,Dot,None,Line,2,0.0,0,5.125,0,5.125,0,5.125,0,0.0,0.625,0,0.0,0,0.0,1,0.5,1,2.125,0,0.0,0,0.0,0,0.0,0,0.0,0,,,,,0,42,42,42,,,,,,,,,389.1846120000009,389.1846120000009,389.1846120000009,389.1846120000009,389.1846120000009,389.1846120000009,389.1846120000009,389.1846120000009,389.1613213753329,389.1846120000009,389.1846120000009,389.1846120000009,389.1613213753329,389.1846120000009,389.1846120000009,389.1846120000009,391.2836103749996,395.2514355839994,389.1846120000009,389.1846120000009,394.3204299169993,389.6704254590004,390.68078216700087,391.2836103749996,392.2995995839992,389.1846120000009,389.1846120000009,389.1779880419995,389.1846120000009,389.1846120000009,389.1846120000009,389.1779880419995,389.1846120000009,389.1846120000009,394.3204299169993,389.1846120000009,394.3204299169993,394.40426545899936,395.0331996669993,389.1846120000009,2,1,0.7789574579983309,reldom2_s002,001,2025-01-23_15h25.00.305,Where-A-Scan_AC,2022.2.5,None,
33,First_Order,6.0,viswhere,stimulus/viswhere_stim/blank_white.png,stimulus/viswhere_stim/blank_white.png,stimulus/viswhere_stim/150-deg_dot-left_lightsseagreen.png,stimulus/viswhere_stim/150-deg_dot-right_royalblue.png,stimulus/viswhere_stim/blank_white.png,stimulus/viswhere_stim/dot_box.png,stimulus/viswhere_stim/dot_yes.png,stimulus/viswhere_stim/dot_no.png,None,Dot,None,Line,2,0.0,0,5.125,0,5.125,0,5.125,0,0.0,0.625,0,0.0,0,0.0,1,0.5,1,2.125,0,0.0,0,0.0,0,0.0,0,0.0,0,,,,,0,43,43,43,,,,,,,,,395.2514355839994,395.2514355839994,395.2514355839994,395.2514355839994,395.2514355839994,395.2514355839994,395.2514355839994,395.2514355839994,395.228256167334,395.2514355839994,395.2514355839994,395.2514355839994,395.228256167334,395.2514355839994,395.2514355839994,395.2514355839994,397.35567229200024,401.3164235839995,395.2514355839994,395.2514355839994,400.3865692090003,395.7432988340006,396.74763212499965,397.35567229200024,398.3614122500003,395.2514355839994,395.2514355839994,395.24492283400065,395.2514355839994,395.2514355839994,395.2514355839994,395.24492283400065,395.2514355839994,395.2514355839994,400.3865692090003,395.2514355839994,400.3865692090003,400.4713664589999,401.1088024590008,395.2514355839994,2,1,1.2335326249994978,reldom2_s002,001,2025-01-23_15h25.00.305,Where-A-Scan_AC,2022.2.5,None,
34,First_Order,6.0,viswhere,stimulus/viswhere_stim/blank_white.png,stimulus/viswhere_stim/blank_white.png,stimulus/viswhere_stim/120-deg_dot-left_peru.png,stimulus/viswhere_stim/90-deg_dot-left_royalblue.png,stimulus/viswhere_stim/blank_white.png,stimulus/viswhere_stim/line_box.png,stimulus/viswhere_stim/line_yes.png,stimulus/viswhere_stim/line_no.png,None,Line,None,Dot,2,0.0,0,5.125,0,5.125,0,5.125,0,0.0,0.625,0,0.0,0,0.0,1,0.5,1,2.125,0,0.0,0,0.0,0,0.0,0,0.0,0,,,,,0,44,44,44,,,,,,,,,401.3164235839995,401.3164235839995,401.3164235839995,401.3164235839995,401.3164235839995,401.3164235839995,401.3164235839995,401.3164235839995,401.2923262923335,401.3164235839995,401.3164235839995,401.3164235839995,401.2923262923335,401.3164235839995,401.3164235839995,401.3164235839995,403.42405854199933,407.4675042500003,401.3164235839995,401.3164235839995,406.45043358399926,401.804948084,402.82192908400066,403.42405854199933,404.4421691250009,401.3164235839995,401.3164235839995,401.30899295900014,401.3164235839995,401.3164235839995,401.3164235839995,401.30899295900014,401.3164235839995,401.3164235839995,406.45043358399926,401.3164235839995,406.45043358399926,406.5354613340005,407.1696787920009,401.3164235839995,None,0,,reldom2_s002,001,2025-01-23_15h25.00.305,Where-A-Scan_AC,2022.2.5,None,
0,0.0,None,fixation,stimulus/viswhere_stim/blank_white.png,stimulus/viswhere_stim/blank_white.png,stimulus/audwhere_stim/blank_white.png,stimulus/audwhere_stim/blank_white.png,stimulus/viswhere_stim/blank_white.png,stimulus/viswhere_stim/blank_white.png,stimulus/viswhere_stim/blank_white.png,stimulus/viswhere_stim/blank_white.png,0.0,0.0,0.0,0.0,0,0.0,0,0.0,0,0.0,0,0.0,0,0.0,0.0,0,0.0,0,0.0,0,0.0,0,0.0,0,0.0,0,0.0,0,0.0,0,0.0,10,,,,,0,45,45,45,,,,,,,,,407.4675042500003,407.4675042500003,407.4675042500003,407.4675042500003,407.4675042500003,407.4675042500003,407.4675042500003,407.4675042500003,407.36431391733396,407.4675042500003,407.4675042500003,407.4675042500003,407.36431391733396,407.4675042500003,407.4675042500003,407.4675042500003,407.4675042500003,407.4675042500003,407.4675042500003,407.4675042500003,407.4675042500003,407.4675042500003,407.4675042500003,407.4675042500003,407.4675042500003,407.4675042500003,407.4675042500003,407.41431391733397,407.4675042500003,407.4675042500003,407.4675042500003,407.41431391733397,407.4675042500003,407.4675042500003,407.4675042500003,407.4675042500003,407.4675042500003,412.69200287499916,412.69200287499916,417.60679204200096,None,0,,reldom2_s002,001,2025-01-23_15h25.00.305,Where-A-Scan_AC,2022.2.5,None,
35,Second_Order,6.0,viswhere,stimulus/viswhere_stim/60-deg_dot-right_mediumslateblue.png,stimulus/viswhere_stim/150-deg_dot-right_turquoise.png,stimulus/viswhere_stim/90-deg_dot-right_slateblue.png,stimulus/viswhere_stim/90-deg_dot-left_seagreen.png,stimulus/viswhere_stim/match_blank.png,stimulus/viswhere_stim/match_box.png,stimulus/viswhere_stim/match_yes.png,stimulus/viswhere_stim/match_no.png,2.0,Match,Dot,Line,2,5.125,0,5.125,0,5.125,0,5.125,0,0.75,0.75,1,0.5,1,2.125,1,0.5,1,2.125,0,0.0,0,0.0,0,0.0,0,0.0,0,,,,,0,46,46,46,,,,,,,,,417.60679204200096,422.7307292919995,418.0860391669994,419.08459691700045,419.70702291700036,420.70462699999916,417.60679204200096,417.60679204200096,417.6173846673338,417.60679204200096,417.60679204200096,417.60679204200096,417.6173846673338,417.60679204200096,422.7307292919995,423.51135350000004,425.61014112500015,429.4956779999993,423.51135350000004,423.51135350000004,428.63897929199993,423.98253008400025,424.9847232920001,425.61014112500015,426.61741420900034,423.51135350000004,423.51135350000004,423.4987449173336,423.51135350000004,423.51135350000004,423.51135350000004,423.4987449173336,423.51135350000004,423.51135350000004,428.63897929199993,423.51135350000004,428.63897929199993,428.7391743339995,,423.51135350000004,2,1,0.5630521240000235,reldom2_s002,001,2025-01-23_15h25.00.305,Where-A-Scan_AC,2022.2.5,None,
36,Second_Order,6.0,viswhere,stimulus/viswhere_stim/120-deg_dot-left_royalblue.png,stimulus/viswhere_stim/120-deg_dot-right_cyan.png,stimulus/viswhere_stim/90-deg_dot-left_slateblue.png,stimulus/viswhere_stim/90-deg_dot-right_turquoise.png,stimulus/viswhere_stim/match_blank.png,stimulus/viswhere_stim/match_box.png,stimulus/viswhere_stim/match_yes.png,stimulus/viswhere_stim/match_no.png,1.0,Match,Line,Line,1,5.125,0,5.125,0,5.125,0,5.125,0,0.625,0.625,1,0.5,1,2.125,1,0.5,1,2.125,0,0.0,0,0.0,0,0.0,0,0.0,0,,,,,0,47,47,47,,,,,,,,,429.4956779999993,434.60776799999985,429.9805526250002,430.97820879199935,431.60166466699957,432.59894920899933,429.4956779999993,429.4956779999993,429.50742570900076,429.4956779999993,429.4956779999993,429.4956779999993,429.50742570900076,429.4956779999993,434.60776799999985,435.2653346669995,437.3605962500005,441.4064457500008,435.2653346669995,435.2653346669995,440.4022482920009,435.73475283399966,436.7545160000009,437.3605962500005,438.3648350420008,435.2653346669995,435.2653346669995,435.2550376673339,435.2653346669995,435.2653346669995,435.2653346669995,435.2550376673339,435.2653346669995,435.2653346669995,440.4022482920009,435.2653346669995,440.4022482920009,440.4774665420009,441.10635566699966,435.2653346669995,1,1,0.5191094570000132,reldom2_s002,001,2025-01-23_15h25.00.305,Where-A-Scan_AC,2022.2.5,None,
0,0.0,None,fixation,stimulus/viswhere_stim/blank_white.png,stimulus/viswhere_stim/blank_white.png,stimulus/audwhere_stim/blank_white.png,stimulus/audwhere_stim/blank_white.png,stimulus/viswhere_stim/blank_white.png,stimulus/viswhere_stim/blank_white.png,stimulus/viswhere_stim/blank_white.png,stimulus/viswhere_stim/blank_white.png,0.0,0.0,0.0,0.0,0,0.0,0,0.0,0,0.0,0,0.0,0,0.0,0.0,0,0.0,0,0.0,0,0.0,0,0.0,0,0.0,0,0.0,0,0.0,0,0.0,9,,,,,0,48,48,48,,,,,,,,,441.4064457500008,441.4064457500008,441.4064457500008,441.4064457500008,441.4064457500008,441.4064457500008,441.4064457500008,441.4064457500008,441.3011173333337,441.4064457500008,441.4064457500008,441.4064457500008,441.3011173333337,441.4064457500008,441.4064457500008,441.4064457500008,441.4064457500008,441.4064457500008,441.4064457500008,441.4064457500008,441.4064457500008,441.4064457500008,441.4064457500008,441.4064457500008,441.4064457500008,441.4064457500008,441.4064457500008,441.3511173333337,441.4064457500008,441.4064457500008,441.4064457500008,441.3511173333337,441.4064457500008,441.4064457500008,441.4064457500008,441.4064457500008,441.4064457500008,446.6281857089998,446.6281857089998,450.6794607089996,None,0,,reldom2_s002,001,2025-01-23_15h25.00.305,Where-A-Scan_AC,2022.2.5,None,
37,First_Order,7.0,audwhere,stimulus/audwhere_stim/dummy.wav,stimulus/audwhere_stim/dummy.wav,stimulus/audwhere_stim/left_toward_280h.wav,stimulus/audwhere_stim/left_away_290h.wav,stimulus/audwhere_stim/blank_white.png,stimulus/audwhere_stim/direction_box.png,stimulus/audwhere_stim/direction_yes.png,stimulus/audwhere_stim/direction_no.png,None,Direction,None,Side,2,0.0,0,5.125,0,5.125,0,5.125,0,0.0,0.625,0,0.0,0,0.0,0,0.0,0,0.0,0,0.0,0,0.0,1,0.5,1,2.125,0,,,,,0,49,49,49,,,,,,,,,450.6794607089996,450.6794607089996,450.6794607089996,450.6794607089996,450.6794607089996,450.6794607089996,450.6794607089996,450.6794607089996,450.60254658366705,450.6794607089996,450.6794607089996,450.6794607089996,450.60254658366705,450.6794607089996,450.6794607089996,450.6794607089996,452.77098933399975,,450.6794607089996,450.6794607089996,455.86231641700033,450.6794607089996,450.6794607089996,450.6794607089996,450.6794607089996,451.1564847919999,452.20139270899926,451.1250803756668,,452.77098933399975,453.82188162500097,452.73849429166717,453.774379167,450.6794607089996,455.86231641700033,450.6794607089996,455.86231641700033,455.90376500000093,456.5702843750005,450.6794607089996,2,1,1.140326290998928,reldom2_s002,001,2025-01-23_15h25.00.305,Where-A-Scan_AC,2022.2.5,None,
38,First_Order,7.0,audwhere,stimulus/audwhere_stim/dummy.wav,stimulus/audwhere_stim/dummy.wav,stimulus/audwhere_stim/left_away_300h.wav,stimulus/audwhere_stim/right_away_280h.wav,stimulus/audwhere_stim/blank_white.png,stimulus/audwhere_stim/side_box.png,stimulus/audwhere_stim/side_yes.png,stimulus/audwhere_stim/side_no.png,None,Side,None,Direction,2,0.0,0,5.125,0,5.125,0,5.125,0,0.0,0.625,0,0.0,0,0.0,0,0.0,0,0.0,0,0.0,0,0.0,1,0.5,1,2.125,0,,,,,0,50,50,50,,,,,,,,,456.79005370900086,456.79005370900086,456.79005370900086,456.79005370900086,456.79005370900086,456.79005370900086,456.79005370900086,456.79005370900086,456.7036177083338,456.79005370900086,456.79005370900086,456.79005370900086,456.7036177083338,456.79005370900086,456.79005370900086,456.79005370900086,458.8687696249999,462.9096088339993,456.79005370900086,456.79005370900086,461.98510850000093,456.79005370900086,456.79005370900086,456.79005370900086,456.79005370900086,457.2632054170008,458.3015128749994,457.2329152916666,,458.8687696249999,459.91118233400084,458.83794000066723,,456.79005370900086,461.98510850000093,456.79005370900086,461.98510850000093,461.98510850000093,462.6501306249993,456.79005370900086,2,1,0.5612669159982033,reldom2_s002,001,2025-01-23_15h25.00.305,Where-A-Scan_AC,2022.2.5,None,
39,First_Order,7.0,audwhere,stimulus/audwhere_stim/dummy.wav,stimulus/audwhere_stim/dummy.wav,stimulus/audwhere_stim/right_toward_280h.wav,stimulus/audwhere_stim/right_away_300h.wav,stimulus/audwhere_stim/blank_white.png,stimulus/audwhere_stim/side_box.png,stimulus/audwhere_stim/side_yes.png,stimulus/audwhere_stim/side_no.png,None,Side,None,Side,1,0.0,0,5.125,0,5.125,0,5.125,0,0.0,0.625,0,0.0,0,0.0,0,0.0,0,0.0,0,0.0,0,0.0,1,0.5,1,2.125,0,,,,,0,51,51,51,,,,,,,,,462.9096088339993,462.9096088339993,462.9096088339993,462.9096088339993,462.9096088339993,462.9096088339993,462.9096088339993,462.9096088339993,462.8249745003342,462.9096088339993,462.9096088339993,462.9096088339993,462.8249745003342,462.9096088339993,462.9096088339993,462.9096088339993,464.98737687500034,469.0250316670008,462.9096088339993,462.9096088339993,468.10193912499926,462.9096088339993,462.9096088339993,462.9096088339993,462.9096088339993,463.3815018339992,464.4196555840008,463.35070475066664,,464.98737687500034,466.0269977499993,464.9566079586659,,462.9096088339993,468.10193912499926,462.9096088339993,468.10193912499926,468.10193912499926,468.76798212500034,462.9096088339993,1,1,2.1803518739980063,reldom2_s002,001,2025-01-23_15h25.00.305,Where-A-Scan_AC,2022.2.5,None,
40,First_Order,7.0,audwhere,stimulus/audwhere_stim/dummy.wav,stimulus/audwhere_stim/dummy.wav,stimulus/audwhere_stim/left_away_280h.wav,stimulus/audwhere_stim/left_toward_300h.wav,stimulus/audwhere_stim/blank_white.png,stimulus/audwhere_stim/side_box.png,stimulus/audwhere_stim/side_yes.png,stimulus/audwhere_stim/side_no.png,None,Side,None,Side,1,0.0,0,5.125,0,5.125,0,5.125,0,0.0,0.625,0,0.0,0,0.0,0,0.0,0,0.0,0,0.0,0,0.0,1,0.5,1,2.125,0,,,,,0,52,52,52,,,,,,,,,469.0250316670008,469.0250316670008,469.0250316670008,469.0250316670008,469.0250316670008,469.0250316670008,469.0250316670008,469.0250316670008,468.9428782923334,469.0250316670008,469.0250316670008,469.0250316670008,468.9428782923334,469.0250316670008,469.0250316670008,469.0250316670008,471.103181167,475.1718746250008,469.0250316670008,469.0250316670008,474.21959612499995,469.0250316670008,469.0250316670008,469.0250316670008,469.0250316670008,469.49684524999975,470.53626470900053,469.46616954166734,,471.103181167,472.14716749999934,471.072425458666,,469.0250316670008,474.21959612499995,469.0250316670008,474.21959612499995,474.21959612499995,474.88625854199927,469.0250316670008,1,1,0.812437623999358,reldom2_s002,001,2025-01-23_15h25.00.305,Where-A-Scan_AC,2022.2.5,None,
0,0.0,None,fixation,stimulus/viswhere_stim/blank_white.png,stimulus/viswhere_stim/blank_white.png,stimulus/audwhere_stim/blank_white.png,stimulus/audwhere_stim/blank_white.png,stimulus/viswhere_stim/blank_white.png,stimulus/viswhere_stim/blank_white.png,stimulus/viswhere_stim/blank_white.png,stimulus/viswhere_stim/blank_white.png,0.0,0.0,0.0,0.0,0,0.0,0,0.0,0,0.0,0,0.0,0,0.0,0.0,0,0.0,0,0.0,0,0.0,0,0.0,0,0.0,0,0.0,0,0.0,0,0.0,8,,,,,0,53,53,53,,,,,,,,,475.1718746250008,475.1718746250008,475.1718746250008,475.1718746250008,475.1718746250008,475.1718746250008,475.1718746250008,475.1718746250008,475.0614032503328,475.1718746250008,475.1718746250008,475.1718746250008,475.0614032503328,475.1718746250008,475.1718746250008,475.1718746250008,475.1718746250008,475.1718746250008,475.1718746250008,475.1718746250008,475.1718746250008,475.1718746250008,475.1718746250008,475.1718746250008,475.1718746250008,475.1718746250008,475.1718746250008,475.12806991699944,475.1718746250008,475.1718746250008,475.1718746250008,475.12806991699944,475.1718746250008,475.1718746250008,475.1718746250008,475.1718746250008,475.1718746250008,480.40089287500086,480.40089287500086,483.32554741700005,None,0,,reldom2_s002,001,2025-01-23_15h25.00.305,Where-A-Scan_AC,2022.2.5,None,
41,Second_Order,7.0,audwhere,stimulus/audwhere_stim/left_away_300h.wav,stimulus/audwhere_stim/left_toward_300h.wav,stimulus/audwhere_stim/right_away_290h.wav,stimulus/audwhere_stim/right_toward_290h.wav,stimulus/viswhere_stim/match_blank.png,stimulus/audwhere_stim/match_box.png,stimulus/viswhere_stim/match_yes.png,stimulus/viswhere_stim/match_no.png,1.0,Match,Side,Side,1,5.125,0,5.125,0,5.125,0,5.125,0,0.75,0.75,0,0.0,0,0.0,0,0.0,0,0.0,1,0.5,1,2.125,1,0.5,1,2.125,0,,,,,0,54,54,54,,,,,,,,,483.32554741700005,488.44875833399965,483.32554741700005,483.32554741700005,483.32554741700005,483.32554741700005,483.78392770900064,484.7736997920001,483.7868951666662,484.7856571249995,485.40961154199977,486.4062164999996,485.42062387566716,486.41466429200045,488.44875833399965,489.2817959999993,491.36061549999977,,489.2817959999993,489.2817959999993,494.4767102500009,489.2817959999993,489.2817959999993,489.2817959999993,489.2817959999993,489.75429287500083,490.7932203340006,489.72340583366736,,491.36061549999977,492.40309029200034,491.330144208667,,489.2817959999993,494.4767102500009,489.2817959999993,494.4767102500009,494.4767102500009,,489.2817959999993,2,0,0.8619536659989535,reldom2_s002,001,2025-01-23_15h25.00.305,Where-A-Scan_AC,2022.2.5,None,
42,Second_Order,7.0,audwhere,stimulus/audwhere_stim/left_away_280h.wav,stimulus/audwhere_stim/right_away_270h.wav,stimulus/audwhere_stim/right_toward_270h.wav,stimulus/audwhere_stim/left_toward_280h.wav,stimulus/viswhere_stim/match_blank.png,stimulus/audwhere_stim/match_box.png,stimulus/viswhere_stim/match_yes.png,stimulus/viswhere_stim/match_no.png,1.0,Match,Direction,Direction,1,5.125,0,5.125,0,5.125,0,5.125,0,0.625,0.625,0,0.0,0,0.0,0,0.0,0,0.0,1,0.5,1,2.125,1,0.5,1,2.125,0,,,,,0,55,55,55,,,,,,,,,495.2653840839994,500.38899225000023,495.2653840839994,495.2653840839994,495.2653840839994,495.2653840839994,495.71475199999986,496.7006673340002,495.7275262086662,496.72092183399945,497.3484102090006,498.3379444170005,497.35239183366707,498.350622209,500.38899225000023,501.10248491700077,503.17827662499985,507.2308923340006,501.10248491700077,501.10248491700077,506.2861637090009,501.10248491700077,501.10248491700077,501.10248491700077,501.10248491700077,501.5733680840003,502.61005220900006,501.5426126666664,,503.17827662499985,504.2158794999996,503.14772987566744,,501.10248491700077,506.2861637090009,501.10248491700077,506.2861637090009,506.2861637090009,506.95200204200046,501.10248491700077,2,0,2.9429806239986647,reldom2_s002,001,2025-01-23_15h25.00.305,Where-A-Scan_AC,2022.2.5,None,
0,0.0,None,fixation,stimulus/viswhere_stim/blank_white.png,stimulus/viswhere_stim/blank_white.png,stimulus/audwhere_stim/blank_white.png,stimulus/audwhere_stim/blank_white.png,stimulus/viswhere_stim/blank_white.png,stimulus/viswhere_stim/blank_white.png,stimulus/viswhere_stim/blank_white.png,stimulus/viswhere_stim/blank_white.png,0.0,0.0,0.0,0.0,0,0.0,0,0.0,0,0.0,0,0.0,0,0.0,0.0,0,0.0,0,0.0,0,0.0,0,0.0,0,0.0,0,0.0,0,0.0,0,0.0,10,,,,,0,56,56,56,,,,,,,,,507.2308923340006,507.2308923340006,507.2308923340006,507.2308923340006,507.2308923340006,507.2308923340006,507.2308923340006,507.2308923340006,507.12593862533333,507.2308923340006,507.2308923340006,507.2308923340006,507.12593862533333,507.2308923340006,507.2308923340006,507.2308923340006,507.2308923340006,507.2308923340006,507.2308923340006,507.2308923340006,507.2308923340006,507.2308923340006,507.2308923340006,507.2308923340006,507.2308923340006,507.2308923340006,507.2308923340006,507.192605292,507.2308923340006,507.2308923340006,507.2308923340006,507.192605292,507.2308923340006,507.2308923340006,507.2308923340006,507.2308923340006,507.2308923340006,512.4347558339996,512.4347558339996,517.4681638340007,None,0,,reldom2_s002,001,2025-01-23_15h25.00.305,Where-A-Scan_AC,2022.2.5,None,
43,First_Order,8.0,audwhere,stimulus/audwhere_stim/dummy.wav,stimulus/audwhere_stim/dummy.wav,stimulus/audwhere_stim/left_away_270h.wav,stimulus/audwhere_stim/right_away_300h.wav,stimulus/audwhere_stim/blank_white.png,stimulus/audwhere_stim/direction_box.png,stimulus/audwhere_stim/direction_yes.png,stimulus/audwhere_stim/direction_no.png,None,Direction,None,Direction,1,0.0,0,5.125,0,5.125,0,5.125,0,0.0,0.625,0,0.0,0,0.0,0,0.0,0,0.0,0,0.0,0,0.0,1,0.5,1,2.125,0,,,,,0,57,57,57,,,,,,,,,517.4681638340007,517.4681638340007,517.4681638340007,517.4681638340007,517.4681638340007,517.4681638340007,517.4681638340007,517.4681638340007,517.3887374586672,517.4681638340007,517.4681638340007,517.4681638340007,517.3887374586672,517.4681638340007,517.4681638340007,517.4681638340007,519.5580869999994,,517.4681638340007,517.4681638340007,522.6414330000007,517.4681638340007,517.4681638340007,517.4681638340007,517.4681638340007,517.9436547090008,518.9887148750004,517.9127835006659,,519.5580869999994,520.6050337920005,519.5269721666666,,517.4681638340007,522.6414330000007,517.4681638340007,522.6414330000007,522.6831938340001,523.3522729590004,517.4681638340007,1,1,0.957623665999563,reldom2_s002,001,2025-01-23_15h25.00.305,Where-A-Scan_AC,2022.2.5,None,
44,First_Order,8.0,audwhere,stimulus/audwhere_stim/dummy.wav,stimulus/audwhere_stim/dummy.wav,stimulus/audwhere_stim/left_toward_300h.wav,stimulus/audwhere_stim/left_away_280h.wav,stimulus/audwhere_stim/blank_white.png,stimulus/audwhere_stim/direction_box.png,stimulus/audwhere_stim/direction_yes.png,stimulus/audwhere_stim/direction_no.png,None,Direction,None,Side,2,0.0,0,5.125,0,5.125,0,5.125,0,0.0,0.625,0,0.0,0,0.0,0,0.0,0,0.0,0,0.0,0,0.0,1,0.5,1,2.125,0,,,,,0,58,58,58,,,,,,,,,523.5716761669992,523.5716761669992,523.5716761669992,523.5716761669992,523.5716761669992,523.5716761669992,523.5716761669992,523.5716761669992,523.5022729590004,523.5716761669992,523.5716761669992,523.5716761669992,523.5022729590004,523.5716761669992,523.5716761669992,523.5716761669992,525.6580020000001,,523.5716761669992,523.5716761669992,528.7428412089994,523.5716761669992,523.5716761669992,523.5716761669992,523.5716761669992,524.0454307920008,525.0896833749994,524.0147195836673,,525.6580020000001,526.7019973339993,525.6274891256674,,523.5716761669992,528.7428412089994,523.5716761669992,528.7428412089994,528.7853321670009,529.4535874169997,523.5716761669992,1,0,1.3082904989987583,reldom2_s002,001,2025-01-23_15h25.00.305,Where-A-Scan_AC,2022.2.5,None,
45,First_Order,8.0,audwhere,stimulus/audwhere_stim/dummy.wav,stimulus/audwhere_stim/dummy.wav,stimulus/audwhere_stim/right_away_290h.wav,stimulus/audwhere_stim/left_away_280h.wav,stimulus/audwhere_stim/blank_white.png,stimulus/audwhere_stim/side_box.png,stimulus/audwhere_stim/side_yes.png,stimulus/audwhere_stim/side_no.png,None,Side,None,Direction,2,0.0,0,5.125,0,5.125,0,5.125,0,0.0,0.625,0,0.0,0,0.0,0,0.0,0,0.0,0,0.0,0,0.0,1,0.5,1,2.125,0,,,,,0,59,59,59,,,,,,,,,529.6703959589995,529.6703959589995,529.6703959589995,529.6703959589995,529.6703959589995,529.6703959589995,529.6703959589995,529.6703959589995,529.586920750333,529.6703959589995,529.6703959589995,529.6703959589995,529.586920750333,529.6703959589995,529.6703959589995,529.6703959589995,531.7480767090001,,529.6703959589995,529.6703959589995,534.8194382090005,529.6703959589995,529.6703959589995,529.6703959589995,529.6703959589995,530.1426674590002,531.182767667,530.1120361256674,,531.7480767090001,532.7927479169994,531.7172311666675,,529.6703959589995,534.8194382090005,529.6703959589995,534.8194382090005,534.8611240419996,535.5253379589994,529.6703959589995,2,1,0.4884166239990009,reldom2_s002,001,2025-01-23_15h25.00.305,Where-A-Scan_AC,2022.2.5,None,
46,First_Order,8.0,audwhere,stimulus/audwhere_stim/dummy.wav,stimulus/audwhere_stim/dummy.wav,stimulus/audwhere_stim/left_away_270h.wav,stimulus/audwhere_stim/right_away_290h.wav,stimulus/audwhere_stim/blank_white.png,stimulus/audwhere_stim/direction_box.png,stimulus/audwhere_stim/direction_yes.png,stimulus/audwhere_stim/direction_no.png,None,Direction,None,Direction,1,0.0,0,5.125,0,5.125,0,5.125,0,0.0,0.625,0,0.0,0,0.0,0,0.0,0,0.0,0,0.0,0,0.0,1,0.5,1,2.125,0,,,,,0,60,60,60,,,,,,,,,535.7883336670002,535.7883336670002,535.7883336670002,535.7883336670002,535.7883336670002,535.7883336670002,535.7883336670002,535.7883336670002,535.700340708334,535.7883336670002,535.7883336670002,535.7883336670002,535.700340708334,535.7883336670002,535.7883336670002,535.7883336670002,537.8836126669994,,535.7883336670002,535.7883336670002,540.9743775000006,535.7883336670002,535.7883336670002,535.7883336670002,535.7883336670002,536.2649140419999,537.3159390000001,536.234411333666,537.2687492090008,537.8836126669994,538.936632125,537.8529920416661,538.8890879169994,535.7883336670002,540.9743775000006,535.7883336670002,540.9743775000006,541.0160169169994,541.6832311670005,535.7883336670002,2,0,0.9237100829977862,reldom2_s002,001,2025-01-23_15h25.00.305,Where-A-Scan_AC,2022.2.5,None,
0,0.0,None,fixation,stimulus/viswhere_stim/blank_white.png,stimulus/viswhere_stim/blank_white.png,stimulus/audwhere_stim/blank_white.png,stimulus/audwhere_stim/blank_white.png,stimulus/viswhere_stim/blank_white.png,stimulus/viswhere_stim/blank_white.png,stimulus/viswhere_stim/blank_white.png,stimulus/viswhere_stim/blank_white.png,0.0,0.0,0.0,0.0,0,0.0,0,0.0,0,0.0,0,0.0,0,0.0,0.0,0,0.0,0,0.0,0,0.0,0,0.0,0,0.0,0,0.0,0,0.0,0,0.0,9,,,,,0,61,61,61,,,,,,,,,541.9222087090002,541.9222087090002,541.9222087090002,541.9222087090002,541.9222087090002,541.9222087090002,541.9222087090002,541.9222087090002,541.8165645003338,541.9222087090002,541.9222087090002,541.9222087090002,541.8165645003338,541.9222087090002,541.9222087090002,541.9222087090002,541.9222087090002,541.9222087090002,541.9222087090002,541.9222087090002,541.9222087090002,541.9222087090002,541.9222087090002,541.9222087090002,541.9222087090002,541.9222087090002,541.9222087090002,541.8832311670004,541.9222087090002,541.9222087090002,541.9222087090002,541.8832311670004,541.9222087090002,541.9222087090002,541.9222087090002,541.9222087090002,541.9222087090002,547.155849584,547.155849584,551.1051912090006,None,0,,reldom2_s002,001,2025-01-23_15h25.00.305,Where-A-Scan_AC,2022.2.5,None,
47,Second_Order,8.0,audwhere,stimulus/audwhere_stim/right_away_280h.wav,stimulus/audwhere_stim/left_away_290h.wav,stimulus/audwhere_stim/right_toward_300h.wav,stimulus/audwhere_stim/right_away_300h.wav,stimulus/viswhere_stim/match_blank.png,stimulus/audwhere_stim/match_box.png,stimulus/viswhere_stim/match_yes.png,stimulus/viswhere_stim/match_no.png,2.0,Match,Direction,Side,2,5.125,0,5.125,0,5.125,0,5.125,0,0.75,0.75,0,0.0,0,0.0,0,0.0,0,0.0,1,0.5,1,2.125,1,0.5,1,2.125,0,,,,,0,62,62,62,,,,,,,,,551.1051912090006,556.2219977500008,551.1051912090006,551.1051912090006,551.1051912090006,551.1051912090006,551.5606762499992,552.5590891669999,551.5730094586672,552.5668015419997,553.1824892500008,554.1796071669996,553.1939769586663,554.1880858749992,556.2219977500008,557.0546654589998,559.1323597089995,563.0719121250004,557.0546654589998,557.0546654589998,562.2465355420009,557.0546654589998,557.0546654589998,557.0546654589998,557.0546654589998,557.5260382920005,558.5651552500003,557.495108000667,,559.1323597089995,560.1718309169992,559.1017277916674,,557.0546654589998,562.2465355420009,557.0546654589998,562.2465355420009,562.2465355420009,,557.0546654589998,2,1,1.322705707998466,reldom2_s002,001,2025-01-23_15h25.00.305,Where-A-Scan_AC,2022.2.5,None,
48,Second_Order,8.0,audwhere,stimulus/audwhere_stim/left_away_280h.wav,stimulus/audwhere_stim/right_away_290h.wav,stimulus/audwhere_stim/left_toward_280h.wav,stimulus/audwhere_stim/right_toward_300h.wav,stimulus/viswhere_stim/match_blank.png,stimulus/audwhere_stim/match_box.png,stimulus/viswhere_stim/match_yes.png,stimulus/viswhere_stim/match_no.png,1.0,Match,Direction,Direction,1,5.125,0,5.125,0,5.125,0,5.125,0,0.625,0.625,0,0.0,0,0.0,0,0.0,0,0.0,1,0.5,1,2.125,1,0.5,1,2.125,0,,,,,0,63,63,63,,,,,,,,,563.0719121250004,568.1949353340005,563.0719121250004,563.0719121250004,563.0719121250004,563.0719121250004,563.5216320840009,564.5194845839997,563.534266083667,564.5274524590004,565.1547559999999,566.1435016249998,565.1583765006674,566.156559084,568.1949353340005,568.9057444589998,570.9725920420005,,568.9057444589998,568.9057444589998,574.0803981249992,568.9057444589998,568.9057444589998,568.9057444589998,568.9057444589998,569.3753927090002,570.4088408749994,569.344951250667,,570.9725920420005,572.0104552089997,570.9424149586669,,568.9057444589998,574.0803981249992,568.9057444589998,574.0803981249992,574.1221288750003,574.7870993340002,568.9057444589998,1,1,1.1399184160000004,reldom2_s002,001,2025-01-23_15h25.00.305,Where-A-Scan_AC,2022.2.5,None,
0,0.0,None,fixation,stimulus/viswhere_stim/blank_white.png,stimulus/viswhere_stim/blank_white.png,stimulus/audwhere_stim/blank_white.png,stimulus/audwhere_stim/blank_white.png,stimulus/viswhere_stim/blank_white.png,stimulus/viswhere_stim/blank_white.png,stimulus/viswhere_stim/blank_white.png,stimulus/viswhere_stim/blank_white.png,0.0,0.0,0.0,0.0,0,0.0,0,0.0,0,0.0,0,0.0,0,0.0,0.0,0,0.0,0,0.0,0,0.0,0,0.0,0,0.0,0,0.0,0,0.0,0,0.0,16,,,,,0,64,64,64,,,,,,,,,575.0260924590002,575.0260924590002,575.0260924590002,575.0260924590002,575.0260924590002,575.0260924590002,575.0260924590002,575.0260924590002,574.9204326673336,575.0260924590002,575.0260924590002,575.0260924590002,574.9204326673336,575.0260924590002,575.0260924590002,575.0260924590002,575.0260924590002,575.0260924590002,575.0260924590002,575.0260924590002,575.0260924590002,575.0260924590002,575.0260924590002,575.0260924590002,575.0260924590002,575.0260924590002,575.0260924590002,574.9870993340002,575.0260924590002,575.0260924590002,575.0260924590002,574.9870993340002,575.0260924590002,575.0260924590002,575.0260924590002,575.0260924590002,575.0260924590002,580.2282864169993,580.2282864169993,591.1815550419997,None,0,,reldom2_s002,001,2025-01-23_15h25.00.305,Where-A-Scan_AC,2022.2.5,None,
