Trial,Order,Block,Type,Stimuli_File1,Stimuli_File2,Stimuli_File3,Stimuli_File4,Cue_File1,Cue_File2,Response_File_Yes,Response_File_No,Match,Cue_Dimension,Pair1_Dimension,Pair2_Dimension,Key,Cue1_Duration,Cue1_Onset,Cue2_Duration,Cue2_Onset,ResponseYes_Duration,ResponseYes_Onset,ResponseNo_Duration,ResponseNo_Onset,ITI_Within,ITI_Between,Image1_Duration,Image1_Onset,Image2_Duration,Image2_Onset,Image3_Duration,Image3_Onset,Image4_Duration,Image4_Onset,Sound1_Duration,Sound1_Onset,Sound2_Duration,Sound2_Onset,Sound3_Duration,Sound3_Onset,Sound4_Duration,Sound4_Onset,Fixation_Duration,trials_2.thisRepN,trials_2.thisTrialN,trials_2.thisN,trials_2.thisIndex,trials.thisRepN,trials.thisTrialN,trials.thisN,trials.thisIndex,text_start.started,key_resp_start.started,key_resp_start.keys,key_resp_start.rt,text2.started,key_resp_2.started,key_resp_2.keys,key_resp_2.rt,cue_file1.started,cue_file1.stopped,image_1.started,image_1.stopped,image_2.started,image_2.stopped,sound_icon1.started,sound_icon1.stopped,sound_1.started,sound_1.stopped,sound_icon2.started,sound_icon2.stopped,sound_2.started,sound_2.stopped,image_blank_1.started,image_blank_1.stopped,key_press.started,key_press.stopped,fixation_text.started,cue_file2.started,cue_file2.stopped,image_3.started,image_3.stopped,image_4.started,image_4.stopped,sound_icon3.started,sound_icon3.stopped,sound_3.started,sound_3.stopped,sound_icon4.started,sound_icon4.stopped,sound_4.started,sound_4.stopped,response_yes.started,response_yes.stopped,response_no.started,response_no.stopped,iti_blank.started,iti_blank.stopped,fixation_text.stopped,key_press.keys,key_press.corr,key_press.rt,participant,session,date,expName,psychopyVersion,frameRate,
,,,,,,,,,,,,,,,,,,,,,,,,,,,,,,,,,,,,,,,,,,,,,,,,,,,,8.102544375000434,8.102544375000434,2,0.7641288749982778,,,,,,,,,,,,,,,,,,,,,,,,,,,,,,,,,,,,,,,,,,,,,,,,reldom2_s002,001,2025-01-23_15h13.38.681,What-A-Scan_AC,2022.2.5,None,
,,,,,,,,,,,,,,,,,,,,,,,,,,,,,,,,,,,,,,,,,,,,0,0,0,0,,,,,,,,,8.890573874999973,8.890573874999973,5,17.736945040998762,,,,,,,,,,,,,,,,,,,,,,,,,,,,,,,,,,,,,,,,,,,,reldom2_s002,001,2025-01-23_15h13.38.681,What-A-Scan_AC,2022.2.5,None,
,,,,,,,,,,,,,,,,,,,,,,,,,,,,,,,,,,,,,,,,,,,,1,0,1,0,,,,,,,,,26.64488225000059,26.64488225000059,5,1.9835384999987582,,,,,,,,,,,,,,,,,,,,,,,,,,,,,,,,,,,,,,,,,,,,reldom2_s002,001,2025-01-23_15h13.38.681,What-A-Scan_AC,2022.2.5,None,
,,,,,,,,,,,,,,,,,,,,,,,,,,,,,,,,,,,,,,,,,,,,2,0,2,0,,,,,,,,,28.642280583000684,28.642280583000684,5,1.9855466249991878,,,,,,,,,,,,,,,,,,,,,,,,,,,,,,,,,,,,,,,,,,,,reldom2_s002,001,2025-01-23_15h13.38.681,What-A-Scan_AC,2022.2.5,None,
,,,,,,,,,,,,,,,,,,,,,,,,,,,,,,,,,,,,,,,,,,,,3,0,3,0,,,,,,,,,30.637578416000906,30.637578416000906,5,1.99080262499956,,,,,,,,,,,,,,,,,,,,,,,,,,,,,,,,,,,,,,,,,,,,reldom2_s002,001,2025-01-23_15h13.38.681,What-A-Scan_AC,2022.2.5,None,
0,0.0,None,fixation,stimulus/audwhat_stim/blank_white.png,stimulus/audwhat_stim/blank_white.png,stimulus/viswhat_stim/blank_white.png,stimulus/viswhat_stim/blank_white.png,stimulus/audwhat_stim/blank_white.png,stimulus/audwhat_stim/blank_white.png,stimulus/audwhat_stim/blank_white.png,stimulus/audwhat_stim/blank_white.png,0.0,0.0,0.0,0.0,0,0.0,0,0.0,0,0.0,0,0.0,0,0.0,0.0,0,0.0,0,0.0,0,0.0,0,0.0,0,0.0,0,0.0,0,0.0,0,0.0,16,,,,,0,0,0,0,,,,,,,,,32.83341195799949,32.83341195799949,32.83341195799949,32.83341195799949,32.83341195799949,32.83341195799949,32.83341195799949,32.83341195799949,32.735549374999756,32.83341195799949,32.83341195799949,32.83341195799949,32.735549374999756,32.83341195799949,32.83341195799949,32.83341195799949,32.83341195799949,32.83341195799949,32.83341195799949,32.83341195799949,32.83341195799949,32.83341195799949,32.83341195799949,32.83341195799949,32.83341195799949,32.83341195799949,32.83341195799949,32.78554937499975,32.83341195799949,32.83341195799949,32.83341195799949,32.78554937499975,32.83341195799949,32.83341195799949,32.83341195799949,32.83341195799949,32.83341195799949,38.02627570799996,38.02627570799996,49.07733845800067,None,0,,reldom2_s002,001,2025-01-23_15h13.38.681,What-A-Scan_AC,2022.2.5,None,
1,First_Order,1.0,audwhat,stimulus/audwhat_stim/dummy.wav,stimulus/audwhat_stim/dummy.wav,stimulus/audwhat_stim/percussion mallet_low-pitch_Dtri_loud.wav,stimulus/audwhat_stim/percussion xylophone_high-pitch_F_loud.wav,stimulus/audwhat_stim/blank_white.png,stimulus/audwhat_stim/pitch_box.png,stimulus/audwhat_stim/pitch_yes.png,stimulus/audwhat_stim/pitch_no.png,None,Pitch,None,Category,2,0.0,0,5.125,0,5.125,0,5.125,0,0.0,0.625,0,0.0,0,0.0,0,0.0,0,0.0,0,0.0,0,0.0,1,0.5,1,2.125,0,,,,,0,1,1,1,,,,,,,,,49.07733845800067,49.07733845800067,49.07733845800067,49.07733845800067,49.07733845800067,49.07733845800067,49.07733845800067,49.07733845800067,49.00087879099956,49.07733845800067,49.07733845800067,49.07733845800067,49.00087879099956,49.07733845800067,49.07733845800067,49.07733845800067,51.152602707999904,55.199900208001054,49.07733845800067,49.07733845800067,54.248795083000005,49.07733845800067,49.07733845800067,49.07733845800067,49.07733845800067,49.54010308299985,50.59814783299953,49.51008066666715,,51.152602707999904,52.218638333000854,51.12298229166687,52.17274995800108,49.07733845800067,54.248795083000005,49.07733845800067,54.248795083000005,54.28972475000046,54.94249695799954,49.07733845800067,1,0,1.6274749999993219,reldom2_s002,001,2025-01-23_15h13.38.681,What-A-Scan_AC,2022.2.5,None,
2,First_Order,1.0,audwhat,stimulus/audwhat_stim/dummy.wav,stimulus/audwhat_stim/dummy.wav,stimulus/audwhat_stim/percussion xylophone_high-pitch_Dtri_loud.wav,stimulus/audwhat_stim/percussion mallet_low-pitch_D_loud.wav,stimulus/audwhat_stim/blank_white.png,stimulus/audwhat_stim/pitch_box.png,stimulus/audwhat_stim/pitch_yes.png,stimulus/audwhat_stim/pitch_no.png,None,Pitch,None,Category,2,0.0,0,5.125,0,5.125,0,5.125,0,0.0,0.625,0,0.0,0,0.0,0,0.0,0,0.0,0,0.0,0,0.0,1,0.5,1,2.125,0,,,,,0,2,2,2,,,,,,,,,55.199900208001054,55.199900208001054,55.199900208001054,55.199900208001054,55.199900208001054,55.199900208001054,55.199900208001054,55.199900208001054,55.11639416633273,55.199900208001054,55.199900208001054,55.199900208001054,55.11639416633273,55.199900208001054,55.199900208001054,55.199900208001054,57.287167874999795,,55.199900208001054,55.199900208001054,60.34886091599947,55.199900208001054,55.199900208001054,55.199900208001054,55.199900208001054,55.66324591600096,56.731960250001066,55.63388145766682,56.6862067080001,57.287167874999795,58.35415962499974,57.256876124667784,,55.199900208001054,60.34886091599947,55.199900208001054,60.34886091599947,60.390371833000245,61.04610279100052,55.199900208001054,2,1,0.6293937919999735,reldom2_s002,001,2025-01-23_15h13.38.681,What-A-Scan_AC,2022.2.5,None,
3,First_Order,1.0,audwhat,stimulus/audwhat_stim/dummy.wav,stimulus/audwhat_stim/dummy.wav,stimulus/audwhat_stim/percussion mallet_low-pitch_F_loud.wav,stimulus/audwhat_stim/percussion xylophone_high-pitch_Ftri_loud.wav,stimulus/audwhat_stim/blank_white.png,stimulus/audwhat_stim/category_box.png,stimulus/audwhat_stim/category_yes.png,stimulus/audwhat_stim/category_no.png,None,Category,None,Category,1,0.0,0,5.125,0,5.125,0,5.125,0,0.0,0.625,0,0.0,0,0.0,0,0.0,0,0.0,0,0.0,0,0.0,1,0.5,1,2.125,0,,,,,0,3,3,3,,,,,,,,,61.30129645800116,61.30129645800116,61.30129645800116,61.30129645800116,61.30129645800116,61.30129645800116,61.30129645800116,61.30129645800116,61.22004954133275,61.30129645800116,61.30129645800116,61.30129645800116,61.22004954133275,61.30129645800116,61.30129645800116,61.30129645800116,63.40604095799972,,61.30129645800116,61.30129645800116,66.454882,61.30129645800116,61.30129645800116,61.30129645800116,61.30129645800116,61.770461874999455,62.84387066599993,61.73946024966632,,63.40604095799972,64.4454755830011,63.37643612466697,64.4454755830011,61.30129645800116,66.454882,61.30129645800116,66.454882,66.49591820800015,67.15369879100035,61.30129645800116,1,1,1.009278165998694,reldom2_s002,001,2025-01-23_15h13.38.681,What-A-Scan_AC,2022.2.5,None,
4,First_Order,1.0,audwhat,stimulus/audwhat_stim/dummy.wav,stimulus/audwhat_stim/dummy.wav,stimulus/audwhat_stim/percussion mallet_low-pitch_Dtri_loud.wav,stimulus/audwhat_stim/percussion mallet_high-pitch_F_loud.wav,stimulus/audwhat_stim/blank_white.png,stimulus/audwhat_stim/category_box.png,stimulus/audwhat_stim/category_yes.png,stimulus/audwhat_stim/category_no.png,None,Category,None,Category,1,0.0,0,5.125,0,5.125,0,5.125,0,0.0,0.625,0,0.0,0,0.0,0,0.0,0,0.0,0,0.0,0,0.0,1,0.5,1,2.125,0,,,,,0,4,4,4,,,,,,,,,67.4094320410004,67.4094320410004,67.4094320410004,67.4094320410004,67.4094320410004,67.4094320410004,67.4094320410004,67.4094320410004,67.32819087433393,67.4094320410004,67.4094320410004,67.4094320410004,67.32819087433393,67.4094320410004,67.4094320410004,67.4094320410004,69.51743566600089,73.54484608300118,67.4094320410004,67.4094320410004,72.56534616600038,67.4094320410004,67.4094320410004,67.4094320410004,67.4094320410004,67.87747137500082,68.90774437500113,67.84707541666673,,69.51743566600089,70.55046091599979,69.48683491666658,,67.4094320410004,72.56534616600038,67.4094320410004,72.56534616600038,72.60640770800092,73.26731966599982,67.4094320410004,1,1,0.6276745419982035,reldom2_s002,001,2025-01-23_15h13.38.681,What-A-Scan_AC,2022.2.5,None,
0,0.0,None,fixation,stimulus/audwhat_stim/blank_white.png,stimulus/audwhat_stim/blank_white.png,stimulus/viswhat_stim/blank_white.png,stimulus/viswhat_stim/blank_white.png,stimulus/audwhat_stim/blank_white.png,stimulus/audwhat_stim/blank_white.png,stimulus/audwhat_stim/blank_white.png,stimulus/audwhat_stim/blank_white.png,0.0,0.0,0.0,0.0,0,0.0,0,0.0,0,0.0,0,0.0,0,0.0,0.0,0,0.0,0,0.0,0,0.0,0,0.0,0,0.0,0,0.0,0,0.0,0,0.0,10,,,,,0,5,5,5,,,,,,,,,73.54484608300118,73.54484608300118,73.54484608300118,73.54484608300118,73.54484608300118,73.54484608300118,73.54484608300118,73.54484608300118,73.4420016243331,73.54484608300118,73.54484608300118,73.54484608300118,73.4420016243331,73.54484608300118,73.54484608300118,73.54484608300118,73.54484608300118,73.54484608300118,73.54484608300118,73.54484608300118,73.54484608300118,73.54484608300118,73.54484608300118,73.54484608300118,73.54484608300118,73.54484608300118,73.54484608300118,73.49200162433311,73.54484608300118,73.54484608300118,73.54484608300118,73.49200162433311,73.54484608300118,73.54484608300118,73.54484608300118,73.54484608300118,73.54484608300118,78.77174116599963,78.77174116599963,83.71077641600095,None,0,,reldom2_s002,001,2025-01-23_15h13.38.681,What-A-Scan_AC,2022.2.5,None,
5,Second_Order,1.0,audwhat,stimulus/audwhat_stim/string cello_low-pitch_D_loud.wav,stimulus/audwhat_stim/string viola_high-pitch_Dtri_loud.wav,stimulus/audwhat_stim/percussion mallet_low-pitch_D_loud.wav,stimulus/audwhat_stim/string viola_low-pitch_D_loud.wav,stimulus/audwhat_stim/match_blank.png,stimulus/audwhat_stim/match_box.png,stimulus/audwhat_stim/match_yes.png,stimulus/audwhat_stim/match_no.png,2.0,Match,Category,Pitch,2,5.125,0,5.125,0,5.125,0,5.125,0,0.75,0.75,0,0.0,0,0.0,0,0.0,0,0.0,1,0.5,1,2.125,1,0.5,1,2.125,0,,,,,0,6,6,6,,,,,,,,,83.71077641600095,88.83219170800112,83.71077641600095,83.71077641600095,83.71077641600095,83.71077641600095,84.15873366599953,85.15673720800078,84.17117970766618,,85.79141137500119,86.78009483300048,85.79525579166717,,88.83219170800112,89.6657717500002,91.76078316600069,,89.6657717500002,89.6657717500002,94.83799350000118,89.6657717500002,89.6657717500002,89.6657717500002,89.6657717500002,90.12936870799967,91.20080337500076,90.09939712466645,,91.76078316600069,92.83610258299996,91.73104370766693,,89.6657717500002,94.83799350000118,89.6657717500002,94.83799350000118,94.87924775000101,,89.6657717500002,2,1,1.113434832999701,reldom2_s002,001,2025-01-23_15h13.38.681,What-A-Scan_AC,2022.2.5,None,
6,Second_Order,1.0,audwhat,stimulus/audwhat_stim/string cello_high-pitch_Dtri_loud.wav,stimulus/audwhat_stim/percussion mallet_high-pitch_Dtri_loud.wav,stimulus/audwhat_stim/percussion mallet_low-pitch_Ftri_loud.wav,stimulus/audwhat_stim/string cello_low-pitch_Ftri_loud.wav,stimulus/audwhat_stim/match_blank.png,stimulus/audwhat_stim/match_box.png,stimulus/audwhat_stim/match_yes.png,stimulus/audwhat_stim/match_no.png,1.0,Match,Pitch,Pitch,1,5.125,0,5.125,0,5.125,0,5.125,0,0.625,0.625,0,0.0,0,0.0,0,0.0,0,0.0,1,0.5,1,2.125,1,0.5,1,2.125,0,,,,,0,7,7,7,,,,,,,,,95.65570316599951,100.78035483300118,95.65570316599951,95.65570316599951,95.65570316599951,95.65570316599951,96.10293679099959,97.10074683300081,96.11523595766654,,97.73600766600066,98.72454537500016,97.74035141666742,98.73794387499947,100.78035483300118,101.49029970800075,103.58044258300106,107.62828729099965,101.49029970800075,101.49029970800075,106.65510737499972,101.49029970800075,101.49029970800075,101.49029970800075,101.49029970800075,101.9537915410001,103.02437774999999,101.92374699966628,,103.58044258300106,104.6551461250001,103.55085841666757,,101.49029970800075,106.65510737499972,101.49029970800075,106.65510737499972,106.69669616600004,107.35204845800035,101.49029970800075,1,1,1.2188485419992503,reldom2_s002,001,2025-01-23_15h13.38.681,What-A-Scan_AC,2022.2.5,None,
0,0.0,None,fixation,stimulus/audwhat_stim/blank_white.png,stimulus/audwhat_stim/blank_white.png,stimulus/viswhat_stim/blank_white.png,stimulus/viswhat_stim/blank_white.png,stimulus/audwhat_stim/blank_white.png,stimulus/audwhat_stim/blank_white.png,stimulus/audwhat_stim/blank_white.png,stimulus/audwhat_stim/blank_white.png,0.0,0.0,0.0,0.0,0,0.0,0,0.0,0,0.0,0,0.0,0,0.0,0.0,0,0.0,0,0.0,0,0.0,0,0.0,0,0.0,0,0.0,0,0.0,0,0.0,9,,,,,0,8,8,8,,,,,,,,,107.62828729099965,107.62828729099965,107.62828729099965,107.62828729099965,107.62828729099965,107.62828729099965,107.62828729099965,107.62828729099965,107.52643079133315,107.62828729099965,107.62828729099965,107.62828729099965,107.52643079133315,107.62828729099965,107.62828729099965,107.62828729099965,107.62828729099965,107.62828729099965,107.62828729099965,107.62828729099965,107.62828729099965,107.62828729099965,107.62828729099965,107.62828729099965,107.62828729099965,107.62828729099965,107.62828729099965,107.57643079133317,107.62828729099965,107.62828729099965,107.62828729099965,107.57643079133317,107.62828729099965,107.62828729099965,107.62828729099965,107.62828729099965,107.62828729099965,112.83589587499955,112.83589587499955,116.89683529099966,None,0,,reldom2_s002,001,2025-01-23_15h13.38.681,What-A-Scan_AC,2022.2.5,None,
7,First_Order,2.0,audwhat,stimulus/audwhat_stim/dummy.wav,stimulus/audwhat_stim/dummy.wav,stimulus/audwhat_stim/string cello_low-pitch_F_loud.wav,stimulus/audwhat_stim/percussion mallet_low-pitch_F_loud.wav,stimulus/audwhat_stim/blank_white.png,stimulus/audwhat_stim/pitch_box.png,stimulus/audwhat_stim/pitch_yes.png,stimulus/audwhat_stim/pitch_no.png,None,Pitch,None,Pitch,1,0.0,0,5.125,0,5.125,0,5.125,0,0.0,0.625,0,0.0,0,0.0,0,0.0,0,0.0,0,0.0,0,0.0,1,0.5,1,2.125,0,,,,,0,9,9,9,,,,,,,,,116.89683529099966,116.89683529099966,116.89683529099966,116.89683529099966,116.89683529099966,116.89683529099966,116.89683529099966,116.89683529099966,116.82148108266726,116.89683529099966,116.89683529099966,116.89683529099966,116.82148108266726,116.89683529099966,116.89683529099966,116.89683529099966,119.00025820799965,,116.89683529099966,116.89683529099966,122.08684945800087,116.89683529099966,116.89683529099966,116.89683529099966,116.89683529099966,117.36465445800059,118.43830879100096,117.33437537466695,,119.00025820799965,120.03210320800099,118.96962595766696,,116.89683529099966,122.08684945800087,116.89683529099966,122.08684945800087,122.08684945800087,122.74694966599964,116.89683529099966,2,0,0.7974276669992832,reldom2_s002,001,2025-01-23_15h13.38.681,What-A-Scan_AC,2022.2.5,None,
8,First_Order,2.0,audwhat,stimulus/audwhat_stim/dummy.wav,stimulus/audwhat_stim/dummy.wav,stimulus/audwhat_stim/string cello_low-pitch_Dtri_loud.wav,stimulus/audwhat_stim/percussion mallet_low-pitch_Dtri_loud.wav,stimulus/audwhat_stim/blank_white.png,stimulus/audwhat_stim/category_box.png,stimulus/audwhat_stim/category_yes.png,stimulus/audwhat_stim/category_no.png,None,Category,None,Pitch,2,0.0,0,5.125,0,5.125,0,5.125,0,0.0,0.625,0,0.0,0,0.0,0,0.0,0,0.0,0,0.0,0,0.0,1,0.5,1,2.125,0,,,,,0,10,10,10,,,,,,,,,123.00937954100118,123.00937954100118,123.00937954100118,123.00937954100118,123.00937954100118,123.00937954100118,123.00937954100118,123.00937954100118,122.92113520833311,123.00937954100118,123.00937954100118,123.00937954100118,122.92113520833311,123.00937954100118,123.00937954100118,123.00937954100118,125.0834704580011,,123.00937954100118,123.00937954100118,128.18681083299998,123.00937954100118,123.00937954100118,123.00937954100118,123.00937954100118,123.48150020799949,124.51757658300085,123.45066912466633,,125.0834704580011,126.12251962499977,125.05295337466693,,123.00937954100118,128.18681083299998,123.00937954100118,128.18681083299998,128.22855429099945,128.8915428750006,123.00937954100118,2,1,0.45970083399879513,reldom2_s002,001,2025-01-23_15h13.38.681,What-A-Scan_AC,2022.2.5,None,
9,First_Order,2.0,audwhat,stimulus/audwhat_stim/dummy.wav,stimulus/audwhat_stim/dummy.wav,stimulus/audwhat_stim/string cello_high-pitch_F_loud.wav,stimulus/audwhat_stim/percussion mallet_high-pitch_F_loud.wav,stimulus/audwhat_stim/blank_white.png,stimulus/audwhat_stim/pitch_box.png,stimulus/audwhat_stim/pitch_yes.png,stimulus/audwhat_stim/pitch_no.png,None,Pitch,None,Pitch,1,0.0,0,5.125,0,5.125,0,5.125,0,0.0,0.625,0,0.0,0,0.0,0,0.0,0,0.0,0,0.0,0,0.0,1,0.5,1,2.125,0,,,,,0,11,11,11,,,,,,,,,129.10769416599942,129.10769416599942,129.10769416599942,129.10769416599942,129.10769416599942,129.10769416599942,129.10769416599942,129.10769416599942,129.02487620833395,129.10769416599942,129.10769416599942,129.10769416599942,129.02487620833395,129.10769416599942,129.10769416599942,129.10769416599942,131.21813704099986,135.23132633299974,129.10769416599942,129.10769416599942,134.26776279099977,129.10769416599942,129.10769416599942,129.10769416599942,129.10769416599942,129.57823458300118,130.60909837500003,129.54740204166617,,131.21813704099986,132.25596179100103,131.18837645766715,,129.10769416599942,134.26776279099977,129.10769416599942,134.26776279099977,134.30948870800057,134.97234412500075,129.10769416599942,1,1,0.6607710000007501,reldom2_s002,001,2025-01-23_15h13.38.681,What-A-Scan_AC,2022.2.5,None,
10,First_Order,2.0,audwhat,stimulus/audwhat_stim/dummy.wav,stimulus/audwhat_stim/dummy.wav,stimulus/audwhat_stim/percussion xylophone_high-pitch_D_loud.wav,stimulus/audwhat_stim/string cello_high-pitch_D_loud.wav,stimulus/audwhat_stim/blank_white.png,stimulus/audwhat_stim/category_box.png,stimulus/audwhat_stim/category_yes.png,stimulus/audwhat_stim/category_no.png,None,Category,None,Pitch,2,0.0,0,5.125,0,5.125,0,5.125,0,0.0,0.625,0,0.0,0,0.0,0,0.0,0,0.0,0,0.0,0,0.0,1,0.5,1,2.125,0,,,,,0,12,12,12,,,,,,,,,135.23132633299974,135.23132633299974,135.23132633299974,135.23132633299974,135.23132633299974,135.23132633299974,135.23132633299974,135.23132633299974,135.14696333333282,135.23132633299974,135.23132633299974,135.23132633299974,135.14696333333282,135.23132633299974,135.23132633299974,135.23132633299974,137.3138875830009,141.3713334160002,135.23132633299974,135.23132633299974,140.4270274999999,135.23132633299974,135.23132633299974,135.23132633299974,135.23132633299974,135.70425554100075,136.74797333300012,135.67353599966762,136.74797333300012,137.3138875830009,138.3529687909995,137.28292466666633,,135.23132633299974,140.4270274999999,135.23132633299974,140.4270274999999,140.4270274999999,141.09228570800042,135.23132633299974,2,1,2.270336707999377,reldom2_s002,001,2025-01-23_15h13.38.681,What-A-Scan_AC,2022.2.5,None,
0,0.0,None,fixation,stimulus/audwhat_stim/blank_white.png,stimulus/audwhat_stim/blank_white.png,stimulus/viswhat_stim/blank_white.png,stimulus/viswhat_stim/blank_white.png,stimulus/audwhat_stim/blank_white.png,stimulus/audwhat_stim/blank_white.png,stimulus/audwhat_stim/blank_white.png,stimulus/audwhat_stim/blank_white.png,0.0,0.0,0.0,0.0,0,0.0,0,0.0,0,0.0,0,0.0,0,0.0,0.0,0,0.0,0,0.0,0,0.0,0,0.0,0,0.0,0,0.0,0,0.0,0,0.0,10,,,,,0,13,13,13,,,,,,,,,141.3713334160002,141.3713334160002,141.3713334160002,141.3713334160002,141.3713334160002,141.3713334160002,141.3713334160002,141.3713334160002,141.2668514163344,141.3713334160002,141.3713334160002,141.3713334160002,141.2668514163344,141.3713334160002,141.3713334160002,141.3713334160002,141.3713334160002,141.3713334160002,141.3713334160002,141.3713334160002,141.3713334160002,141.3713334160002,141.3713334160002,141.3713334160002,141.3713334160002,141.3713334160002,141.3713334160002,141.31685141633437,141.3713334160002,141.3713334160002,141.3713334160002,141.31685141633437,141.3713334160002,141.3713334160002,141.3713334160002,141.3713334160002,141.3713334160002,146.57304099999965,146.57304099999965,151.54171825000049,None,0,,reldom2_s002,001,2025-01-23_15h13.38.681,What-A-Scan_AC,2022.2.5,None,
11,Second_Order,2.0,audwhat,stimulus/audwhat_stim/string viola_high-pitch_D_loud.wav,stimulus/audwhat_stim/percussion xylophone_high-pitch_D_loud.wav,stimulus/audwhat_stim/percussion mallet_low-pitch_F_loud.wav,stimulus/audwhat_stim/string viola_low-pitch_F_loud.wav,stimulus/audwhat_stim/match_blank.png,stimulus/audwhat_stim/match_box.png,stimulus/audwhat_stim/match_yes.png,stimulus/audwhat_stim/match_no.png,1.0,Match,Pitch,Pitch,1,5.125,0,5.125,0,5.125,0,5.125,0,0.75,0.75,0,0.0,0,0.0,0,0.0,0,0.0,1,0.5,1,2.125,1,0.5,1,2.125,0,,,,,0,14,14,14,,,,,,,,,151.54171825000049,156.65954945799967,151.54171825000049,151.54171825000049,151.54171825000049,151.54171825000049,151.9982989580003,152.99619175000043,152.01058995766678,,153.61976158300058,154.61679999999978,153.63141291666787,154.62478629100042,156.65954945799967,157.49169220800104,159.55270991600082,163.51233666600092,157.49169220800104,157.49169220800104,162.64984608300074,157.49169220800104,157.49169220800104,157.49169220800104,157.49169220800104,157.9586494160012,158.98977779100096,157.92817058266726,,159.55270991600082,160.58687579100115,159.52223466666717,,157.49169220800104,162.64984608300074,157.49169220800104,162.64984608300074,162.6918107500005,,157.49169220800104,1,1,1.3524498329989,reldom2_s002,001,2025-01-23_15h13.38.681,What-A-Scan_AC,2022.2.5,None,
12,Second_Order,2.0,audwhat,stimulus/audwhat_stim/percussion mallet_high-pitch_Dtri_loud.wav,stimulus/audwhat_stim/string viola_high-pitch_Dtri_loud.wav,stimulus/audwhat_stim/string viola_low-pitch_Dtri_loud.wav,stimulus/audwhat_stim/percussion mallet_low-pitch_Dtri_loud.wav,stimulus/audwhat_stim/match_blank.png,stimulus/audwhat_stim/match_box.png,stimulus/audwhat_stim/match_yes.png,stimulus/audwhat_stim/match_no.png,1.0,Match,Pitch,Pitch,1,5.125,0,5.125,0,5.125,0,5.125,0,0.625,0.625,0,0.0,0,0.0,0,0.0,0,0.0,1,0.5,1,2.125,1,0.5,1,2.125,0,,,,,0,15,15,15,,,,,,,,,163.51233666600092,168.6327136660002,163.51233666600092,163.51233666600092,163.51233666600092,163.51233666600092,163.9716167080005,164.965440416001,163.97490979166676,164.965440416001,165.59654995799974,166.5945605830002,165.6086544996672,,168.6327136660002,169.3468541660004,171.44187258300008,,169.3468541660004,169.3468541660004,174.5267468330003,169.3468541660004,169.3468541660004,169.3468541660004,169.3468541660004,169.8100910000012,170.8844992079994,169.7797634996662,,171.44187258300008,172.4708929999997,171.41145683266612,,169.3468541660004,174.5267468330003,169.3468541660004,174.5267468330003,174.5267468330003,175.18716099999983,169.3468541660004,2,0,1.324423083999136,reldom2_s002,001,2025-01-23_15h13.38.681,What-A-Scan_AC,2022.2.5,None,
0,0.0,None,fixation,stimulus/audwhat_stim/blank_white.png,stimulus/audwhat_stim/blank_white.png,stimulus/viswhat_stim/blank_white.png,stimulus/viswhat_stim/blank_white.png,stimulus/audwhat_stim/blank_white.png,stimulus/audwhat_stim/blank_white.png,stimulus/audwhat_stim/blank_white.png,stimulus/audwhat_stim/blank_white.png,0.0,0.0,0.0,0.0,0,0.0,0,0.0,0,0.0,0,0.0,0,0.0,0.0,0,0.0,0,0.0,0,0.0,0,0.0,0,0.0,0,0.0,0,0.0,0,0.0,8,,,,,0,16,16,16,,,,,,,,,175.46630625000034,175.46630625000034,175.46630625000034,175.46630625000034,175.46630625000034,175.46630625000034,175.46630625000034,175.46630625000034,175.36175454133277,175.46630625000034,175.46630625000034,175.46630625000034,175.36175454133277,175.46630625000034,175.46630625000034,175.46630625000034,175.46630625000034,175.46630625000034,175.46630625000034,175.46630625000034,175.46630625000034,175.46630625000034,175.46630625000034,175.46630625000034,175.46630625000034,175.46630625000034,175.46630625000034,175.41175454133275,175.46630625000034,175.46630625000034,175.46630625000034,175.41175454133275,175.46630625000034,175.46630625000034,175.46630625000034,175.46630625000034,175.46630625000034,180.68962887499947,180.68962887499947,183.86045595799987,None,0,,reldom2_s002,001,2025-01-23_15h13.38.681,What-A-Scan_AC,2022.2.5,None,
13,First_Order,3.0,viswhat,stimulus/viswhat_stim/blank_white.png,stimulus/viswhat_stim/blank_white.png,stimulus/viswhat_stim/water_vehicle-cruiseship.png,stimulus/viswhat_stim/land_vehicle-pickuptruck.png,stimulus/viswhat_stim/blank_white.png,stimulus/viswhat_stim/type_box.png,stimulus/viswhat_stim/type_yes.png,stimulus/viswhat_stim/type_no.png,None,Type,None,Type,1,0.0,0,5.125,0,5.125,0,5.125,0,0.0,0.625,0,0.0,0,0.0,1,0.5,1,2.125,0,0.0,0,0.0,0,0.0,0,0.0,0,,,,,0,17,17,17,,,,,,,,,183.86045595799987,183.86045595799987,183.86045595799987,183.86045595799987,183.86045595799987,183.86045595799987,183.86045595799987,183.86045595799987,183.65945845766754,183.86045595799987,183.86045595799987,183.86045595799987,183.65945845766754,183.86045595799987,183.86045595799987,183.86045595799987,185.9253670830003,,183.86045595799987,183.86045595799987,189.06503137500113,184.2540097910005,185.33581862500068,185.9253670830003,187.0061518750008,183.86045595799987,183.86045595799987,183.75945845766753,183.86045595799987,183.86045595799987,183.86045595799987,183.75945845766753,183.86045595799987,183.86045595799987,189.06503137500113,183.86045595799987,189.06503137500113,189.06503137500113,,183.86045595799987,2,0,3.2775127080003585,reldom2_s002,001,2025-01-23_15h13.38.681,What-A-Scan_AC,2022.2.5,None,
14,First_Order,3.0,viswhat,stimulus/viswhat_stim/blank_white.png,stimulus/viswhat_stim/blank_white.png,stimulus/viswhat_stim/water_animal-lobster.png,stimulus/viswhat_stim/water_vehicle-cruiseship.png,stimulus/viswhat_stim/blank_white.png,stimulus/viswhat_stim/location_box.png,stimulus/viswhat_stim/location_yes.png,stimulus/viswhat_stim/location_no.png,None,Location,None,Location,1,0.0,0,5.125,0,5.125,0,5.125,0,0.0,0.625,0,0.0,0,0.0,1,0.5,1,2.125,0,0.0,0,0.0,0,0.0,0,0.0,0,,,,,0,18,18,18,,,,,,,,,190.31358125000042,190.31358125000042,190.31358125000042,190.31358125000042,190.31358125000042,190.31358125000042,190.31358125000042,190.31358125000042,189.87307079099992,190.31358125000042,190.31358125000042,190.31358125000042,189.87307079099992,190.31358125000042,190.31358125000042,190.31358125000042,192.3355367080003,,190.31358125000042,190.31358125000042,195.6968775410005,190.76450083300006,192.11165550000078,192.3355367080003,193.68666145799943,190.31358125000042,190.31358125000042,190.0897374576666,190.31358125000042,190.31358125000042,190.31358125000042,190.0897374576666,190.31358125000042,190.31358125000042,195.6968775410005,190.31358125000042,195.6968775410005,195.4788775830002,,190.31358125000042,1,1,0.9924064999977418,reldom2_s002,001,2025-01-23_15h13.38.681,What-A-Scan_AC,2022.2.5,None,
15,First_Order,3.0,viswhat,stimulus/viswhat_stim/blank_white.png,stimulus/viswhat_stim/blank_white.png,stimulus/viswhat_stim/water_vehicle-cruiseship.png,stimulus/viswhat_stim/land_vehicle-bus.png,stimulus/viswhat_stim/blank_white.png,stimulus/viswhat_stim/location_box.png,stimulus/viswhat_stim/location_yes.png,stimulus/viswhat_stim/location_no.png,None,Location,None,Type,2,0.0,0,5.125,0,5.125,0,5.125,0,0.0,0.625,0,0.0,0,0.0,1,0.5,1,2.125,0,0.0,0,0.0,0,0.0,0,0.0,0,,,,,0,19,19,19,,,,,,,,,196.38845183299964,196.38845183299964,196.38845183299964,196.38845183299964,196.38845183299964,196.38845183299964,196.38845183299964,196.38845183299964,196.1968775410005,196.38845183299964,196.38845183299964,196.38845183299964,196.1968775410005,196.38845183299964,196.38845183299964,196.38845183299964,198.4461515410003,,196.38845183299964,196.38845183299964,201.6355402500012,196.80102729099963,197.93196333299966,198.4461515410003,199.58145979100118,196.38845183299964,196.38845183299964,196.29687754100053,196.38845183299964,196.38845183299964,196.38845183299964,196.29687754100053,196.38845183299964,196.38845183299964,201.6355402500012,196.38845183299964,201.6355402500012,201.53884950000065,,196.38845183299964,2,1,0.9276238339989504,reldom2_s002,001,2025-01-23_15h13.38.681,What-A-Scan_AC,2022.2.5,None,
16,First_Order,3.0,viswhat,stimulus/viswhat_stim/blank_white.png,stimulus/viswhat_stim/blank_white.png,stimulus/viswhat_stim/land_vehicle-oldcar.png,stimulus/viswhat_stim/water_vehicle-pirateship.png,stimulus/viswhat_stim/blank_white.png,stimulus/viswhat_stim/type_box.png,stimulus/viswhat_stim/type_yes.png,stimulus/viswhat_stim/type_no.png,None,Type,None,Type,1,0.0,0,5.125,0,5.125,0,5.125,0,0.0,0.625,0,0.0,0,0.0,1,0.5,1,2.125,0,0.0,0,0.0,0,0.0,0,0.0,0,,,,,0,20,20,20,,,,,,,,,202.44790004100105,202.44790004100105,202.44790004100105,202.44790004100105,202.44790004100105,202.44790004100105,202.44790004100105,202.44790004100105,202.37159812500067,202.44790004100105,202.44790004100105,202.44790004100105,202.37159812500067,202.44790004100105,202.44790004100105,202.44790004100105,204.53946270800043,208.5865143330011,202.44790004100105,202.44790004100105,207.63471462500092,202.92865024999992,203.97352466600023,204.53946270800043,205.58867491599995,202.44790004100105,202.44790004100105,202.40493145833403,202.44790004100105,202.44790004100105,202.44790004100105,202.40493145833403,202.44790004100105,202.44790004100105,207.63471462500092,202.44790004100105,207.63471462500092,207.67265583300104,208.353447083,202.44790004100105,1,1,0.8116793339995638,reldom2_s002,001,2025-01-23_15h13.38.681,What-A-Scan_AC,2022.2.5,None,
0,0.0,None,fixation,stimulus/audwhat_stim/blank_white.png,stimulus/audwhat_stim/blank_white.png,stimulus/viswhat_stim/blank_white.png,stimulus/viswhat_stim/blank_white.png,stimulus/audwhat_stim/blank_white.png,stimulus/audwhat_stim/blank_white.png,stimulus/audwhat_stim/blank_white.png,stimulus/audwhat_stim/blank_white.png,0.0,0.0,0.0,0.0,0,0.0,0,0.0,0,0.0,0,0.0,0,0.0,0.0,0,0.0,0,0.0,0,0.0,0,0.0,0,0.0,0,0.0,0,0.0,0,0.0,9,,,,,0,21,21,21,,,,,,,,,208.5865143330011,208.5865143330011,208.5865143330011,208.5865143330011,208.5865143330011,208.5865143330011,208.5865143330011,208.5865143330011,208.48678041633335,208.5865143330011,208.5865143330011,208.5865143330011,208.48678041633335,208.5865143330011,208.5865143330011,208.5865143330011,208.5865143330011,208.5865143330011,208.5865143330011,208.5865143330011,208.5865143330011,208.5865143330011,208.5865143330011,208.5865143330011,208.5865143330011,208.5865143330011,208.5865143330011,208.53678041633333,208.5865143330011,208.5865143330011,208.5865143330011,208.53678041633333,208.5865143330011,208.5865143330011,208.5865143330011,208.5865143330011,208.5865143330011,213.7956745829997,213.7956745829997,217.735535541,None,0,,reldom2_s002,001,2025-01-23_15h13.38.681,What-A-Scan_AC,2022.2.5,None,
17,Second_Order,3.0,viswhat,stimulus/viswhat_stim/water_animal-shark.png,stimulus/viswhat_stim/water_vehicle-pirateship.png,stimulus/viswhat_stim/water_animal-squid.png,stimulus/viswhat_stim/land_animal-elephant.png,stimulus/audwhat_stim/match_blank.png,stimulus/audwhat_stim/match_box.png,stimulus/audwhat_stim/match_yes.png,stimulus/audwhat_stim/match_no.png,2.0,Match,Location,Type,2,5.125,0,5.125,0,5.125,0,5.125,0,0.75,0.75,1,0.5,1,2.125,1,0.5,1,2.125,0,0.0,0,0.0,0,0.0,0,0.0,0,,,,,0,22,22,22,,,,,,,,,217.735535541,222.85764120800013,218.19663733299967,219.18574550000085,219.82234504100052,220.81966533299965,217.735535541,217.735535541,217.74341016600047,217.735535541,217.735535541,217.735535541,217.74341016600047,217.735535541,222.85764120800013,223.7338689999997,225.83605562500088,229.72085574999983,223.7338689999997,223.7338689999997,228.95855754100012,224.20739891599987,225.29459945800045,225.83605562500088,226.9272821659997,223.7338689999997,223.7338689999997,223.6757518743337,223.7338689999997,223.7338689999997,223.7338689999997,223.6757518743337,223.7338689999997,223.7338689999997,228.95855754100012,223.7338689999997,228.95855754100012,228.89630962500087,,223.7338689999997,2,1,1.067894833999162,reldom2_s002,001,2025-01-23_15h13.38.681,What-A-Scan_AC,2022.2.5,None,
18,Second_Order,3.0,viswhat,stimulus/viswhat_stim/land_vehicle-pickuptruck.png,stimulus/viswhat_stim/water_vehicle-pirateship.png,stimulus/viswhat_stim/water_animal-jellyfish.png,stimulus/viswhat_stim/land_animal-snake.png,stimulus/audwhat_stim/match_blank.png,stimulus/audwhat_stim/match_box.png,stimulus/audwhat_stim/match_yes.png,stimulus/audwhat_stim/match_no.png,1.0,Match,Type,Type,1,5.125,0,5.125,0,5.125,0,5.125,0,0.625,0.625,1,0.5,1,2.125,1,0.5,1,2.125,0,0.0,0,0.0,0,0.0,0,0.0,0,,,,,0,23,23,23,,,,,,,,,229.72085574999983,234.83942891600054,230.19466275000013,231.19395287500083,231.8172746250002,232.81373820800036,229.72085574999983,229.72085574999983,229.72964733300105,229.72085574999983,229.72085574999983,229.72085574999983,229.72964733300105,229.72085574999983,234.83942891600054,235.51472858300076,237.61151954100023,241.65030024999942,235.51472858300076,235.51472858300076,240.6667714160012,235.98900745799983,237.02544970800045,237.61151954100023,238.62190004100012,235.51472858300076,235.51472858300076,235.4863105413338,235.51472858300076,235.51472858300076,235.51472858300076,235.4863105413338,235.51472858300076,235.51472858300076,240.6667714160012,235.51472858300076,240.6667714160012,240.71134654100024,241.35760200000004,235.51472858300076,1,1,2.489107084000352,reldom2_s002,001,2025-01-23_15h13.38.681,What-A-Scan_AC,2022.2.5,None,
0,0.0,None,fixation,stimulus/audwhat_stim/blank_white.png,stimulus/audwhat_stim/blank_white.png,stimulus/viswhat_stim/blank_white.png,stimulus/viswhat_stim/blank_white.png,stimulus/audwhat_stim/blank_white.png,stimulus/audwhat_stim/blank_white.png,stimulus/audwhat_stim/blank_white.png,stimulus/audwhat_stim/blank_white.png,0.0,0.0,0.0,0.0,0,0.0,0,0.0,0,0.0,0,0.0,0,0.0,0.0,0,0.0,0,0.0,0,0.0,0,0.0,0,0.0,0,0.0,0,0.0,0,0.0,8,,,,,0,24,24,24,,,,,,,,,241.65030024999942,241.65030024999942,241.65030024999942,241.65030024999942,241.65030024999942,241.65030024999942,241.65030024999942,241.65030024999942,241.54625279100003,241.65030024999942,241.65030024999942,241.65030024999942,241.54625279100003,241.65030024999942,241.65030024999942,241.65030024999942,241.65030024999942,241.65030024999942,241.65030024999942,241.65030024999942,241.65030024999942,241.65030024999942,241.65030024999942,241.65030024999942,241.65030024999942,241.65030024999942,241.65030024999942,241.596252791,241.65030024999942,241.65030024999942,241.65030024999942,241.596252791,241.65030024999942,241.65030024999942,241.65030024999942,241.65030024999942,241.65030024999942,246.83698949999962,246.83698949999962,249.8616361660006,None,0,,reldom2_s002,001,2025-01-23_15h13.38.681,What-A-Scan_AC,2022.2.5,None,
19,First_Order,4.0,viswhat,stimulus/viswhat_stim/blank_white.png,stimulus/viswhat_stim/blank_white.png,stimulus/viswhat_stim/land_animal-wolf.png,stimulus/viswhat_stim/water_animal-squid.png,stimulus/viswhat_stim/blank_white.png,stimulus/viswhat_stim/location_box.png,stimulus/viswhat_stim/location_yes.png,stimulus/viswhat_stim/location_no.png,None,Location,None,Type,2,0.0,0,5.125,0,5.125,0,5.125,0,0.0,0.625,0,0.0,0,0.0,1,0.5,1,2.125,0,0.0,0,0.0,0,0.0,0,0.0,0,,,,,0,25,25,25,,,,,,,,,249.8616361660006,249.8616361660006,249.8616361660006,249.8616361660006,249.8616361660006,249.8616361660006,249.8616361660006,249.8616361660006,249.8147267496667,249.8616361660006,249.8616361660006,249.8616361660006,249.8147267496667,249.8616361660006,249.8616361660006,249.8616361660006,251.96314620799967,255.95247837500028,249.8616361660006,249.8616361660006,254.99907449999955,250.3253246660006,251.34662345800098,251.96314620799967,252.9896072499996,249.8616361660006,249.8616361660006,249.83139341633336,249.8616361660006,249.8616361660006,249.8616361660006,249.83139341633336,249.8616361660006,249.8616361660006,254.99907449999955,249.8616361660006,254.99907449999955,255.07474654100042,255.72803974999988,249.8616361660006,2,1,1.3637432499999704,reldom2_s002,001,2025-01-23_15h13.38.681,What-A-Scan_AC,2022.2.5,None,
20,First_Order,4.0,viswhat,stimulus/viswhat_stim/blank_white.png,stimulus/viswhat_stim/blank_white.png,stimulus/viswhat_stim/water_animal-jellyfish.png,stimulus/viswhat_stim/water_vehicle-motorboatraft.png,stimulus/viswhat_stim/blank_white.png,stimulus/viswhat_stim/location_box.png,stimulus/viswhat_stim/location_yes.png,stimulus/viswhat_stim/location_no.png,None,Location,None,Location,1,0.0,0,5.125,0,5.125,0,5.125,0,0.0,0.625,0,0.0,0,0.0,1,0.5,1,2.125,0,0.0,0,0.0,0,0.0,0,0.0,0,,,,,0,26,26,26,,,,,,,,,255.95247837500028,255.95247837500028,255.95247837500028,255.95247837500028,255.95247837500028,255.95247837500028,255.95247837500028,255.95247837500028,255.90291891600066,255.95247837500028,255.95247837500028,255.95247837500028,255.90291891600066,255.95247837500028,255.95247837500028,255.95247837500028,258.06161479100047,262.1247932080005,255.95247837500028,255.95247837500028,261.08765404100086,256.424091375,257.45351570800085,258.06161479100047,259.0935816660003,255.95247837500028,255.95247837500028,255.936252249334,255.95247837500028,255.95247837500028,255.95247837500028,255.936252249334,255.95247837500028,255.95247837500028,261.08765404100086,255.95247837500028,261.08765404100086,261.17501687500044,261.81080941599976,255.95247837500028,1,1,0.6776447079992067,reldom2_s002,001,2025-01-23_15h13.38.681,What-A-Scan_AC,2022.2.5,None,
21,First_Order,4.0,viswhat,stimulus/viswhat_stim/blank_white.png,stimulus/viswhat_stim/blank_white.png,stimulus/viswhat_stim/land_animal-elephant.png,stimulus/viswhat_stim/land_vehicle-buldozer.png,stimulus/viswhat_stim/blank_white.png,stimulus/viswhat_stim/type_box.png,stimulus/viswhat_stim/type_yes.png,stimulus/viswhat_stim/type_no.png,None,Type,None,Location,2,0.0,0,5.125,0,5.125,0,5.125,0,0.0,0.625,0,0.0,0,0.0,1,0.5,1,2.125,0,0.0,0,0.0,0,0.0,0,0.0,0,,,,,0,27,27,27,,,,,,,,,262.1247932080005,262.1247932080005,262.1247932080005,262.1247932080005,262.1247932080005,262.1247932080005,262.1247932080005,262.1247932080005,261.9979327079996,262.1247932080005,262.1247932080005,262.1247932080005,261.9979327079996,262.1247932080005,262.1247932080005,262.1247932080005,264.17796616600026,,262.1247932080005,262.1247932080005,267.36669212500055,262.5491186250001,263.6124427909999,264.17796616600026,265.2432176250004,262.1247932080005,262.1247932080005,262.0645993746663,262.1247932080005,262.1247932080005,262.1247932080005,262.0645993746663,262.1247932080005,262.1247932080005,267.36669212500055,262.1247932080005,267.36669212500055,267.3018444160007,268.2231300830008,262.1247932080005,2,1,0.599622540998098,reldom2_s002,001,2025-01-23_15h13.38.681,What-A-Scan_AC,2022.2.5,None,
22,First_Order,4.0,viswhat,stimulus/viswhat_stim/blank_white.png,stimulus/viswhat_stim/blank_white.png,stimulus/viswhat_stim/water_animal-shark.png,stimulus/viswhat_stim/water_vehicle-cabincruiser.png,stimulus/viswhat_stim/blank_white.png,stimulus/viswhat_stim/type_box.png,stimulus/viswhat_stim/type_yes.png,stimulus/viswhat_stim/type_no.png,None,Type,None,Location,2,0.0,0,5.125,0,5.125,0,5.125,0,0.0,0.625,0,0.0,0,0.0,1,0.5,1,2.125,0,0.0,0,0.0,0,0.0,0,0.0,0,,,,,0,28,28,28,,,,,,,,,268.2231300830008,268.2231300830008,268.2231300830008,268.2231300830008,268.2231300830008,268.2231300830008,268.2231300830008,268.2231300830008,268.1361990833329,268.2231300830008,268.2231300830008,268.2231300830008,268.1361990833329,268.2231300830008,268.2231300830008,268.2231300830008,270.30524762499954,274.3694167909998,268.2231300830008,268.2231300830008,273.4008305410007,268.70772408300036,269.77465074999964,270.30524762499954,271.37350637500094,268.2231300830008,268.2231300830008,268.18619908333284,268.2231300830008,268.2231300830008,268.2231300830008,268.18619908333284,268.2231300830008,268.2231300830008,273.4008305410007,268.2231300830008,273.4008305410007,273.4436809580002,274.1253974579995,268.2231300830008,2,1,0.9463775829990482,reldom2_s002,001,2025-01-23_15h13.38.681,What-A-Scan_AC,2022.2.5,None,
0,0.0,None,fixation,stimulus/audwhat_stim/blank_white.png,stimulus/audwhat_stim/blank_white.png,stimulus/viswhat_stim/blank_white.png,stimulus/viswhat_stim/blank_white.png,stimulus/audwhat_stim/blank_white.png,stimulus/audwhat_stim/blank_white.png,stimulus/audwhat_stim/blank_white.png,stimulus/audwhat_stim/blank_white.png,0.0,0.0,0.0,0.0,0,0.0,0,0.0,0,0.0,0,0.0,0,0.0,0.0,0,0.0,0,0.0,0,0.0,0,0.0,0,0.0,0,0.0,0,0.0,0,0.0,9,,,,,0,29,29,29,,,,,,,,,274.3694167909998,274.3694167909998,274.3694167909998,274.3694167909998,274.3694167909998,274.3694167909998,274.3694167909998,274.3694167909998,274.2587307913328,274.3694167909998,274.3694167909998,274.3694167909998,274.2587307913328,274.3694167909998,274.3694167909998,274.3694167909998,274.3694167909998,274.3694167909998,274.3694167909998,274.3694167909998,274.3694167909998,274.3694167909998,274.3694167909998,274.3694167909998,274.3694167909998,274.3694167909998,274.3694167909998,274.3253974579995,274.3694167909998,274.3694167909998,274.3694167909998,274.3253974579995,274.3694167909998,274.3694167909998,274.3694167909998,274.3694167909998,274.3694167909998,279.58341412499976,279.58341412499976,283.52332062499954,None,0,,reldom2_s002,001,2025-01-23_15h13.38.681,What-A-Scan_AC,2022.2.5,None,
23,Second_Order,4.0,viswhat,stimulus/viswhat_stim/water_vehicle-canoe(1).png,stimulus/viswhat_stim/land_vehicle-vespa.png,stimulus/viswhat_stim/land_animal-dog.png,stimulus/viswhat_stim/water_animal-jellyfish.png,stimulus/audwhat_stim/match_blank.png,stimulus/audwhat_stim/match_box.png,stimulus/audwhat_stim/match_yes.png,stimulus/audwhat_stim/match_no.png,1.0,Match,Type,Type,1,5.125,0,5.125,0,5.125,0,5.125,0,0.75,0.75,1,0.5,1,2.125,1,0.5,1,2.125,0,0.0,0,0.0,0,0.0,0,0.0,0,,,,,0,30,30,30,,,,,,,,,283.52332062499954,288.6477734580003,283.98620870800005,284.983808125,285.6066222080008,286.6045628330012,283.52332062499954,283.52332062499954,283.5178386663339,283.52332062499954,283.52332062499954,283.52332062499954,283.5178386663339,283.52332062499954,288.6477734580003,289.4414321250006,291.52472629099975,,289.4414321250006,289.4414321250006,294.59649404099946,289.9044769579996,290.9183722500002,291.52472629099975,292.54240758299966,289.4414321250006,289.4414321250006,289.4144181663328,289.4414321250006,289.4414321250006,289.4414321250006,289.4144181663328,289.4414321250006,289.4414321250006,294.59649404099946,289.4414321250006,294.59649404099946,294.64446087500073,,289.4414321250006,1,1,2.9584881249993487,reldom2_s002,001,2025-01-23_15h13.38.681,What-A-Scan_AC,2022.2.5,None,
24,Second_Order,4.0,viswhat,stimulus/viswhat_stim/land_vehicle-tank.png,stimulus/viswhat_stim/water_vehicle-canoe(1).png,stimulus/viswhat_stim/water_animal-orka.png,stimulus/viswhat_stim/water_vehicle-cabincruiser.png,stimulus/audwhat_stim/match_blank.png,stimulus/audwhat_stim/match_box.png,stimulus/audwhat_stim/match_yes.png,stimulus/audwhat_stim/match_no.png,2.0,Match,Type,Location,2,5.125,0,5.125,0,5.125,0,5.125,0,0.625,0.625,1,0.5,1,2.125,1,0.5,1,2.125,0,0.0,0,0.0,0,0.0,0,0.0,0,,,,,0,31,31,31,,,,,,,,,295.4220967910005,300.54095212500033,295.8967880830005,296.89503375000095,297.52948545800064,298.51898154099945,295.4220967910005,295.4220967910005,295.43071874966614,295.4220967910005,295.4220967910005,295.4220967910005,295.43071874966614,295.4220967910005,300.54095212500033,301.3193659160006,303.37098166600117,,301.3193659160006,301.3193659160006,306.5305380000009,301.7923913750001,302.89820962500016,303.37098166600117,304.4836943749997,301.3193659160006,301.3193659160006,301.2547476659998,301.3193659160006,301.3193659160006,301.3193659160006,301.2547476659998,301.3193659160006,301.3193659160006,306.5305380000009,301.3193659160006,306.5305380000009,306.5305380000009,,301.3193659160006,2,1,0.5272380839978723,reldom2_s002,001,2025-01-23_15h13.38.681,What-A-Scan_AC,2022.2.5,None,
0,0.0,None,fixation,stimulus/audwhat_stim/blank_white.png,stimulus/audwhat_stim/blank_white.png,stimulus/viswhat_stim/blank_white.png,stimulus/viswhat_stim/blank_white.png,stimulus/audwhat_stim/blank_white.png,stimulus/audwhat_stim/blank_white.png,stimulus/audwhat_stim/blank_white.png,stimulus/audwhat_stim/blank_white.png,0.0,0.0,0.0,0.0,0,0.0,0,0.0,0,0.0,0,0.0,0,0.0,0.0,0,0.0,0,0.0,0,0.0,0,0.0,0,0.0,0,0.0,0,0.0,0,0.0,9,,,,,0,32,32,32,,,,,,,,,307.42729179100024,307.42729179100024,307.42729179100024,307.42729179100024,307.42729179100024,307.42729179100024,307.42729179100024,307.42729179100024,307.31971875000016,307.42729179100024,307.42729179100024,307.42729179100024,307.31971875000016,307.42729179100024,307.42729179100024,307.42729179100024,307.42729179100024,307.42729179100024,307.42729179100024,307.42729179100024,307.42729179100024,307.42729179100024,307.42729179100024,307.42729179100024,307.42729179100024,307.42729179100024,307.42729179100024,307.3863854166668,307.42729179100024,307.42729179100024,307.42729179100024,307.3863854166668,307.42729179100024,307.42729179100024,307.42729179100024,307.42729179100024,307.42729179100024,312.6201370830004,312.6201370830004,316.70774162499947,None,0,,reldom2_s002,001,2025-01-23_15h13.38.681,What-A-Scan_AC,2022.2.5,None,
25,First_Order,5.0,audwhat,stimulus/audwhat_stim/dummy.wav,stimulus/audwhat_stim/dummy.wav,stimulus/audwhat_stim/string cello_low-pitch_Dtri_loud.wav,stimulus/audwhat_stim/percussion mallet_low-pitch_Dtri_loud.wav,stimulus/audwhat_stim/blank_white.png,stimulus/audwhat_stim/pitch_box.png,stimulus/audwhat_stim/pitch_yes.png,stimulus/audwhat_stim/pitch_no.png,None,Pitch,None,Pitch,1,0.0,0,5.125,0,5.125,0,5.125,0,0.0,0.625,0,0.0,0,0.0,0,0.0,0,0.0,0,0.0,0,0.0,1,0.5,1,2.125,0,,,,,0,33,33,33,,,,,,,,,316.70774162499947,316.70774162499947,316.70774162499947,316.70774162499947,316.70774162499947,316.70774162499947,316.70774162499947,316.70774162499947,316.6287964996669,316.70774162499947,316.70774162499947,316.70774162499947,316.6287964996669,316.70774162499947,316.70774162499947,316.70774162499947,318.77673049999976,,316.70774162499947,316.70774162499947,321.8800218329998,316.70774162499947,316.70774162499947,316.70774162499947,316.70774162499947,317.1770053750006,318.21047675000045,317.1465541246673,,318.77673049999976,319.8127803749994,318.74615712466607,,316.70774162499947,321.8800218329998,316.70774162499947,321.8800218329998,321.92158395800107,322.5844584999995,316.70774162499947,1,1,2.191767666998203,reldom2_s002,001,2025-01-23_15h13.38.681,What-A-Scan_AC,2022.2.5,None,
26,First_Order,5.0,audwhat,stimulus/audwhat_stim/dummy.wav,stimulus/audwhat_stim/dummy.wav,stimulus/audwhat_stim/string cello_low-pitch_F_loud.wav,stimulus/audwhat_stim/percussion mallet_low-pitch_F_loud.wav,stimulus/audwhat_stim/blank_white.png,stimulus/audwhat_stim/pitch_box.png,stimulus/audwhat_stim/pitch_yes.png,stimulus/audwhat_stim/pitch_no.png,None,Pitch,None,Pitch,1,0.0,0,5.125,0,5.125,0,5.125,0,0.0,0.625,0,0.0,0,0.0,0,0.0,0,0.0,0,0.0,0,0.0,1,0.5,1,2.125,0,,,,,0,34,34,34,,,,,,,,,322.80269733299974,322.80269733299974,322.80269733299974,322.80269733299974,322.80269733299974,322.80269733299974,322.80269733299974,322.80269733299974,322.71779183333285,322.80269733299974,322.80269733299974,322.80269733299974,322.71779183333285,322.80269733299974,322.80269733299974,322.80269733299974,324.9178625000004,,322.80269733299974,322.80269733299974,327.97344237499965,322.80269733299974,322.80269733299974,322.80269733299974,322.80269733299974,323.27285162500084,324.3070419579999,323.2420865826664,,324.9178625000004,325.9543272909996,324.8872429166661,,322.80269733299974,327.97344237499965,322.80269733299974,327.97344237499965,328.0148986660006,328.6784894579996,322.80269733299974,1,1,0.8776303329996153,reldom2_s002,001,2025-01-23_15h13.38.681,What-A-Scan_AC,2022.2.5,None,
27,First_Order,5.0,audwhat,stimulus/audwhat_stim/dummy.wav,stimulus/audwhat_stim/dummy.wav,stimulus/audwhat_stim/string cello_high-pitch_D_loud.wav,stimulus/audwhat_stim/percussion mallet_high-pitch_D_loud.wav,stimulus/audwhat_stim/blank_white.png,stimulus/audwhat_stim/category_box.png,stimulus/audwhat_stim/category_yes.png,stimulus/audwhat_stim/category_no.png,None,Category,None,Pitch,2,0.0,0,5.125,0,5.125,0,5.125,0,0.0,0.625,0,0.0,0,0.0,0,0.0,0,0.0,0,0.0,0,0.0,1,0.5,1,2.125,0,,,,,0,35,35,35,,,,,,,,,328.8984829580004,328.8984829580004,328.8984829580004,328.8984829580004,328.8984829580004,328.8984829580004,328.8984829580004,328.8984829580004,328.81182279133293,328.8984829580004,328.8984829580004,328.8984829580004,328.81182279133293,328.8984829580004,328.8984829580004,328.8984829580004,330.98006908299976,335.0215435000009,328.8984829580004,328.8984829580004,334.052451208001,328.8984829580004,328.8984829580004,328.8984829580004,328.8984829580004,329.37170083300043,330.4124696250001,329.34072741666773,,330.98006908299976,332.02281912500075,330.94901383266756,,328.8984829580004,334.052451208001,328.8984829580004,334.052451208001,334.09439974999987,334.76214929100024,328.8984829580004,2,1,1.7418394169981184,reldom2_s002,001,2025-01-23_15h13.38.681,What-A-Scan_AC,2022.2.5,None,
28,First_Order,5.0,audwhat,stimulus/audwhat_stim/dummy.wav,stimulus/audwhat_stim/dummy.wav,stimulus/audwhat_stim/percussion mallet_low-pitch_Ftri_loud.wav,stimulus/audwhat_stim/percussion mallet_high-pitch_F_loud.wav,stimulus/audwhat_stim/blank_white.png,stimulus/audwhat_stim/category_box.png,stimulus/audwhat_stim/category_yes.png,stimulus/audwhat_stim/category_no.png,None,Category,None,Category,1,0.0,0,5.125,0,5.125,0,5.125,0,0.0,0.625,0,0.0,0,0.0,0,0.0,0,0.0,0,0.0,0,0.0,1,0.5,1,2.125,0,,,,,0,36,36,36,,,,,,,,,335.0215435000009,335.0215435000009,335.0215435000009,335.0215435000009,335.0215435000009,335.0215435000009,335.0215435000009,335.0215435000009,334.93704412433374,335.0215435000009,335.0215435000009,335.0215435000009,334.93704412433374,335.0215435000009,335.0215435000009,335.0215435000009,337.10401666600046,341.1630714160001,335.0215435000009,335.0215435000009,340.17457450000074,335.0215435000009,335.0215435000009,335.0215435000009,335.0215435000009,335.49469841599966,336.5348147500008,335.46362541666736,,337.10401666600046,338.14350904099956,337.0731610826663,,335.0215435000009,340.17457450000074,335.0215435000009,340.17457450000074,340.216517750001,340.88302850000036,335.0215435000009,1,1,2.615412708999429,reldom2_s002,001,2025-01-23_15h13.38.681,What-A-Scan_AC,2022.2.5,None,
0,0.0,None,fixation,stimulus/audwhat_stim/blank_white.png,stimulus/audwhat_stim/blank_white.png,stimulus/viswhat_stim/blank_white.png,stimulus/viswhat_stim/blank_white.png,stimulus/audwhat_stim/blank_white.png,stimulus/audwhat_stim/blank_white.png,stimulus/audwhat_stim/blank_white.png,stimulus/audwhat_stim/blank_white.png,0.0,0.0,0.0,0.0,0,0.0,0,0.0,0,0.0,0,0.0,0,0.0,0.0,0,0.0,0,0.0,0,0.0,0,0.0,0,0.0,0,0.0,0,0.0,0,0.0,8,,,,,0,37,37,37,,,,,,,,,341.1630714160001,341.1630714160001,341.1630714160001,341.1630714160001,341.1630714160001,341.1630714160001,341.1630714160001,341.1630714160001,341.0578554583336,341.1630714160001,341.1630714160001,341.1630714160001,341.0578554583336,341.1630714160001,341.1630714160001,341.1630714160001,341.1630714160001,341.1630714160001,341.1630714160001,341.1630714160001,341.1630714160001,341.1630714160001,341.1630714160001,341.1630714160001,341.1630714160001,341.1630714160001,341.1630714160001,341.10785545833363,341.1630714160001,341.1630714160001,341.1630714160001,341.10785545833363,341.1630714160001,341.1630714160001,341.1630714160001,341.1630714160001,341.1630714160001,346.37554754099983,346.37554754099983,349.29351754100026,None,0,,reldom2_s002,001,2025-01-23_15h13.38.681,What-A-Scan_AC,2022.2.5,None,
29,Second_Order,5.0,audwhat,stimulus/audwhat_stim/percussion xylophone_high-pitch_Dtri_loud.wav,stimulus/audwhat_stim/percussion mallet_low-pitch_Ftri_loud.wav,stimulus/audwhat_stim/string viola_high-pitch_Ftri_loud.wav,stimulus/audwhat_stim/string viola_low-pitch_Dtri_loud.wav,stimulus/audwhat_stim/match_blank.png,stimulus/audwhat_stim/match_box.png,stimulus/audwhat_stim/match_yes.png,stimulus/audwhat_stim/match_no.png,1.0,Match,Category,Category,1,5.125,0,5.125,0,5.125,0,5.125,0,0.75,0.75,0,0.0,0,0.0,0,0.0,0,0.0,1,0.5,1,2.125,1,0.5,1,2.125,0,,,,,0,38,38,38,,,,,,,,,349.29351754100026,354.4156326249995,349.29351754100026,349.29351754100026,349.29351754100026,349.29351754100026,349.75005141600013,350.7380940000003,349.75342879166624,350.752892333001,351.3749793750012,352.3728633330011,351.3871881246671,352.3815437080011,354.4156326249995,355.250473125001,357.3188602499995,,355.250473125001,355.250473125001,360.4186578330009,355.250473125001,355.250473125001,355.250473125001,355.250473125001,355.72078954100107,356.7550705829999,355.69065912466635,,357.3188602499995,358.35212670799956,357.2885143326678,,355.250473125001,360.4186578330009,355.250473125001,360.4186578330009,360.46029570800056,,355.250473125001,1,1,1.1463125829995988,reldom2_s002,001,2025-01-23_15h13.38.681,What-A-Scan_AC,2022.2.5,None,
30,Second_Order,5.0,audwhat,stimulus/audwhat_stim/percussion mallet_low-pitch_F_loud.wav,stimulus/audwhat_stim/percussion mallet_high-pitch_Ftri_loud.wav,stimulus/audwhat_stim/string viola_low-pitch_F_loud.wav,stimulus/audwhat_stim/string viola_high-pitch_Ftri_loud.wav,stimulus/audwhat_stim/match_blank.png,stimulus/audwhat_stim/match_box.png,stimulus/audwhat_stim/match_yes.png,stimulus/audwhat_stim/match_no.png,1.0,Match,Category,Category,1,5.125,0,5.125,0,5.125,0,5.125,0,0.625,0.625,0,0.0,0,0.0,0,0.0,0,0.0,1,0.5,1,2.125,1,0.5,1,2.125,0,,,,,0,39,39,39,,,,,,,,,361.24581629100066,366.3617021660011,361.24581629100066,361.24581629100066,361.24581629100066,361.24581629100066,361.6983962080012,362.69673783300095,361.71100683266764,362.7043907080006,363.3210457080004,364.3173302079995,363.33165704166663,364.32550058299967,366.3617021660011,367.07272637499955,369.1305709160006,373.20449316600025,367.07272637499955,367.07272637499955,372.2239427500008,367.07272637499955,367.07272637499955,367.07272637499955,367.07272637499955,367.53931162499975,368.6137774580002,367.5091901666676,,369.1305709160006,370.1615023329996,369.10031695766725,,367.07272637499955,372.2239427500008,367.07272637499955,372.2239427500008,372.2659514999996,372.92665300000044,367.07272637499955,1,1,1.1998239589993318,reldom2_s002,001,2025-01-23_15h13.38.681,What-A-Scan_AC,2022.2.5,None,
0,0.0,None,fixation,stimulus/audwhat_stim/blank_white.png,stimulus/audwhat_stim/blank_white.png,stimulus/viswhat_stim/blank_white.png,stimulus/viswhat_stim/blank_white.png,stimulus/audwhat_stim/blank_white.png,stimulus/audwhat_stim/blank_white.png,stimulus/audwhat_stim/blank_white.png,stimulus/audwhat_stim/blank_white.png,0.0,0.0,0.0,0.0,0,0.0,0,0.0,0,0.0,0,0.0,0,0.0,0.0,0,0.0,0,0.0,0,0.0,0,0.0,0,0.0,0,0.0,0,0.0,0,0.0,9,,,,,0,40,40,40,,,,,,,,,373.20449316600025,373.20449316600025,373.20449316600025,373.20449316600025,373.20449316600025,373.20449316600025,373.20449316600025,373.20449316600025,373.10116399933406,373.20449316600025,373.20449316600025,373.20449316600025,373.10116399933406,373.20449316600025,373.20449316600025,373.20449316600025,373.20449316600025,373.20449316600025,373.20449316600025,373.20449316600025,373.20449316600025,373.20449316600025,373.20449316600025,373.20449316600025,373.20449316600025,373.20449316600025,373.20449316600025,373.1511639993341,373.20449316600025,373.20449316600025,373.20449316600025,373.1511639993341,373.20449316600025,373.20449316600025,373.20449316600025,373.20449316600025,373.20449316600025,378.39266045800105,378.39266045800105,382.4753908750008,None,0,,reldom2_s002,001,2025-01-23_15h13.38.681,What-A-Scan_AC,2022.2.5,None,
31,First_Order,6.0,audwhat,stimulus/audwhat_stim/dummy.wav,stimulus/audwhat_stim/dummy.wav,stimulus/audwhat_stim/string viola_high-pitch_F_loud.wav,stimulus/audwhat_stim/percussion xylophone_high-pitch_F_loud.wav,stimulus/audwhat_stim/blank_white.png,stimulus/audwhat_stim/category_box.png,stimulus/audwhat_stim/category_yes.png,stimulus/audwhat_stim/category_no.png,None,Category,None,Pitch,2,0.0,0,5.125,0,5.125,0,5.125,0,0.0,0.625,0,0.0,0,0.0,0,0.0,0,0.0,0,0.0,0,0.0,1,0.5,1,2.125,0,,,,,0,41,41,41,,,,,,,,,382.4753908750008,382.4753908750008,382.4753908750008,382.4753908750008,382.4753908750008,382.4753908750008,382.4753908750008,382.4753908750008,382.39863366666634,382.4753908750008,382.4753908750008,382.4753908750008,382.39863366666634,382.4753908750008,382.4753908750008,382.4753908750008,384.5528134159995,388.59072362500046,382.4753908750008,382.4753908750008,387.62602104100006,382.4753908750008,382.4753908750008,382.4753908750008,382.4753908750008,382.94952416600063,383.9868524579997,382.9191718746663,,384.5528134159995,385.59989495800073,384.52217733266684,385.59989495800073,382.4753908750008,387.62602104100006,382.4753908750008,387.62602104100006,387.6678993330006,388.3323706250012,382.4753908750008,2,1,1.1933738339994306,reldom2_s002,001,2025-01-23_15h13.38.681,What-A-Scan_AC,2022.2.5,None,
32,First_Order,6.0,audwhat,stimulus/audwhat_stim/dummy.wav,stimulus/audwhat_stim/dummy.wav,stimulus/audwhat_stim/percussion mallet_high-pitch_F_loud.wav,stimulus/audwhat_stim/percussion mallet_low-pitch_D_loud.wav,stimulus/audwhat_stim/blank_white.png,stimulus/audwhat_stim/pitch_box.png,stimulus/audwhat_stim/pitch_yes.png,stimulus/audwhat_stim/pitch_no.png,None,Pitch,None,Category,2,0.0,0,5.125,0,5.125,0,5.125,0,0.0,0.625,0,0.0,0,0.0,0,0.0,0,0.0,0,0.0,0,0.0,1,0.5,1,2.125,0,,,,,0,42,42,42,,,,,,,,,388.59072362500046,388.59072362500046,388.59072362500046,388.59072362500046,388.59072362500046,388.59072362500046,388.59072362500046,388.59072362500046,388.506841624334,388.59072362500046,388.59072362500046,388.59072362500046,388.506841624334,388.59072362500046,388.59072362500046,388.59072362500046,390.66215683300106,,388.59072362500046,388.59072362500046,393.7701779580002,388.59072362500046,388.59072362500046,388.59072362500046,388.59072362500046,389.0624347080011,390.09785275000104,389.0318290416674,,390.66215683300106,391.7009282500003,390.6299805826677,,388.59072362500046,393.7701779580002,388.59072362500046,393.7701779580002,393.81153945799997,394.47521666600005,388.59072362500046,1,0,2.5983163329983654,reldom2_s002,001,2025-01-23_15h13.38.681,What-A-Scan_AC,2022.2.5,None,
33,First_Order,6.0,audwhat,stimulus/audwhat_stim/dummy.wav,stimulus/audwhat_stim/dummy.wav,stimulus/audwhat_stim/string cello_high-pitch_D_loud.wav,stimulus/audwhat_stim/string cello_low-pitch_Dtri_loud.wav,stimulus/audwhat_stim/blank_white.png,stimulus/audwhat_stim/category_box.png,stimulus/audwhat_stim/category_yes.png,stimulus/audwhat_stim/category_no.png,None,Category,None,Category,1,0.0,0,5.125,0,5.125,0,5.125,0,0.0,0.625,0,0.0,0,0.0,0,0.0,0,0.0,0,0.0,0,0.0,1,0.5,1,2.125,0,,,,,0,43,43,43,,,,,,,,,394.6948255410007,394.6948255410007,394.6948255410007,394.6948255410007,394.6948255410007,394.6948255410007,394.6948255410007,394.6948255410007,394.6085499993334,394.6948255410007,394.6948255410007,394.6948255410007,394.6085499993334,394.6948255410007,394.6948255410007,394.6948255410007,396.7758605830004,400.81802516599964,394.6948255410007,394.6948255410007,399.85024837499986,394.6948255410007,394.6948255410007,394.6948255410007,394.6948255410007,395.16794483299964,396.2081888749999,395.1373867916666,,396.7758605830004,397.8194157500002,396.7449684996666,,394.6948255410007,399.85024837499986,394.6948255410007,399.85024837499986,399.89213012500113,400.5582627500007,394.6948255410007,1,1,1.3762454999978218,reldom2_s002,001,2025-01-23_15h13.38.681,What-A-Scan_AC,2022.2.5,None,
34,First_Order,6.0,audwhat,stimulus/audwhat_stim/dummy.wav,stimulus/audwhat_stim/dummy.wav,stimulus/audwhat_stim/string cello_high-pitch_F_loud.wav,stimulus/audwhat_stim/string viola_low-pitch_Ftri_loud.wav,stimulus/audwhat_stim/blank_white.png,stimulus/audwhat_stim/pitch_box.png,stimulus/audwhat_stim/pitch_yes.png,stimulus/audwhat_stim/pitch_no.png,None,Pitch,None,Category,2,0.0,0,5.125,0,5.125,0,5.125,0,0.0,0.625,0,0.0,0,0.0,0,0.0,0,0.0,0,0.0,0,0.0,1,0.5,1,2.125,0,,,,,0,44,44,44,,,,,,,,,400.81802516599964,400.81802516599964,400.81802516599964,400.81802516599964,400.81802516599964,400.81802516599964,400.81802516599964,400.81802516599964,400.73272183333404,400.81802516599964,400.81802516599964,400.81802516599964,400.73272183333404,400.81802516599964,400.81802516599964,400.81802516599964,402.88894125000115,,400.81802516599964,400.81802516599964,405.9975069579996,400.81802516599964,400.81802516599964,400.81802516599964,400.81802516599964,401.28847083300025,402.3225736660006,401.2577229576675,,402.88894125000115,403.9269613329998,402.8583106246663,,400.81802516599964,405.9975069579996,400.81802516599964,405.9975069579996,406.0384768750009,406.7042671250001,400.81802516599964,1,0,0.9783112499990239,reldom2_s002,001,2025-01-23_15h13.38.681,What-A-Scan_AC,2022.2.5,None,
0,0.0,None,fixation,stimulus/audwhat_stim/blank_white.png,stimulus/audwhat_stim/blank_white.png,stimulus/viswhat_stim/blank_white.png,stimulus/viswhat_stim/blank_white.png,stimulus/audwhat_stim/blank_white.png,stimulus/audwhat_stim/blank_white.png,stimulus/audwhat_stim/blank_white.png,stimulus/audwhat_stim/blank_white.png,0.0,0.0,0.0,0.0,0,0.0,0,0.0,0,0.0,0,0.0,0,0.0,0.0,0,0.0,0,0.0,0,0.0,0,0.0,0,0.0,0,0.0,0,0.0,0,0.0,10,,,,,0,45,45,45,,,,,,,,,406.9421321660011,406.9421321660011,406.9421321660011,406.9421321660011,406.9421321660011,406.9421321660011,406.9421321660011,406.9421321660011,406.83760045833344,406.9421321660011,406.9421321660011,406.9421321660011,406.83760045833344,406.9421321660011,406.9421321660011,406.9421321660011,406.9421321660011,406.9421321660011,406.9421321660011,406.9421321660011,406.9421321660011,406.9421321660011,406.9421321660011,406.9421321660011,406.9421321660011,406.9421321660011,406.9421321660011,406.88760045833345,406.9421321660011,406.9421321660011,406.9421321660011,406.88760045833345,406.9421321660011,406.9421321660011,406.9421321660011,406.9421321660011,406.9421321660011,412.14934004099996,412.14934004099996,417.0774785829999,None,0,,reldom2_s002,001,2025-01-23_15h13.38.681,What-A-Scan_AC,2022.2.5,None,
35,Second_Order,6.0,audwhat,stimulus/audwhat_stim/percussion xylophone_high-pitch_D_loud.wav,stimulus/audwhat_stim/string viola_high-pitch_D_loud.wav,stimulus/audwhat_stim/percussion mallet_high-pitch_Dtri_loud.wav,stimulus/audwhat_stim/percussion mallet_low-pitch_D_loud.wav,stimulus/audwhat_stim/match_blank.png,stimulus/audwhat_stim/match_box.png,stimulus/audwhat_stim/match_yes.png,stimulus/audwhat_stim/match_no.png,2.0,Match,Pitch,Category,2,5.125,0,5.125,0,5.125,0,5.125,0,0.75,0.75,0,0.0,0,0.0,0,0.0,0,0.0,1,0.5,1,2.125,1,0.5,1,2.125,0,,,,,0,46,46,46,,,,,,,,,417.0774785829999,422.20094795800105,417.0774785829999,417.0774785829999,417.0774785829999,417.0774785829999,417.52659454100103,418.52560320799967,417.5398617496669,418.53347075000056,419.1606642080005,420.1495784159997,419.16481149966626,,422.20094795800105,423.0367425410004,425.1052795830001,,423.0367425410004,423.0367425410004,428.21022000000085,423.0367425410004,423.0367425410004,423.0367425410004,423.0367425410004,423.50630850000016,424.5400582910006,423.4757479166676,,425.1052795830001,426.1429714999995,425.0749794996666,,423.0367425410004,428.21022000000085,423.0367425410004,428.21022000000085,428.2517015829999,,423.0367425410004,2,1,0.8120551669999259,reldom2_s002,001,2025-01-23_15h13.38.681,What-A-Scan_AC,2022.2.5,None,
36,Second_Order,6.0,audwhat,stimulus/audwhat_stim/percussion mallet_high-pitch_Dtri_loud.wav,stimulus/audwhat_stim/string viola_high-pitch_Dtri_loud.wav,stimulus/audwhat_stim/string cello_high-pitch_Dtri_loud.wav,stimulus/audwhat_stim/string viola_low-pitch_F_loud.wav,stimulus/audwhat_stim/match_blank.png,stimulus/audwhat_stim/match_box.png,stimulus/audwhat_stim/match_yes.png,stimulus/audwhat_stim/match_no.png,2.0,Match,Pitch,Category,2,5.125,0,5.125,0,5.125,0,5.125,0,0.625,0.625,0,0.0,0,0.0,0,0.0,0,0.0,1,0.5,1,2.125,1,0.5,1,2.125,0,,,,,0,47,47,47,,,,,,,,,429.0345703330004,434.1491710829996,429.0345703330004,429.0345703330004,429.0345703330004,429.0345703330004,429.48869424999975,430.4863365410001,429.50087804166674,430.495231541001,431.10962658300014,432.1067500829995,431.12131691666787,,434.1491710829996,434.86201125000116,436.92181708300086,440.9961955830004,434.86201125000116,434.86201125000116,440.0145038330011,434.86201125000116,434.86201125000116,434.86201125000116,434.86201125000116,435.3286796249995,436.3584492080008,435.2990808746674,,436.92181708300086,437.9534306250007,436.8919855416664,,434.86201125000116,440.0145038330011,434.86201125000116,440.0145038330011,440.0559263750001,440.7163900830001,434.86201125000116,2,1,1.409845124997446,reldom2_s002,001,2025-01-23_15h13.38.681,What-A-Scan_AC,2022.2.5,None,
0,0.0,None,fixation,stimulus/audwhat_stim/blank_white.png,stimulus/audwhat_stim/blank_white.png,stimulus/viswhat_stim/blank_white.png,stimulus/viswhat_stim/blank_white.png,stimulus/audwhat_stim/blank_white.png,stimulus/audwhat_stim/blank_white.png,stimulus/audwhat_stim/blank_white.png,stimulus/audwhat_stim/blank_white.png,0.0,0.0,0.0,0.0,0,0.0,0,0.0,0,0.0,0,0.0,0,0.0,0.0,0,0.0,0,0.0,0,0.0,0,0.0,0,0.0,0,0.0,0,0.0,0,0.0,8,,,,,0,48,48,48,,,,,,,,,440.9961955830004,440.9961955830004,440.9961955830004,440.9961955830004,440.9961955830004,440.9961955830004,440.9961955830004,440.9961955830004,440.8908682913335,440.9961955830004,440.9961955830004,440.9961955830004,440.8908682913335,440.9961955830004,440.9961955830004,440.9961955830004,440.9961955830004,440.9961955830004,440.9961955830004,440.9961955830004,440.9961955830004,440.9961955830004,440.9961955830004,440.9961955830004,440.9961955830004,440.9961955830004,440.9961955830004,440.9408682913335,440.9961955830004,440.9961955830004,440.9961955830004,440.9408682913335,440.9961955830004,440.9961955830004,440.9961955830004,440.9961955830004,440.9961955830004,446.1813108330007,446.1813108330007,449.21448654100095,None,0,,reldom2_s002,001,2025-01-23_15h13.38.681,What-A-Scan_AC,2022.2.5,None,
37,First_Order,7.0,viswhat,stimulus/viswhat_stim/blank_white.png,stimulus/viswhat_stim/blank_white.png,stimulus/viswhat_stim/land_animal-zebra.png,stimulus/viswhat_stim/water_animal-squid.png,stimulus/viswhat_stim/blank_white.png,stimulus/viswhat_stim/type_box.png,stimulus/viswhat_stim/type_yes.png,stimulus/viswhat_stim/type_no.png,None,Type,None,Type,1,0.0,0,5.125,0,5.125,0,5.125,0,0.0,0.625,0,0.0,0,0.0,1,0.5,1,2.125,0,0.0,0,0.0,0,0.0,0,0.0,0,,,,,0,49,49,49,,,,,,,,,449.21448654100095,449.21448654100095,449.21448654100095,449.21448654100095,449.21448654100095,449.21448654100095,449.21448654100095,449.21448654100095,449.1622245826662,449.21448654100095,449.21448654100095,449.21448654100095,449.1622245826662,449.21448654100095,449.21448654100095,449.21448654100095,451.3104884580007,455.549814375001,449.21448654100095,449.21448654100095,454.3589326660003,449.67154049999954,450.688411041001,451.3104884580007,452.3325893750007,449.21448654100095,449.21448654100095,449.1955579159996,449.21448654100095,449.21448654100095,449.21448654100095,449.1955579159996,449.21448654100095,449.21448654100095,454.3589326660003,449.21448654100095,454.3589326660003,454.4400192080011,455.09418479099986,449.21448654100095,1,1,0.7022652919986285,reldom2_s002,001,2025-01-23_15h13.38.681,What-A-Scan_AC,2022.2.5,None,
38,First_Order,7.0,viswhat,stimulus/viswhat_stim/blank_white.png,stimulus/viswhat_stim/blank_white.png,stimulus/viswhat_stim/water_vehicle-submarine.png,stimulus/viswhat_stim/water_animal-lobster.png,stimulus/viswhat_stim/blank_white.png,stimulus/viswhat_stim/location_box.png,stimulus/viswhat_stim/location_yes.png,stimulus/viswhat_stim/location_no.png,None,Location,None,Location,1,0.0,0,5.125,0,5.125,0,5.125,0,0.0,0.625,0,0.0,0,0.0,1,0.5,1,2.125,0,0.0,0,0.0,0,0.0,0,0.0,0,,,,,0,50,50,50,,,,,,,,,455.549814375001,455.549814375001,455.549814375001,455.549814375001,455.549814375001,455.549814375001,455.549814375001,455.549814375001,455.26467129166656,455.549814375001,455.549814375001,455.549814375001,455.26467129166656,455.549814375001,455.549814375001,455.549814375001,457.535373875,,455.549814375001,455.549814375001,460.8950566250005,456.0080495410002,457.2295935000002,457.535373875,458.7575630829997,455.549814375001,455.549814375001,455.3980046249999,455.549814375001,455.549814375001,455.549814375001,455.3980046249999,455.549814375001,455.549814375001,460.8950566250005,455.549814375001,460.8950566250005,460.7463821250003,,455.549814375001,1,1,1.2286804589984968,reldom2_s002,001,2025-01-23_15h13.38.681,What-A-Scan_AC,2022.2.5,None,
39,First_Order,7.0,viswhat,stimulus/viswhat_stim/blank_white.png,stimulus/viswhat_stim/blank_white.png,stimulus/viswhat_stim/land_vehicle-vespa.png,stimulus/viswhat_stim/water_vehicle-yacht.png,stimulus/viswhat_stim/blank_white.png,stimulus/viswhat_stim/location_box.png,stimulus/viswhat_stim/location_yes.png,stimulus/viswhat_stim/location_no.png,None,Location,None,Type,2,0.0,0,5.125,0,5.125,0,5.125,0,0.0,0.625,0,0.0,0,0.0,1,0.5,1,2.125,0,0.0,0,0.0,0,0.0,0,0.0,0,,,,,0,51,51,51,,,,,,,,,461.61089170800005,461.61089170800005,461.61089170800005,461.61089170800005,461.61089170800005,461.61089170800005,461.61089170800005,461.61089170800005,461.53876141600045,461.61089170800005,461.61089170800005,461.61089170800005,461.53876141600045,461.61089170800005,461.61089170800005,461.61089170800005,463.69743204100087,,461.61089170800005,461.61089170800005,466.7700797079997,462.0794803330009,463.1455055410006,463.69743204100087,464.72585708299994,461.61089170800005,461.61089170800005,461.5720947493338,461.61089170800005,461.61089170800005,461.61089170800005,461.5720947493338,461.61089170800005,461.61089170800005,466.7700797079997,461.61089170800005,466.7700797079997,466.80706208300035,467.46927691600104,461.61089170800005,1,0,0.7442719999999099,reldom2_s002,001,2025-01-23_15h13.38.681,What-A-Scan_AC,2022.2.5,None,
40,First_Order,7.0,viswhat,stimulus/viswhat_stim/blank_white.png,stimulus/viswhat_stim/blank_white.png,stimulus/viswhat_stim/water_vehicle-canoe.png,stimulus/viswhat_stim/water_animal-whale (1).png,stimulus/viswhat_stim/blank_white.png,stimulus/viswhat_stim/location_box.png,stimulus/viswhat_stim/location_yes.png,stimulus/viswhat_stim/location_no.png,None,Location,None,Location,1,0.0,0,5.125,0,5.125,0,5.125,0,0.0,0.625,0,0.0,0,0.0,1,0.5,1,2.125,0,0.0,0,0.0,0,0.0,0,0.0,0,,,,,0,52,52,52,,,,,,,,,467.6824602910001,467.6824602910001,467.6824602910001,467.6824602910001,467.6824602910001,467.6824602910001,467.6824602910001,467.6824602910001,467.63931212433283,467.6824602910001,467.6824602910001,467.6824602910001,467.63931212433283,467.6824602910001,467.6824602910001,467.6824602910001,469.7667244580007,473.8287792909996,467.6824602910001,467.6824602910001,472.83383191600115,468.160543375001,469.2022186659997,469.7667244580007,470.7848842500007,467.6824602910001,467.6824602910001,467.6559787909995,467.6824602910001,467.6824602910001,467.6824602910001,467.6559787909995,467.6824602910001,467.6824602910001,472.83383191600115,467.6824602910001,472.83383191600115,472.90574245800053,473.55105366600037,467.6824602910001,1,1,0.6267222499991476,reldom2_s002,001,2025-01-23_15h13.38.681,What-A-Scan_AC,2022.2.5,None,
0,0.0,None,fixation,stimulus/audwhat_stim/blank_white.png,stimulus/audwhat_stim/blank_white.png,stimulus/viswhat_stim/blank_white.png,stimulus/viswhat_stim/blank_white.png,stimulus/audwhat_stim/blank_white.png,stimulus/audwhat_stim/blank_white.png,stimulus/audwhat_stim/blank_white.png,stimulus/audwhat_stim/blank_white.png,0.0,0.0,0.0,0.0,0,0.0,0,0.0,0,0.0,0,0.0,0,0.0,0.0,0,0.0,0,0.0,0,0.0,0,0.0,0,0.0,0,0.0,0,0.0,0,0.0,10,,,,,0,53,53,53,,,,,,,,,473.8287792909996,473.8287792909996,473.8287792909996,473.8287792909996,473.8287792909996,473.8287792909996,473.8287792909996,473.8287792909996,473.7227443330008,473.8287792909996,473.8287792909996,473.8287792909996,473.7227443330008,473.8287792909996,473.8287792909996,473.8287792909996,473.8287792909996,473.8287792909996,473.8287792909996,473.8287792909996,473.8287792909996,473.8287792909996,473.8287792909996,473.8287792909996,473.8287792909996,473.8287792909996,473.8287792909996,473.78941099966744,473.8287792909996,473.8287792909996,473.8287792909996,473.78941099966744,473.8287792909996,473.8287792909996,473.8287792909996,473.8287792909996,473.8287792909996,479.05643020800017,479.05643020800017,484.01600195799983,None,0,,reldom2_s002,001,2025-01-23_15h13.38.681,What-A-Scan_AC,2022.2.5,None,
41,Second_Order,7.0,viswhat,stimulus/viswhat_stim/water_vehicle-cruiser.png,stimulus/viswhat_stim/land_vehicle-bus.png,stimulus/viswhat_stim/land_animal-fox.png,stimulus/viswhat_stim/water_animal-dolphin.png,stimulus/audwhat_stim/match_blank.png,stimulus/audwhat_stim/match_box.png,stimulus/audwhat_stim/match_yes.png,stimulus/audwhat_stim/match_no.png,1.0,Match,Type,Type,1,5.125,0,5.125,0,5.125,0,5.125,0,0.75,0.75,1,0.5,1,2.125,1,0.5,1,2.125,0,0.0,0,0.0,0,0.0,0,0.0,0,,,,,0,54,54,54,,,,,,,,,484.01600195799983,489.13885995800047,484.4481680000008,485.4466137500003,486.0690807080009,487.0675277499995,484.01600195799983,484.01600195799983,484.02534308333355,484.01600195799983,484.01600195799983,484.01600195799983,484.02534308333355,484.01600195799983,489.13885995800047,489.93360766600017,492.01374770800066,495.9332081249995,489.93360766600017,489.93360766600017,495.0872548749994,490.38615379099974,491.4021162909994,492.01374770800066,493.0340662079998,489.93360766600017,489.93360766600017,489.9066387083335,489.93360766600017,489.93360766600017,489.93360766600017,489.9066387083335,489.93360766600017,489.93360766600017,495.0872548749994,489.93360766600017,495.0872548749994,495.1291669580005,495.9332081249995,489.93360766600017,1,1,0.7548261249994539,reldom2_s002,001,2025-01-23_15h13.38.681,What-A-Scan_AC,2022.2.5,None,
42,Second_Order,7.0,viswhat,stimulus/viswhat_stim/water_animal-whale.png,stimulus/viswhat_stim/water_vehicle-ferryboat.png,stimulus/viswhat_stim/land_vehicle-tank.png,stimulus/viswhat_stim/land_animal-wolf.png,stimulus/audwhat_stim/match_blank.png,stimulus/audwhat_stim/match_box.png,stimulus/audwhat_stim/match_yes.png,stimulus/audwhat_stim/match_no.png,1.0,Match,Location,Location,1,5.125,0,5.125,0,5.125,0,5.125,0,0.625,0.625,1,0.5,1,2.125,1,0.5,1,2.125,0,0.0,0,0.0,0,0.0,0,0.0,0,,,,,0,55,55,55,,,,,,,,,495.9332081249995,501.0547372910005,496.39241420799954,497.390591333,498.02581895799995,499.01446541599944,495.9332081249995,495.9332081249995,495.9463920833344,495.9332081249995,495.9332081249995,495.9332081249995,495.9463920833344,495.9332081249995,501.0547372910005,501.7156325830001,503.7983526250009,507.8591716250012,501.7156325830001,501.7156325830001,506.85144799999944,502.1876657080011,503.1979441660005,503.7983526250009,504.8129837079996,501.7156325830001,501.7156325830001,501.70055429133436,501.7156325830001,501.7156325830001,501.7156325830001,501.70055429133436,501.7156325830001,501.7156325830001,506.85144799999944,501.7156325830001,506.85144799999944,506.930646625,507.56579308300024,501.7156325830001,2,0,1.9420754170005239,reldom2_s002,001,2025-01-23_15h13.38.681,What-A-Scan_AC,2022.2.5,None,
0,0.0,None,fixation,stimulus/audwhat_stim/blank_white.png,stimulus/audwhat_stim/blank_white.png,stimulus/viswhat_stim/blank_white.png,stimulus/viswhat_stim/blank_white.png,stimulus/audwhat_stim/blank_white.png,stimulus/audwhat_stim/blank_white.png,stimulus/audwhat_stim/blank_white.png,stimulus/audwhat_stim/blank_white.png,0.0,0.0,0.0,0.0,0,0.0,0,0.0,0,0.0,0,0.0,0,0.0,0.0,0,0.0,0,0.0,0,0.0,0,0.0,0,0.0,0,0.0,0,0.0,0,0.0,9,,,,,0,56,56,56,,,,,,,,,507.8591716250012,507.8591716250012,507.8591716250012,507.8591716250012,507.8591716250012,507.8591716250012,507.8591716250012,507.8591716250012,507.74944299933424,507.8591716250012,507.8591716250012,507.8591716250012,507.74944299933424,507.8591716250012,507.8591716250012,507.8591716250012,507.8591716250012,507.8591716250012,507.8591716250012,507.8591716250012,507.8591716250012,507.8591716250012,507.8591716250012,507.8591716250012,507.8591716250012,507.8591716250012,507.8591716250012,507.8161096660009,507.8591716250012,507.8591716250012,507.8591716250012,507.8161096660009,507.8591716250012,507.8591716250012,507.8591716250012,507.8591716250012,507.8591716250012,513.0583302499999,513.0583302499999,517.0755141660011,None,0,,reldom2_s002,001,2025-01-23_15h13.38.681,What-A-Scan_AC,2022.2.5,None,
43,First_Order,8.0,viswhat,stimulus/viswhat_stim/blank_white.png,stimulus/viswhat_stim/blank_white.png,stimulus/viswhat_stim/water_vehicle-canoe.png,stimulus/viswhat_stim/water_animal-octopus.png,stimulus/viswhat_stim/blank_white.png,stimulus/viswhat_stim/type_box.png,stimulus/viswhat_stim/type_yes.png,stimulus/viswhat_stim/type_no.png,None,Type,None,Location,2,0.0,0,5.125,0,5.125,0,5.125,0,0.0,0.625,0,0.0,0,0.0,1,0.5,1,2.125,0,0.0,0,0.0,0,0.0,0,0.0,0,,,,,0,57,57,57,,,,,,,,,517.0755141660011,517.0755141660011,517.0755141660011,517.0755141660011,517.0755141660011,517.0755141660011,517.0755141660011,517.0755141660011,517.0202317076661,517.0755141660011,517.0755141660011,517.0755141660011,517.0202317076661,517.0755141660011,517.0755141660011,517.0755141660011,519.1872857910002,,517.0755141660011,517.0755141660011,522.2372812499998,517.5599501659999,518.598666291,519.1872857910002,520.228894541,517.0755141660011,517.0755141660011,517.0535650409994,517.0755141660011,517.0755141660011,517.0755141660011,517.0535650409994,517.0755141660011,517.0755141660011,522.2372812499998,517.0755141660011,522.2372812499998,522.2951321250002,522.9343051659998,517.0755141660011,2,1,1.3352720000002591,reldom2_s002,001,2025-01-23_15h13.38.681,What-A-Scan_AC,2022.2.5,None,
44,First_Order,8.0,viswhat,stimulus/viswhat_stim/blank_white.png,stimulus/viswhat_stim/blank_white.png,stimulus/viswhat_stim/water_animal-octopus.png,stimulus/viswhat_stim/land_animal-snake.png,stimulus/viswhat_stim/blank_white.png,stimulus/viswhat_stim/type_box.png,stimulus/viswhat_stim/type_yes.png,stimulus/viswhat_stim/type_no.png,None,Type,None,Type,1,0.0,0,5.125,0,5.125,0,5.125,0,0.0,0.625,0,0.0,0,0.0,1,0.5,1,2.125,0,0.0,0,0.0,0,0.0,0,0.0,0,,,,,0,58,58,58,,,,,,,,,523.1540134160005,523.1540134160005,523.1540134160005,523.1540134160005,523.1540134160005,523.1540134160005,523.1540134160005,523.1540134160005,523.108465541667,523.1540134160005,523.1540134160005,523.1540134160005,523.108465541667,523.1540134160005,523.1540134160005,523.1540134160005,525.2441495830008,529.2407952499998,523.1540134160005,523.1540134160005,528.2897269580008,523.628715791001,524.6439275000012,525.2441495830008,526.2641236250001,523.1540134160005,523.1540134160005,523.1251322083336,523.1540134160005,523.1540134160005,523.1540134160005,523.1251322083336,523.1540134160005,523.1540134160005,528.2897269580008,523.1540134160005,528.2897269580008,528.367244250001,529.0169608750002,523.1540134160005,1,1,0.879258041999492,reldom2_s002,001,2025-01-23_15h13.38.681,What-A-Scan_AC,2022.2.5,None,
45,First_Order,8.0,viswhat,stimulus/viswhat_stim/blank_white.png,stimulus/viswhat_stim/blank_white.png,stimulus/viswhat_stim/land_vehicle-schoolbus.png,stimulus/viswhat_stim/land_animal-pig.png,stimulus/viswhat_stim/blank_white.png,stimulus/viswhat_stim/type_box.png,stimulus/viswhat_stim/type_yes.png,stimulus/viswhat_stim/type_no.png,None,Type,None,Location,2,0.0,0,5.125,0,5.125,0,5.125,0,0.0,0.625,0,0.0,0,0.0,1,0.5,1,2.125,0,0.0,0,0.0,0,0.0,0,0.0,0,,,,,0,59,59,59,,,,,,,,,529.2407952499998,529.2407952499998,529.2407952499998,529.2407952499998,529.2407952499998,529.2407952499998,529.2407952499998,529.2407952499998,529.1941895830001,529.2407952499998,529.2407952499998,529.2407952499998,529.1941895830001,529.2407952499998,529.2407952499998,529.2407952499998,531.333710541001,535.3599564579999,529.2407952499998,529.2407952499998,534.3695821250003,529.7237223330012,530.744807000001,531.333710541001,532.3592564160008,529.2407952499998,529.2407952499998,529.2275229163334,529.2407952499998,529.2407952499998,529.2407952499998,529.2275229163334,529.2407952499998,529.2407952499998,534.3695821250003,529.2407952499998,534.3695821250003,534.4536452499997,535.0882089999996,529.2407952499998,2,1,0.6305944169998838,reldom2_s002,001,2025-01-23_15h13.38.681,What-A-Scan_AC,2022.2.5,None,
46,First_Order,8.0,viswhat,stimulus/viswhat_stim/blank_white.png,stimulus/viswhat_stim/blank_white.png,stimulus/viswhat_stim/land_vehicle-oldcar.png,stimulus/viswhat_stim/water_vehicle-powercruiser.png,stimulus/viswhat_stim/blank_white.png,stimulus/viswhat_stim/location_box.png,stimulus/viswhat_stim/location_yes.png,stimulus/viswhat_stim/location_no.png,None,Location,None,Type,2,0.0,0,5.125,0,5.125,0,5.125,0,0.0,0.625,0,0.0,0,0.0,1,0.5,1,2.125,0,0.0,0,0.0,0,0.0,0,0.0,0,,,,,0,60,60,60,,,,,,,,,535.3599564579999,535.3599564579999,535.3599564579999,535.3599564579999,535.3599564579999,535.3599564579999,535.3599564579999,535.3599564579999,535.2922529160002,535.3599564579999,535.3599564579999,535.3599564579999,535.2922529160002,535.3599564579999,535.3599564579999,535.3599564579999,537.456831458001,,535.3599564579999,535.3599564579999,540.5220387080008,535.8217750000003,536.8708430830011,537.456831458001,538.5064919159995,535.3599564579999,535.3599564579999,535.3255862493335,535.3599564579999,535.3599564579999,535.3599564579999,535.3255862493335,535.3599564579999,535.3599564579999,540.5220387080008,535.3599564579999,540.5220387080008,540.558282,541.2137216659994,535.3599564579999,2,1,1.247264333998828,reldom2_s002,001,2025-01-23_15h13.38.681,What-A-Scan_AC,2022.2.5,None,
0,0.0,None,fixation,stimulus/audwhat_stim/blank_white.png,stimulus/audwhat_stim/blank_white.png,stimulus/viswhat_stim/blank_white.png,stimulus/viswhat_stim/blank_white.png,stimulus/audwhat_stim/blank_white.png,stimulus/audwhat_stim/blank_white.png,stimulus/audwhat_stim/blank_white.png,stimulus/audwhat_stim/blank_white.png,0.0,0.0,0.0,0.0,0,0.0,0,0.0,0,0.0,0,0.0,0,0.0,0.0,0,0.0,0,0.0,0,0.0,0,0.0,0,0.0,0,0.0,0,0.0,0,0.0,9,,,,,0,61,61,61,,,,,,,,,541.4812627080009,541.4812627080009,541.4812627080009,541.4812627080009,541.4812627080009,541.4812627080009,541.4812627080009,541.4812627080009,541.3831047083332,541.4812627080009,541.4812627080009,541.4812627080009,541.3831047083332,541.4812627080009,541.4812627080009,541.4812627080009,541.4812627080009,541.4812627080009,541.4812627080009,541.4812627080009,541.4812627080009,541.4812627080009,541.4812627080009,541.4812627080009,541.4812627080009,541.4812627080009,541.4812627080009,541.4331047083332,541.4812627080009,541.4812627080009,541.4812627080009,541.4331047083332,541.4812627080009,541.4812627080009,541.4812627080009,541.4812627080009,541.4812627080009,546.7083009159996,546.7083009159996,550.7240430410002,None,0,,reldom2_s002,001,2025-01-23_15h13.38.681,What-A-Scan_AC,2022.2.5,None,
47,Second_Order,8.0,viswhat,stimulus/viswhat_stim/water_animal-dolphin.png,stimulus/viswhat_stim/water_vehicle-cruiseship.png,stimulus/viswhat_stim/land_vehicle-oldcar.png,stimulus/viswhat_stim/land_animal-giraffe.png,stimulus/audwhat_stim/match_blank.png,stimulus/audwhat_stim/match_box.png,stimulus/audwhat_stim/match_yes.png,stimulus/audwhat_stim/match_no.png,1.0,Match,Location,Location,1,5.125,0,5.125,0,5.125,0,5.125,0,0.75,0.75,1,0.5,1,2.125,1,0.5,1,2.125,0,0.0,0,0.0,0,0.0,0,0.0,0,,,,,0,62,62,62,,,,,,,,,550.7240430410002,555.8479188750007,551.1178199580008,552.1040690829996,552.7423281249994,553.7411498750007,550.7240430410002,550.7240430410002,550.7330915826674,550.7240430410002,550.7240430410002,550.7240430410002,550.7330915826674,550.7240430410002,555.8479188750007,556.7210950829995,558.8221411249997,,556.7210950829995,556.7210950829995,561.9301917499997,557.1937773749996,558.2787468330007,558.8221411249997,559.9064561249997,556.7210950829995,556.7210950829995,556.6638683743344,556.7210950829995,556.7210950829995,556.7210950829995,556.6638683743344,556.7210950829995,556.7210950829995,561.9301917499997,556.7210950829995,561.9301917499997,561.9301917499997,,556.7210950829995,1,1,1.3958977079983015,reldom2_s002,001,2025-01-23_15h13.38.681,What-A-Scan_AC,2022.2.5,None,
48,Second_Order,8.0,viswhat,stimulus/viswhat_stim/land_animal-ostrich.png,stimulus/viswhat_stim/water_animal-shark.png,stimulus/viswhat_stim/water_animal-whale.png,stimulus/viswhat_stim/water_vehicle-cargoboat.png,stimulus/audwhat_stim/match_blank.png,stimulus/audwhat_stim/match_box.png,stimulus/audwhat_stim/match_yes.png,stimulus/audwhat_stim/match_no.png,2.0,Match,Type,Location,2,5.125,0,5.125,0,5.125,0,5.125,0,0.625,0.625,1,0.5,1,2.125,1,0.5,1,2.125,0,0.0,0,0.0,0,0.0,0,0.0,0,,,,,0,63,63,63,,,,,,,,,562.7038970409994,567.8249517910008,563.1630265410004,564.161474333001,564.7848736659998,565.7816444580003,562.7038970409994,562.7038970409994,562.7142485416667,562.7038970409994,562.7038970409994,562.7038970409994,562.7142485416667,562.7038970409994,567.8249517910008,568.5035278329997,570.5878969160003,574.6460704580004,568.5035278329997,568.5035278329997,573.6501507080011,568.9650941660002,569.9924387909996,570.5878969160003,571.6203329580003,568.5035278329997,568.5035278329997,568.488323708,568.5035278329997,568.5035278329997,568.5035278329997,568.488323708,568.5035278329997,568.5035278329997,573.6501507080011,568.5035278329997,573.6501507080011,573.7146702080008,574.355020250001,568.5035278329997,2,1,2.217297082999721,reldom2_s002,001,2025-01-23_15h13.38.681,What-A-Scan_AC,2022.2.5,None,
0,0.0,None,fixation,stimulus/audwhat_stim/blank_white.png,stimulus/audwhat_stim/blank_white.png,stimulus/viswhat_stim/blank_white.png,stimulus/viswhat_stim/blank_white.png,stimulus/audwhat_stim/blank_white.png,stimulus/audwhat_stim/blank_white.png,stimulus/audwhat_stim/blank_white.png,stimulus/audwhat_stim/blank_white.png,0.0,0.0,0.0,0.0,0,0.0,0,0.0,0,0.0,0,0.0,0,0.0,0.0,0,0.0,0,0.0,0,0.0,0,0.0,0,0.0,0,0.0,0,0.0,0,0.0,16,,,,,0,64,64,64,,,,,,,,,574.6460704580004,574.6460704580004,574.6460704580004,574.6460704580004,574.6460704580004,574.6460704580004,574.6460704580004,574.6460704580004,574.5400027909997,574.6460704580004,574.6460704580004,574.6460704580004,574.5400027909997,574.6460704580004,574.6460704580004,574.6460704580004,574.6460704580004,574.6460704580004,574.6460704580004,574.6460704580004,574.6460704580004,574.6460704580004,574.6460704580004,574.6460704580004,574.6460704580004,574.6460704580004,574.6460704580004,574.5900027909996,574.6460704580004,574.6460704580004,574.6460704580004,574.5900027909996,574.6460704580004,574.6460704580004,574.6460704580004,574.6460704580004,574.6460704580004,579.8536701659996,579.8536701659996,590.7920938330008,None,0,,reldom2_s002,001,2025-01-23_15h13.38.681,What-A-Scan_AC,2022.2.5,None,
