Trial,Order,Block,Type,Stimuli_File1,Stimuli_File2,Stimuli_File3,Stimuli_File4,Cue_File1,Cue_File2,Response_File_Yes,Response_File_No,Match,Cue_Dimension,Pair1_Dimension,Pair2_Dimension,Key,Cue1_Duration,Cue1_Onset,Cue2_Duration,Cue2_Onset,ResponseYes_Duration,ResponseYes_Onset,ResponseNo_Duration,ResponseNo_Onset,ITI_Within,ITI_Between,Image1_Duration,Image1_Onset,Image2_Duration,Image2_Onset,Image3_Duration,Image3_Onset,Image4_Duration,Image4_Onset,Sound1_Duration,Sound1_Onset,Sound2_Duration,Sound2_Onset,Sound3_Duration,Sound3_Onset,Sound4_Duration,Sound4_Onset,Fixation_Duration,trials_2.thisRepN,trials_2.thisTrialN,trials_2.thisN,trials_2.thisIndex,trials.thisRepN,trials.thisTrialN,trials.thisN,trials.thisIndex,text_start.started,key_resp_start.started,key_resp_start.keys,key_resp_start.rt,text2.started,key_resp_2.started,key_resp_2.keys,key_resp_2.rt,cue_file1.started,cue_file1.stopped,image_1.started,image_1.stopped,image_2.started,image_2.stopped,sound_icon1.started,sound_icon1.stopped,sound_1.started,sound_1.stopped,sound_icon2.started,sound_icon2.stopped,sound_2.started,sound_2.stopped,image_blank_1.started,image_blank_1.stopped,key_press.started,key_press.stopped,fixation_text.started,cue_file2.started,cue_file2.stopped,image_3.started,image_3.stopped,image_4.started,image_4.stopped,sound_icon3.started,sound_icon3.stopped,sound_3.started,sound_3.stopped,sound_icon4.started,sound_icon4.stopped,sound_4.started,sound_4.stopped,response_yes.started,response_yes.stopped,response_no.started,response_no.stopped,iti_blank.started,iti_blank.stopped,fixation_text.stopped,key_press.keys,key_press.corr,key_press.rt,participant,session,date,expName,psychopyVersion,frameRate,
,,,,,,,,,,,,,,,,,,,,,,,,,,,,,,,,,,,,,,,,,,,,,,,,,,,,8.771076249999169,8.771076249999169,2,0.6168599170014204,,,,,,,,,,,,,,,,,,,,,,,,,,,,,,,,,,,,,,,,,,,,,,,,reldom2_s002,001,2025-01-23_15h02.05.181,Vis-A-Scan_AC,2022.2.5,None,
,,,,,,,,,,,,,,,,,,,,,,,,,,,,,,,,,,,,,,,,,,,,0,0,0,0,,,,,,,,,9.404135457998564,9.404135457998564,5,28.43518429100186,,,,,,,,,,,,,,,,,,,,,,,,,,,,,,,,,,,,,,,,,,,,reldom2_s002,001,2025-01-23_15h02.05.181,Vis-A-Scan_AC,2022.2.5,None,
,,,,,,,,,,,,,,,,,,,,,,,,,,,,,,,,,,,,,,,,,,,,1,0,1,0,,,,,,,,,37.859321374999126,37.859321374999126,5,1.9816340410015982,,,,,,,,,,,,,,,,,,,,,,,,,,,,,,,,,,,,,,,,,,,,reldom2_s002,001,2025-01-23_15h02.05.181,Vis-A-Scan_AC,2022.2.5,None,
,,,,,,,,,,,,,,,,,,,,,,,,,,,,,,,,,,,,,,,,,,,,2,0,2,0,,,,,,,,,39.854595875000086,39.854595875000086,5,1.9854958330015506,,,,,,,,,,,,,,,,,,,,,,,,,,,,,,,,,,,,,,,,,,,,reldom2_s002,001,2025-01-23_15h02.05.181,Vis-A-Scan_AC,2022.2.5,None,
,,,,,,,,,,,,,,,,,,,,,,,,,,,,,,,,,,,,,,,,,,,,3,0,3,0,,,,,,,,,41.85055749999992,41.85055749999992,5,1.9885673750013666,,,,,,,,,,,,,,,,,,,,,,,,,,,,,,,,,,,,,,,,,,,,reldom2_s002,001,2025-01-23_15h02.05.181,Vis-A-Scan_AC,2022.2.5,None,
0,0.0,None,fixation,stimulus/viswhat_stim/blank_white.png,stimulus/viswhat_stim/blank_white.png,stimulus/viswhere_stim/blank_white.png,stimulus/viswhere_stim/blank_white.png,stimulus/viswhat_stim/blank_white.png,stimulus/viswhat_stim/blank_white.png,stimulus/viswhat_stim/blank_white.png,stimulus/viswhat_stim/blank_white.png,0.0,0.0,0.0,0.0,0,0.0,0,0.0,0,0.0,0,0.0,0,0.0,0.0,0,0.0,0,0.0,0,0.0,0,0.0,0,0,0,0,0,0,0,0,16,,,,,0,0,0,0,,,,,,,,,44.03836566700011,44.03836566700011,44.03836566700011,44.03836566700011,44.03836566700011,44.03836566700011,44.03836566700011,44.03836566700011,43.931092083333475,44.03836566700011,44.03836566700011,44.03836566700011,43.931092083333475,44.03836566700011,44.03836566700011,44.03836566700011,44.03836566700011,44.03836566700011,44.03836566700011,44.03836566700011,44.03836566700011,44.03836566700011,44.03836566700011,44.03836566700011,44.03836566700011,44.03836566700011,44.03836566700011,43.99775875000014,44.03836566700011,44.03836566700011,44.03836566700011,43.99775875000014,44.03836566700011,44.03836566700011,44.03836566700011,44.03836566700011,44.03836566700011,49.21400283299954,49.21400283299954,60.31723549999879,None,0,,reldom2_s002,001,2025-01-23_15h02.05.181,Vis-A-Scan_AC,2022.2.5,None,
1,First_Order,1.0,viswhat,stimulus/viswhat_stim/blank_white.png,stimulus/viswhat_stim/blank_white.png,stimulus/viswhat_stim/land_animal-moose.png,stimulus/viswhat_stim/water_animal-seaturtle.png,stimulus/viswhat_stim/blank_white.png,stimulus/viswhat_stim/type_box.png,stimulus/viswhat_stim/type_yes.png,stimulus/viswhat_stim/type_no.png,None,Type,None,Type,1,0.0,0,5.125,0,5.125,0,5.125,0,0.0,0.625,0,0.0,0,0.0,1,0.5,1,2.125,0,0,0,0,0,0,0,0,0,,,,,0,1,1,1,,,,,,,,,60.31723549999879,60.31723549999879,60.31723549999879,60.31723549999879,60.31723549999879,60.31723549999879,60.31723549999879,60.31723549999879,60.21253424999886,60.31723549999879,60.31723549999879,60.31723549999879,60.21253424999886,60.31723549999879,60.31723549999879,60.31723549999879,62.401337457999034,,60.31723549999879,60.31723549999879,65.53223079199961,60.781682541999544,61.82352779199937,62.401337457999034,63.44626558299933,60.31723549999879,60.31723549999879,60.26253424999886,60.31723549999879,60.31723549999879,60.31723549999879,60.26253424999886,60.31723549999879,60.31723549999879,65.53223079199961,60.31723549999879,65.53223079199961,65.53223079199961,66.36231212500024,60.31723549999879,1,1,2.0591582490014844,reldom2_s002,001,2025-01-23_15h02.05.181,Vis-A-Scan_AC,2022.2.5,None,
2,First_Order,1.0,viswhat,stimulus/viswhat_stim/blank_white.png,stimulus/viswhat_stim/blank_white.png,stimulus/viswhat_stim/water_vehicle-submarine.png,stimulus/viswhat_stim/land_vehicle-firetruck.png,stimulus/viswhat_stim/blank_white.png,stimulus/viswhat_stim/type_box.png,stimulus/viswhat_stim/type_yes.png,stimulus/viswhat_stim/type_no.png,None,Type,None,Type,1,0.0,0,5.125,0,5.125,0,5.125,0,0.0,0.625,0,0.0,0,0.0,1,0.5,1,2.125,0,0,0,0,0,0,0,0,0,,,,,0,2,2,2,,,,,,,,,66.36231212500024,66.36231212500024,66.36231212500024,66.36231212500024,66.36231212500024,66.36231212500024,66.36231212500024,66.36231212500024,66.31596729199956,66.36231212500024,66.36231212500024,66.36231212500024,66.31596729199956,66.36231212500024,66.36231212500024,66.36231212500024,68.46808495799996,72.46145037499991,66.36231212500024,66.36231212500024,71.51347545799945,66.8493747499997,67.8773371669995,68.46808495799996,69.47625666699969,66.36231212500024,66.36231212500024,66.34930062533289,66.36231212500024,66.36231212500024,66.36231212500024,66.34930062533289,66.36231212500024,66.36231212500024,71.51347545799945,66.36231212500024,71.51347545799945,71.5749054579992,72.20345016699866,66.36231212500024,1,1,1.4837967500025115,reldom2_s002,001,2025-01-23_15h02.05.181,Vis-A-Scan_AC,2022.2.5,None,
3,First_Order,1.0,viswhat,stimulus/viswhat_stim/blank_white.png,stimulus/viswhat_stim/blank_white.png,stimulus/viswhat_stim/water_vehicle-kayak.png,stimulus/viswhat_stim/land_vehicle-vespa.png,stimulus/viswhat_stim/blank_white.png,stimulus/viswhat_stim/location_box.png,stimulus/viswhat_stim/location_yes.png,stimulus/viswhat_stim/location_no.png,None,Location,None,Type,2,0.0,0,5.125,0,5.125,0,5.125,0,0.0,0.625,0,0.0,0,0.0,1,0.5,1,2.125,0,0,0,0,0,0,0,0,0,,,,,0,3,3,3,,,,,,,,,72.46145037499991,72.46145037499991,72.46145037499991,72.46145037499991,72.46145037499991,72.46145037499991,72.46145037499991,72.46145037499991,72.40388737499924,72.46145037499991,72.46145037499991,72.46145037499991,72.40388737499924,72.46145037499991,72.46145037499991,72.46145037499991,74.55777554199994,,72.46145037499991,72.46145037499991,77.62304558299911,72.93814845799898,73.96987412499948,74.55777554199994,75.59178470799998,72.46145037499991,72.46145037499991,72.43722070833257,72.46145037499991,72.46145037499991,72.46145037499991,72.43722070833257,72.46145037499991,72.46145037499991,77.62304558299911,72.46145037499991,77.62304558299911,77.68528808299925,78.34178595799858,72.46145037499991,2,1,1.9735735410013149,reldom2_s002,001,2025-01-23_15h02.05.181,Vis-A-Scan_AC,2022.2.5,None,
4,First_Order,1.0,viswhat,stimulus/viswhat_stim/blank_white.png,stimulus/viswhat_stim/blank_white.png,stimulus/viswhat_stim/water_vehicle-pirateship.png,stimulus/viswhat_stim/land_vehicle-buldozer.png,stimulus/viswhat_stim/blank_white.png,stimulus/viswhat_stim/location_box.png,stimulus/viswhat_stim/location_yes.png,stimulus/viswhat_stim/location_no.png,None,Location,None,Type,2,0.0,0,5.125,0,5.125,0,5.125,0,0.0,0.625,0,0.0,0,0.0,1,0.5,1,2.125,0,0,0,0,0,0,0,0,0,,,,,0,4,4,4,,,,,,,,,78.54629945799934,78.54629945799934,78.54629945799934,78.54629945799934,78.54629945799934,78.54629945799934,78.54629945799934,78.54629945799934,78.48954345866683,78.54629945799934,78.54629945799934,78.54629945799934,78.48954345866683,78.54629945799934,78.54629945799934,78.54629945799934,80.64880129199992,84.68123174999891,78.54629945799934,78.54629945799934,83.69041049999942,79.02864566700009,80.06342045800011,80.64880129199992,81.68858983300015,78.54629945799934,78.54629945799934,78.52287679200018,78.54629945799934,78.54629945799934,78.54629945799934,78.52287679200018,78.54629945799934,78.54629945799934,83.69041049999942,78.54629945799934,83.69041049999942,83.74833450000006,84.38473345799866,78.54629945799934,2,1,0.6339222910028184,reldom2_s002,001,2025-01-23_15h02.05.181,Vis-A-Scan_AC,2022.2.5,None,
0,0.0,None,fixation,stimulus/viswhat_stim/blank_white.png,stimulus/viswhat_stim/blank_white.png,stimulus/viswhere_stim/blank_white.png,stimulus/viswhere_stim/blank_white.png,stimulus/viswhat_stim/blank_white.png,stimulus/viswhat_stim/blank_white.png,stimulus/viswhat_stim/blank_white.png,stimulus/viswhat_stim/blank_white.png,0.0,0.0,0.0,0.0,0,0.0,0,0.0,0,0.0,0,0.0,0,0.0,0.0,0,0.0,0,0.0,0,0.0,0,0.0,0,0,0,0,0,0,0,0,9,,,,,0,5,5,5,,,,,,,,,84.68123174999891,84.68123174999891,84.68123174999891,84.68123174999891,84.68123174999891,84.68123174999891,84.68123174999891,84.68123174999891,84.58738079166675,84.68123174999891,84.68123174999891,84.68123174999891,84.58738079166675,84.68123174999891,84.68123174999891,84.68123174999891,84.68123174999891,84.68123174999891,84.68123174999891,84.68123174999891,84.68123174999891,84.68123174999891,84.68123174999891,84.68123174999891,84.68123174999891,84.68123174999891,84.68123174999891,84.63738079166676,84.68123174999891,84.68123174999891,84.68123174999891,84.63738079166676,84.68123174999891,84.68123174999891,84.68123174999891,84.68123174999891,84.68123174999891,89.89275520799856,89.89275520799856,93.87602437500027,None,0,,reldom2_s002,001,2025-01-23_15h02.05.181,Vis-A-Scan_AC,2022.2.5,None,
5,Second_Order,1.0,viswhat,stimulus/viswhat_stim/water_vehicle-cruiser.png,stimulus/viswhat_stim/land_vehicle-pickuptruck.png,stimulus/viswhat_stim/land_animal-snake.png,stimulus/viswhat_stim/land_vehicle-trolley.png,stimulus/viswhat_stim/match_blank.png,stimulus/viswhat_stim/match_box.png,stimulus/viswhat_stim/match_yes.png,stimulus/viswhat_stim/match_no.png,2.0,Match,Type,Location,2,5.125,0,5.125,0,5.125,0,5.125,0,0.75,0.75,1,0.5,1,2.125,1,0.5,1,2.125,0,0,0,0,0,0,0,0,0,,,,,0,6,6,6,,,,,,,,,93.87602437500027,98.99705862500014,94.30107187499925,95.30001474999881,95.92218287499963,96.92042629199932,93.87602437500027,93.87602437500027,93.88400625033222,93.87602437500027,93.87602437500027,93.87602437500027,93.88400625033222,93.87602437500027,98.99705862500014,99.78423174999989,101.88361900000018,105.77158129199961,99.78423174999989,99.78423174999989,104.9288111249989,100.24137812499976,101.26730549999957,101.88361900000018,102.8961742499996,99.78423174999989,99.78423174999989,99.76398491633202,99.78423174999989,99.78423174999989,99.78423174999989,99.76398491633202,99.78423174999989,99.78423174999989,104.9288111249989,99.78423174999989,104.9288111249989,104.99743679199855,,99.78423174999989,2,1,0.660839833000864,reldom2_s002,001,2025-01-23_15h02.05.181,Vis-A-Scan_AC,2022.2.5,None,
6,Second_Order,1.0,viswhat,stimulus/viswhat_stim/land_vehicle-firetruck.png,stimulus/viswhat_stim/land_animal-dog.png,stimulus/viswhat_stim/water_animal-seaturtle.png,stimulus/viswhat_stim/water_vehicle-sailboat.png,stimulus/viswhat_stim/match_blank.png,stimulus/viswhat_stim/match_box.png,stimulus/viswhat_stim/match_yes.png,stimulus/viswhat_stim/match_no.png,1.0,Match,Location,Location,1,5.125,0,5.125,0,5.125,0,5.125,0,0.625,0.625,1,0.5,1,2.125,1,0.5,1,2.125,0,0,0,0,0,0,0,0,0,,,,,0,7,7,7,,,,,,,,,105.77158129199961,110.89027216700015,106.24591474999943,107.2440164999989,107.86654804199861,108.86452870799985,105.77158129199961,105.77158129199961,105.77024279200013,105.77158129199961,105.77158129199961,105.77158129199961,105.77024279200013,105.77158129199961,110.89027216700015,111.62241079199885,113.68141062499853,,111.62241079199885,111.62241079199885,116.79833599999984,112.04555220799921,113.09989329199925,113.68141062499853,114.74271425000006,111.62241079199885,111.62241079199885,111.57097229166635,111.62241079199885,111.62241079199885,111.62241079199885,111.57097229166635,111.62241079199885,111.62241079199885,116.79833599999984,111.62241079199885,116.79833599999984,116.79833599999984,117.45989316699888,111.62241079199885,1,1,0.787548375001279,reldom2_s002,001,2025-01-23_15h02.05.181,Vis-A-Scan_AC,2022.2.5,None,
0,0.0,None,fixation,stimulus/viswhat_stim/blank_white.png,stimulus/viswhat_stim/blank_white.png,stimulus/viswhere_stim/blank_white.png,stimulus/viswhere_stim/blank_white.png,stimulus/viswhat_stim/blank_white.png,stimulus/viswhat_stim/blank_white.png,stimulus/viswhat_stim/blank_white.png,stimulus/viswhat_stim/blank_white.png,0.0,0.0,0.0,0.0,0,0.0,0,0.0,0,0.0,0,0.0,0,0.0,0.0,0,0.0,0,0.0,0,0.0,0,0.0,0,0,0,0,0,0,0,0,9,,,,,0,8,8,8,,,,,,,,,117.71154699999897,117.71154699999897,117.71154699999897,117.71154699999897,117.71154699999897,117.71154699999897,117.71154699999897,117.71154699999897,117.60989316699889,117.71154699999897,117.71154699999897,117.71154699999897,117.60989316699889,117.71154699999897,117.71154699999897,117.71154699999897,117.71154699999897,117.71154699999897,117.71154699999897,117.71154699999897,117.71154699999897,117.71154699999897,117.71154699999897,117.71154699999897,117.71154699999897,117.71154699999897,117.71154699999897,117.65989316699888,117.71154699999897,117.71154699999897,117.71154699999897,117.65989316699888,117.71154699999897,117.71154699999897,117.71154699999897,117.71154699999897,117.71154699999897,122.93422691699925,122.93422691699925,127.00798970799951,None,0,,reldom2_s002,001,2025-01-23_15h02.05.181,Vis-A-Scan_AC,2022.2.5,None,
7,First_Order,2.0,viswhat,stimulus/viswhat_stim/blank_white.png,stimulus/viswhat_stim/blank_white.png,stimulus/viswhat_stim/water_vehicle-ship.png,stimulus/viswhat_stim/water_animal-stingray.png,stimulus/viswhat_stim/blank_white.png,stimulus/viswhat_stim/type_box.png,stimulus/viswhat_stim/type_yes.png,stimulus/viswhat_stim/type_no.png,None,Type,None,Location,2,0.0,0,5.125,0,5.125,0,5.125,0,0.0,0.625,0,0.0,0,0.0,1,0.5,1,2.125,0,0,0,0,0,0,0,0,0,,,,,0,9,9,9,,,,,,,,,127.00798970799951,127.00798970799951,127.00798970799951,127.00798970799951,127.00798970799951,127.00798970799951,127.00798970799951,127.00798970799951,126.91156279166596,127.00798970799951,127.00798970799951,127.00798970799951,126.91156279166596,127.00798970799951,127.00798970799951,127.00798970799951,129.07381033299862,,127.00798970799951,127.00798970799951,132.19917033299862,127.45535449999988,128.51589799999965,129.07381033299862,130.13180858299893,127.00798970799951,127.00798970799951,126.96156279166595,127.00798970799951,127.00798970799951,127.00798970799951,126.96156279166595,127.00798970799951,127.00798970799951,132.19917033299862,127.00798970799951,132.19917033299862,132.19917033299862,133.03794816699883,127.00798970799951,2,1,2.0724728330005746,reldom2_s002,001,2025-01-23_15h02.05.181,Vis-A-Scan_AC,2022.2.5,None,
8,First_Order,2.0,viswhat,stimulus/viswhat_stim/blank_white.png,stimulus/viswhat_stim/blank_white.png,stimulus/viswhat_stim/land_vehicle-train.png,stimulus/viswhat_stim/land_animal-fox.png,stimulus/viswhat_stim/blank_white.png,stimulus/viswhat_stim/type_box.png,stimulus/viswhat_stim/type_yes.png,stimulus/viswhat_stim/type_no.png,None,Type,None,Location,2,0.0,0,5.125,0,5.125,0,5.125,0,0.0,0.625,0,0.0,0,0.0,1,0.5,1,2.125,0,0,0,0,0,0,0,0,0,,,,,0,10,10,10,,,,,,,,,133.03794816699883,133.03794816699883,133.03794816699883,133.03794816699883,133.03794816699883,133.03794816699883,133.03794816699883,133.03794816699883,133.00148691699943,133.03794816699883,133.03794816699883,133.03794816699883,133.00148691699943,133.03794816699883,133.03794816699883,133.03794816699883,135.1493058750002,139.13814574999924,133.03794816699883,133.03794816699883,138.1670897919994,133.52314412499982,134.53573937500005,135.1493058750002,136.16607516699878,133.03794816699883,133.03794816699883,133.0181535836661,133.03794816699883,133.03794816699883,133.03794816699883,133.0181535836661,133.03794816699883,133.03794816699883,138.1670897919994,133.03794816699883,138.1670897919994,138.25056566700005,138.88505362499927,133.03794816699883,2,1,1.123162208001304,reldom2_s002,001,2025-01-23_15h02.05.181,Vis-A-Scan_AC,2022.2.5,None,
9,First_Order,2.0,viswhat,stimulus/viswhat_stim/blank_white.png,stimulus/viswhat_stim/blank_white.png,stimulus/viswhat_stim/land_animal-lion.png,stimulus/viswhat_stim/land_vehicle-bus.png,stimulus/viswhat_stim/blank_white.png,stimulus/viswhat_stim/location_box.png,stimulus/viswhat_stim/location_yes.png,stimulus/viswhat_stim/location_no.png,None,Location,None,Location,1,0.0,0,5.125,0,5.125,0,5.125,0,0.0,0.625,0,0.0,0,0.0,1,0.5,1,2.125,0,0,0,0,0,0,0,0,0,,,,,0,11,11,11,,,,,,,,,139.13814574999924,139.13814574999924,139.13814574999924,139.13814574999924,139.13814574999924,139.13814574999924,139.13814574999924,139.13814574999924,139.0687659163335,139.13814574999924,139.13814574999924,139.13814574999924,139.0687659163335,139.13814574999924,139.13814574999924,139.13814574999924,141.23438341699875,145.31227654199938,139.13814574999924,139.13814574999924,144.3040070829993,139.6033423329991,140.6526789999989,141.23438341699875,142.28704270799972,139.13814574999924,139.13814574999924,139.10209924966682,139.13814574999924,139.13814574999924,139.13814574999924,139.10209924966682,139.13814574999924,139.13814574999924,144.3040070829993,139.13814574999924,144.3040070829993,144.33734341699892,144.99969791699914,139.13814574999924,1,1,0.5988761670014355,reldom2_s002,001,2025-01-23_15h02.05.181,Vis-A-Scan_AC,2022.2.5,None,
10,First_Order,2.0,viswhat,stimulus/viswhat_stim/blank_white.png,stimulus/viswhat_stim/blank_white.png,stimulus/viswhat_stim/land_animal-elephant.png,stimulus/viswhat_stim/land_vehicle-motorcycle.png,stimulus/viswhat_stim/blank_white.png,stimulus/viswhat_stim/location_box.png,stimulus/viswhat_stim/location_yes.png,stimulus/viswhat_stim/location_no.png,None,Location,None,Location,1,0.0,0,5.125,0,5.125,0,5.125,0,0.0,0.625,0,0.0,0,0.0,1,0.5,1,2.125,0,0,0,0,0,0,0,0,0,,,,,0,12,12,12,,,,,,,,,145.31227654199938,145.31227654199938,145.31227654199938,145.31227654199938,145.31227654199938,145.31227654199938,145.31227654199938,145.31227654199938,145.18248304166616,145.31227654199938,145.31227654199938,145.31227654199938,145.18248304166616,145.31227654199938,145.31227654199938,145.31227654199938,147.41549420799856,,145.31227654199938,145.31227654199938,150.53525004199946,145.78692837499875,146.8739545419994,147.41549420799856,148.5050487919998,145.31227654199938,145.31227654199938,145.24914970833282,145.31227654199938,145.31227654199938,145.31227654199938,145.24914970833282,145.31227654199938,145.31227654199938,150.53525004199946,145.31227654199938,150.53525004199946,150.53525004199946,151.43760716699944,145.31227654199938,1,1,0.6573562910016335,reldom2_s002,001,2025-01-23_15h02.05.181,Vis-A-Scan_AC,2022.2.5,None,
0,0.0,None,fixation,stimulus/viswhat_stim/blank_white.png,stimulus/viswhat_stim/blank_white.png,stimulus/viswhere_stim/blank_white.png,stimulus/viswhere_stim/blank_white.png,stimulus/viswhat_stim/blank_white.png,stimulus/viswhat_stim/blank_white.png,stimulus/viswhat_stim/blank_white.png,stimulus/viswhat_stim/blank_white.png,0.0,0.0,0.0,0.0,0,0.0,0,0.0,0,0.0,0,0.0,0,0.0,0.0,0,0.0,0,0.0,0,0.0,0,0.0,0,0,0,0,0,0,0,0,10,,,,,0,13,13,13,,,,,,,,,151.43760716699944,151.43760716699944,151.43760716699944,151.43760716699944,151.43760716699944,151.43760716699944,151.43760716699944,151.43760716699944,151.33897466633329,151.43760716699944,151.43760716699944,151.43760716699944,151.33897466633329,151.43760716699944,151.43760716699944,151.43760716699944,151.43760716699944,151.43760716699944,151.43760716699944,151.43760716699944,151.43760716699944,151.43760716699944,151.43760716699944,151.43760716699944,151.43760716699944,151.43760716699944,151.43760716699944,151.3889746663333,151.43760716699944,151.43760716699944,151.43760716699944,151.3889746663333,151.43760716699944,151.43760716699944,151.43760716699944,151.43760716699944,151.43760716699944,156.65540466699895,156.65540466699895,161.58344170799865,None,0,,reldom2_s002,001,2025-01-23_15h02.05.181,Vis-A-Scan_AC,2022.2.5,None,
11,Second_Order,2.0,viswhat,stimulus/viswhat_stim/water_vehicle-cabincruiser.png,stimulus/viswhat_stim/land_vehicle-scooter.png,stimulus/viswhat_stim/land_animal-giraffe.png,stimulus/viswhat_stim/water_animal-squid.png,stimulus/viswhat_stim/match_blank.png,stimulus/viswhat_stim/match_box.png,stimulus/viswhat_stim/match_yes.png,stimulus/viswhat_stim/match_no.png,1.0,Match,Type,Type,1,5.125,0,5.125,0,5.125,0,5.125,0,0.75,0.75,1,0.5,1,2.125,1,0.5,1,2.125,0,0,0,0,0,0,0,0,0,,,,,0,14,14,14,,,,,,,,,161.58344170799865,166.70215341699986,162.0415878749991,163.03937066700018,163.6741981670002,164.66357895799956,161.58344170799865,161.58344170799865,161.5971927499999,161.58344170799865,161.58344170799865,161.58344170799865,161.5971927499999,161.58344170799865,166.70215341699986,167.55675283299934,169.60881354199955,,167.55675283299934,167.55675283299934,172.71463166699868,168.00029858299968,169.0535980829991,169.60881354199955,170.66474341699904,167.55675283299934,167.55675283299934,167.50293712466654,167.55675283299934,167.55675283299934,167.55675283299934,167.50293712466654,167.55675283299934,167.55675283299934,172.71463166699868,167.55675283299934,172.71463166699868,172.76447595799982,,167.55675283299934,1,1,1.098900291002792,reldom2_s002,001,2025-01-23_15h02.05.181,Vis-A-Scan_AC,2022.2.5,None,
12,Second_Order,2.0,viswhat,stimulus/viswhat_stim/land_animal-bunny.png,stimulus/viswhat_stim/land_vehicle-shortbus.png,stimulus/viswhat_stim/water_vehicle-sailboat.png,stimulus/viswhat_stim/water_animal-whale.png,stimulus/viswhat_stim/match_blank.png,stimulus/viswhat_stim/match_box.png,stimulus/viswhat_stim/match_yes.png,stimulus/viswhat_stim/match_no.png,1.0,Match,Location,Location,1,5.125,0,5.125,0,5.125,0,5.125,0,0.625,0.625,1,0.5,1,2.125,1,0.5,1,2.125,0,0,0,0,0,0,0,0,0,,,,,0,15,15,15,,,,,,,,,173.55928745799974,178.68032225000024,174.0016060830003,175.0004720830002,175.62302350000027,176.6209705000001,173.55928745799974,173.55928745799974,173.56206704199977,173.55928745799974,173.55928745799974,173.55928745799974,173.56206704199977,173.55928745799974,178.68032225000024,179.4067301670002,181.45715949999976,,179.4067301670002,179.4067301670002,184.60821070800012,179.88081708299978,180.93043966699952,181.45715949999976,182.51339454200024,179.4067301670002,179.4067301670002,179.36018241666633,179.4067301670002,179.4067301670002,179.4067301670002,179.36018241666633,179.4067301670002,179.4067301670002,184.60821070800012,179.4067301670002,184.60821070800012,184.60821070800012,185.26280658299947,179.4067301670002,1,1,0.7819024160016852,reldom2_s002,001,2025-01-23_15h02.05.181,Vis-A-Scan_AC,2022.2.5,None,
0,0.0,None,fixation,stimulus/viswhat_stim/blank_white.png,stimulus/viswhat_stim/blank_white.png,stimulus/viswhere_stim/blank_white.png,stimulus/viswhere_stim/blank_white.png,stimulus/viswhat_stim/blank_white.png,stimulus/viswhat_stim/blank_white.png,stimulus/viswhat_stim/blank_white.png,stimulus/viswhat_stim/blank_white.png,0.0,0.0,0.0,0.0,0,0.0,0,0.0,0,0.0,0,0.0,0,0.0,0.0,0,0.0,0,0.0,0,0.0,0,0.0,0,0,0,0,0,0,0,0,9,,,,,0,16,16,16,,,,,,,,,185.5178537920001,185.5178537920001,185.5178537920001,185.5178537920001,185.5178537920001,185.5178537920001,185.5178537920001,185.5178537920001,185.41280658299948,185.5178537920001,185.5178537920001,185.5178537920001,185.41280658299948,185.5178537920001,185.5178537920001,185.5178537920001,185.5178537920001,185.5178537920001,185.5178537920001,185.5178537920001,185.5178537920001,185.5178537920001,185.5178537920001,185.5178537920001,185.5178537920001,185.5178537920001,185.5178537920001,185.4628065829995,185.5178537920001,185.5178537920001,185.5178537920001,185.4628065829995,185.5178537920001,185.5178537920001,185.5178537920001,185.5178537920001,185.5178537920001,190.70602641699952,190.70602641699952,194.70506479199867,None,0,,reldom2_s002,001,2025-01-23_15h02.05.181,Vis-A-Scan_AC,2022.2.5,None,
13,First_Order,3.0,viswhere,stimulus/viswhere_stim/blank_white.png,stimulus/viswhere_stim/blank_white.png,stimulus/viswhere_stim/90-deg_dot-left_slateblue.png,stimulus/viswhere_stim/120-deg_dot-left_slateblue.png,stimulus/viswhere_stim/blank_white.png,stimulus/viswhere_stim/dot_box.png,stimulus/viswhere_stim/dot_yes.png,stimulus/viswhere_stim/dot_no.png,None,Dot,None,Dot,1,0.0,0,5.125,0,5.125,0,5.125,0,0.0,0.625,0,0.0,0,0.0,1,0.5,1,2.125,0,0,0,0,0,0,0,0,0,,,,,0,17,17,17,,,,,,,,,194.70506479199867,194.70506479199867,194.70506479199867,194.70506479199867,194.70506479199867,194.70506479199867,194.70506479199867,194.70506479199867,194.67995341666636,194.70506479199867,194.70506479199867,194.70506479199867,194.67995341666636,194.70506479199867,194.70506479199867,194.70506479199867,196.80984141699992,200.7602671249988,194.70506479199867,194.70506479199867,199.84401274999982,195.18788783299897,196.1940395419988,196.80984141699992,197.8171954169993,194.70506479199867,194.70506479199867,194.69662008333302,194.70506479199867,194.70506479199867,194.70506479199867,194.69662008333302,194.70506479199867,194.70506479199867,199.84401274999982,194.70506479199867,199.84401274999982,199.92889537500014,200.55521524999858,194.70506479199867,1,1,1.5101710830022057,reldom2_s002,001,2025-01-23_15h02.05.181,Vis-A-Scan_AC,2022.2.5,None,
14,First_Order,3.0,viswhere,stimulus/viswhere_stim/blank_white.png,stimulus/viswhere_stim/blank_white.png,stimulus/viswhere_stim/30-deg_dot-left_royalblue.png,stimulus/viswhere_stim/30-deg_dot-right_peru.png,stimulus/viswhere_stim/blank_white.png,stimulus/viswhere_stim/dot_box.png,stimulus/viswhere_stim/dot_yes.png,stimulus/viswhere_stim/dot_no.png,None,Dot,None,Line,2,0.0,0,5.125,0,5.125,0,5.125,0,0.0,0.625,0,0.0,0,0.0,1,0.5,1,2.125,0,0,0,0,0,0,0,0,0,,,,,0,18,18,18,,,,,,,,,200.7602671249988,200.7602671249988,200.7602671249988,200.7602671249988,200.7602671249988,200.7602671249988,200.7602671249988,200.7602671249988,200.73602079133283,200.7602671249988,200.7602671249988,200.7602671249988,200.73602079133283,200.7602671249988,200.7602671249988,200.7602671249988,202.86425866699938,206.83139687499897,200.7602671249988,200.7602671249988,205.8830335829989,201.24240024999926,202.24812191699857,202.86425866699938,203.87310008299937,200.7602671249988,200.7602671249988,200.7526874579995,200.7602671249988,200.7602671249988,200.7602671249988,200.7526874579995,200.7602671249988,200.7602671249988,205.8830335829989,200.7602671249988,205.8830335829989,205.98506066699883,206.61040154199873,200.7602671249988,2,1,1.0229074580020097,reldom2_s002,001,2025-01-23_15h02.05.181,Vis-A-Scan_AC,2022.2.5,None,
15,First_Order,3.0,viswhere,stimulus/viswhere_stim/blank_white.png,stimulus/viswhere_stim/blank_white.png,stimulus/viswhere_stim/150-deg_dot-right_turquoise.png,stimulus/viswhere_stim/150-deg_dot-left_cyan.png,stimulus/viswhere_stim/blank_white.png,stimulus/viswhere_stim/line_box.png,stimulus/viswhere_stim/line_yes.png,stimulus/viswhere_stim/line_no.png,None,Line,None,Line,1,0.0,0,5.125,0,5.125,0,5.125,0,0.0,0.625,0,0.0,0,0.0,1,0.5,1,2.125,0,0,0,0,0,0,0,0,0,,,,,0,19,19,19,,,,,,,,,206.83139687499897,206.83139687499897,206.83139687499897,206.83139687499897,206.83139687499897,206.83139687499897,206.83139687499897,206.83139687499897,206.80608295833312,206.83139687499897,206.83139687499897,206.83139687499897,206.80608295833312,206.83139687499897,206.83139687499897,206.83139687499897,208.94314091699925,212.89217491699856,206.83139687499897,206.83139687499897,211.96317966700008,207.32080395799858,208.33889483299936,208.94314091699925,209.9454619169992,206.83139687499897,206.83139687499897,206.8227496249998,206.83139687499897,206.83139687499897,206.83139687499897,206.8227496249998,206.83139687499897,206.83139687499897,211.96317966700008,206.83139687499897,211.96317966700008,212.05181358299888,212.68155804199887,206.83139687499897,1,1,1.3652054169997427,reldom2_s002,001,2025-01-23_15h02.05.181,Vis-A-Scan_AC,2022.2.5,None,
16,First_Order,3.0,viswhere,stimulus/viswhere_stim/blank_white.png,stimulus/viswhere_stim/blank_white.png,stimulus/viswhere_stim/120-deg_dot-right_mediumslateblue.png,stimulus/viswhere_stim/150-deg_dot-right_royalblue.png,stimulus/viswhere_stim/blank_white.png,stimulus/viswhere_stim/line_box.png,stimulus/viswhere_stim/line_yes.png,stimulus/viswhere_stim/line_no.png,None,Line,None,Dot,2,0.0,0,5.125,0,5.125,0,5.125,0,0.0,0.625,0,0.0,0,0.0,1,0.5,1,2.125,0,0,0,0,0,0,0,0,0,,,,,0,20,20,20,,,,,,,,,212.89217491699856,212.89217491699856,212.89217491699856,212.89217491699856,212.89217491699856,212.89217491699856,212.89217491699856,212.89217491699856,212.86719533333357,212.89217491699856,212.89217491699856,212.89217491699856,212.86719533333357,212.89217491699856,212.89217491699856,212.89217491699856,214.9922483749997,219.03659595799945,212.89217491699856,212.89217491699856,218.01566441700015,213.37808962499912,214.39095387499947,214.9922483749997,216.0118404169989,212.89217491699856,212.89217491699856,212.88386200000025,212.89217491699856,212.89217491699856,212.89217491699856,212.88386200000025,212.89217491699856,212.89217491699856,218.01566441700015,212.89217491699856,218.01566441700015,218.11296658299943,218.73890525000024,212.89217491699856,2,1,0.7262735420008539,reldom2_s002,001,2025-01-23_15h02.05.181,Vis-A-Scan_AC,2022.2.5,None,
0,0.0,None,fixation,stimulus/viswhat_stim/blank_white.png,stimulus/viswhat_stim/blank_white.png,stimulus/viswhere_stim/blank_white.png,stimulus/viswhere_stim/blank_white.png,stimulus/viswhat_stim/blank_white.png,stimulus/viswhat_stim/blank_white.png,stimulus/viswhat_stim/blank_white.png,stimulus/viswhat_stim/blank_white.png,0.0,0.0,0.0,0.0,0,0.0,0,0.0,0,0.0,0,0.0,0,0.0,0.0,0,0.0,0,0.0,0,0.0,0,0.0,0,0,0,0,0,0,0,0,8,,,,,0,21,21,21,,,,,,,,,219.03659595799945,219.03659595799945,219.03659595799945,219.03659595799945,219.03659595799945,219.03659595799945,219.03659595799945,219.03659595799945,218.93393837533344,219.03659595799945,219.03659595799945,219.03659595799945,218.93393837533344,219.03659595799945,219.03659595799945,219.03659595799945,219.03659595799945,219.03659595799945,219.03659595799945,219.03659595799945,219.03659595799945,219.03659595799945,219.03659595799945,219.03659595799945,219.03659595799945,219.03659595799945,219.03659595799945,218.98393837533345,219.03659595799945,219.03659595799945,219.03659595799945,218.98393837533345,219.03659595799945,219.03659595799945,219.03659595799945,219.03659595799945,219.03659595799945,224.23789533299896,224.23789533299896,227.18579562499872,None,0,,reldom2_s002,001,2025-01-23_15h02.05.181,Vis-A-Scan_AC,2022.2.5,None,
17,Second_Order,3.0,viswhere,stimulus/viswhere_stim/60-deg_dot-right_seagreen.png,stimulus/viswhere_stim/150-deg_dot-right_seagreen.png,stimulus/viswhere_stim/90-deg_dot-right_salmon.png,stimulus/viswhere_stim/90-deg_dot-left_seagreen.png,stimulus/viswhat_stim/match_blank.png,stimulus/viswhat_stim/match_box.png,stimulus/viswhat_stim/match_yes.png,stimulus/viswhat_stim/match_no.png,2.0,Match,Dot,Line,2,5.125,0,5.125,0,5.125,0,5.125,0,0.75,0.75,1,0.5,1,2.125,1,0.5,1,2.125,0,0,0,0,0,0,0,0,0,,,,,0,22,22,22,,,,,,,,,227.18579562499872,232.30396383299922,227.65909833299884,228.65748454200002,229.2922225000002,230.28103258299961,227.18579562499872,227.18579562499872,227.19767183333184,227.18579562499872,227.18579562499872,227.18579562499872,227.19767183333184,227.18579562499872,232.30396383299922,233.08650179199867,235.17273720799858,239.0708458329991,233.08650179199867,233.08650179199867,238.22089441699973,233.5545844999997,234.56977687499966,235.17273720799858,236.19232899999952,233.08650179199867,233.08650179199867,233.0722280413325,233.08650179199867,233.08650179199867,233.08650179199867,233.0722280413325,233.08650179199867,233.08650179199867,238.22089441699973,233.08650179199867,238.22089441699973,238.29574916699858,239.0708458329991,233.08650179199867,1,0,1.00769262400172,reldom2_s002,001,2025-01-23_15h02.05.181,Vis-A-Scan_AC,2022.2.5,None,
18,Second_Order,3.0,viswhere,stimulus/viswhere_stim/150-deg_dot-right_goldenrod.png,stimulus/viswhere_stim/150-deg_dot-left_cyan.png,stimulus/viswhere_stim/120-deg_dot-left_royalblue.png,stimulus/viswhere_stim/60-deg_dot-left_royalblue.png,stimulus/viswhat_stim/match_blank.png,stimulus/viswhat_stim/match_box.png,stimulus/viswhat_stim/match_yes.png,stimulus/viswhat_stim/match_no.png,2.0,Match,Line,Dot,2,5.125,0,5.125,0,5.125,0,5.125,0,0.625,0.625,1,0.5,1,2.125,1,0.5,1,2.125,0,0,0,0,0,0,0,0,0,,,,,0,23,23,23,,,,,,,,,239.0708458329991,244.19334812499983,239.55342929200015,240.55130112499864,241.17576174999886,242.1716706669995,239.0708458329991,239.0708458329991,239.0829017919994,239.0708458329991,239.0708458329991,239.0708458329991,239.0829017919994,239.0708458329991,244.19334812499983,244.8549850419986,246.94599345799907,250.9883668329985,244.8549850419986,244.8549850419986,249.99383212499924,245.31863754199912,246.32728329199927,246.94599345799907,247.95811754199894,244.8549850419986,244.8549850419986,244.8449726663335,244.8549850419986,244.8549850419986,244.8549850419986,244.8449726663335,244.8549850419986,244.8549850419986,249.99383212499924,244.8549850419986,249.99383212499924,250.063959916999,250.69063520799864,244.8549850419986,2,1,2.137534208000943,reldom2_s002,001,2025-01-23_15h02.05.181,Vis-A-Scan_AC,2022.2.5,None,
0,0.0,None,fixation,stimulus/viswhat_stim/blank_white.png,stimulus/viswhat_stim/blank_white.png,stimulus/viswhere_stim/blank_white.png,stimulus/viswhere_stim/blank_white.png,stimulus/viswhat_stim/blank_white.png,stimulus/viswhat_stim/blank_white.png,stimulus/viswhat_stim/blank_white.png,stimulus/viswhat_stim/blank_white.png,0.0,0.0,0.0,0.0,0,0.0,0,0.0,0,0.0,0,0.0,0,0.0,0.0,0,0.0,0,0.0,0,0.0,0,0.0,0,0,0,0,0,0,0,0,10,,,,,0,24,24,24,,,,,,,,,250.9883668329985,250.9883668329985,250.9883668329985,250.9883668329985,250.9883668329985,250.9883668329985,250.9883668329985,250.9883668329985,250.88478962533313,250.9883668329985,250.9883668329985,250.9883668329985,250.88478962533313,250.9883668329985,250.9883668329985,250.9883668329985,250.9883668329985,250.9883668329985,250.9883668329985,250.9883668329985,250.9883668329985,250.9883668329985,250.9883668329985,250.9883668329985,250.9883668329985,250.9883668329985,250.9883668329985,250.93478962533314,250.9883668329985,250.9883668329985,250.9883668329985,250.93478962533314,250.9883668329985,250.9883668329985,250.9883668329985,250.9883668329985,250.9883668329985,256.2108027079994,256.2108027079994,261.1942601669998,None,0,,reldom2_s002,001,2025-01-23_15h02.05.181,Vis-A-Scan_AC,2022.2.5,None,
19,First_Order,4.0,viswhere,stimulus/viswhere_stim/blank_white.png,stimulus/viswhere_stim/blank_white.png,stimulus/viswhere_stim/90-deg_dot-right_royalblue.png,stimulus/viswhere_stim/120-deg_dot-right_goldenrod.png,stimulus/viswhere_stim/blank_white.png,stimulus/viswhere_stim/dot_box.png,stimulus/viswhere_stim/dot_yes.png,stimulus/viswhere_stim/dot_no.png,None,Dot,None,Dot,1,0.0,0,5.125,0,5.125,0,5.125,0,0.0,0.625,0,0.0,0,0.0,1,0.5,1,2.125,0,0,0,0,0,0,0,0,0,,,,,0,25,25,25,,,,,,,,,261.1942601669998,261.1942601669998,261.1942601669998,261.1942601669998,261.1942601669998,261.1942601669998,261.1942601669998,261.1942601669998,261.1723596666658,261.1942601669998,261.1942601669998,261.1942601669998,261.1723596666658,261.1942601669998,261.1942601669998,261.1942601669998,263.30114112499905,267.2666120829999,261.1942601669998,261.1942601669998,266.32160162499895,261.6781525419992,262.68471495799895,263.30114112499905,264.312810333,261.1942601669998,261.1942601669998,261.1890263333325,261.1942601669998,261.1942601669998,261.1942601669998,261.1890263333325,261.1942601669998,261.1942601669998,266.32160162499895,261.1942601669998,266.32160162499895,266.4184773750003,267.04503108300014,261.1942601669998,1,1,0.8267019579998305,reldom2_s002,001,2025-01-23_15h02.05.181,Vis-A-Scan_AC,2022.2.5,None,
20,First_Order,4.0,viswhere,stimulus/viswhere_stim/blank_white.png,stimulus/viswhere_stim/blank_white.png,stimulus/viswhere_stim/90-deg_dot-left_peru.png,stimulus/viswhere_stim/90-deg_dot-right_royalblue.png,stimulus/viswhere_stim/blank_white.png,stimulus/viswhere_stim/dot_box.png,stimulus/viswhere_stim/dot_yes.png,stimulus/viswhere_stim/dot_no.png,None,Dot,None,Line,2,0.0,0,5.125,0,5.125,0,5.125,0,0.0,0.625,0,0.0,0,0.0,1,0.5,1,2.125,0,0,0,0,0,0,0,0,0,,,,,0,26,26,26,,,,,,,,,267.2666120829999,267.2666120829999,267.2666120829999,267.2666120829999,267.2666120829999,267.2666120829999,267.2666120829999,267.2666120829999,267.2390867503321,267.2666120829999,267.2666120829999,267.2666120829999,267.2390867503321,267.2666120829999,267.2666120829999,267.2666120829999,269.37813449999885,273.3325277919994,267.2666120829999,267.2666120829999,272.3909099579996,267.75089229199875,268.75876508299916,269.37813449999885,270.3936306249998,267.2666120829999,267.2666120829999,267.25575341699874,267.2666120829999,267.2666120829999,267.2666120829999,267.25575341699874,267.2666120829999,267.2666120829999,272.3909099579996,267.2666120829999,272.3909099579996,272.4880318329997,273.11420333299975,267.2666120829999,2,1,0.5026986670018232,reldom2_s002,001,2025-01-23_15h02.05.181,Vis-A-Scan_AC,2022.2.5,None,
21,First_Order,4.0,viswhere,stimulus/viswhere_stim/blank_white.png,stimulus/viswhere_stim/blank_white.png,stimulus/viswhere_stim/120-deg_dot-left_cyan.png,stimulus/viswhere_stim/150-deg_dot-left_seagreen.png,stimulus/viswhere_stim/blank_white.png,stimulus/viswhere_stim/line_box.png,stimulus/viswhere_stim/line_yes.png,stimulus/viswhere_stim/line_no.png,None,Line,None,Dot,2,0.0,0,5.125,0,5.125,0,5.125,0,0.0,0.625,0,0.0,0,0.0,1,0.5,1,2.125,0,0,0,0,0,0,0,0,0,,,,,0,27,27,27,,,,,,,,,273.3325277919994,273.3325277919994,273.3325277919994,273.3325277919994,273.3325277919994,273.3325277919994,273.3325277919994,273.3325277919994,273.3092677083326,273.3325277919994,273.3325277919994,273.3325277919994,273.3092677083326,273.3325277919994,273.3325277919994,273.3325277919994,275.44079749999946,279.3970824579992,273.3325277919994,273.3325277919994,278.45500166700003,273.8202147079992,274.8350008749985,275.44079749999946,276.44403474999854,273.3325277919994,273.3325277919994,273.32593437499924,273.3325277919994,273.3325277919994,273.3325277919994,273.32593437499924,273.3325277919994,273.3325277919994,278.45500166700003,273.3325277919994,278.45500166700003,278.5524874579987,279.17790412499926,273.3325277919994,1,0,0.9284243740021338,reldom2_s002,001,2025-01-23_15h02.05.181,Vis-A-Scan_AC,2022.2.5,None,
22,First_Order,4.0,viswhere,stimulus/viswhere_stim/blank_white.png,stimulus/viswhere_stim/blank_white.png,stimulus/viswhere_stim/150-deg_dot-right_seagreen.png,stimulus/viswhere_stim/150-deg_dot-left_slateblue.png,stimulus/viswhere_stim/blank_white.png,stimulus/viswhere_stim/line_box.png,stimulus/viswhere_stim/line_yes.png,stimulus/viswhere_stim/line_no.png,None,Line,None,Line,1,0.0,0,5.125,0,5.125,0,5.125,0,0.0,0.625,0,0.0,0,0.0,1,0.5,1,2.125,0,0,0,0,0,0,0,0,0,,,,,0,28,28,28,,,,,,,,,279.3970824579992,279.3970824579992,279.3970824579992,279.3970824579992,279.3970824579992,279.3970824579992,279.3970824579992,279.3970824579992,279.37350220833224,279.3970824579992,279.3970824579992,279.3970824579992,279.37350220833224,279.3970824579992,279.3970824579992,279.3970824579992,281.49504579199856,285.54272641699936,279.3970824579992,279.3970824579992,284.53062733299885,279.88817966699935,280.90800308299913,281.49504579199856,282.50625008299903,279.3970824579992,279.3970824579992,279.3901688749989,279.3970824579992,279.3970824579992,279.3970824579992,279.3901688749989,279.3970824579992,279.3970824579992,284.53062733299885,279.3970824579992,284.53062733299885,284.61654095799895,285.2436246669986,279.3970824579992,1,1,1.330129667001529,reldom2_s002,001,2025-01-23_15h02.05.181,Vis-A-Scan_AC,2022.2.5,None,
0,0.0,None,fixation,stimulus/viswhat_stim/blank_white.png,stimulus/viswhat_stim/blank_white.png,stimulus/viswhere_stim/blank_white.png,stimulus/viswhere_stim/blank_white.png,stimulus/viswhat_stim/blank_white.png,stimulus/viswhat_stim/blank_white.png,stimulus/viswhat_stim/blank_white.png,stimulus/viswhat_stim/blank_white.png,0.0,0.0,0.0,0.0,0,0.0,0,0.0,0,0.0,0,0.0,0,0.0,0.0,0,0.0,0,0.0,0,0.0,0,0.0,0,0,0,0,0,0,0,0,9,,,,,0,29,29,29,,,,,,,,,285.54272641699936,285.54272641699936,285.54272641699936,285.54272641699936,285.54272641699936,285.54272641699936,285.54272641699936,285.54272641699936,285.44048229133233,285.54272641699936,285.54272641699936,285.54272641699936,285.44048229133233,285.54272641699936,285.54272641699936,285.54272641699936,285.54272641699936,285.54272641699936,285.54272641699936,285.54272641699936,285.54272641699936,285.54272641699936,285.54272641699936,285.54272641699936,285.54272641699936,285.54272641699936,285.54272641699936,285.49048229133234,285.54272641699936,285.54272641699936,285.54272641699936,285.49048229133234,285.54272641699936,285.54272641699936,285.54272641699936,285.54272641699936,285.54272641699936,290.75873904199943,290.75873904199943,294.68295041700003,None,0,,reldom2_s002,001,2025-01-23_15h02.05.181,Vis-A-Scan_AC,2022.2.5,None,
23,Second_Order,4.0,viswhere,stimulus/viswhere_stim/90-deg_dot-right_salmon.png,stimulus/viswhere_stim/150-deg_dot-right_seagreen.png,stimulus/viswhere_stim/150-deg_dot-right_mediumslateblue.png,stimulus/viswhere_stim/150-deg_dot-left_lightsseagreen.png,stimulus/viswhat_stim/match_blank.png,stimulus/viswhat_stim/match_box.png,stimulus/viswhat_stim/match_yes.png,stimulus/viswhat_stim/match_no.png,2.0,Match,Dot,Line,2,5.125,0,5.125,0,5.125,0,5.125,0,0.75,0.75,1,0.5,1,2.125,1,0.5,1,2.125,0,0,0,0,0,0,0,0,0,,,,,0,30,30,30,,,,,,,,,294.68295041700003,299.80502937500023,295.1662175419988,296.1631194999991,296.7855217919987,297.78353658299966,294.68295041700003,294.68295041700003,294.69538375033346,294.68295041700003,294.68295041700003,294.68295041700003,294.69538375033346,294.68295041700003,299.80502937500023,300.587591042,302.6857316249989,306.53921274999993,300.587591042,300.587591042,305.7243484169994,301.0476456669985,302.05861070799983,302.6857316249989,303.70205333299964,300.587591042,300.587591042,300.5732661663319,300.587591042,300.587591042,300.587591042,300.5732661663319,300.587591042,300.587591042,305.7243484169994,300.587591042,305.7243484169994,305.7958781669986,306.5767974169994,300.587591042,2,1,0.5851438330009842,reldom2_s002,001,2025-01-23_15h02.05.181,Vis-A-Scan_AC,2022.2.5,None,
24,Second_Order,4.0,viswhere,stimulus/viswhere_stim/90-deg_dot-left_cyan.png,stimulus/viswhere_stim/60-deg_dot-left_slateblue.png,stimulus/viswhere_stim/120-deg_dot-right_goldenrod.png,stimulus/viswhere_stim/90-deg_dot-right_seagreen.png,stimulus/viswhat_stim/match_blank.png,stimulus/viswhat_stim/match_box.png,stimulus/viswhat_stim/match_yes.png,stimulus/viswhat_stim/match_no.png,1.0,Match,Dot,Dot,1,5.125,0,5.125,0,5.125,0,5.125,0,0.625,0.625,1,0.5,1,2.125,1,0.5,1,2.125,0,0,0,0,0,0,0,0,0,,,,,0,31,31,31,,,,,,,,,306.5767974169994,311.6991189579985,307.05883941699904,308.0573282919995,308.6798987080001,309.67769020800006,306.5767974169994,306.5767974169994,306.58921274999994,306.5767974169994,306.5767974169994,306.5767974169994,306.58921274999994,306.5767974169994,311.6991189579985,312.36326104199907,314.4621011250001,318.50067616699926,312.36326104199907,312.36326104199907,317.50138091699955,312.8286928749985,313.8400985829994,314.4621011250001,315.4793812079988,312.36326104199907,312.36326104199907,312.3505443333329,312.36326104199907,312.36326104199907,312.36326104199907,312.3505443333329,312.36326104199907,312.36326104199907,317.50138091699955,312.36326104199907,317.50138091699955,317.5727494169987,318.2011852079995,312.36326104199907,1,1,0.8497862490003172,reldom2_s002,001,2025-01-23_15h02.05.181,Vis-A-Scan_AC,2022.2.5,None,
0,0.0,None,fixation,stimulus/viswhat_stim/blank_white.png,stimulus/viswhat_stim/blank_white.png,stimulus/viswhere_stim/blank_white.png,stimulus/viswhere_stim/blank_white.png,stimulus/viswhat_stim/blank_white.png,stimulus/viswhat_stim/blank_white.png,stimulus/viswhat_stim/blank_white.png,stimulus/viswhat_stim/blank_white.png,0.0,0.0,0.0,0.0,0,0.0,0,0.0,0,0.0,0,0.0,0,0.0,0.0,0,0.0,0,0.0,0,0.0,0,0.0,0,0,0,0,0,0,0,0,10,,,,,0,32,32,32,,,,,,,,,318.50067616699926,318.50067616699926,318.50067616699926,318.50067616699926,318.50067616699926,318.50067616699926,318.50067616699926,318.50067616699926,318.39665716633255,318.50067616699926,318.50067616699926,318.50067616699926,318.39665716633255,318.50067616699926,318.50067616699926,318.50067616699926,318.50067616699926,318.50067616699926,318.50067616699926,318.50067616699926,318.50067616699926,318.50067616699926,318.50067616699926,318.50067616699926,318.50067616699926,318.50067616699926,318.50067616699926,318.44665716633256,318.50067616699926,318.50067616699926,318.50067616699926,318.44665716633256,318.50067616699926,318.50067616699926,318.50067616699926,318.50067616699926,318.50067616699926,323.6850823749992,323.6850823749992,328.71752962499886,None,0,,reldom2_s002,001,2025-01-23_15h02.05.181,Vis-A-Scan_AC,2022.2.5,None,
25,First_Order,5.0,viswhat,stimulus/viswhat_stim/blank_white.png,stimulus/viswhat_stim/blank_white.png,stimulus/viswhat_stim/land_vehicle-shortbus.png,stimulus/viswhat_stim/land_animal-pig.png,stimulus/viswhat_stim/blank_white.png,stimulus/viswhat_stim/location_box.png,stimulus/viswhat_stim/location_yes.png,stimulus/viswhat_stim/location_no.png,None,Location,None,Location,1,0.0,0,5.125,0,5.125,0,5.125,0,0.0,0.625,0,0.0,0,0.0,1,0.5,1,2.125,0,0,0,0,0,0,0,0,0,,,,,0,33,33,33,,,,,,,,,328.71752962499886,328.71752962499886,328.71752962499886,328.71752962499886,328.71752962499886,328.71752962499886,328.71752962499886,328.71752962499886,328.6738951246667,328.71752962499886,328.71752962499886,328.71752962499886,328.6738951246667,328.71752962499886,328.71752962499886,328.71752962499886,330.82074962499973,334.84424379200027,328.71752962499886,328.71752962499886,333.8725036670003,329.19130437499916,330.2299315829987,330.82074962499973,331.85889162499916,328.71752962499886,328.71752962499886,328.69056179133344,328.71752962499886,328.71752962499886,328.71752962499886,328.69056179133344,328.71752962499886,328.71752962499886,333.8725036670003,328.71752962499886,333.8725036670003,333.92035124999893,334.5624184999997,328.71752962499886,1,1,1.0779412910014798,reldom2_s002,001,2025-01-23_15h02.05.181,Vis-A-Scan_AC,2022.2.5,None,
26,First_Order,5.0,viswhat,stimulus/viswhat_stim/blank_white.png,stimulus/viswhat_stim/blank_white.png,stimulus/viswhat_stim/land_vehicle-rv.png,stimulus/viswhat_stim/land_animal-bunny.png,stimulus/viswhat_stim/blank_white.png,stimulus/viswhat_stim/type_box.png,stimulus/viswhat_stim/type_yes.png,stimulus/viswhat_stim/type_no.png,None,Type,None,Location,2,0.0,0,5.125,0,5.125,0,5.125,0,0.0,0.625,0,0.0,0,0.0,1,0.5,1,2.125,0,0,0,0,0,0,0,0,0,,,,,0,34,34,34,,,,,,,,,334.84424379200027,334.84424379200027,334.84424379200027,334.84424379200027,334.84424379200027,334.84424379200027,334.84424379200027,334.84424379200027,334.7571348749985,334.84424379200027,334.84424379200027,334.84424379200027,334.7571348749985,334.84424379200027,334.84424379200027,334.84424379200027,336.9273882919988,340.9730320419985,334.84424379200027,334.84424379200027,340.0297588329995,335.33415929199873,336.3967612079996,336.9273882919988,337.9945186249988,334.84424379200027,334.84424379200027,334.8071348749985,334.84424379200027,334.84424379200027,334.84424379200027,334.8071348749985,334.84424379200027,334.84424379200027,340.0297588329995,334.84424379200027,340.0297588329995,340.0297588329995,340.7118223329999,334.84424379200027,2,1,1.6962089580010797,reldom2_s002,001,2025-01-23_15h02.05.181,Vis-A-Scan_AC,2022.2.5,None,
27,First_Order,5.0,viswhat,stimulus/viswhat_stim/blank_white.png,stimulus/viswhat_stim/blank_white.png,stimulus/viswhat_stim/land_animal-zebra.png,stimulus/viswhat_stim/land_vehicle-oldcar.png,stimulus/viswhat_stim/blank_white.png,stimulus/viswhat_stim/location_box.png,stimulus/viswhat_stim/location_yes.png,stimulus/viswhat_stim/location_no.png,None,Location,None,Location,1,0.0,0,5.125,0,5.125,0,5.125,0,0.0,0.625,0,0.0,0,0.0,1,0.5,1,2.125,0,0,0,0,0,0,0,0,0,,,,,0,35,35,35,,,,,,,,,340.9730320419985,340.9730320419985,340.9730320419985,340.9730320419985,340.9730320419985,340.9730320419985,340.9730320419985,340.9730320419985,340.9042347500002,340.9730320419985,340.9730320419985,340.9730320419985,340.9042347500002,340.9730320419985,340.9730320419985,340.9730320419985,343.0809038749994,,340.9730320419985,340.9730320419985,346.12721583299935,341.4210136249985,342.45492804199966,343.0809038749994,344.11569258300005,340.9730320419985,340.9730320419985,340.9375680833336,340.9730320419985,340.9730320419985,340.9730320419985,340.9375680833336,340.9730320419985,340.9730320419985,346.12721583299935,340.9730320419985,346.12721583299935,346.1665706669992,346.8303296670001,340.9730320419985,1,1,0.8239824580014101,reldom2_s002,001,2025-01-23_15h02.05.181,Vis-A-Scan_AC,2022.2.5,None,
28,First_Order,5.0,viswhat,stimulus/viswhat_stim/blank_white.png,stimulus/viswhat_stim/blank_white.png,stimulus/viswhat_stim/water_vehicle-canoe.png,stimulus/viswhat_stim/land_vehicle-trolley.png,stimulus/viswhat_stim/blank_white.png,stimulus/viswhat_stim/type_box.png,stimulus/viswhat_stim/type_yes.png,stimulus/viswhat_stim/type_no.png,None,Type,None,Type,1,0.0,0,5.125,0,5.125,0,5.125,0,0.0,0.625,0,0.0,0,0.0,1,0.5,1,2.125,0,0,0,0,0,0,0,0,0,,,,,0,36,36,36,,,,,,,,,347.04215779199876,347.04215779199876,347.04215779199876,347.04215779199876,347.04215779199876,347.04215779199876,347.04215779199876,347.04215779199876,347.0025506663334,347.04215779199876,347.04215779199876,347.04215779199876,347.0025506663334,347.04215779199876,347.04215779199876,347.04215779199876,349.1335147919999,353.18247150000025,347.04215779199876,347.04215779199876,352.1933568329987,347.5124203329997,348.5332291249997,349.1335147919999,350.1489743330003,347.04215779199876,347.04215779199876,347.01921733300003,347.04215779199876,347.04215779199876,347.04215779199876,347.01921733300003,347.04215779199876,347.04215779199876,352.1933568329987,347.04215779199876,352.1933568329987,352.2563441249986,352.9019537080003,347.04215779199876,1,1,0.7062596249998023,reldom2_s002,001,2025-01-23_15h02.05.181,Vis-A-Scan_AC,2022.2.5,None,
0,0.0,None,fixation,stimulus/viswhat_stim/blank_white.png,stimulus/viswhat_stim/blank_white.png,stimulus/viswhere_stim/blank_white.png,stimulus/viswhere_stim/blank_white.png,stimulus/viswhat_stim/blank_white.png,stimulus/viswhat_stim/blank_white.png,stimulus/viswhat_stim/blank_white.png,stimulus/viswhat_stim/blank_white.png,0.0,0.0,0.0,0.0,0,0.0,0,0.0,0,0.0,0,0.0,0,0.0,0.0,0,0.0,0,0.0,0,0.0,0,0.0,0,0,0,0,0,0,0,0,9,,,,,0,37,37,37,,,,,,,,,353.18247150000025,353.18247150000025,353.18247150000025,353.18247150000025,353.18247150000025,353.18247150000025,353.18247150000025,353.18247150000025,353.0853269579998,353.18247150000025,353.18247150000025,353.18247150000025,353.0853269579998,353.18247150000025,353.18247150000025,353.18247150000025,353.18247150000025,353.18247150000025,353.18247150000025,353.18247150000025,353.18247150000025,353.18247150000025,353.18247150000025,353.18247150000025,353.18247150000025,353.18247150000025,353.18247150000025,353.13532695799984,353.18247150000025,353.18247150000025,353.18247150000025,353.13532695799984,353.18247150000025,353.18247150000025,353.18247150000025,353.18247150000025,353.18247150000025,358.37018004199854,358.37018004199854,362.320736624999,None,0,,reldom2_s002,001,2025-01-23_15h02.05.181,Vis-A-Scan_AC,2022.2.5,None,
29,Second_Order,5.0,viswhat,stimulus/viswhat_stim/land_vehicle-schoolbus.png,stimulus/viswhat_stim/land_animal-snake.png,stimulus/viswhat_stim/water_vehicle-cruiser.png,stimulus/viswhat_stim/water_animal-whale.png,stimulus/viswhat_stim/match_blank.png,stimulus/viswhat_stim/match_box.png,stimulus/viswhat_stim/match_yes.png,stimulus/viswhat_stim/match_no.png,1.0,Match,Location,Location,1,5.125,0,5.125,0,5.125,0,5.125,0,0.75,0.75,1,0.5,1,2.125,1,0.5,1,2.125,0,0,0,0,0,0,0,0,0,,,,,0,38,38,38,,,,,,,,,362.320736624999,367.4444744579996,362.7872495829997,363.7859130830002,364.42069858299874,365.41010529199957,362.320736624999,362.320736624999,362.324860916333,362.320736624999,362.320736624999,362.320736624999,362.324860916333,362.320736624999,367.4444744579996,368.32992416699926,370.358261207999,,368.32992416699926,368.32992416699926,373.5709342499995,368.74932999999874,369.86951229199985,370.358261207999,371.47799358299926,368.32992416699926,368.32992416699926,368.2626552083323,368.32992416699926,368.32992416699926,368.32992416699926,368.2626552083323,368.32992416699926,368.32992416699926,373.5709342499995,368.32992416699926,373.5709342499995,373.5063537919996,,368.32992416699926,1,1,0.7085564999997587,reldom2_s002,001,2025-01-23_15h02.05.181,Vis-A-Scan_AC,2022.2.5,None,
30,Second_Order,5.0,viswhat,stimulus/viswhat_stim/land_vehicle-tank.png,stimulus/viswhat_stim/water_vehicle-cabincruiser.png,stimulus/viswhat_stim/land_animal-pig.png,stimulus/viswhat_stim/water_animal-stingray.png,stimulus/viswhat_stim/match_blank.png,stimulus/viswhat_stim/match_box.png,stimulus/viswhat_stim/match_yes.png,stimulus/viswhat_stim/match_no.png,1.0,Match,Type,Type,1,5.125,0,5.125,0,5.125,0,5.125,0,0.625,0.625,1,0.5,1,2.125,1,0.5,1,2.125,0,0,0,0,0,0,0,0,0,,,,,0,39,39,39,,,,,,,,,374.3039258329991,379.428082208,374.7653041249996,375.7633457079992,376.3986366249992,377.3873715419995,374.3039258329991,374.3039258329991,374.3165597496669,374.3039258329991,374.3039258329991,374.3039258329991,374.3165597496669,374.3039258329991,379.428082208,380.0930565419985,382.1796889999987,386.23363108299964,380.0930565419985,380.0930565419985,385.2297153749987,380.55954525000016,381.58083375000024,382.1796889999987,383.1842133329992,380.0930565419985,380.0930565419985,380.07355895833325,380.0930565419985,380.0930565419985,380.0930565419985,380.07355895833325,380.0930565419985,380.0930565419985,385.2297153749987,380.0930565419985,385.2297153749987,385.2959975419999,385.92461600000024,380.0930565419985,1,1,1.463115499000196,reldom2_s002,001,2025-01-23_15h02.05.181,Vis-A-Scan_AC,2022.2.5,None,
0,0.0,None,fixation,stimulus/viswhat_stim/blank_white.png,stimulus/viswhat_stim/blank_white.png,stimulus/viswhere_stim/blank_white.png,stimulus/viswhere_stim/blank_white.png,stimulus/viswhat_stim/blank_white.png,stimulus/viswhat_stim/blank_white.png,stimulus/viswhat_stim/blank_white.png,stimulus/viswhat_stim/blank_white.png,0.0,0.0,0.0,0.0,0,0.0,0,0.0,0,0.0,0,0.0,0,0.0,0.0,0,0.0,0,0.0,0,0.0,0,0.0,0,0,0,0,0,0,0,0,10,,,,,0,40,40,40,,,,,,,,,386.23363108299964,386.23363108299964,386.23363108299964,386.23363108299964,386.23363108299964,386.23363108299964,386.23363108299964,386.23363108299964,386.13961737499955,386.23363108299964,386.23363108299964,386.23363108299964,386.13961737499955,386.23363108299964,386.23363108299964,386.23363108299964,386.23363108299964,386.23363108299964,386.23363108299964,386.23363108299964,386.23363108299964,386.23363108299964,386.23363108299964,386.23363108299964,386.23363108299964,386.23363108299964,386.23363108299964,386.18961737499956,386.23363108299964,386.23363108299964,386.23363108299964,386.18961737499956,386.23363108299964,386.23363108299964,386.23363108299964,386.23363108299964,386.23363108299964,391.4137185829986,391.4137185829986,396.42175208299886,None,0,,reldom2_s002,001,2025-01-23_15h02.05.181,Vis-A-Scan_AC,2022.2.5,None,
31,First_Order,6.0,viswhat,stimulus/viswhat_stim/blank_white.png,stimulus/viswhat_stim/blank_white.png,stimulus/viswhat_stim/land_vehicle-rv.png,stimulus/viswhat_stim/land_animal-ostrich.png,stimulus/viswhat_stim/blank_white.png,stimulus/viswhat_stim/type_box.png,stimulus/viswhat_stim/type_yes.png,stimulus/viswhat_stim/type_no.png,None,Type,None,Location,2,0.0,0,5.125,0,5.125,0,5.125,0,0.0,0.625,0,0.0,0,0.0,1,0.5,1,2.125,0,0,0,0,0,0,0,0,0,,,,,0,41,41,41,,,,,,,,,396.42175208299886,396.42175208299886,396.42175208299886,396.42175208299886,396.42175208299886,396.42175208299886,396.42175208299886,396.42175208299886,396.3876135416655,396.42175208299886,396.42175208299886,396.42175208299886,396.3876135416655,396.42175208299886,396.42175208299886,396.42175208299886,398.52231570799995,402.55883766700026,396.42175208299886,396.42175208299886,401.5530393329991,396.8864518329992,397.9137113750003,398.52231570799995,399.5499997499992,396.42175208299886,396.42175208299886,396.4042802083322,396.42175208299886,396.42175208299886,396.42175208299886,396.4042802083322,396.42175208299886,396.42175208299886,401.5530393329991,396.42175208299886,401.5530393329991,401.64647983299983,402.28506758299955,396.42175208299886,2,1,1.8722930410003755,reldom2_s002,001,2025-01-23_15h02.05.181,Vis-A-Scan_AC,2022.2.5,None,
32,First_Order,6.0,viswhat,stimulus/viswhat_stim/blank_white.png,stimulus/viswhat_stim/blank_white.png,stimulus/viswhat_stim/land_animal-moose.png,stimulus/viswhat_stim/water_animal-dolphin.png,stimulus/viswhat_stim/blank_white.png,stimulus/viswhat_stim/type_box.png,stimulus/viswhat_stim/type_yes.png,stimulus/viswhat_stim/type_no.png,None,Type,None,Type,1,0.0,0,5.125,0,5.125,0,5.125,0,0.0,0.625,0,0.0,0,0.0,1,0.5,1,2.125,0,0,0,0,0,0,0,0,0,,,,,0,42,42,42,,,,,,,,,402.55883766700026,402.55883766700026,402.55883766700026,402.55883766700026,402.55883766700026,402.55883766700026,402.55883766700026,402.55883766700026,402.45980424999976,402.55883766700026,402.55883766700026,402.55883766700026,402.45980424999976,402.55883766700026,402.55883766700026,402.55883766700026,404.6430632920001,408.6563495419996,402.55883766700026,402.55883766700026,407.7344396669996,403.0338796249998,404.10874516699914,404.6430632920001,405.71535179199964,402.55883766700026,402.55883766700026,402.5098042499998,402.55883766700026,402.55883766700026,402.55883766700026,402.5098042499998,402.55883766700026,402.55883766700026,407.7344396669996,402.55883766700026,407.7344396669996,407.7344396669996,408.4351038329987,402.55883766700026,1,1,0.5511895410018042,reldom2_s002,001,2025-01-23_15h02.05.181,Vis-A-Scan_AC,2022.2.5,None,
33,First_Order,6.0,viswhat,stimulus/viswhat_stim/blank_white.png,stimulus/viswhat_stim/blank_white.png,stimulus/viswhat_stim/land_vehicle-buldozer.png,stimulus/viswhat_stim/water_vehicle-canoe.png,stimulus/viswhat_stim/blank_white.png,stimulus/viswhat_stim/location_box.png,stimulus/viswhat_stim/location_yes.png,stimulus/viswhat_stim/location_no.png,None,Location,None,Type,2,0.0,0,5.125,0,5.125,0,5.125,0,0.0,0.625,0,0.0,0,0.0,1,0.5,1,2.125,0,0,0,0,0,0,0,0,0,,,,,0,43,43,43,,,,,,,,,408.6563495419996,408.6563495419996,408.6563495419996,408.6563495419996,408.6563495419996,408.6563495419996,408.6563495419996,408.6563495419996,408.60177049966535,408.6563495419996,408.6563495419996,408.6563495419996,408.60177049966535,408.6563495419996,408.6563495419996,408.6563495419996,410.755218291999,414.7357880419986,408.6563495419996,408.6563495419996,413.8140361249989,409.1348807919985,410.16581295799915,410.755218291999,411.79095504199904,408.6563495419996,408.6563495419996,408.6351038329987,408.6563495419996,408.6563495419996,408.6563495419996,408.6351038329987,408.6563495419996,408.6563495419996,413.8140361249989,408.6563495419996,413.8140361249989,413.8775442499991,414.5282412919987,408.6563495419996,2,1,1.3349317499996687,reldom2_s002,001,2025-01-23_15h02.05.181,Vis-A-Scan_AC,2022.2.5,None,
34,First_Order,6.0,viswhat,stimulus/viswhat_stim/blank_white.png,stimulus/viswhat_stim/blank_white.png,stimulus/viswhat_stim/land_vehicle-scooter.png,stimulus/viswhat_stim/water_vehicle-motorboatraft.png,stimulus/viswhat_stim/blank_white.png,stimulus/viswhat_stim/location_box.png,stimulus/viswhat_stim/location_yes.png,stimulus/viswhat_stim/location_no.png,None,Location,None,Type,2,0.0,0,5.125,0,5.125,0,5.125,0,0.0,0.625,0,0.0,0,0.0,1,0.5,1,2.125,0,0,0,0,0,0,0,0,0,,,,,0,44,44,44,,,,,,,,,414.7357880419986,414.7357880419986,414.7357880419986,414.7357880419986,414.7357880419986,414.7357880419986,414.7357880419986,414.7357880419986,414.7066434166662,414.7357880419986,414.7357880419986,414.7357880419986,414.7066434166662,414.7357880419986,414.7357880419986,414.7357880419986,416.83496487499906,420.88622674999897,414.7357880419986,414.7357880419986,419.8675116249997,415.222332207999,416.24476754199895,416.83496487499906,417.8551999169995,414.7357880419986,414.7357880419986,414.7233100833329,414.7357880419986,414.7357880419986,414.7357880419986,414.7233100833329,414.7357880419986,414.7357880419986,419.8675116249997,414.7357880419986,419.8675116249997,419.9503362079995,420.5848358329986,414.7357880419986,2,1,1.6446642910013907,reldom2_s002,001,2025-01-23_15h02.05.181,Vis-A-Scan_AC,2022.2.5,None,
0,0.0,None,fixation,stimulus/viswhat_stim/blank_white.png,stimulus/viswhat_stim/blank_white.png,stimulus/viswhere_stim/blank_white.png,stimulus/viswhere_stim/blank_white.png,stimulus/viswhat_stim/blank_white.png,stimulus/viswhat_stim/blank_white.png,stimulus/viswhat_stim/blank_white.png,stimulus/viswhat_stim/blank_white.png,0.0,0.0,0.0,0.0,0,0.0,0,0.0,0,0.0,0,0.0,0,0.0,0.0,0,0.0,0,0.0,0,0.0,0,0.0,0,0,0,0,0,0,0,0,8,,,,,0,45,45,45,,,,,,,,,420.88622674999897,420.88622674999897,420.88622674999897,420.88622674999897,420.88622674999897,420.88622674999897,420.88622674999897,420.88622674999897,420.78035766633303,420.88622674999897,420.88622674999897,420.88622674999897,420.78035766633303,420.88622674999897,420.88622674999897,420.88622674999897,420.88622674999897,420.88622674999897,420.88622674999897,420.88622674999897,420.88622674999897,420.88622674999897,420.88622674999897,420.88622674999897,420.88622674999897,420.88622674999897,420.88622674999897,420.8470243329997,420.88622674999897,420.88622674999897,420.88622674999897,420.8470243329997,420.88622674999897,420.88622674999897,420.88622674999897,420.88622674999897,420.88622674999897,426.1088562919995,426.1088562919995,429.04222687499896,None,0,,reldom2_s002,001,2025-01-23_15h02.05.181,Vis-A-Scan_AC,2022.2.5,None,
35,Second_Order,6.0,viswhat,stimulus/viswhat_stim/land_vehicle-train.png,stimulus/viswhat_stim/land_animal-moose.png,stimulus/viswhat_stim/land_vehicle-schoolbus.png,stimulus/viswhat_stim/water_vehicle-sailboat.png,stimulus/viswhat_stim/match_blank.png,stimulus/viswhat_stim/match_box.png,stimulus/viswhat_stim/match_yes.png,stimulus/viswhat_stim/match_no.png,2.0,Match,Location,Type,2,5.125,0,5.125,0,5.125,0,5.125,0,0.75,0.75,1,0.5,1,2.125,1,0.5,1,2.125,0,0,0,0,0,0,0,0,0,,,,,0,46,46,46,,,,,,,,,429.04222687499896,434.1650814169989,429.48776737499975,430.4767050419996,431.1124555419992,432.1280948749991,429.04222687499896,429.04222687499896,429.0514901666653,429.04222687499896,429.04222687499896,429.04222687499896,429.0514901666653,429.04222687499896,434.1650814169989,435.0118920829991,437.1018477079997,441.0289148749998,435.0118920829991,435.0118920829991,440.1874699580003,435.4819281250002,436.52731700000004,437.1018477079997,438.1517095829986,435.0118920829991,435.0118920829991,434.96642758366676,435.0118920829991,435.0118920829991,435.0118920829991,434.96642758366676,435.0118920829991,435.0118920829991,440.1874699580003,435.0118920829991,440.1874699580003,440.1874699580003,,435.0118920829991,2,1,1.3076018750016374,reldom2_s002,001,2025-01-23_15h02.05.181,Vis-A-Scan_AC,2022.2.5,None,
36,Second_Order,6.0,viswhat,stimulus/viswhat_stim/land_animal-moose.png,stimulus/viswhat_stim/land_vehicle-schoolbus.png,stimulus/viswhat_stim/land_vehicle-pickuptruck.png,stimulus/viswhat_stim/water_vehicle-canoe(1).png,stimulus/viswhat_stim/match_blank.png,stimulus/viswhat_stim/match_box.png,stimulus/viswhat_stim/match_yes.png,stimulus/viswhat_stim/match_no.png,2.0,Match,Location,Type,2,5.125,0,5.125,0,5.125,0,5.125,0,0.625,0.625,1,0.5,1,2.125,1,0.5,1,2.125,0,0,0,0,0,0,0,0,0,,,,,0,47,47,47,,,,,,,,,441.0289148749998,446.14672558299935,441.4692509999986,442.4671405829995,443.09112212499895,444.0873627919991,441.0289148749998,441.0289148749998,441.0345042499997,441.0289148749998,441.0289148749998,441.0289148749998,441.0345042499997,441.0289148749998,446.14672558299935,446.81119608299923,448.8959082499987,452.95125137499963,446.81119608299923,446.81119608299923,451.95313712499956,447.27071895799963,448.28213154199875,448.8959082499987,449.913060375,446.81119608299923,446.81119608299923,446.79413662533307,446.81119608299923,446.81119608299923,446.81119608299923,446.79413662533307,446.81119608299923,446.81119608299923,451.95313712499956,446.81119608299923,451.95313712499956,452.0181600830001,452.6588955419993,446.81119608299923,2,1,0.9964981250013807,reldom2_s002,001,2025-01-23_15h02.05.181,Vis-A-Scan_AC,2022.2.5,None,
0,0.0,None,fixation,stimulus/viswhat_stim/blank_white.png,stimulus/viswhat_stim/blank_white.png,stimulus/viswhere_stim/blank_white.png,stimulus/viswhere_stim/blank_white.png,stimulus/viswhat_stim/blank_white.png,stimulus/viswhat_stim/blank_white.png,stimulus/viswhat_stim/blank_white.png,stimulus/viswhat_stim/blank_white.png,0.0,0.0,0.0,0.0,0,0.0,0,0.0,0,0.0,0,0.0,0,0.0,0.0,0,0.0,0,0.0,0,0.0,0,0.0,0,0,0,0,0,0,0,0,8,,,,,0,48,48,48,,,,,,,,,452.95125137499963,452.95125137499963,452.95125137499963,452.95125137499963,452.95125137499963,452.95125137499963,452.95125137499963,452.95125137499963,452.8590565829996,452.95125137499963,452.95125137499963,452.95125137499963,452.8590565829996,452.95125137499963,452.95125137499963,452.95125137499963,452.95125137499963,452.95125137499963,452.95125137499963,452.95125137499963,452.95125137499963,452.95125137499963,452.95125137499963,452.95125137499963,452.95125137499963,452.95125137499963,452.95125137499963,452.9090565829996,452.95125137499963,452.95125137499963,452.95125137499963,452.9090565829996,452.95125137499963,452.95125137499963,452.95125137499963,452.95125137499963,452.95125137499963,458.14857629200014,458.14857629200014,461.1484140829998,None,0,,reldom2_s002,001,2025-01-23_15h02.05.181,Vis-A-Scan_AC,2022.2.5,None,
37,First_Order,7.0,viswhere,stimulus/viswhere_stim/blank_white.png,stimulus/viswhere_stim/blank_white.png,stimulus/viswhere_stim/120-deg_dot-right_turquoise.png,stimulus/viswhere_stim/120-deg_dot-left_slateblue.png,stimulus/viswhere_stim/blank_white.png,stimulus/viswhere_stim/line_box.png,stimulus/viswhere_stim/line_yes.png,stimulus/viswhere_stim/line_no.png,None,Line,None,Line,1,0.0,0,5.125,0,5.125,0,5.125,0,0.0,0.625,0,0.0,0,0.0,1,0.5,1,2.125,0,0,0,0,0,0,0,0,0,,,,,0,49,49,49,,,,,,,,,461.1484140829998,461.1484140829998,461.1484140829998,461.1484140829998,461.1484140829998,461.1484140829998,461.1484140829998,461.1484140829998,461.1251293746669,461.1484140829998,461.1484140829998,461.1484140829998,461.1251293746669,461.1484140829998,461.1484140829998,461.1484140829998,463.2425505829997,467.2215090419995,461.1484140829998,461.1484140829998,466.288088583,461.6338011249991,462.6440132919997,463.2425505829997,464.2549562919994,461.1484140829998,461.1484140829998,461.14179604133363,461.1484140829998,461.1484140829998,461.1484140829998,461.14179604133363,461.1484140829998,461.1484140829998,466.288088583,461.1484140829998,466.288088583,466.37388241699955,467.0002694169998,461.1484140829998,1,1,1.5355734990007477,reldom2_s002,001,2025-01-23_15h02.05.181,Vis-A-Scan_AC,2022.2.5,None,
38,First_Order,7.0,viswhere,stimulus/viswhere_stim/blank_white.png,stimulus/viswhere_stim/blank_white.png,stimulus/viswhere_stim/30-deg_dot-right_royalblue.png,stimulus/viswhere_stim/30-deg_dot-left_royalblue.png,stimulus/viswhere_stim/blank_white.png,stimulus/viswhere_stim/dot_box.png,stimulus/viswhere_stim/dot_yes.png,stimulus/viswhere_stim/dot_no.png,None,Dot,None,Line,2,0.0,0,5.125,0,5.125,0,5.125,0,0.0,0.625,0,0.0,0,0.0,1,0.5,1,2.125,0,0,0,0,0,0,0,0,0,,,,,0,50,50,50,,,,,,,,,467.2215090419995,467.2215090419995,467.2215090419995,467.2215090419995,467.2215090419995,467.2215090419995,467.2215090419995,467.2215090419995,467.1941851663335,467.2215090419995,467.2215090419995,467.2215090419995,467.1941851663335,467.2215090419995,467.2215090419995,467.2215090419995,469.31510508300016,473.2892154579986,467.2215090419995,467.2215090419995,472.34634624999853,467.70692099999906,468.7163609580002,469.31510508300016,470.32912108299934,467.2215090419995,467.2215090419995,467.21085183300016,467.2215090419995,467.2215090419995,467.2215090419995,467.21085183300016,467.2215090419995,467.2215090419995,472.34634624999853,467.2215090419995,472.34634624999853,472.4439199169992,473.07015041699924,467.2215090419995,2,1,1.8770490830011113,reldom2_s002,001,2025-01-23_15h02.05.181,Vis-A-Scan_AC,2022.2.5,None,
39,First_Order,7.0,viswhere,stimulus/viswhere_stim/blank_white.png,stimulus/viswhere_stim/blank_white.png,stimulus/viswhere_stim/150-deg_dot-left_peru.png,stimulus/viswhere_stim/30-deg_dot-left_goldenrod.png,stimulus/viswhere_stim/blank_white.png,stimulus/viswhere_stim/line_box.png,stimulus/viswhere_stim/line_yes.png,stimulus/viswhere_stim/line_no.png,None,Line,None,Dot,2,0.0,0,5.125,0,5.125,0,5.125,0,0.0,0.625,0,0.0,0,0.0,1,0.5,1,2.125,0,0,0,0,0,0,0,0,0,,,,,0,51,51,51,,,,,,,,,473.2892154579986,473.2892154579986,473.2892154579986,473.2892154579986,473.2892154579986,473.2892154579986,473.2892154579986,473.2892154579986,473.2644021253321,473.2892154579986,473.2892154579986,473.2892154579986,473.2644021253321,473.2892154579986,473.2892154579986,473.2892154579986,475.39892725000027,479.35882175000006,473.2892154579986,473.2892154579986,478.41053358299905,473.77912837499935,474.79532129200015,475.39892725000027,476.4201973749987,473.2892154579986,473.2892154579986,473.28106879199873,473.2892154579986,473.2892154579986,473.2892154579986,473.28106879199873,473.2892154579986,473.2892154579986,478.41053358299905,473.2892154579986,478.41053358299905,478.5079914580001,479.13936979199934,473.2892154579986,2,1,1.5751869170017017,reldom2_s002,001,2025-01-23_15h02.05.181,Vis-A-Scan_AC,2022.2.5,None,
40,First_Order,7.0,viswhere,stimulus/viswhere_stim/blank_white.png,stimulus/viswhere_stim/blank_white.png,stimulus/viswhere_stim/120-deg_dot-left_royalblue.png,stimulus/viswhere_stim/120-deg_dot-right_slateblue.png,stimulus/viswhere_stim/blank_white.png,stimulus/viswhere_stim/dot_box.png,stimulus/viswhere_stim/dot_yes.png,stimulus/viswhere_stim/dot_no.png,None,Dot,None,Line,2,0.0,0,5.125,0,5.125,0,5.125,0,0.0,0.625,0,0.0,0,0.0,1,0.5,1,2.125,0,0,0,0,0,0,0,0,0,,,,,0,52,52,52,,,,,,,,,479.35882175000006,479.35882175000006,479.35882175000006,479.35882175000006,479.35882175000006,479.35882175000006,479.35882175000006,479.35882175000006,479.33461950033353,479.35882175000006,479.35882175000006,479.35882175000006,479.33461950033353,479.35882175000006,479.35882175000006,479.35882175000006,481.4691362499998,485.5085733750002,479.35882175000006,479.35882175000006,484.51347349999924,479.8438394169989,480.8515374999988,481.4691362499998,482.4821642499992,479.35882175000006,479.35882175000006,479.3512861670002,479.35882175000006,479.35882175000006,479.35882175000006,479.3512861670002,479.35882175000006,479.35882175000006,484.51347349999924,479.35882175000006,484.51347349999924,484.58546237500013,485.2116759169985,479.35882175000006,2,1,1.2783042080009182,reldom2_s002,001,2025-01-23_15h02.05.181,Vis-A-Scan_AC,2022.2.5,None,
0,0.0,None,fixation,stimulus/viswhat_stim/blank_white.png,stimulus/viswhat_stim/blank_white.png,stimulus/viswhere_stim/blank_white.png,stimulus/viswhere_stim/blank_white.png,stimulus/viswhat_stim/blank_white.png,stimulus/viswhat_stim/blank_white.png,stimulus/viswhat_stim/blank_white.png,stimulus/viswhat_stim/blank_white.png,0.0,0.0,0.0,0.0,0,0.0,0,0.0,0,0.0,0,0.0,0,0.0,0.0,0,0.0,0,0.0,0,0.0,0,0.0,0,0,0,0,0,0,0,0,9,,,,,0,53,53,53,,,,,,,,,485.5085733750002,485.5085733750002,485.5085733750002,485.5085733750002,485.5085733750002,485.5085733750002,485.5085733750002,485.5085733750002,485.4060605413336,485.5085733750002,485.5085733750002,485.5085733750002,485.4060605413336,485.5085733750002,485.5085733750002,485.5085733750002,485.5085733750002,485.5085733750002,485.5085733750002,485.5085733750002,485.5085733750002,485.5085733750002,485.5085733750002,485.5085733750002,485.5085733750002,485.5085733750002,485.5085733750002,485.4560605413336,485.5085733750002,485.5085733750002,485.5085733750002,485.4560605413336,485.5085733750002,485.5085733750002,485.5085733750002,485.5085733750002,485.5085733750002,490.731246542,490.731246542,494.6582413750002,None,0,,reldom2_s002,001,2025-01-23_15h02.05.181,Vis-A-Scan_AC,2022.2.5,None,
41,Second_Order,7.0,viswhere,stimulus/viswhere_stim/90-deg_dot-right_seagreen.png,stimulus/viswhere_stim/90-deg_dot-left_salmon.png,stimulus/viswhere_stim/60-deg_dot-left_slateblue.png,stimulus/viswhere_stim/60-deg_dot-right_lightsseagreen.png,stimulus/viswhat_stim/match_blank.png,stimulus/viswhat_stim/match_box.png,stimulus/viswhat_stim/match_yes.png,stimulus/viswhat_stim/match_no.png,1.0,Match,Line,Line,1,5.125,0,5.125,0,5.125,0,5.125,0,0.75,0.75,1,0.5,1,2.125,1,0.5,1,2.125,0,0,0,0,0,0,0,0,0,,,,,0,54,54,54,,,,,,,,,494.6582413750002,499.77097216699985,495.1388873750002,496.12759000000005,496.76454291699883,497.76132683299875,494.6582413750002,494.6582413750002,494.6700462083319,494.6582413750002,494.6582413750002,494.6582413750002,494.6700462083319,494.6582413750002,499.77097216699985,500.5513382079989,502.65092083299896,506.5318392499994,500.5513382079989,500.5513382079989,505.68872637499953,501.01777095800026,502.03075033299865,502.65092083299896,503.6675851250002,500.5513382079989,500.5513382079989,500.53795533333187,500.5513382079989,500.5513382079989,500.5513382079989,500.53795533333187,500.5513382079989,500.5513382079989,505.68872637499953,500.5513382079989,505.68872637499953,505.7597749999986,506.5318392499994,500.5513382079989,1,1,0.9615138330009358,reldom2_s002,001,2025-01-23_15h02.05.181,Vis-A-Scan_AC,2022.2.5,None,
42,Second_Order,7.0,viswhere,stimulus/viswhere_stim/150-deg_dot-left_cyan.png,stimulus/viswhere_stim/60-deg_dot-left_royalblue.png,stimulus/viswhere_stim/30-deg_dot-right_mediumslateblue.png,stimulus/viswhere_stim/90-deg_dot-right_peru.png,stimulus/viswhat_stim/match_blank.png,stimulus/viswhat_stim/match_box.png,stimulus/viswhat_stim/match_yes.png,stimulus/viswhat_stim/match_no.png,1.0,Match,Dot,Dot,1,5.125,0,5.125,0,5.125,0,5.125,0,0.625,0.625,1,0.5,1,2.125,1,0.5,1,2.125,0,0,0,0,0,0,0,0,0,,,,,0,55,55,55,,,,,,,,,506.5318392499994,511.64803841699904,507.0160064169995,508.005476458,508.641622707999,509.63912716699997,506.5318392499994,506.5318392499994,506.5448352499996,506.5318392499994,506.5318392499994,506.5318392499994,506.5448352499996,506.5318392499994,511.64803841699904,512.3044930830001,514.4086421249995,518.4410372499988,512.3044930830001,512.3044930830001,517.4331233749999,512.7705801669999,513.7847634169993,514.4086421249995,515.4285261669993,512.3044930830001,512.3044930830001,512.2947935833331,512.3044930830001,512.3044930830001,512.3044930830001,512.2947935833331,512.3044930830001,512.3044930830001,517.4331233749999,512.3044930830001,517.4331233749999,517.5173123329987,518.1518214579992,512.3044930830001,1,1,0.7066922080011864,reldom2_s002,001,2025-01-23_15h02.05.181,Vis-A-Scan_AC,2022.2.5,None,
0,0.0,None,fixation,stimulus/viswhat_stim/blank_white.png,stimulus/viswhat_stim/blank_white.png,stimulus/viswhere_stim/blank_white.png,stimulus/viswhere_stim/blank_white.png,stimulus/viswhat_stim/blank_white.png,stimulus/viswhat_stim/blank_white.png,stimulus/viswhat_stim/blank_white.png,stimulus/viswhat_stim/blank_white.png,0.0,0.0,0.0,0.0,0,0.0,0,0.0,0,0.0,0,0.0,0,0.0,0.0,0,0.0,0,0.0,0,0.0,0,0.0,0,0,0,0,0,0,0,0,8,,,,,0,56,56,56,,,,,,,,,518.4410372499988,518.4410372499988,518.4410372499988,518.4410372499988,518.4410372499988,518.4410372499988,518.4410372499988,518.4410372499988,518.3322435413332,518.4410372499988,518.4410372499988,518.4410372499988,518.3322435413332,518.4410372499988,518.4410372499988,518.4410372499988,518.4410372499988,518.4410372499988,518.4410372499988,518.4410372499988,518.4410372499988,518.4410372499988,518.4410372499988,518.4410372499988,518.4410372499988,518.4410372499988,518.4410372499988,518.3989102079998,518.4410372499988,518.4410372499988,518.4410372499988,518.3989102079998,518.4410372499988,518.4410372499988,518.4410372499988,518.4410372499988,518.4410372499988,523.6422530829986,523.6422530829986,526.6497314999997,None,0,,reldom2_s002,001,2025-01-23_15h02.05.181,Vis-A-Scan_AC,2022.2.5,None,
43,First_Order,8.0,viswhere,stimulus/viswhere_stim/blank_white.png,stimulus/viswhere_stim/blank_white.png,stimulus/viswhere_stim/150-deg_dot-left_lightsseagreen.png,stimulus/viswhere_stim/30-deg_dot-left_salmon.png,stimulus/viswhere_stim/blank_white.png,stimulus/viswhere_stim/dot_box.png,stimulus/viswhere_stim/dot_yes.png,stimulus/viswhere_stim/dot_no.png,None,Dot,None,Dot,1,0.0,0,5.125,0,5.125,0,5.125,0,0.0,0.625,0,0.0,0,0.0,1,0.5,1,2.125,0,0,0,0,0,0,0,0,0,,,,,0,57,57,57,,,,,,,,,526.6497314999997,526.6497314999997,526.6497314999997,526.6497314999997,526.6497314999997,526.6497314999997,526.6497314999997,526.6497314999997,526.6257095836669,526.6497314999997,526.6497314999997,526.6497314999997,526.6257095836669,526.6497314999997,526.6497314999997,526.6497314999997,528.7553812919996,532.717262582999,526.6497314999997,526.6497314999997,531.7803886249985,527.1381059999985,528.1538917079997,528.7553812919996,529.7718140830002,526.6497314999997,526.6497314999997,526.6423762503335,526.6497314999997,526.6497314999997,526.6497314999997,526.6423762503335,526.6497314999997,526.6497314999997,531.7803886249985,526.6497314999997,531.7803886249985,531.865544708,532.4986784169996,526.6497314999997,2,0,1.0604744990014296,reldom2_s002,001,2025-01-23_15h02.05.181,Vis-A-Scan_AC,2022.2.5,None,
44,First_Order,8.0,viswhere,stimulus/viswhere_stim/blank_white.png,stimulus/viswhere_stim/blank_white.png,stimulus/viswhere_stim/150-deg_dot-right_seagreen.png,stimulus/viswhere_stim/150-deg_dot-left_goldenrod.png,stimulus/viswhere_stim/blank_white.png,stimulus/viswhere_stim/line_box.png,stimulus/viswhere_stim/line_yes.png,stimulus/viswhere_stim/line_no.png,None,Line,None,Line,1,0.0,0,5.125,0,5.125,0,5.125,0,0.0,0.625,0,0.0,0,0.0,1,0.5,1,2.125,0,0,0,0,0,0,0,0,0,,,,,0,58,58,58,,,,,,,,,532.717262582999,532.717262582999,532.717262582999,532.717262582999,532.717262582999,532.717262582999,532.717262582999,532.717262582999,532.6932104163328,532.717262582999,532.717262582999,532.717262582999,532.6932104163328,532.717262582999,532.717262582999,532.717262582999,534.8179284999987,538.7886197499993,532.717262582999,532.717262582999,537.8435861669986,533.1896938749996,534.1916473330002,534.8179284999987,535.8243586669996,532.717262582999,532.717262582999,532.7098770829995,532.717262582999,532.717262582999,532.717262582999,532.7098770829995,532.717262582999,532.717262582999,537.8435861669986,532.717262582999,537.8435861669986,537.9426881669988,538.5747728749993,532.717262582999,1,1,0.9618169170007604,reldom2_s002,001,2025-01-23_15h02.05.181,Vis-A-Scan_AC,2022.2.5,None,
45,First_Order,8.0,viswhere,stimulus/viswhere_stim/blank_white.png,stimulus/viswhere_stim/blank_white.png,stimulus/viswhere_stim/150-deg_dot-left_seagreen.png,stimulus/viswhere_stim/60-deg_dot-left_turquoise.png,stimulus/viswhere_stim/blank_white.png,stimulus/viswhere_stim/dot_box.png,stimulus/viswhere_stim/dot_yes.png,stimulus/viswhere_stim/dot_no.png,None,Dot,None,Dot,1,0.0,0,5.125,0,5.125,0,5.125,0,0.0,0.625,0,0.0,0,0.0,1,0.5,1,2.125,0,0,0,0,0,0,0,0,0,,,,,0,59,59,59,,,,,,,,,538.7886197499993,538.7886197499993,538.7886197499993,538.7886197499993,538.7886197499993,538.7886197499993,538.7886197499993,538.7886197499993,538.7604703753326,538.7886197499993,538.7886197499993,538.7886197499993,538.7604703753326,538.7886197499993,538.7886197499993,538.7886197499993,540.8905209169989,544.8467720419994,538.7886197499993,538.7886197499993,543.9193684579986,539.2564591249993,540.2699418329994,540.8905209169989,541.9089447499991,538.7886197499993,538.7886197499993,538.7771370419993,538.7886197499993,538.7886197499993,538.7886197499993,538.7771370419993,538.7886197499993,538.7886197499993,543.9193684579986,538.7886197499993,543.9193684579986,544.0030139579994,544.6295060829998,538.7886197499993,1,1,1.6836707490019762,reldom2_s002,001,2025-01-23_15h02.05.181,Vis-A-Scan_AC,2022.2.5,None,
46,First_Order,8.0,viswhere,stimulus/viswhere_stim/blank_white.png,stimulus/viswhere_stim/blank_white.png,stimulus/viswhere_stim/150-deg_dot-left_lightsseagreen.png,stimulus/viswhere_stim/60-deg_dot-left_royalblue.png,stimulus/viswhere_stim/blank_white.png,stimulus/viswhere_stim/line_box.png,stimulus/viswhere_stim/line_yes.png,stimulus/viswhere_stim/line_no.png,None,Line,None,Dot,2,0.0,0,5.125,0,5.125,0,5.125,0,0.0,0.625,0,0.0,0,0.0,1,0.5,1,2.125,0,0,0,0,0,0,0,0,0,,,,,0,60,60,60,,,,,,,,,544.8467720419994,544.8467720419994,544.8467720419994,544.8467720419994,544.8467720419994,544.8467720419994,544.8467720419994,544.8467720419994,544.8237378753323,544.8467720419994,544.8467720419994,544.8467720419994,544.8237378753323,544.8467720419994,544.8467720419994,544.8467720419994,546.9555601249995,550.9867382499997,544.8467720419994,544.8467720419994,549.970314582999,545.3341032499993,546.3512243749992,546.9555601249995,547.9590785419987,544.8467720419994,544.8467720419994,544.840404541999,544.8467720419994,544.8467720419994,544.8467720419994,544.840404541999,544.8467720419994,544.8467720419994,549.970314582999,544.8467720419994,549.970314582999,550.0726906669988,550.7044680829986,544.8467720419994,2,1,0.6886442500017438,reldom2_s002,001,2025-01-23_15h02.05.181,Vis-A-Scan_AC,2022.2.5,None,
0,0.0,None,fixation,stimulus/viswhat_stim/blank_white.png,stimulus/viswhat_stim/blank_white.png,stimulus/viswhere_stim/blank_white.png,stimulus/viswhere_stim/blank_white.png,stimulus/viswhat_stim/blank_white.png,stimulus/viswhat_stim/blank_white.png,stimulus/viswhat_stim/blank_white.png,stimulus/viswhat_stim/blank_white.png,0.0,0.0,0.0,0.0,0,0.0,0,0.0,0,0.0,0,0.0,0,0.0,0.0,0,0.0,0,0.0,0,0.0,0,0.0,0,0,0,0,0,0,0,0,9,,,,,0,61,61,61,,,,,,,,,550.9867382499997,550.9867382499997,550.9867382499997,550.9867382499997,550.9867382499997,550.9867382499997,550.9867382499997,550.9867382499997,550.8850748333329,550.9867382499997,550.9867382499997,550.9867382499997,550.8850748333329,550.9867382499997,550.9867382499997,550.9867382499997,550.9867382499997,550.9867382499997,550.9867382499997,550.9867382499997,550.9867382499997,550.9867382499997,550.9867382499997,550.9867382499997,550.9867382499997,550.9867382499997,550.9867382499997,550.9350748333328,550.9867382499997,550.9867382499997,550.9867382499997,550.9350748333328,550.9867382499997,550.9867382499997,550.9867382499997,550.9867382499997,550.9867382499997,556.2127839999994,556.2127839999994,560.1435929999989,None,0,,reldom2_s002,001,2025-01-23_15h02.05.181,Vis-A-Scan_AC,2022.2.5,None,
47,Second_Order,8.0,viswhere,stimulus/viswhere_stim/120-deg_dot-left_goldenrod.png,stimulus/viswhere_stim/120-deg_dot-right_seagreen.png,stimulus/viswhere_stim/90-deg_dot-left_peru.png,stimulus/viswhere_stim/90-deg_dot-right_turquoise.png,stimulus/viswhat_stim/match_blank.png,stimulus/viswhat_stim/match_box.png,stimulus/viswhat_stim/match_yes.png,stimulus/viswhat_stim/match_no.png,1.0,Match,Line,Line,1,5.125,0,5.125,0,5.125,0,5.125,0,0.75,0.75,1,0.5,1,2.125,1,0.5,1,2.125,0,0,0,0,0,0,0,0,0,,,,,0,62,62,62,,,,,,,,,560.1435929999989,565.2674259579999,560.6269924169992,561.6253597079995,562.2478768749988,563.2456225419992,560.1435929999989,560.1435929999989,560.1549177083326,560.1435929999989,560.1435929999989,560.1435929999989,560.1549177083326,560.1435929999989,565.2674259579999,566.0481589169995,568.1418886669999,572.033659875,566.0481589169995,566.0481589169995,571.1799557919985,566.517646708,567.535854624999,568.1418886669999,569.1632231249987,566.0481589169995,566.0481589169995,566.0354150413318,566.0481589169995,566.0481589169995,566.0481589169995,566.0354150413318,566.0481589169995,566.0481589169995,571.1799557919985,566.0481589169995,571.1799557919985,571.249607374999,572.033659875,566.0481589169995,1,1,1.6704403740004636,reldom2_s002,001,2025-01-23_15h02.05.181,Vis-A-Scan_AC,2022.2.5,None,
48,Second_Order,8.0,viswhere,stimulus/viswhere_stim/150-deg_dot-right_salmon.png,stimulus/viswhere_stim/90-deg_dot-right_cyan.png,stimulus/viswhere_stim/60-deg_dot-left_mediumslateblue.png,stimulus/viswhere_stim/30-deg_dot-left_turquoise.png,stimulus/viswhat_stim/match_blank.png,stimulus/viswhat_stim/match_box.png,stimulus/viswhat_stim/match_yes.png,stimulus/viswhat_stim/match_no.png,1.0,Match,Dot,Dot,1,5.125,0,5.125,0,5.125,0,5.125,0,0.625,0.625,1,0.5,1,2.125,1,0.5,1,2.125,0,0,0,0,0,0,0,0,0,,,,,0,63,63,63,,,,,,,,,572.033659875,577.1491028749988,572.517213707999,573.5063225829999,574.141911875,575.1398861669986,572.033659875,572.033659875,572.045434417,572.033659875,572.033659875,572.033659875,572.045434417,572.033659875,577.1491028749988,577.8051630829996,579.9064251250002,583.9399716249991,577.8051630829996,577.8051630829996,582.9284519579996,578.2728523749993,579.2847499580002,579.9064251250002,580.9216396249994,577.8051630829996,577.8051630829996,577.7958628753336,577.8051630829996,577.8051630829996,577.8051630829996,577.7958628753336,577.8051630829996,577.8051630829996,582.9284519579996,577.8051630829996,582.9284519579996,583.0124954579987,583.6389741669991,577.8051630829996,1,1,1.7027747500014812,reldom2_s002,001,2025-01-23_15h02.05.181,Vis-A-Scan_AC,2022.2.5,None,
0,0.0,None,fixation,stimulus/viswhat_stim/blank_white.png,stimulus/viswhat_stim/blank_white.png,stimulus/viswhere_stim/blank_white.png,stimulus/viswhere_stim/blank_white.png,stimulus/viswhat_stim/blank_white.png,stimulus/viswhat_stim/blank_white.png,stimulus/viswhat_stim/blank_white.png,stimulus/viswhat_stim/blank_white.png,0.0,0.0,0.0,0.0,0,0.0,0,0.0,0,0.0,0,0.0,0,0.0,0.0,0,0.0,0,0.0,0,0.0,0,0.0,0,0,0,0,0,0,0,0,16,,,,,0,64,64,64,,,,,,,,,583.9399716249991,583.9399716249991,583.9399716249991,583.9399716249991,583.9399716249991,583.9399716249991,583.9399716249991,583.9399716249991,583.8336266253331,583.9399716249991,583.9399716249991,583.9399716249991,583.8336266253331,583.9399716249991,583.9399716249991,583.9399716249991,583.9399716249991,583.9399716249991,583.9399716249991,583.9399716249991,583.9399716249991,583.9399716249991,583.9399716249991,583.9399716249991,583.9399716249991,583.9399716249991,583.9399716249991,583.9002932919997,583.9399716249991,583.9399716249991,583.9399716249991,583.9002932919997,583.9399716249991,583.9399716249991,583.9399716249991,583.9399716249991,583.9399716249991,589.1502784999993,589.1502784999993,600.0820665829997,None,0,,reldom2_s002,001,2025-01-23_15h02.05.181,Vis-A-Scan_AC,2022.2.5,None,
