Trial,Order,Block,Type,Stimuli_File1,Stimuli_File2,Stimuli_File3,Stimuli_File4,Cue_File1,Cue_File2,Response_File_Yes,Response_File_No,Match,Cue_Dimension,Pair1_Dimension,Pair2_Dimension,Key,Cue1_Duration,Cue1_Onset,Cue2_Duration,Cue2_Onset,ResponseYes_Duration,ResponseYes_Onset,ResponseNo_Duration,ResponseNo_Onset,ITI_Within,ITI_Between,Image1_Duration,Image1_Onset,Image2_Duration,Image2_Onset,Image3_Duration,Image3_Onset,Image4_Duration,Image4_Onset,Sound1_Duration,Sound1_Onset,Sound2_Duration,Sound2_Onset,Sound3_Duration,Sound3_Onset,Sound4_Duration,Sound4_Onset,Fixation_Duration,trials_2.thisRepN,trials_2.thisTrialN,trials_2.thisN,trials_2.thisIndex,trials.thisRepN,trials.thisTrialN,trials.thisN,trials.thisIndex,text_start.started,key_resp_start.started,key_resp_start.keys,key_resp_start.rt,cue_file1.started,cue_file1.stopped,image_1.started,image_1.stopped,image_2.started,image_2.stopped,sound_icon1.started,sound_icon1.stopped,sound_1.started,sound_1.stopped,sound_icon2.started,sound_icon2.stopped,sound_2.started,sound_2.stopped,image_blank_1.started,image_blank_1.stopped,key_press.started,key_press.stopped,fixation_text.started,cue_file2.started,cue_file2.stopped,image_3.started,image_3.stopped,image_4.started,image_4.stopped,sound_icon3.started,sound_icon3.stopped,sound_3.started,sound_3.stopped,sound_icon4.started,sound_icon4.stopped,sound_4.started,sound_4.stopped,response_yes.started,response_yes.stopped,response_no.started,response_no.stopped,iti_blank.started,iti_blank.stopped,fixation_text.stopped,key_press.keys,key_press.corr,key_press.rt,text_score.started,participant,session,date,expName,psychopyVersion,frameRate,
,,,,,,,,,,,,,,,,,,,,,,,,,,,,,,,,,,,,,,,,,,,,,,,,,,,,17.59530966600869,17.59530966600869,2,1.518377959029749,,,,,,,,,,,,,,,,,,,,,,,,,,,,,,,,,,,,,,,,,,,,,reldom2_s002,001,2025-01-23_14h13.34.142,practice_test2_AC,2022.2.5,None,
,,,,,,,,,,,,,,,,,,,,,,,,,,,,,,,,,,,,,,,,,,,,0,0,0,0,,,,,,,,,,,,,,,,,,,,,,,,,,,,,,,,,,,,,,,,,,,,,,,,,,,,,reldom2_s002,001,2025-01-23_14h13.34.142,practice_test2_AC,2022.2.5,None,
,,,,,,,,,,,,,,,,,,,,,,,,,,,,,,,,,,,,,,,,,,,,1,0,1,0,,,,,,,,,,,,,,,,,,,,,,,,,,,,,,,,,,,,,,,,,,,,,,,,,,,,,reldom2_s002,001,2025-01-23_14h13.34.142,practice_test2_AC,2022.2.5,None,
,,,,,,,,,,,,,,,,,,,,,,,,,,,,,,,,,,,,,,,,,,,,2,0,2,0,,,,,,,,,,,,,,,,,,,,,,,,,,,,,,,,,,,,,,,,,,,,,,,,,,,,,reldom2_s002,001,2025-01-23_14h13.34.142,practice_test2_AC,2022.2.5,None,
,,,,,,,,,,,,,,,,,,,,,,,,,,,,,,,,,,,,,,,,,,,,3,0,3,0,,,,,,,,,,,,,,,,,,,,,,,,,,,,,,,,,,,,,,,,,,,,,,,,,,,,,reldom2_s002,001,2025-01-23_14h13.34.142,practice_test2_AC,2022.2.5,None,
0,0.0,None,fixation,stimulus/viswhat_stim/blank_white.png,stimulus/viswhat_stim/blank_white.png,stimulus/audwhat_stim/blank_white.png,stimulus/audwhat_stim/blank_white.png,stimulus/viswhat_stim/blank_white.png,stimulus/viswhat_stim/blank_white.png,stimulus/viswhat_stim/blank_white.png,stimulus/viswhat_stim/blank_white.png,0.0,0.0,0.0,0.0,0,0.0,0,0.0,0,0.0,0,0.0,0,0.0,0.0,0,0.0,0,0.0,0,0.0,0,0.0,0,0.0,0,0.0,0,0.0,0,0.0,6,,,,,0,0,0,0,,,,,19.351596874999814,19.351596874999814,19.351596874999814,19.351596874999814,19.351596874999814,19.351596874999814,19.351596874999814,19.351596874999814,19.248407208333568,19.351596874999814,19.351596874999814,19.351596874999814,19.248407208333568,19.351596874999814,19.351596874999814,19.351596874999814,19.351596874999814,19.351596874999814,19.351596874999814,19.351596874999814,19.351596874999814,19.351596874999814,19.351596874999814,19.351596874999814,19.351596874999814,19.351596874999814,19.351596874999814,19.29840720833357,19.351596874999814,19.351596874999814,19.351596874999814,19.29840720833357,19.351596874999814,19.351596874999814,19.351596874999814,19.351596874999814,19.351596874999814,24.53772687498713,24.53772687498713,25.55457795795519,None,0,,,reldom2_s002,001,2025-01-23_14h13.34.142,practice_test2_AC,2022.2.5,None,
1,First_Order,1.0,viswhat,stimulus/viswhat_stim/blank_white.png,stimulus/viswhat_stim/blank_white.png,stimulus/viswhat_stim/land_vehicle-vespa.png,stimulus/viswhat_stim/water_vehicle-yacht.png,stimulus/viswhat_stim/blank_white.png,stimulus/viswhat_stim/type_box.png,stimulus/viswhat_stim/type_yes.png,stimulus/viswhat_stim/type_no.png,None,Type,None,Type,1,0.0,0,5.25,0,5.25,0,5.25,0,0.0,0.75,0,0.0,0,0.0,1,0.5,1,2.125,0,0.0,0,0.0,0,0.0,0,0.0,0,,,,,0,1,1,1,,,,,25.55457795795519,25.55457795795519,25.55457795795519,25.55457795795519,25.55457795795519,25.55457795795519,25.55457795795519,25.55457795795519,25.485944916005245,25.55457795795519,25.55457795795519,25.55457795795519,25.485944916005245,25.55457795795519,25.55457795795519,25.55457795795519,27.652820290997624,31.503699540975504,25.55457795795519,25.55457795795519,30.854332457995042,26.004086458007805,27.07370958296815,27.652820290997624,28.67991483298829,25.55457795795519,25.55457795795519,25.51927824933858,25.55457795795519,25.55457795795519,25.55457795795519,25.51927824933858,25.55457795795519,25.55457795795519,30.854332457995042,25.55457795795519,30.854332457995042,30.771074790973216,31.701328916009516,25.55457795795519,1,1,2.194445876055397,,reldom2_s002,001,2025-01-23_14h13.34.142,practice_test2_AC,2022.2.5,None,
2,First_Order,1.0,viswhat,stimulus/viswhat_stim/blank_white.png,stimulus/viswhat_stim/blank_white.png,stimulus/viswhat_stim/water_vehicle-cargoboat.png,stimulus/viswhat_stim/land_vehicle-oldcar.png,stimulus/viswhat_stim/blank_white.png,stimulus/viswhat_stim/location_box.png,stimulus/viswhat_stim/location_yes.png,stimulus/viswhat_stim/location_no.png,None,Location,None,Type,2,0.0,0,5.25,0,5.25,0,5.25,0,0.0,0.75,0,0.0,0,0.0,1,0.5,1,2.125,0,0.0,0,0.0,0,0.0,0,0.0,0,,,,,0,2,2,2,,,,,31.701328916009516,31.701328916009516,31.701328916009516,31.701328916009516,31.701328916009516,31.701328916009516,31.701328916009516,31.701328916009516,31.62036620764217,31.701328916009516,31.701328916009516,31.701328916009516,31.62036620764217,31.701328916009516,31.701328916009516,31.701328916009516,33.80290645797504,37.67348941595992,31.701328916009516,31.701328916009516,37.00435112498235,32.15622766595334,33.21036516595632,33.80290645797504,34.85805195797002,31.701328916009516,31.701328916009516,31.670366207642168,31.701328916009516,31.701328916009516,31.701328916009516,31.670366207642168,31.701328916009516,31.701328916009516,37.00435112498235,31.701328916009516,37.00435112498235,36.9192584999837,37.9193252499681,31.701328916009516,2,1,0.7042600830318406,,reldom2_s002,001,2025-01-23_14h13.34.142,practice_test2_AC,2022.2.5,None,
3,First_Order,1.0,viswhat,stimulus/viswhat_stim/blank_white.png,stimulus/viswhat_stim/blank_white.png,stimulus/viswhat_stim/land_vehicle-vespa.png,stimulus/viswhat_stim/water_vehicle-sailboat.png,stimulus/viswhat_stim/blank_white.png,stimulus/viswhat_stim/type_box.png,stimulus/viswhat_stim/type_yes.png,stimulus/viswhat_stim/type_no.png,None,Type,None,Type,1,0.0,0,5.25,0,5.25,0,5.25,0,0.0,0.75,0,0.0,0,0.0,1,0.5,1,2.125,0,0.0,0,0.0,0,0.0,0,0.0,0,,,,,0,3,3,3,,,,,37.9193252499681,37.9193252499681,37.9193252499681,37.9193252499681,37.9193252499681,37.9193252499681,37.9193252499681,37.9193252499681,37.806822749293254,37.9193252499681,37.9193252499681,37.9193252499681,37.806822749293254,37.9193252499681,37.9193252499681,37.9193252499681,39.993844915996306,43.8551171660074,37.9193252499681,37.9193252499681,43.226473374990746,38.36643341596937,39.44451095798286,39.993844915996306,41.07470062497305,37.9193252499681,37.9193252499681,37.85682274929325,37.9193252499681,37.9193252499681,37.9193252499681,37.85682274929325,37.9193252499681,37.9193252499681,43.226473374990746,37.9193252499681,43.226473374990746,43.10402733297087,44.394018749997485,37.9193252499681,1,1,0.7842755840392783,,reldom2_s002,001,2025-01-23_14h13.34.142,practice_test2_AC,2022.2.5,None,
4,First_Order,1.0,viswhat,stimulus/viswhat_stim/blank_white.png,stimulus/viswhat_stim/blank_white.png,stimulus/viswhat_stim/land_animal-elephant.png,stimulus/viswhat_stim/water_animal-lobster.png,stimulus/viswhat_stim/blank_white.png,stimulus/viswhat_stim/location_box.png,stimulus/viswhat_stim/location_yes.png,stimulus/viswhat_stim/location_no.png,None,Location,None,Type,2,0.0,0,5.25,0,5.25,0,5.25,0,0.0,0.75,0,0.0,0,0.0,1,0.5,1,2.125,0,0.0,0,0.0,0,0.0,0,0.0,0,,,,,0,4,4,4,,,,,44.394018749997485,44.394018749997485,44.394018749997485,44.394018749997485,44.394018749997485,44.394018749997485,44.394018749997485,44.394018749997485,44.02178383267407,44.394018749997485,44.394018749997485,44.394018749997485,44.02178383267407,44.394018749997485,44.394018749997485,44.394018749997485,46.4397815829725,50.336565665958915,44.394018749997485,44.394018749997485,49.97243108297698,44.764228540996555,46.067355250008404,46.4397815829725,47.74299112497829,44.394018749997485,44.394018749997485,44.205117166007405,44.394018749997485,44.394018749997485,44.394018749997485,44.205117166007405,44.394018749997485,44.394018749997485,49.97243108297698,44.394018749997485,49.97243108297698,49.60701237496687,51.034708499966655,44.394018749997485,2,1,0.7572068340377882,,reldom2_s002,001,2025-01-23_14h13.34.142,practice_test2_AC,2022.2.5,None,
0,0.0,None,fixation,stimulus/viswhat_stim/blank_white.png,stimulus/viswhat_stim/blank_white.png,stimulus/audwhat_stim/blank_white.png,stimulus/audwhat_stim/blank_white.png,stimulus/viswhat_stim/blank_white.png,stimulus/viswhat_stim/blank_white.png,stimulus/viswhat_stim/blank_white.png,stimulus/viswhat_stim/blank_white.png,0.0,0.0,0.0,0.0,0,0.0,0,0.0,0,0.0,0,0.0,0,0.0,0.0,0,0.0,0,0.0,0,0.0,0,0.0,0,0.0,0,0.0,0,0.0,0,0.0,6,,,,,0,5,5,5,,,,,51.034708499966655,51.034708499966655,51.034708499966655,51.034708499966655,51.034708499966655,51.034708499966655,51.034708499966655,51.034708499966655,50.93621316666637,51.034708499966655,51.034708499966655,51.034708499966655,50.93621316666637,51.034708499966655,51.034708499966655,51.034708499966655,51.034708499966655,51.034708499966655,51.034708499966655,51.034708499966655,51.034708499966655,51.034708499966655,51.034708499966655,51.034708499966655,51.034708499966655,51.034708499966655,51.034708499966655,50.986213166666374,51.034708499966655,51.034708499966655,51.034708499966655,50.986213166666374,51.034708499966655,51.034708499966655,51.034708499966655,51.034708499966655,51.034708499966655,56.21959208295448,56.21959208295448,57.203574540966656,None,0,,,reldom2_s002,001,2025-01-23_14h13.34.142,practice_test2_AC,2022.2.5,None,
5,Second_Order,1.0,viswhat,stimulus/viswhat_stim/land_animal-giraffe.png,stimulus/viswhat_stim/water_animal-stingray.png,stimulus/viswhat_stim/land_vehicle-trolley.png,stimulus/viswhat_stim/land_animal-elephant.png,stimulus/viswhat_stim/match_blank.png,stimulus/viswhat_stim/match_box.png,stimulus/viswhat_stim/match_yes.png,stimulus/viswhat_stim/match_no.png,2.0,Match,Type,Location,2,5.25,0,5.25,0,5.25,0,5.25,0,0.75,0.75,1,0.5,1,2.125,1,0.5,1,2.125,0,0.0,0,0.0,0,0.0,0,0.0,0,,,,,0,6,6,6,,,,,57.203574540966656,62.44343270797981,57.65141495800344,58.64556041598553,59.27313070796663,60.26924654096365,57.203574540966656,57.203574540966656,57.20309574998682,57.203574540966656,57.203574540966656,57.203574540966656,57.20309574998682,57.203574540966656,62.44343270797981,63.3319758749567,65.35200099996291,69.25533129100222,63.3319758749567,63.3319758749567,68.63048983295448,63.7743422909989,64.84929608297534,65.35200099996291,66.4307736249757,63.3319758749567,63.3319758749567,63.2779032080085,63.3319758749567,63.3319758749567,63.3319758749567,63.2779032080085,63.3319758749567,63.3319758749567,68.63048983295448,63.3319758749567,68.63048983295448,68.5089842499583,69.41348099999595,63.3319758749567,2,1,0.7096996670006774,,reldom2_s002,001,2025-01-23_14h13.34.142,practice_test2_AC,2022.2.5,None,
6,Second_Order,1.0,viswhat,stimulus/viswhat_stim/land_vehicle-scooter.png,stimulus/viswhat_stim/land_animal-moose.png,stimulus/viswhat_stim/water_vehicle-powercruiser.png,stimulus/viswhat_stim/land_vehicle-truck.png,stimulus/viswhat_stim/match_blank.png,stimulus/viswhat_stim/match_box.png,stimulus/viswhat_stim/match_yes.png,stimulus/viswhat_stim/match_no.png,2.0,Match,Location,Type,2,5.25,0,5.25,0,5.25,0,5.25,0,0.75,0.75,1,0.5,1,2.125,1,0.5,1,2.125,0,0.0,0,0.0,0,0.0,0,0.0,0,,,,,0,7,7,7,,,,,69.41348099999595,74.65654266596539,69.85051816597115,70.84137874998851,71.48107691598125,72.47129804099677,69.41348099999595,69.41348099999595,69.42199795766889,69.41348099999595,69.41348099999595,69.41348099999595,69.42199795766889,69.41348099999595,74.65654266596539,75.47625070798676,77.53856283298228,81.40516345796641,75.47625070798676,75.47625070798676,80.75236045796191,75.93156316597015,76.96199820796028,77.53856283298228,78.57260241598124,75.47625070798676,75.47625070798676,75.45103116596583,75.47625070798676,75.47625070798676,75.47625070798676,75.45103116596583,75.47625070798676,75.47625070798676,80.75236045796191,75.47625070798676,80.75236045796191,80.67944766598521,81.61828408297151,75.47625070798676,2,1,0.6735015000449494,,reldom2_s002,001,2025-01-23_14h13.34.142,practice_test2_AC,2022.2.5,None,
0,0.0,None,fixation,stimulus/viswhat_stim/blank_white.png,stimulus/viswhat_stim/blank_white.png,stimulus/audwhat_stim/blank_white.png,stimulus/audwhat_stim/blank_white.png,stimulus/viswhat_stim/blank_white.png,stimulus/viswhat_stim/blank_white.png,stimulus/viswhat_stim/blank_white.png,stimulus/viswhat_stim/blank_white.png,0.0,0.0,0.0,0.0,0,0.0,0,0.0,0,0.0,0,0.0,0,0.0,0.0,0,0.0,0,0.0,0,0.0,0,0.0,0,0.0,0,0.0,0,0.0,0,0.0,7,,,,,0,8,8,8,,,,,81.61828408297151,81.61828408297151,81.61828408297151,81.61828408297151,81.61828408297151,81.61828408297151,81.61828408297151,81.61828408297151,81.52468045797431,81.61828408297151,81.61828408297151,81.61828408297151,81.52468045797431,81.61828408297151,81.61828408297151,81.61828408297151,81.61828408297151,81.61828408297151,81.61828408297151,81.61828408297151,81.61828408297151,81.61828408297151,81.61828408297151,81.61828408297151,81.61828408297151,81.61828408297151,81.61828408297151,81.57468045797432,81.61828408297151,81.61828408297151,81.61828408297151,81.57468045797432,81.61828408297151,81.61828408297151,81.61828408297151,81.61828408297151,81.61828408297151,86.80498349998379,86.80498349998379,88.88952866598265,None,0,,,reldom2_s002,001,2025-01-23_14h13.34.142,practice_test2_AC,2022.2.5,None,
7,First_Order,2.0,audwhat,stimulus/audwhat_stim/dummy.wav,stimulus/audwhat_stim/dummy.wav,stimulus/audwhat_stim/percussion xylophone_high-pitch_Ftri_loud.wav,stimulus/audwhat_stim/percussion mallet_low-pitch_F_loud.wav,stimulus/audwhat_stim/blank_white.png,stimulus/audwhat_stim/category_box.png,stimulus/audwhat_stim/category_yes.png,stimulus/audwhat_stim/category_no.png,None,Category,None,Category,1,0.0,0,5.25,0,5.25,0,5.25,0,0.0,0.75,0,0.0,0,0.0,0,0.0,0,0.0,0,0.0,0,0.0,1,0.5,1,2.125,0,,,,,0,9,9,9,,,,,88.88952866598265,88.88952866598265,88.88952866598265,88.88952866598265,88.88952866598265,88.88952866598265,88.88952866598265,88.88952866598265,88.8101273746385,88.88952866598265,88.88952866598265,88.88952866598265,88.8101273746385,88.88952866598265,88.88952866598265,88.88952866598265,90.99136445799377,94.86026145797223,88.88952866598265,88.88952866598265,94.20204470795579,88.88952866598265,88.88952866598265,88.88952866598265,88.88952866598265,89.34139729099115,90.39143320795847,89.30754929164347,90.34187304100487,90.99136445799377,92.0474627079675,90.95720308262777,,88.88952866598265,94.20204470795579,88.88952866598265,94.20204470795579,94.10813070798758,95.07981145795202,88.88952866598265,1,1,2.066662334022112,,reldom2_s002,001,2025-01-23_14h13.34.142,practice_test2_AC,2022.2.5,None,
8,First_Order,2.0,audwhat,stimulus/audwhat_stim/dummy.wav,stimulus/audwhat_stim/dummy.wav,stimulus/audwhat_stim/percussion xylophone_high-pitch_F_loud.wav,stimulus/audwhat_stim/percussion mallet_low-pitch_D_loud.wav,stimulus/audwhat_stim/blank_white.png,stimulus/audwhat_stim/pitch_box.png,stimulus/audwhat_stim/pitch_yes.png,stimulus/audwhat_stim/pitch_no.png,None,Pitch,None,Category,2,0.0,0,5.25,0,5.25,0,5.25,0,0.0,0.75,0,0.0,0,0.0,0,0.0,0,0.0,0,0.0,0,0.0,1,0.5,1,2.125,0,,,,,0,10,10,10,,,,,95.07981145795202,95.07981145795202,95.07981145795202,95.07981145795202,95.07981145795202,95.07981145795202,95.07981145795202,95.07981145795202,94.99359479130555,95.07981145795202,95.07981145795202,95.07981145795202,94.99359479130555,95.07981145795202,95.07981145795202,95.07981145795202,97.18150987499394,101.03185337496689,95.07981145795202,95.07981145795202,100.37787149997894,95.07981145795202,95.07981145795202,95.07981145795202,95.07981145795202,95.53213941596914,96.58147929096594,95.4983060826237,96.53127179096919,97.18150987499394,98.23536062496714,97.14772045764063,,95.07981145795202,100.37787149997894,95.07981145795202,100.37787149997894,100.2840853749658,101.24962195800617,95.07981145795202,2,1,0.7842715000733733,,reldom2_s002,001,2025-01-23_14h13.34.142,practice_test2_AC,2022.2.5,None,
9,First_Order,2.0,audwhat,stimulus/audwhat_stim/dummy.wav,stimulus/audwhat_stim/dummy.wav,stimulus/audwhat_stim/percussion mallet_low-pitch_Dtri_loud.wav,stimulus/audwhat_stim/string viola_low-pitch_Dtri_loud.wav,stimulus/audwhat_stim/blank_white.png,stimulus/audwhat_stim/category_box.png,stimulus/audwhat_stim/category_yes.png,stimulus/audwhat_stim/category_no.png,None,Category,None,Pitch,2,0.0,0,5.25,0,5.25,0,5.25,0,0.0,0.75,0,0.0,0,0.0,0,0.0,0,0.0,0,0.0,0,0.0,1,0.5,1,2.125,0,,,,,0,11,11,11,,,,,101.24962195800617,101.24962195800617,101.24962195800617,101.24962195800617,101.24962195800617,101.24962195800617,101.24962195800617,101.24962195800617,101.16518670830021,101.24962195800617,101.24962195800617,101.24962195800617,101.16518670830021,101.24962195800617,101.24962195800617,101.24962195800617,103.35287025000434,107.23017954098759,101.24962195800617,101.24962195800617,106.569171540963,101.24962195800617,101.24962195800617,101.24962195800617,101.24962195800617,101.70015574997524,102.75248862500302,101.6664295416597,,103.35287025000434,104.41170158295427,103.31854141666942,,101.24962195800617,106.569171540963,101.24962195800617,106.569171540963,106.4746127499966,107.44881666597212,101.24962195800617,2,1,0.9834798329975456,,reldom2_s002,001,2025-01-23_14h13.34.142,practice_test2_AC,2022.2.5,None,
10,First_Order,2.0,audwhat,stimulus/audwhat_stim/dummy.wav,stimulus/audwhat_stim/dummy.wav,stimulus/audwhat_stim/percussion mallet_low-pitch_F_loud.wav,stimulus/audwhat_stim/percussion mallet_high-pitch_Ftri_loud.wav,stimulus/audwhat_stim/blank_white.png,stimulus/audwhat_stim/category_box.png,stimulus/audwhat_stim/category_yes.png,stimulus/audwhat_stim/category_no.png,None,Category,None,Category,1,0.0,0,5.25,0,5.25,0,5.25,0,0.0,0.75,0,0.0,0,0.0,0,0.0,0,0.0,0,0.0,0,0.0,1,0.5,1,2.125,0,,,,,0,12,12,12,,,,,107.44881666597212,107.44881666597212,107.44881666597212,107.44881666597212,107.44881666597212,107.44881666597212,107.44881666597212,107.44881666597212,107.36351287432092,107.44881666597212,107.44881666597212,107.44881666597212,107.36351287432092,107.44881666597212,107.44881666597212,107.44881666597212,109.55803874996491,113.42788912495598,107.44881666597212,107.44881666597212,112.7253620409756,107.44881666597212,107.44881666597212,107.44881666597212,107.44881666597212,107.90063583297888,108.95658741600346,107.86674020765737,,109.55803874996491,110.61654987500515,109.52431254164937,,107.44881666597212,112.7253620409756,107.44881666597212,112.7253620409756,112.68150599999353,113.66372349997982,107.44881666597212,1,1,1.1360502510215156,,reldom2_s002,001,2025-01-23_14h13.34.142,practice_test2_AC,2022.2.5,None,
0,0.0,None,fixation,stimulus/viswhat_stim/blank_white.png,stimulus/viswhat_stim/blank_white.png,stimulus/audwhat_stim/blank_white.png,stimulus/audwhat_stim/blank_white.png,stimulus/viswhat_stim/blank_white.png,stimulus/viswhat_stim/blank_white.png,stimulus/viswhat_stim/blank_white.png,stimulus/viswhat_stim/blank_white.png,0.0,0.0,0.0,0.0,0,0.0,0,0.0,0,0.0,0,0.0,0,0.0,0.0,0,0.0,0,0.0,0,0.0,0,0.0,0,0.0,0,0.0,0,0.0,0,0.0,6,,,,,0,13,13,13,,,,,113.66372349997982,113.66372349997982,113.66372349997982,113.66372349997982,113.66372349997982,113.66372349997982,113.66372349997982,113.66372349997982,113.56122245828931,113.66372349997982,113.66372349997982,113.66372349997982,113.56122245828931,113.66372349997982,113.66372349997982,113.66372349997982,113.66372349997982,113.66372349997982,113.66372349997982,113.66372349997982,113.66372349997982,113.66372349997982,113.66372349997982,113.66372349997982,113.66372349997982,113.66372349997982,113.66372349997982,113.61122245828932,113.66372349997982,113.66372349997982,113.66372349997982,113.61122245828932,113.66372349997982,113.66372349997982,113.66372349997982,113.66372349997982,113.66372349997982,118.84822504100157,118.84822504100157,119.84417829097947,None,0,,,reldom2_s002,001,2025-01-23_14h13.34.142,practice_test2_AC,2022.2.5,None,
11,Second_Order,2.0,audwhat,stimulus/audwhat_stim/string cello_low-pitch_D_loud.wav,stimulus/audwhat_stim/string viola_high-pitch_Dtri_loud.wav,stimulus/audwhat_stim/percussion mallet_high-pitch_F_loud.wav,stimulus/audwhat_stim/percussion mallet_low-pitch_Dtri_loud.wav,stimulus/viswhat_stim/match_blank.png,stimulus/viswhat_stim/match_box.png,stimulus/viswhat_stim/match_yes.png,stimulus/viswhat_stim/match_no.png,1.0,Match,Category,Category,1,5.25,0,5.25,0,5.25,0,5.25,0,0.75,0.75,0,0.0,0,0.0,0,0.0,0,0.0,1,0.5,1,2.125,1,0.5,1,2.125,0,,,,,0,14,14,14,,,,,119.84417829097947,125.08548270800384,119.84417829097947,119.84417829097947,119.84417829097947,119.84417829097947,120.29629995796131,121.28533754096134,120.29919549962894,,121.91961579100462,122.91246541595319,121.92763329163814,,125.08548270800384,125.94738716597203,128.0020218329737,131.87481820798712,125.94738716597203,125.94738716597203,131.25876808300382,125.94738716597203,125.94738716597203,125.94738716597203,125.94738716597203,126.40211299998919,127.45201729098335,126.36851466662871,,128.0020218329737,129.05707666598028,127.96820029162724,,125.94738716597203,131.25876808300382,125.94738716597203,131.25876808300382,131.11419062496861,131.99849979096325,125.94738716597203,1,1,1.3698352919891477,,reldom2_s002,001,2025-01-23_14h13.34.142,practice_test2_AC,2022.2.5,None,
12,Second_Order,2.0,audwhat,stimulus/audwhat_stim/string viola_high-pitch_Dtri_loud.wav,stimulus/audwhat_stim/percussion xylophone_high-pitch_Dtri_loud.wav,stimulus/audwhat_stim/string viola_low-pitch_Ftri_loud.wav,stimulus/audwhat_stim/percussion mallet_low-pitch_Ftri_loud.wav,stimulus/viswhat_stim/match_blank.png,stimulus/viswhat_stim/match_box.png,stimulus/viswhat_stim/match_yes.png,stimulus/viswhat_stim/match_no.png,1.0,Match,Pitch,Pitch,1,5.25,0,5.25,0,5.25,0,5.25,0,0.75,0.75,0,0.0,0,0.0,0,0.0,0,0.0,1,0.5,1,2.125,1,0.5,1,2.125,0,,,,,0,15,15,15,,,,,131.99849979096325,137.24628883297555,131.99849979096325,131.99849979096325,131.99849979096325,131.99849979096325,132.44500216597226,133.44653066596948,132.4542132076497,,134.07065966597293,135.0712992500048,134.07988099963794,135.0712992500048,137.24628883297555,138.10779279097915,140.16476474999217,144.0336657500011,138.10779279097915,138.10779279097915,143.42094858299242,138.10779279097915,138.10779279097915,138.10779279097915,138.10779279097915,138.51402195799164,139.56448349996936,138.4801789576343,,140.16476474999217,141.21758370799944,140.13124108262517,,138.10779279097915,143.42094858299242,138.10779279097915,143.42094858299242,143.27489258296555,144.26982641598443,138.10779279097915,2,0,1.455969167058356,,reldom2_s002,001,2025-01-23_14h13.34.142,practice_test2_AC,2022.2.5,None,
0,0.0,None,fixation,stimulus/viswhat_stim/blank_white.png,stimulus/viswhat_stim/blank_white.png,stimulus/audwhat_stim/blank_white.png,stimulus/audwhat_stim/blank_white.png,stimulus/viswhat_stim/blank_white.png,stimulus/viswhat_stim/blank_white.png,stimulus/viswhat_stim/blank_white.png,stimulus/viswhat_stim/blank_white.png,0.0,0.0,0.0,0.0,0,0.0,0,0.0,0,0.0,0,0.0,0,0.0,0.0,0,0.0,0,0.0,0,0.0,0,0.0,0,0.0,0,0.0,0,0.0,0,0.0,6,,,,,0,16,16,16,,,,,144.26982641598443,144.26982641598443,144.26982641598443,144.26982641598443,144.26982641598443,144.26982641598443,144.26982641598443,144.26982641598443,144.16699908333445,144.26982641598443,144.26982641598443,144.26982641598443,144.16699908333445,144.26982641598443,144.26982641598443,144.26982641598443,144.26982641598443,144.26982641598443,144.26982641598443,144.26982641598443,144.26982641598443,144.26982641598443,144.26982641598443,144.26982641598443,144.26982641598443,144.26982641598443,144.26982641598443,144.21699908333443,144.26982641598443,144.26982641598443,144.26982641598443,144.21699908333443,144.26982641598443,144.26982641598443,144.26982641598443,144.26982641598443,144.26982641598443,149.4927413329715,149.4927413329715,150.52499458298553,None,0,,,reldom2_s002,001,2025-01-23_14h13.34.142,practice_test2_AC,2022.2.5,None,
13,First_Order,3.0,audwhere,stimulus/audwhere_stim/dummy.wav,stimulus/audwhere_stim/dummy.wav,stimulus/audwhere_stim/left_toward_270h.wav,stimulus/audwhere_stim/right_toward_270h.wav,stimulus/audwhere_stim/blank_white.png,stimulus/audwhere_stim/direction_box.png,stimulus/audwhere_stim/direction_yes.png,stimulus/audwhere_stim/direction_no.png,None,Direction,None,Direction,1,0.0,0,5.25,0,5.25,0,5.25,0,0.0,0.75,0,0.0,0,0.0,0,0.0,0,0.0,0,0.0,0,0.0,1,0.5,1,2.125,0,,,,,0,17,17,17,,,,,150.52499458298553,150.52499458298553,150.52499458298553,150.52499458298553,150.52499458298553,150.52499458298553,150.52499458298553,150.52499458298553,150.44441066662938,150.52499458298553,150.52499458298553,150.52499458298553,150.44441066662938,150.52499458298553,150.52499458298553,150.52499458298553,152.6408922909759,156.47220987500623,150.52499458298553,150.52499458298553,155.8109614579589,150.52499458298553,150.52499458298553,150.52499458298553,150.52499458298553,150.97815804096172,152.03513845795533,150.9446364576618,,152.6408922909759,153.70033312495798,152.6065813746575,,150.52499458298553,155.8109614579589,150.52499458298553,155.8109614579589,155.7667438329663,156.73618191597052,150.52499458298553,1,1,2.27317820902681,,reldom2_s002,001,2025-01-23_14h13.34.142,practice_test2_AC,2022.2.5,None,
14,First_Order,3.0,audwhere,stimulus/audwhere_stim/dummy.wav,stimulus/audwhere_stim/dummy.wav,stimulus/audwhere_stim/right_away_280h.wav,stimulus/audwhere_stim/right_toward_290h.wav,stimulus/audwhere_stim/blank_white.png,stimulus/audwhere_stim/side_box.png,stimulus/audwhere_stim/side_yes.png,stimulus/audwhere_stim/side_no.png,None,Side,None,Side,1,0.0,0,5.25,0,5.25,0,5.25,0,0.0,0.75,0,0.0,0,0.0,0,0.0,0,0.0,0,0.0,0,0.0,1,0.5,1,2.125,0,,,,,0,18,18,18,,,,,156.73618191597052,156.73618191597052,156.73618191597052,156.73618191597052,156.73618191597052,156.73618191597052,156.73618191597052,156.73618191597052,156.64973416630724,156.73618191597052,156.73618191597052,156.73618191597052,156.64973416630724,156.73618191597052,156.73618191597052,156.73618191597052,158.84397983300732,162.7052953329985,156.73618191597052,156.73618191597052,162.0474215829745,156.73618191597052,156.73618191597052,156.73618191597052,156.73618191597052,157.19023979100166,158.24084616597975,157.15640629164798,,158.84397983300732,159.89902583300136,158.81018366665037,,156.73618191597052,162.0474215829745,156.73618191597052,162.0474215829745,161.95344241597923,162.9233892079792,156.73618191597052,1,1,1.020770833012648,,reldom2_s002,001,2025-01-23_14h13.34.142,practice_test2_AC,2022.2.5,None,
15,First_Order,3.0,audwhere,stimulus/audwhere_stim/dummy.wav,stimulus/audwhere_stim/dummy.wav,stimulus/audwhere_stim/right_away_270h.wav,stimulus/audwhere_stim/right_toward_300h.wav,stimulus/audwhere_stim/blank_white.png,stimulus/audwhere_stim/side_box.png,stimulus/audwhere_stim/side_yes.png,stimulus/audwhere_stim/side_no.png,None,Side,None,Side,1,0.0,0,5.25,0,5.25,0,5.25,0,0.0,0.75,0,0.0,0,0.0,0,0.0,0,0.0,0,0.0,0,0.0,1,0.5,1,2.125,0,,,,,0,19,19,19,,,,,162.9233892079792,162.9233892079792,162.9233892079792,162.9233892079792,162.9233892079792,162.9233892079792,162.9233892079792,162.9233892079792,162.83862866633186,162.9233892079792,162.9233892079792,162.9233892079792,162.83862866633186,162.9233892079792,162.9233892079792,162.9233892079792,165.022640915995,168.88637408299837,162.9233892079792,162.9233892079792,168.22733141598292,162.9233892079792,162.9233892079792,162.9233892079792,162.9233892079792,163.37276945798658,164.4228370829951,163.33885533264063,164.3729153329623,165.022640915995,166.07291904097656,164.98919174966093,,162.9233892079792,168.22733141598292,162.9233892079792,168.22733141598292,168.13274004100822,169.10469183296664,162.9233892079792,1,1,1.428381083009299,,reldom2_s002,001,2025-01-23_14h13.34.142,practice_test2_AC,2022.2.5,None,
16,First_Order,3.0,audwhere,stimulus/audwhere_stim/dummy.wav,stimulus/audwhere_stim/dummy.wav,stimulus/audwhere_stim/right_toward_300h.wav,stimulus/audwhere_stim/right_away_290h.wav,stimulus/audwhere_stim/blank_white.png,stimulus/audwhere_stim/direction_box.png,stimulus/audwhere_stim/direction_yes.png,stimulus/audwhere_stim/direction_no.png,None,Direction,None,Side,2,0.0,0,5.25,0,5.25,0,5.25,0,0.0,0.75,0,0.0,0,0.0,0,0.0,0,0.0,0,0.0,0,0.0,1,0.5,1,2.125,0,,,,,0,20,20,20,,,,,169.10469183296664,169.10469183296664,169.10469183296664,169.10469183296664,169.10469183296664,169.10469183296664,169.10469183296664,169.10469183296664,169.01970741633173,169.10469183296664,169.10469183296664,169.10469183296664,169.01970741633173,169.10469183296664,169.10469183296664,169.10469183296664,171.22293020796496,175.07239562500035,169.10469183296664,169.10469183296664,174.40005937498063,169.10469183296664,169.10469183296664,169.10469183296664,169.10469183296664,169.55900558299618,170.61871591600357,169.5245699166592,,171.22293020796496,172.2850063329679,171.1886084996552,,169.10469183296664,174.40005937498063,169.10469183296664,174.40005937498063,174.30510683299508,175.31043054099428,169.10469183296664,2,1,1.4940308340010233,,reldom2_s002,001,2025-01-23_14h13.34.142,practice_test2_AC,2022.2.5,None,
0,0.0,None,fixation,stimulus/viswhere_stim/blank_white.png,stimulus/viswhere_stim/blank_white.png,stimulus/audwhere_stim/blank_white.png,stimulus/audwhere_stim/blank_white.png,stimulus/viswhere_stim/blank_white.png,stimulus/viswhere_stim/blank_white.png,stimulus/viswhat_stim/blank_white.png,stimulus/viswhat_stim/blank_white.png,0.0,0.0,0.0,0.0,0,0.0,0,0.0,0,0.0,0,0.0,0,0.0,0.0,0,0.0,0,0.0,0,0.0,0,0.0,0,0.0,0,0.0,0,0.0,0,0.0,5,,,,,0,21,21,21,,,,,175.31043054099428,175.31043054099428,175.31043054099428,175.31043054099428,175.31043054099428,175.31043054099428,175.31043054099428,175.31043054099428,175.2057289583337,175.31043054099428,175.31043054099428,175.31043054099428,175.2057289583337,175.31043054099428,175.31043054099428,175.31043054099428,175.31043054099428,175.31043054099428,175.31043054099428,175.31043054099428,175.31043054099428,175.31043054099428,175.31043054099428,175.31043054099428,175.31043054099428,175.31043054099428,175.31043054099428,175.2557289583337,175.31043054099428,175.31043054099428,175.31043054099428,175.2557289583337,175.31043054099428,175.31043054099428,175.31043054099428,175.31043054099428,175.31043054099428,180.59303729096428,180.59303729096428,180.3863688329584,None,0,,,reldom2_s002,001,2025-01-23_14h13.34.142,practice_test2_AC,2022.2.5,None,
17,Second_Order,3.0,audwhere,stimulus/audwhere_stim/right_toward_270h.wav,stimulus/audwhere_stim/left_toward_290h.wav,stimulus/audwhere_stim/left_away_270h.wav,stimulus/audwhere_stim/left_toward_290h.wav,stimulus/viswhat_stim/match_blank.png,stimulus/viswhat_stim/match_box.png,stimulus/viswhat_stim/match_yes.png,stimulus/viswhat_stim/match_no.png,2.0,Match,Direction,Side,2,5.25,0,5.25,0,5.25,0,5.25,0,0.75,0.75,0,0.0,0,0.0,0,0.0,0,0.0,1,0.5,1,2.125,1,0.5,1,2.125,0,,,,,0,22,22,22,,,,,180.59303729096428,185.83354254096048,180.59303729096428,180.59303729096428,180.59303729096428,180.59303729096428,181.04219808295602,182.03226995799923,181.05083837465307,,182.66487112495815,183.65791474998696,182.67660687462583,,185.83354254096048,186.69402970798546,188.75427129096352,192.62302679097047,186.69402970798546,186.69402970798546,192.00953770795604,186.69402970798546,186.69402970798546,186.69402970798546,186.69402970798546,187.10167608299525,188.1543571659713,187.06831416662706,,188.75427129096352,189.80950908298837,188.7204746666287,,186.69402970798546,192.00953770795604,186.69402970798546,192.00953770795604,191.8644527909928,192.7448516250006,186.69402970798546,2,1,2.189735167019535,,reldom2_s002,001,2025-01-23_14h13.34.142,practice_test2_AC,2022.2.5,None,
18,Second_Order,3.0,audwhere,stimulus/audwhere_stim/left_toward_270h.wav,stimulus/audwhere_stim/right_toward_300h.wav,stimulus/audwhere_stim/right_toward_300h.wav,stimulus/audwhere_stim/right_away_270h.wav,stimulus/viswhat_stim/match_blank.png,stimulus/viswhat_stim/match_box.png,stimulus/viswhat_stim/match_yes.png,stimulus/viswhat_stim/match_no.png,2.0,Match,Direction,Side,2,5.25,0,5.25,0,5.25,0,5.25,0,0.75,0.75,0,0.0,0,0.0,0,0.0,0,0.0,1,0.5,1,2.125,1,0.5,1,2.125,0,,,,,0,23,23,23,,,,,192.7448516250006,197.9869564579567,192.7448516250006,192.7448516250006,192.7448516250006,192.7448516250006,193.19571383297443,194.18846991600003,193.2041664996689,,194.821313249995,195.81170579098398,194.82941558264818,,197.9869564579567,198.84582924999995,200.90124916599598,204.7674869580078,198.84582924999995,198.84582924999995,204.15444941597525,198.84582924999995,198.84582924999995,198.84582924999995,198.84582924999995,199.30206941597862,200.35179554100614,199.2691301666239,,200.90124916599598,201.9526171250036,200.86765262467478,,198.84582924999995,204.15444941597525,198.84582924999995,204.15444941597525,204.0097477909876,205.0035096659558,198.84582924999995,2,1,1.4539749579853378,,reldom2_s002,001,2025-01-23_14h13.34.142,practice_test2_AC,2022.2.5,None,
0,0.0,None,fixation,stimulus/viswhere_stim/blank_white.png,stimulus/viswhere_stim/blank_white.png,stimulus/audwhere_stim/blank_white.png,stimulus/audwhere_stim/blank_white.png,stimulus/viswhere_stim/blank_white.png,stimulus/viswhere_stim/blank_white.png,stimulus/viswhat_stim/blank_white.png,stimulus/viswhat_stim/blank_white.png,0.0,0.0,0.0,0.0,0,0.0,0,0.0,0,0.0,0,0.0,0,0.0,0.0,0,0.0,0,0.0,0,0.0,0,0.0,0,0.0,0,0.0,0,0.0,0,0.0,5,,,,,0,24,24,24,,,,,205.0035096659558,205.0035096659558,205.0035096659558,205.0035096659558,205.0035096659558,205.0035096659558,205.0035096659558,205.0035096659558,204.90082029134115,205.0035096659558,205.0035096659558,205.0035096659558,204.90082029134115,205.0035096659558,205.0035096659558,205.0035096659558,205.0035096659558,205.0035096659558,205.0035096659558,205.0035096659558,205.0035096659558,205.0035096659558,205.0035096659558,205.0035096659558,205.0035096659558,205.0035096659558,205.0035096659558,204.95082029134113,205.0035096659558,205.0035096659558,205.0035096659558,204.95082029134113,205.0035096659558,205.0035096659558,205.0035096659558,205.0035096659558,205.0035096659558,210.3692071659607,210.3692071659607,210.0653000829625,None,0,,,reldom2_s002,001,2025-01-23_14h13.34.142,practice_test2_AC,2022.2.5,None,
19,First_Order,4.0,viswhere,stimulus/viswhere_stim/blank_white.png,stimulus/viswhere_stim/blank_white.png,stimulus/viswhere_stim/90-deg_dot-right_peru.png,stimulus/viswhere_stim/120-deg_dot-right_slateblue.png,stimulus/viswhere_stim/blank_white.png,stimulus/viswhere_stim/dot_box.png,stimulus/viswhere_stim/dot_yes.png,stimulus/viswhere_stim/dot_no.png,None,Dot,None,Dot,1,0.0,0,5.25,0,5.25,0,5.25,0,0.0,0.75,0,0.0,0,0.0,1,0.5,1,2.125,0,0.0,0,0.0,0,0.0,0,0.0,0,,,,,0,25,25,25,,,,,210.3692071659607,210.3692071659607,210.3692071659607,210.3692071659607,210.3692071659607,210.3692071659607,210.3692071659607,210.3692071659607,210.34350983266876,210.3692071659607,210.3692071659607,210.3692071659607,210.34350983266876,210.3692071659607,210.3692071659607,210.3692071659607,212.47701295797015,216.34264354099287,210.3692071659607,210.3692071659607,215.62553229095647,210.8519698329619,211.86197208298836,212.47701295797015,213.4971557079698,210.3692071659607,210.3692071659607,210.3601764993354,210.3692071659607,210.3692071659607,210.3692071659607,210.3601764993354,210.3692071659607,210.3692071659607,215.62553229095647,210.3692071659607,215.62553229095647,215.60906416596845,216.45206774998223,210.3692071659607,1,1,1.191118834016379,,reldom2_s002,001,2025-01-23_14h13.34.142,practice_test2_AC,2022.2.5,None,
20,First_Order,4.0,viswhere,stimulus/viswhere_stim/blank_white.png,stimulus/viswhere_stim/blank_white.png,stimulus/viswhere_stim/30-deg_dot-right_turquoise.png,stimulus/viswhere_stim/60-deg_dot-right_seagreen.png,stimulus/viswhere_stim/blank_white.png,stimulus/viswhere_stim/line_box.png,stimulus/viswhere_stim/line_yes.png,stimulus/viswhere_stim/line_no.png,None,Line,None,Dot,2,0.0,0,5.25,0,5.25,0,5.25,0,0.0,0.75,0,0.0,0,0.0,1,0.5,1,2.125,0,0.0,0,0.0,0,0.0,0,0.0,0,,,,,0,26,26,26,,,,,216.45206774998223,216.45206774998223,216.45206774998223,216.45206774998223,216.45206774998223,216.45206774998223,216.45206774998223,216.45206774998223,216.4259768743262,216.45206774998223,216.45206774998223,216.45206774998223,216.4259768743262,216.45206774998223,216.45206774998223,216.45206774998223,218.5609972079983,222.4258523749886,216.45206774998223,216.45206774998223,221.71132695797132,216.935701957962,217.94449495797744,218.5609972079983,219.58126620796975,216.45206774998223,216.45206774998223,216.4426435409929,216.45206774998223,216.45206774998223,216.45206774998223,216.4426435409929,216.45206774998223,216.45206774998223,221.71132695797132,216.45206774998223,221.71132695797132,221.69459120795364,222.55144574999576,216.45206774998223,1,0,0.7564157920423895,,reldom2_s002,001,2025-01-23_14h13.34.142,practice_test2_AC,2022.2.5,None,
21,First_Order,4.0,viswhere,stimulus/viswhere_stim/blank_white.png,stimulus/viswhere_stim/blank_white.png,stimulus/viswhere_stim/120-deg_dot-left_goldenrod.png,stimulus/viswhere_stim/90-deg_dot-left_seagreen.png,stimulus/viswhere_stim/blank_white.png,stimulus/viswhere_stim/line_box.png,stimulus/viswhere_stim/line_yes.png,stimulus/viswhere_stim/line_no.png,None,Line,None,Dot,2,0.0,0,5.25,0,5.25,0,5.25,0,0.0,0.75,0,0.0,0,0.0,1,0.5,1,2.125,0,0.0,0,0.0,0,0.0,0,0.0,0,,,,,0,27,27,27,,,,,222.55144574999576,222.55144574999576,222.55144574999576,222.55144574999576,222.55144574999576,222.55144574999576,222.55144574999576,222.55144574999576,222.52582679132078,222.55144574999576,222.55144574999576,222.55144574999576,222.52582679132078,222.55144574999576,222.55144574999576,222.55144574999576,224.66829870798392,228.52213104098337,222.55144574999576,222.55144574999576,227.82150891597848,223.03307516599307,224.04898695799056,224.66829870798392,225.6918181249639,222.55144574999576,222.55144574999576,222.54249345798746,222.55144574999576,222.55144574999576,222.55144574999576,222.54249345798746,222.55144574999576,222.55144574999576,227.82150891597848,222.55144574999576,227.82150891597848,227.78117516596103,228.63131016597617,222.55144574999576,2,1,0.6258330420241691,,reldom2_s002,001,2025-01-23_14h13.34.142,practice_test2_AC,2022.2.5,None,
22,First_Order,4.0,viswhere,stimulus/viswhere_stim/blank_white.png,stimulus/viswhere_stim/blank_white.png,stimulus/viswhere_stim/150-deg_dot-right_royalblue.png,stimulus/viswhere_stim/150-deg_dot-left_slateblue.png,stimulus/viswhere_stim/blank_white.png,stimulus/viswhere_stim/dot_box.png,stimulus/viswhere_stim/dot_yes.png,stimulus/viswhere_stim/dot_no.png,None,Dot,None,Line,2,0.0,0,5.25,0,5.25,0,5.25,0,0.0,0.75,0,0.0,0,0.0,1,0.5,1,2.125,0,0.0,0,0.0,0,0.0,0,0.0,0,,,,,0,28,28,28,,,,,228.63131016597617,228.63131016597617,228.63131016597617,228.63131016597617,228.63131016597617,228.63131016597617,228.63131016597617,228.63131016597617,228.6054643743167,228.63131016597617,228.63131016597617,228.63131016597617,228.6054643743167,228.63131016597617,228.63131016597617,228.63131016597617,230.73883979098173,234.59726591600338,228.63131016597617,228.63131016597617,233.8928782499861,229.1175740409526,230.139096333005,230.73883979098173,231.76780354097718,228.63131016597617,228.63131016597617,228.6221310409834,228.63131016597617,228.63131016597617,228.63131016597617,228.6221310409834,228.63131016597617,228.63131016597617,233.8928782499861,228.63131016597617,233.8928782499861,233.87594749999698,234.80338658299297,228.63131016597617,2,1,0.6984917920199223,,reldom2_s002,001,2025-01-23_14h13.34.142,practice_test2_AC,2022.2.5,None,
0,0.0,None,fixation,stimulus/viswhere_stim/blank_white.png,stimulus/viswhere_stim/blank_white.png,stimulus/audwhere_stim/blank_white.png,stimulus/audwhere_stim/blank_white.png,stimulus/viswhere_stim/blank_white.png,stimulus/viswhere_stim/blank_white.png,stimulus/viswhat_stim/blank_white.png,stimulus/viswhat_stim/blank_white.png,0.0,0.0,0.0,0.0,0,0.0,0,0.0,0,0.0,0,0.0,0,0.0,0.0,0,0.0,0,0.0,0,0.0,0,0.0,0,0.0,0,0.0,0,0.0,0,0.0,5,,,,,0,29,29,29,,,,,234.80338658299297,234.80338658299297,234.80338658299297,234.80338658299297,234.80338658299297,234.80338658299297,234.80338658299297,234.80338658299297,234.6975535833238,234.80338658299297,234.80338658299297,234.80338658299297,234.6975535833238,234.80338658299297,234.80338658299297,234.80338658299297,234.80338658299297,234.80338658299297,234.80338658299297,234.80338658299297,234.80338658299297,234.80338658299297,234.80338658299297,234.80338658299297,234.80338658299297,234.80338658299297,234.80338658299297,234.74755358332382,234.80338658299297,234.80338658299297,234.80338658299297,234.74755358332382,234.80338658299297,234.80338658299297,234.80338658299297,234.80338658299297,234.80338658299297,240.0503628749866,240.0503628749866,239.8713878329727,None,0,,,reldom2_s002,001,2025-01-23_14h13.34.142,practice_test2_AC,2022.2.5,None,
23,Second_Order,4.0,viswhere,stimulus/viswhere_stim/150-deg_dot-right_slateblue.png,stimulus/viswhere_stim/150-deg_dot-left_turquoise.png,stimulus/viswhere_stim/90-deg_dot-left_mediumslateblue.png,stimulus/viswhere_stim/90-deg_dot-right_peru.png,stimulus/viswhat_stim/match_blank.png,stimulus/viswhat_stim/match_box.png,stimulus/viswhat_stim/match_yes.png,stimulus/viswhat_stim/match_no.png,1.0,Match,Line,Line,1,5.25,0,5.25,0,5.25,0,5.25,0,0.75,0.75,1,0.5,1,2.125,1,0.5,1,2.125,0,0.0,0,0.0,0,0.0,0,0.0,0,,,,,0,30,30,30,,,,,240.0503628749866,245.29601225000806,240.52595312497579,241.52538058295613,242.1484669999918,243.139291999978,240.0503628749866,240.0503628749866,240.0603227492849,240.0503628749866,240.0503628749866,240.0503628749866,240.0603227492849,240.0503628749866,245.29601225000806,246.10174612497212,248.18053291598335,252.07231262500864,246.10174612497212,246.10174612497212,251.36114158300916,246.55316679098178,247.57800549996318,248.18053291598335,249.18706533295335,246.10174612497212,246.10174612497212,246.08355895797723,246.10174612497212,246.10174612497212,246.10174612497212,246.08355895797723,246.10174612497212,246.10174612497212,251.36114158300916,246.10174612497212,251.36114158300916,251.2974012499908,252.07231262500864,246.10174612497212,1,1,0.8051971250097267,,reldom2_s002,001,2025-01-23_14h13.34.142,practice_test2_AC,2022.2.5,None,
24,Second_Order,4.0,viswhere,stimulus/viswhere_stim/150-deg_dot-right_mediumslateblue.png,stimulus/viswhere_stim/30-deg_dot-right_salmon.png,stimulus/viswhere_stim/120-deg_dot-right_royalblue.png,stimulus/viswhere_stim/120-deg_dot-left_salmon.png,stimulus/viswhat_stim/match_blank.png,stimulus/viswhat_stim/match_box.png,stimulus/viswhat_stim/match_yes.png,stimulus/viswhat_stim/match_no.png,2.0,Match,Dot,Line,2,5.25,0,5.25,0,5.25,0,5.25,0,0.75,0.75,1,0.5,1,2.125,1,0.5,1,2.125,0,0.0,0,0.0,0,0.0,0,0.0,0,,,,,0,31,31,31,,,,,252.07231262500864,257.31774158298504,252.54976229096064,253.541396790999,254.1801335409982,255.1781319580041,252.07231262500864,252.07231262500864,252.08183108300437,252.07231262500864,252.07231262500864,252.07231262500864,252.08183108300437,252.07231262500864,257.31774158298504,258.115612124966,260.20083395799156,264.0673978749546,258.115612124966,258.115612124966,263.38338920800015,258.5631143329665,259.58058108296245,260.20083395799156,261.2204182079877,258.115612124966,258.115612124966,258.0866075413146,258.115612124966,258.115612124966,258.115612124966,258.0866075413146,258.115612124966,258.115612124966,263.38338920800015,258.115612124966,263.38338920800015,263.3190830409876,264.25661720795324,258.115612124966,2,1,1.1721864169812761,,reldom2_s002,001,2025-01-23_14h13.34.142,practice_test2_AC,2022.2.5,None,
0,0.0,None,fixation,stimulus/viswhere_stim/blank_white.png,stimulus/viswhere_stim/blank_white.png,stimulus/audwhere_stim/blank_white.png,stimulus/audwhere_stim/blank_white.png,stimulus/viswhere_stim/blank_white.png,stimulus/viswhere_stim/blank_white.png,stimulus/viswhat_stim/blank_white.png,stimulus/viswhat_stim/blank_white.png,0.0,0.0,0.0,0.0,0,0.0,0,0.0,0,0.0,0,0.0,0,0.0,0.0,0,0.0,0,0.0,0,0.0,0,0.0,0,0.0,0,0.0,0,0.0,0,0.0,7,,,,,0,32,32,32,,,,,264.25661720795324,264.25661720795324,264.25661720795324,264.25661720795324,264.25661720795324,264.25661720795324,264.25661720795324,264.25661720795324,264.15073120828794,264.25661720795324,264.25661720795324,264.25661720795324,264.15073120828794,264.25661720795324,264.25661720795324,264.25661720795324,264.25661720795324,264.25661720795324,264.25661720795324,264.25661720795324,264.25661720795324,264.25661720795324,264.25661720795324,264.25661720795324,264.25661720795324,264.25661720795324,264.25661720795324,264.20073120828795,264.25661720795324,264.25661720795324,264.25661720795324,264.20073120828795,264.25661720795324,264.25661720795324,264.25661720795324,264.25661720795324,264.25661720795324,269.44560449995333,269.44560449995333,271.3860781249823,None,0,,,reldom2_s002,001,2025-01-23_14h13.34.142,practice_test2_AC,2022.2.5,None,
,,,,,,,,,,,,,,,,,,,,,,,,,,,,,,,,,,,,,,,,,,,,,,,,,,,,,,,,,,,,,,,,,,,,,,,,,,,,,,,,,,,,,,,,,,,,,,,,,,,271.3860781249823,,,,,,,
