Trial,Order,Block,Type,Stimuli_File1,Stimuli_File2,Stimuli_File3,Stimuli_File4,Cue_File1,Cue_File2,Response_File_Yes,Response_File_No,Match,Cue_Dimension,Pair1_Dimension,Pair2_Dimension,Key,Cue1_Duration,Cue1_Onset,Cue2_Duration,Cue2_Onset,ResponseYes_Duration,ResponseYes_Onset,ResponseNo_Duration,ResponseNo_Onset,ITI_Within,ITI_Between,Image1_Duration,Image1_Onset,Image2_Duration,Image2_Onset,Image3_Duration,Image3_Onset,Image4_Duration,Image4_Onset,Sound1_Duration,Sound1_Onset,Sound2_Duration,Sound2_Onset,Sound3_Duration,Sound3_Onset,Sound4_Duration,Sound4_Onset,Fixation_Duration,trials_2.thisRepN,trials_2.thisTrialN,trials_2.thisN,trials_2.thisIndex,trials.thisRepN,trials.thisTrialN,trials.thisN,trials.thisIndex,text_start.started,key_resp_start.started,key_resp_start.keys,key_resp_start.rt,text2.started,key_resp_2.started,key_resp_2.keys,key_resp_2.rt,cue_file1.started,cue_file1.stopped,image_1.started,image_1.stopped,image_2.started,image_2.stopped,sound_icon1.started,sound_icon1.stopped,sound_1.started,sound_1.stopped,sound_icon2.started,sound_icon2.stopped,sound_2.started,sound_2.stopped,image_blank_1.started,image_blank_1.stopped,key_press.started,key_press.stopped,fixation_text.started,cue_file2.started,cue_file2.stopped,image_3.started,image_3.stopped,image_4.started,image_4.stopped,sound_icon3.started,sound_icon3.stopped,sound_3.started,sound_3.stopped,sound_icon4.started,sound_icon4.stopped,sound_4.started,sound_4.stopped,response_yes.started,response_yes.stopped,response_no.started,response_no.stopped,iti_blank.started,iti_blank.stopped,fixation_text.stopped,key_press.keys,key_press.corr,key_press.rt,participant,session,date,expName,psychopyVersion,frameRate,
,,,,,,,,,,,,,,,,,,,,,,,,,,,,,,,,,,,,,,,,,,,,,,,,,,,,7.703788916000121,7.703788916000121,2,15.549375624999811,,,,,,,,,,,,,,,,,,,,,,,,,,,,,,,,,,,,,,,,,,,,,,,,reldom2_s002,001,2025-01-23_14h50.45.044,Aud-A-Scan_AC,2022.2.5,None,
,,,,,,,,,,,,,,,,,,,,,,,,,,,,,,,,,,,,,,,,,,,,0,0,0,0,,,,,,,,,23.279950750000353,23.279950750000353,5,17.841534666998996,,,,,,,,,,,,,,,,,,,,,,,,,,,,,,,,,,,,,,,,,,,,reldom2_s002,001,2025-01-23_14h50.45.044,Aud-A-Scan_AC,2022.2.5,None,
,,,,,,,,,,,,,,,,,,,,,,,,,,,,,,,,,,,,,,,,,,,,1,0,1,0,,,,,,,,,41.131514708000395,41.131514708000395,5,1.9907353749986214,,,,,,,,,,,,,,,,,,,,,,,,,,,,,,,,,,,,,,,,,,,,reldom2_s002,001,2025-01-23_14h50.45.044,Aud-A-Scan_AC,2022.2.5,None,
,,,,,,,,,,,,,,,,,,,,,,,,,,,,,,,,,,,,,,,,,,,,2,0,2,0,,,,,,,,,43.14131783300036,43.14131783300036,5,1.9797186249998049,,,,,,,,,,,,,,,,,,,,,,,,,,,,,,,,,,,,,,,,,,,,reldom2_s002,001,2025-01-23_14h50.45.044,Aud-A-Scan_AC,2022.2.5,None,
,,,,,,,,,,,,,,,,,,,,,,,,,,,,,,,,,,,,,,,,,,,,3,0,3,0,,,,,,,,,45.14073554100105,45.14073554100105,5,1.9822202079994895,,,,,,,,,,,,,,,,,,,,,,,,,,,,,,,,,,,,,,,,,,,,reldom2_s002,001,2025-01-23_14h50.45.044,Aud-A-Scan_AC,2022.2.5,None,
0,0.0,None,fixation,stimulus/audwhere_stim/blank_white.png,stimulus/audwhere_stim/blank_white.png,stimulus/audwhat_stim/blank_white.png,stimulus/audwhat_stim/blank_white.png,stimulus/audwhere_stim/blank_white.png,stimulus/audwhere_stim/blank_white.png,stimulus/audwhere_stim/blank_white.png,stimulus/audwhere_stim/blank_white.png,0.0,0.0,0.0,0.0,0,0.0,0,0.0,0,0.0,0,0.0,0,0.0,0.0,0,0,0,0,0,0,0,0,0,0.0,0,0.0,0,0.0,0,0.0,16,,,,,0,0,0,0,,,,,,,,,47.31274333300098,47.31274333300098,47.31274333300098,47.31274333300098,47.31274333300098,47.31274333300098,47.31274333300098,47.31274333300098,47.22396158299998,47.31274333300098,47.31274333300098,47.31274333300098,47.22396158299998,47.31274333300098,47.31274333300098,47.31274333300098,47.31274333300098,47.31274333300098,47.31274333300098,47.31274333300098,47.31274333300098,47.31274333300098,47.31274333300098,47.31274333300098,47.31274333300098,47.31274333300098,47.31274333300098,47.27396158299998,47.31274333300098,47.31274333300098,47.31274333300098,47.27396158299998,47.31274333300098,47.31274333300098,47.31274333300098,47.31274333300098,47.31274333300098,52.52368995799952,52.52368995799952,63.532167249999475,None,0,,reldom2_s002,001,2025-01-23_14h50.45.044,Aud-A-Scan_AC,2022.2.5,None,
1,First_Order,1.0,audwhere,stimulus/audwhere_stim/dummy.wav,stimulus/audwhere_stim/dummy.wav,stimulus/audwhere_stim/left_away_280h.wav,stimulus/audwhere_stim/right_away_290h.wav,stimulus/audwhere_stim/blank_white.png,stimulus/audwhere_stim/direction_box.png,stimulus/audwhere_stim/direction_yes.png,stimulus/audwhere_stim/direction_no.png,None,Direction,None,Direction,1,0.0,0,5.125,0,5.125,0,5.125,0,0.0,0.625,0,0,0,0,0,0,0,0,0,0.0,0,0.0,1,0.5,1,2.125,0,,,,,0,1,1,1,,,,,,,,,63.532167249999475,63.532167249999475,63.532167249999475,63.532167249999475,63.532167249999475,63.532167249999475,63.532167249999475,63.532167249999475,63.459375374999944,63.532167249999475,63.532167249999475,63.532167249999475,63.459375374999944,63.532167249999475,63.532167249999475,63.532167249999475,65.64584670800105,,63.532167249999475,63.532167249999475,68.70346558299934,63.532167249999475,63.532167249999475,63.532167249999475,63.532167249999475,63.983146915999896,65.01886779100096,63.95467187466626,,65.64584670800105,66.681647333,65.61772258266707,,63.532167249999475,68.70346558299934,63.532167249999475,68.70346558299934,68.74365929099986,69.4153263749995,63.532167249999475,1,1,1.232574083000145,reldom2_s002,001,2025-01-23_14h50.45.044,Aud-A-Scan_AC,2022.2.5,None,
2,First_Order,1.0,audwhere,stimulus/audwhere_stim/dummy.wav,stimulus/audwhere_stim/dummy.wav,stimulus/audwhere_stim/left_away_270h.wav,stimulus/audwhere_stim/left_toward_270h.wav,stimulus/audwhere_stim/blank_white.png,stimulus/audwhere_stim/direction_box.png,stimulus/audwhere_stim/direction_yes.png,stimulus/audwhere_stim/direction_no.png,None,Direction,None,Side,2,0.0,0,5.125,0,5.125,0,5.125,0,0.0,0.625,0,0,0,0,0,0,0,0,0,0.0,0,0.0,1,0.5,1,2.125,0,,,,,0,2,2,2,,,,,,,,,69.62433241600047,69.62433241600047,69.62433241600047,69.62433241600047,69.62433241600047,69.62433241600047,69.62433241600047,69.62433241600047,69.54865970833282,69.62433241600047,69.62433241600047,69.62433241600047,69.54865970833282,69.62433241600047,69.62433241600047,69.62433241600047,71.73878216599951,,69.62433241600047,69.62433241600047,74.80255312500049,69.62433241600047,69.62433241600047,69.62433241600047,69.62433241600047,70.07540387500012,71.10892383300052,70.04581516666646,,71.73878216599951,72.77436916599981,71.70979387466674,,69.62433241600047,74.80255312500049,69.62433241600047,74.80255312500049,74.8432816250006,75.51568566599963,69.62433241600047,2,1,1.2683459159998165,reldom2_s002,001,2025-01-23_14h50.45.044,Aud-A-Scan_AC,2022.2.5,None,
3,First_Order,1.0,audwhere,stimulus/audwhere_stim/dummy.wav,stimulus/audwhere_stim/dummy.wav,stimulus/audwhere_stim/left_toward_300h.wav,stimulus/audwhere_stim/left_away_280h.wav,stimulus/audwhere_stim/blank_white.png,stimulus/audwhere_stim/direction_box.png,stimulus/audwhere_stim/direction_yes.png,stimulus/audwhere_stim/direction_no.png,None,Direction,None,Side,2,0.0,0,5.125,0,5.125,0,5.125,0,0.0,0.625,0,0,0,0,0,0,0,0,0,0.0,0,0.0,1,0.5,1,2.125,0,,,,,0,3,3,3,,,,,,,,,75.7227099160009,75.7227099160009,75.7227099160009,75.7227099160009,75.7227099160009,75.7227099160009,75.7227099160009,75.7227099160009,75.64901899933295,75.7227099160009,75.7227099160009,75.7227099160009,75.64901899933295,75.7227099160009,75.7227099160009,75.7227099160009,77.79721716600034,81.83691999999974,75.7227099160009,75.7227099160009,80.90987375000077,75.7227099160009,75.7227099160009,75.7227099160009,75.7227099160009,76.17383279100068,77.21295470800032,76.14521858266768,,77.79721716600034,78.83509774999948,77.76859291666757,,75.7227099160009,80.90987375000077,75.7227099160009,80.90987375000077,80.95042108300004,81.6270635410001,75.7227099160009,2,1,1.128412500000195,reldom2_s002,001,2025-01-23_14h50.45.044,Aud-A-Scan_AC,2022.2.5,None,
4,First_Order,1.0,audwhere,stimulus/audwhere_stim/dummy.wav,stimulus/audwhere_stim/dummy.wav,stimulus/audwhere_stim/left_away_270h.wav,stimulus/audwhere_stim/left_toward_290h.wav,stimulus/audwhere_stim/blank_white.png,stimulus/audwhere_stim/side_box.png,stimulus/audwhere_stim/side_yes.png,stimulus/audwhere_stim/side_no.png,None,Side,None,Side,1,0.0,0,5.125,0,5.125,0,5.125,0,0.0,0.625,0,0,0,0,0,0,0,0,0,0.0,0,0.0,1,0.5,1,2.125,0,,,,,0,4,4,4,,,,,,,,,81.83691999999974,81.83691999999974,81.83691999999974,81.83691999999974,81.83691999999974,81.83691999999974,81.83691999999974,81.83691999999974,81.76039687433342,81.83691999999974,81.83691999999974,81.83691999999974,81.76039687433342,81.83691999999974,81.83691999999974,81.83691999999974,83.9081392499993,,81.83691999999974,81.83691999999974,87.01399300000048,81.83691999999974,81.83691999999974,81.83691999999974,81.83691999999974,82.28747629099962,83.32371212500038,82.25773654166757,,83.9081392499993,84.94462512500104,83.87978991666593,,81.83691999999974,87.01399300000048,81.83691999999974,87.01399300000048,87.05370254099944,87.72628558299948,81.83691999999974,1,1,1.1165100420003,reldom2_s002,001,2025-01-23_14h50.45.044,Aud-A-Scan_AC,2022.2.5,None,
0,0.0,None,fixation,stimulus/audwhere_stim/blank_white.png,stimulus/audwhere_stim/blank_white.png,stimulus/audwhat_stim/blank_white.png,stimulus/audwhat_stim/blank_white.png,stimulus/audwhere_stim/blank_white.png,stimulus/audwhere_stim/blank_white.png,stimulus/audwhere_stim/blank_white.png,stimulus/audwhere_stim/blank_white.png,0.0,0.0,0.0,0.0,0,0.0,0,0.0,0,0.0,0,0.0,0,0.0,0.0,0,0,0,0,0,0,0,0,0,0.0,0,0.0,0,0.0,0,0.0,9,,,,,0,5,5,5,,,,,,,,,87.95149012500042,87.95149012500042,87.95149012500042,87.95149012500042,87.95149012500042,87.95149012500042,87.95149012500042,87.95149012500042,87.8596189163328,87.95149012500042,87.95149012500042,87.95149012500042,87.8596189163328,87.95149012500042,87.95149012500042,87.95149012500042,87.95149012500042,87.95149012500042,87.95149012500042,87.95149012500042,87.95149012500042,87.95149012500042,87.95149012500042,87.95149012500042,87.95149012500042,87.95149012500042,87.95149012500042,87.90961891633282,87.95149012500042,87.95149012500042,87.95149012500042,87.90961891633282,87.95149012500042,87.95149012500042,87.95149012500042,87.95149012500042,87.95149012500042,93.16462929100089,93.16462929100089,97.08329033300106,None,0,,reldom2_s002,001,2025-01-23_14h50.45.044,Aud-A-Scan_AC,2022.2.5,None,
5,Second_Order,1.0,audwhere,stimulus/audwhere_stim/left_away_290h.wav,stimulus/audwhere_stim/right_away_300h.wav,stimulus/audwhere_stim/right_toward_290h.wav,stimulus/audwhere_stim/left_toward_300h.wav,stimulus/audwhere_stim/match_blank.png,stimulus/audwhere_stim/match_box.png,stimulus/audwhere_stim/match_yes.png,stimulus/audwhere_stim/match_no.png,1.0,Match,Direction,Direction,1,5.125,0,5.125,0,5.125,0,5.125,0,0.75,0.75,0,0,0,0,0,0,0,0,1,0.5,1,2.125,1,0.5,1,2.125,0,,,,,0,6,6,6,,,,,,,,,97.08329033300106,102.20151383300072,97.08329033300106,97.08329033300106,97.08329033300106,97.08329033300106,97.53965762500047,98.53749191600036,97.5521519576671,98.54537104100018,99.16220054100086,100.15811379099978,99.17298545766631,100.16628683300041,102.20151383300072,103.03129470800013,105.11300179099999,,103.03129470800013,103.03129470800013,108.18777870799931,103.03129470800013,103.03129470800013,103.03129470800013,103.03129470800013,103.48803324999972,104.52718112500042,103.45945870766651,,105.11300179099999,106.15424054100004,105.08399708266758,,103.03129470800013,108.18777870799931,103.03129470800013,108.18777870799931,108.22751799999969,,103.03129470800013,2,0,1.8785879999977624,reldom2_s002,001,2025-01-23_14h50.45.044,Aud-A-Scan_AC,2022.2.5,None,
6,Second_Order,1.0,audwhere,stimulus/audwhere_stim/left_away_280h.wav,stimulus/audwhere_stim/right_away_280h.wav,stimulus/audwhere_stim/left_away_300h.wav,stimulus/audwhere_stim/left_toward_280h.wav,stimulus/audwhere_stim/match_blank.png,stimulus/audwhere_stim/match_box.png,stimulus/audwhere_stim/match_yes.png,stimulus/audwhere_stim/match_no.png,2.0,Match,Direction,Side,2,5.125,0,5.125,0,5.125,0,5.125,0,0.625,0.625,0,0,0,0,0,0,0,0,1,0.5,1,2.125,1,0.5,1,2.125,0,,,,,0,7,7,7,,,,,,,,,109.01301712500026,114.12848975000088,109.01301712500026,109.01301712500026,109.01301712500026,109.01301712500026,109.46691904100044,110.46543812500022,109.47957562466605,110.47324870800003,111.09994895800082,112.08964954099974,111.10466774966723,112.10248620799939,114.12848975000088,114.83784241600006,116.91170808300012,120.96991945800073,114.83784241600006,114.83784241600006,120.02743770800043,114.83784241600006,114.83784241600006,114.83784241600006,114.83784241600006,115.2894393330007,116.3258211249995,115.2607897916662,,116.91170808300012,117.95219833299961,116.8830964996671,,114.83784241600006,120.02743770800043,114.83784241600006,120.02743770800043,120.02743770800043,120.70233583300069,114.83784241600006,2,1,1.3276586659994791,reldom2_s002,001,2025-01-23_14h50.45.044,Aud-A-Scan_AC,2022.2.5,None,
0,0.0,None,fixation,stimulus/audwhere_stim/blank_white.png,stimulus/audwhere_stim/blank_white.png,stimulus/audwhat_stim/blank_white.png,stimulus/audwhat_stim/blank_white.png,stimulus/audwhere_stim/blank_white.png,stimulus/audwhere_stim/blank_white.png,stimulus/audwhere_stim/blank_white.png,stimulus/audwhere_stim/blank_white.png,0.0,0.0,0.0,0.0,0,0.0,0,0.0,0,0.0,0,0.0,0,0.0,0.0,0,0,0,0,0,0,0,0,0,0.0,0,0.0,0,0.0,0,0.0,10,,,,,0,8,8,8,,,,,,,,,120.96991945800073,120.96991945800073,120.96991945800073,120.96991945800073,120.96991945800073,120.96991945800073,120.96991945800073,120.96991945800073,120.8751186243336,120.96991945800073,120.96991945800073,120.96991945800073,120.8751186243336,120.96991945800073,120.96991945800073,120.96991945800073,120.96991945800073,120.96991945800073,120.96991945800073,120.96991945800073,120.96991945800073,120.96991945800073,120.96991945800073,120.96991945800073,120.96991945800073,120.96991945800073,120.96991945800073,120.9251186243336,120.96991945800073,120.96991945800073,120.96991945800073,120.9251186243336,120.96991945800073,120.96991945800073,120.96991945800073,120.96991945800073,120.96991945800073,126.19368045800002,126.19368045800002,131.1990121660001,None,0,,reldom2_s002,001,2025-01-23_14h50.45.044,Aud-A-Scan_AC,2022.2.5,None,
7,First_Order,2.0,audwhere,stimulus/audwhere_stim/dummy.wav,stimulus/audwhere_stim/dummy.wav,stimulus/audwhere_stim/left_away_300h.wav,stimulus/audwhere_stim/right_away_300h.wav,stimulus/audwhere_stim/blank_white.png,stimulus/audwhere_stim/side_box.png,stimulus/audwhere_stim/side_yes.png,stimulus/audwhere_stim/side_no.png,None,Side,None,Direction,2,0.0,0,5.125,0,5.125,0,5.125,0,0.0,0.625,0,0,0,0,0,0,0,0,0,0.0,0,0.0,1,0.5,1,2.125,0,,,,,0,9,9,9,,,,,,,,,131.1990121660001,131.1990121660001,131.1990121660001,131.1990121660001,131.1990121660001,131.1990121660001,131.1990121660001,131.1990121660001,131.1316283326675,131.1990121660001,131.1990121660001,131.1990121660001,131.1316283326675,131.1990121660001,131.1990121660001,131.1990121660001,133.29797120799958,,131.1990121660001,131.1990121660001,136.36184612500074,131.1990121660001,131.1990121660001,131.1990121660001,131.1990121660001,131.65497725000023,132.70566787499956,131.6265625826675,132.66004762500052,133.29797120799958,134.34862033299942,133.26926612466767,134.3030002079995,131.1990121660001,136.36184612500074,131.1990121660001,136.36184612500074,136.4022480830008,137.08337687499989,131.1990121660001,2,1,1.3706516659985937,reldom2_s002,001,2025-01-23_14h50.45.044,Aud-A-Scan_AC,2022.2.5,None,
8,First_Order,2.0,audwhere,stimulus/audwhere_stim/dummy.wav,stimulus/audwhere_stim/dummy.wav,stimulus/audwhere_stim/left_away_280h.wav,stimulus/audwhere_stim/right_away_270h.wav,stimulus/audwhere_stim/blank_white.png,stimulus/audwhere_stim/side_box.png,stimulus/audwhere_stim/side_yes.png,stimulus/audwhere_stim/side_no.png,None,Side,None,Direction,2,0.0,0,5.125,0,5.125,0,5.125,0,0.0,0.625,0,0,0,0,0,0,0,0,0,0.0,0,0.0,1,0.5,1,2.125,0,,,,,0,10,10,10,,,,,,,,,137.29519637500016,137.29519637500016,137.29519637500016,137.29519637500016,137.29519637500016,137.29519637500016,137.29519637500016,137.29519637500016,137.21671020833324,137.29519637500016,137.29519637500016,137.29519637500016,137.21671020833324,137.29519637500016,137.29519637500016,137.29519637500016,139.39625579099993,,137.29519637500016,137.29519637500016,142.4591725829996,137.29519637500016,137.29519637500016,137.29519637500016,137.29519637500016,137.75076766600068,138.80331545800072,137.721670541667,138.75820329099952,139.39625579099993,140.45167550000042,139.3668930826664,140.4062012909999,137.29519637500016,142.4591725829996,137.29519637500016,142.4591725829996,142.49946091600032,143.18221908300075,137.29519637500016,2,1,2.674200749999727,reldom2_s002,001,2025-01-23_14h50.45.044,Aud-A-Scan_AC,2022.2.5,None,
9,First_Order,2.0,audwhere,stimulus/audwhere_stim/dummy.wav,stimulus/audwhere_stim/dummy.wav,stimulus/audwhere_stim/left_away_280h.wav,stimulus/audwhere_stim/right_away_300h.wav,stimulus/audwhere_stim/blank_white.png,stimulus/audwhere_stim/direction_box.png,stimulus/audwhere_stim/direction_yes.png,stimulus/audwhere_stim/direction_no.png,None,Direction,None,Direction,1,0.0,0,5.125,0,5.125,0,5.125,0,0.0,0.625,0,0,0,0,0,0,0,0,0,0.0,0,0.0,1,0.5,1,2.125,0,,,,,0,11,11,11,,,,,,,,,143.39102683300007,143.39102683300007,143.39102683300007,143.39102683300007,143.39102683300007,143.39102683300007,143.39102683300007,143.39102683300007,143.3155524163341,143.39102683300007,143.39102683300007,143.39102683300007,143.3155524163341,143.39102683300007,143.39102683300007,143.39102683300007,145.46363829099937,,143.39102683300007,143.39102683300007,148.55652462500075,143.39102683300007,143.39102683300007,143.39102683300007,143.39102683300007,143.85225795800034,144.91059729100016,143.82290041666627,,145.46363829099937,146.5247650830006,145.43443979166685,,143.39102683300007,148.55652462500075,143.39102683300007,148.55652462500075,148.59729195799991,149.24622575000103,143.39102683300007,1,1,1.4637574589996802,reldom2_s002,001,2025-01-23_14h50.45.044,Aud-A-Scan_AC,2022.2.5,None,
10,First_Order,2.0,audwhere,stimulus/audwhere_stim/dummy.wav,stimulus/audwhere_stim/dummy.wav,stimulus/audwhere_stim/right_away_270h.wav,stimulus/audwhere_stim/right_toward_300h.wav,stimulus/audwhere_stim/blank_white.png,stimulus/audwhere_stim/side_box.png,stimulus/audwhere_stim/side_yes.png,stimulus/audwhere_stim/side_no.png,None,Side,None,Side,1,0.0,0,5.125,0,5.125,0,5.125,0,0.0,0.625,0,0,0,0,0,0,0,0,0,0.0,0,0.0,1,0.5,1,2.125,0,,,,,0,12,12,12,,,,,,,,,149.4970226660007,149.4970226660007,149.4970226660007,149.4970226660007,149.4970226660007,149.4970226660007,149.4970226660007,149.4970226660007,149.41925204133273,149.4970226660007,149.4970226660007,149.4970226660007,149.41925204133273,149.4970226660007,149.4970226660007,149.4970226660007,151.61232437500075,155.64395083300042,149.4970226660007,149.4970226660007,154.6461611249997,149.4970226660007,149.4970226660007,149.4970226660007,149.4970226660007,149.957265250001,151.01430962499944,149.9280617916668,,151.61232437500075,152.6727135830006,151.58275616666677,,149.4970226660007,154.6461611249997,149.4970226660007,154.6461611249997,154.72615445799966,155.41302054100015,149.4970226660007,1,1,1.226343583997732,reldom2_s002,001,2025-01-23_14h50.45.044,Aud-A-Scan_AC,2022.2.5,None,
0,0.0,None,fixation,stimulus/audwhere_stim/blank_white.png,stimulus/audwhere_stim/blank_white.png,stimulus/audwhat_stim/blank_white.png,stimulus/audwhat_stim/blank_white.png,stimulus/audwhere_stim/blank_white.png,stimulus/audwhere_stim/blank_white.png,stimulus/audwhere_stim/blank_white.png,stimulus/audwhere_stim/blank_white.png,0.0,0.0,0.0,0.0,0,0.0,0,0.0,0,0.0,0,0.0,0,0.0,0.0,0,0,0,0,0,0,0,0,0,0.0,0,0.0,0,0.0,0,0.0,8,,,,,0,13,13,13,,,,,,,,,155.64395083300042,155.64395083300042,155.64395083300042,155.64395083300042,155.64395083300042,155.64395083300042,155.64395083300042,155.64395083300042,155.5463538743335,155.64395083300042,155.64395083300042,155.64395083300042,155.5463538743335,155.64395083300042,155.64395083300042,155.64395083300042,155.64395083300042,155.64395083300042,155.64395083300042,155.64395083300042,155.64395083300042,155.64395083300042,155.64395083300042,155.64395083300042,155.64395083300042,155.64395083300042,155.64395083300042,155.5963538743335,155.64395083300042,155.64395083300042,155.64395083300042,155.5963538743335,155.64395083300042,155.64395083300042,155.64395083300042,155.64395083300042,155.64395083300042,160.87232399999994,160.87232399999994,163.82126299999982,None,0,,reldom2_s002,001,2025-01-23_14h50.45.044,Aud-A-Scan_AC,2022.2.5,None,
11,Second_Order,2.0,audwhere,stimulus/audwhere_stim/left_away_280h.wav,stimulus/audwhere_stim/left_toward_280h.wav,stimulus/audwhere_stim/right_toward_280h.wav,stimulus/audwhere_stim/left_toward_270h.wav,stimulus/audwhere_stim/match_blank.png,stimulus/audwhere_stim/match_box.png,stimulus/audwhere_stim/match_yes.png,stimulus/audwhere_stim/match_no.png,2.0,Match,Side,Direction,2,5.125,0,5.125,0,5.125,0,5.125,0,0.75,0.75,0,0,0,0,0,0,0,0,1,0.5,1,2.125,1,0.5,1,2.125,0,,,,,0,14,14,14,,,,,,,,,163.82126299999982,168.9377221249997,163.82126299999982,163.82126299999982,163.82126299999982,163.82126299999982,164.27719729099954,165.27488987499964,164.28967049966766,165.28282766600023,165.89828783300072,166.89528491599958,165.91009562466596,166.90414958300062,168.9377221249997,169.76868729099988,171.832302625,,169.76868729099988,169.76868729099988,174.96086070800084,169.76868729099988,169.76868729099988,169.76868729099988,169.76868729099988,170.22552041600102,171.28257574999952,170.19623212466675,,171.832302625,172.89573741599997,171.8028949166676,,169.76868729099988,174.96086070800084,169.76868729099988,174.96086070800084,174.96086070800084,,169.76868729099988,2,1,1.5242129590005788,reldom2_s002,001,2025-01-23_14h50.45.044,Aud-A-Scan_AC,2022.2.5,None,
12,Second_Order,2.0,audwhere,stimulus/audwhere_stim/left_away_300h.wav,stimulus/audwhere_stim/right_away_270h.wav,stimulus/audwhere_stim/left_toward_280h.wav,stimulus/audwhere_stim/right_toward_280h.wav,stimulus/audwhere_stim/match_blank.png,stimulus/audwhere_stim/match_box.png,stimulus/audwhere_stim/match_yes.png,stimulus/audwhere_stim/match_no.png,1.0,Match,Direction,Direction,1,5.125,0,5.125,0,5.125,0,5.125,0,0.625,0.625,0,0,0,0,0,0,0,0,1,0.5,1,2.125,1,0.5,1,2.125,0,,,,,0,15,15,15,,,,,,,,,175.7627800829996,180.88203324999995,175.7627800829996,175.7627800829996,175.7627800829996,175.7627800829996,176.22089358300036,177.2191577499998,176.23338158266623,177.2270085,177.84263541600012,178.83984083299947,177.8540564166672,178.84771587499927,180.88203324999995,181.59165187500003,183.69159591599964,187.71841058300015,181.59165187500003,181.59165187500003,186.75807658300073,181.59165187500003,181.59165187500003,181.59165187500003,181.59165187500003,182.04567300000053,183.0964390829995,182.01695516666612,183.05100658300034,183.69159591599964,184.74897933300053,183.66217504166733,,181.59165187500003,186.75807658300073,181.59165187500003,186.75807658300073,186.79833508299998,187.48222491600063,181.59165187500003,2,0,1.0133094169977994,reldom2_s002,001,2025-01-23_14h50.45.044,Aud-A-Scan_AC,2022.2.5,None,
0,0.0,None,fixation,stimulus/audwhere_stim/blank_white.png,stimulus/audwhere_stim/blank_white.png,stimulus/audwhat_stim/blank_white.png,stimulus/audwhat_stim/blank_white.png,stimulus/audwhere_stim/blank_white.png,stimulus/audwhere_stim/blank_white.png,stimulus/audwhere_stim/blank_white.png,stimulus/audwhere_stim/blank_white.png,0.0,0.0,0.0,0.0,0,0.0,0,0.0,0,0.0,0,0.0,0,0.0,0.0,0,0,0,0,0,0,0,0,0,0.0,0,0.0,0,0.0,0,0.0,8,,,,,0,16,16,16,,,,,,,,,187.71841058300015,187.71841058300015,187.71841058300015,187.71841058300015,187.71841058300015,187.71841058300015,187.71841058300015,187.71841058300015,187.615558249334,187.71841058300015,187.71841058300015,187.71841058300015,187.615558249334,187.71841058300015,187.71841058300015,187.71841058300015,187.71841058300015,187.71841058300015,187.71841058300015,187.71841058300015,187.71841058300015,187.71841058300015,187.71841058300015,187.71841058300015,187.71841058300015,187.71841058300015,187.71841058300015,187.66555824933397,187.71841058300015,187.71841058300015,187.71841058300015,187.66555824933397,187.71841058300015,187.71841058300015,187.71841058300015,187.71841058300015,187.71841058300015,192.9136440830007,192.9136440830007,195.94561979100035,None,0,,reldom2_s002,001,2025-01-23_14h50.45.044,Aud-A-Scan_AC,2022.2.5,None,
13,First_Order,3.0,audwhat,stimulus/audwhat_stim/dummy.wav,stimulus/audwhat_stim/dummy.wav,stimulus/audwhat_stim/percussion xylophone_high-pitch_F_loud.wav,stimulus/audwhat_stim/percussion mallet_low-pitch_Dtri_loud.wav,stimulus/audwhat_stim/blank_white.png,stimulus/audwhat_stim/category_box.png,stimulus/audwhat_stim/category_yes.png,stimulus/audwhat_stim/category_no.png,None,Category,None,Category,1,0.0,0,5.125,0,5.125,0,5.125,0,0.0,0.625,0,0,0,0,0,0,0,0,0,0.0,0,0.0,1,0.5,1,2.125,0,,,,,0,17,17,17,,,,,,,,,195.94561979100035,195.94561979100035,195.94561979100035,195.94561979100035,195.94561979100035,195.94561979100035,195.94561979100035,195.94561979100035,195.87192424966696,195.94561979100035,195.94561979100035,195.94561979100035,195.87192424966696,195.94561979100035,195.94561979100035,195.94561979100035,198.03036566599985,202.07626187499955,195.94561979100035,195.94561979100035,201.12841583299996,195.94561979100035,195.94561979100035,195.94561979100035,195.94561979100035,196.40865225000016,197.47753266600012,196.37933429166722,197.43133758300064,198.03036566599985,199.0947683329996,198.0004048746671,,195.94561979100035,201.12841583299996,195.94561979100035,201.12841583299996,201.16954666600031,201.81978966600036,195.94561979100035,1,1,1.675364290998914,reldom2_s002,001,2025-01-23_14h50.45.044,Aud-A-Scan_AC,2022.2.5,None,
14,First_Order,3.0,audwhat,stimulus/audwhat_stim/dummy.wav,stimulus/audwhat_stim/dummy.wav,stimulus/audwhat_stim/string cello_low-pitch_Ftri_loud.wav,stimulus/audwhat_stim/string viola_high-pitch_F_loud.wav,stimulus/audwhat_stim/blank_white.png,stimulus/audwhat_stim/category_box.png,stimulus/audwhat_stim/category_yes.png,stimulus/audwhat_stim/category_no.png,None,Category,None,Category,1,0.0,0,5.125,0,5.125,0,5.125,0,0.0,0.625,0,0,0,0,0,0,0,0,0,0.0,0,0.0,1,0.5,1,2.125,0,,,,,0,18,18,18,,,,,,,,,202.07626187499955,202.07626187499955,202.07626187499955,202.07626187499955,202.07626187499955,202.07626187499955,202.07626187499955,202.07626187499955,201.99393054133375,202.07626187499955,202.07626187499955,202.07626187499955,201.99393054133375,202.07626187499955,202.07626187499955,202.07626187499955,204.1639313329997,,202.07626187499955,202.07626187499955,207.2298094580001,202.07626187499955,202.07626187499955,202.07626187499955,202.07626187499955,202.5412090410009,203.60777341600078,202.51101041666723,,204.1639313329997,205.23523445799947,204.13386920766632,,202.07626187499955,207.2298094580001,202.07626187499955,207.2298094580001,207.27030520799963,207.91935974999978,202.07626187499955,1,1,0.908973874998992,reldom2_s002,001,2025-01-23_14h50.45.044,Aud-A-Scan_AC,2022.2.5,None,
15,First_Order,3.0,audwhat,stimulus/audwhat_stim/dummy.wav,stimulus/audwhat_stim/dummy.wav,stimulus/audwhat_stim/string viola_low-pitch_D_loud.wav,stimulus/audwhat_stim/percussion mallet_low-pitch_D_loud.wav,stimulus/audwhat_stim/blank_white.png,stimulus/audwhat_stim/pitch_box.png,stimulus/audwhat_stim/pitch_yes.png,stimulus/audwhat_stim/pitch_no.png,None,Pitch,None,Pitch,1,0.0,0,5.125,0,5.125,0,5.125,0,0.0,0.625,0,0,0,0,0,0,0,0,0,0.0,0,0.0,1,0.5,1,2.125,0,,,,,0,19,19,19,,,,,,,,,208.17683725000097,208.17683725000097,208.17683725000097,208.17683725000097,208.17683725000097,208.17683725000097,208.17683725000097,208.17683725000097,208.0930345833332,208.17683725000097,208.17683725000097,208.17683725000097,208.0930345833332,208.17683725000097,208.17683725000097,208.17683725000097,210.25533675000042,214.3014955409999,208.17683725000097,208.17683725000097,213.3557225830009,208.17683725000097,208.17683725000097,208.17683725000097,208.17683725000097,208.64073629099948,209.70289712500016,208.61044137466732,,210.25533675000042,211.32270479100043,210.22542845766682,,208.17683725000097,213.3557225830009,208.17683725000097,213.3557225830009,213.3961121249995,214.04752033300065,208.17683725000097,2,0,2.081176207997487,reldom2_s002,001,2025-01-23_14h50.45.044,Aud-A-Scan_AC,2022.2.5,None,
16,First_Order,3.0,audwhat,stimulus/audwhat_stim/dummy.wav,stimulus/audwhat_stim/dummy.wav,stimulus/audwhat_stim/string cello_low-pitch_D_loud.wav,stimulus/audwhat_stim/string viola_high-pitch_Dtri_loud.wav,stimulus/audwhat_stim/blank_white.png,stimulus/audwhat_stim/pitch_box.png,stimulus/audwhat_stim/pitch_yes.png,stimulus/audwhat_stim/pitch_no.png,None,Pitch,None,Category,2,0.0,0,5.125,0,5.125,0,5.125,0,0.0,0.625,0,0,0,0,0,0,0,0,0,0.0,0,0.0,1,0.5,1,2.125,0,,,,,0,20,20,20,,,,,,,,,214.3014955409999,214.3014955409999,214.3014955409999,214.3014955409999,214.3014955409999,214.3014955409999,214.3014955409999,214.3014955409999,214.22109495833334,214.3014955409999,214.3014955409999,214.3014955409999,214.22109495833334,214.3014955409999,214.3014955409999,214.3014955409999,216.39081299999998,,214.3014955409999,214.3014955409999,219.4523893330006,214.3014955409999,214.3014955409999,214.3014955409999,214.3014955409999,214.76555966600063,215.83649308299937,214.73558820766655,,216.39081299999998,217.45956204100003,216.36048212466656,,214.3014955409999,219.4523893330006,214.3014955409999,219.4523893330006,219.493825208001,220.14594175000093,214.3014955409999,2,1,1.203937374999441,reldom2_s002,001,2025-01-23_14h50.45.044,Aud-A-Scan_AC,2022.2.5,None,
0,0.0,None,fixation,stimulus/audwhere_stim/blank_white.png,stimulus/audwhere_stim/blank_white.png,stimulus/audwhat_stim/blank_white.png,stimulus/audwhat_stim/blank_white.png,stimulus/audwhere_stim/blank_white.png,stimulus/audwhere_stim/blank_white.png,stimulus/audwhere_stim/blank_white.png,stimulus/audwhere_stim/blank_white.png,0.0,0.0,0.0,0.0,0,0.0,0,0.0,0,0.0,0,0.0,0,0.0,0.0,0,0,0,0,0,0,0,0,0,0.0,0,0.0,0,0.0,0,0.0,8,,,,,0,21,21,21,,,,,,,,,220.42185470799996,220.42185470799996,220.42185470799996,220.42185470799996,220.42185470799996,220.42185470799996,220.42185470799996,220.42185470799996,220.3198606243333,220.42185470799996,220.42185470799996,220.42185470799996,220.3198606243333,220.42185470799996,220.42185470799996,220.42185470799996,220.42185470799996,220.42185470799996,220.42185470799996,220.42185470799996,220.42185470799996,220.42185470799996,220.42185470799996,220.42185470799996,220.42185470799996,220.42185470799996,220.42185470799996,220.36986062433328,220.42185470799996,220.42185470799996,220.42185470799996,220.36986062433328,220.42185470799996,220.42185470799996,220.42185470799996,220.42185470799996,220.42185470799996,225.64887579100105,225.64887579100105,228.5665959580001,None,0,,reldom2_s002,001,2025-01-23_14h50.45.044,Aud-A-Scan_AC,2022.2.5,None,
17,Second_Order,3.0,audwhat,stimulus/audwhat_stim/percussion mallet_high-pitch_F_loud.wav,stimulus/audwhat_stim/string viola_high-pitch_F_loud.wav,stimulus/audwhat_stim/string cello_low-pitch_Ftri_loud.wav,stimulus/audwhat_stim/string cello_high-pitch_Dtri_loud.wav,stimulus/audwhere_stim/match_blank.png,stimulus/audwhat_stim/match_box.png,stimulus/audwhere_stim/match_yes.png,stimulus/audwhere_stim/match_no.png,2.0,Match,Pitch,Category,2,5.125,0,5.125,0,5.125,0,5.125,0,0.75,0.75,0,0,0,0,0,0,0,0,1,0.5,1,2.125,1,0.5,1,2.125,0,,,,,0,22,22,22,,,,,,,,,228.5665959580001,233.68724587500037,228.5665959580001,228.5665959580001,228.5665959580001,228.5665959580001,229.02224604100047,230.010856375,229.02565520766646,230.0240715,230.64723316600066,231.6446908329999,230.65928254166673,,233.68724587500037,234.51631416599957,236.58989341599954,240.52881445800085,234.51631416599957,234.51631416599957,239.6819881249994,234.51631416599957,234.51631416599957,234.51631416599957,234.51631416599957,234.97692483299943,236.03806420799992,234.94722620766723,,236.58989341599954,237.6537105410007,236.5598050416668,,234.51631416599957,239.6819881249994,234.51631416599957,239.6819881249994,239.72279945800074,,234.51631416599957,2,1,1.7813627919986175,reldom2_s002,001,2025-01-23_14h50.45.044,Aud-A-Scan_AC,2022.2.5,None,
18,Second_Order,3.0,audwhat,stimulus/audwhat_stim/string viola_low-pitch_F_loud.wav,stimulus/audwhat_stim/percussion mallet_low-pitch_F_loud.wav,stimulus/audwhat_stim/percussion mallet_high-pitch_Ftri_loud.wav,stimulus/audwhat_stim/string cello_high-pitch_Ftri_loud.wav,stimulus/audwhere_stim/match_blank.png,stimulus/audwhat_stim/match_box.png,stimulus/audwhere_stim/match_yes.png,stimulus/audwhere_stim/match_no.png,1.0,Match,Pitch,Pitch,1,5.125,0,5.125,0,5.125,0,5.125,0,0.625,0.625,0,0,0,0,0,0,0,0,1,0.5,1,2.125,1,0.5,1,2.125,0,,,,,0,23,23,23,,,,,,,,,240.52881445800085,245.64861166599985,240.52881445800085,240.52881445800085,240.52881445800085,240.52881445800085,240.98702816600053,241.98549504100083,240.99965816666761,,242.60790087500027,243.60597033299928,242.6198504166662,243.61386762499933,245.64861166599985,246.3588129159998,248.42601983299937,,246.3588129159998,246.3588129159998,251.550907791001,246.3588129159998,246.3588129159998,246.3588129159998,246.3588129159998,246.81460987500031,247.87264712499928,246.78563224966663,,248.42601983299937,249.48412762500084,248.39585391666722,,246.3588129159998,251.550907791001,246.3588129159998,251.550907791001,251.550907791001,252.19890045800094,246.3588129159998,2,0,2.3599823329986975,reldom2_s002,001,2025-01-23_14h50.45.044,Aud-A-Scan_AC,2022.2.5,None,
0,0.0,None,fixation,stimulus/audwhere_stim/blank_white.png,stimulus/audwhere_stim/blank_white.png,stimulus/audwhat_stim/blank_white.png,stimulus/audwhat_stim/blank_white.png,stimulus/audwhere_stim/blank_white.png,stimulus/audwhere_stim/blank_white.png,stimulus/audwhere_stim/blank_white.png,stimulus/audwhere_stim/blank_white.png,0.0,0.0,0.0,0.0,0,0.0,0,0.0,0,0.0,0,0.0,0,0.0,0.0,0,0,0,0,0,0,0,0,0,0.0,0,0.0,0,0.0,0,0.0,9,,,,,0,24,24,24,,,,,,,,,252.4748720000007,252.4748720000007,252.4748720000007,252.4748720000007,252.4748720000007,252.4748720000007,252.4748720000007,252.4748720000007,252.37255087433383,252.4748720000007,252.4748720000007,252.4748720000007,252.37255087433383,252.4748720000007,252.4748720000007,252.4748720000007,252.4748720000007,252.4748720000007,252.4748720000007,252.4748720000007,252.4748720000007,252.4748720000007,252.4748720000007,252.4748720000007,252.4748720000007,252.4748720000007,252.4748720000007,252.4225508743338,252.4748720000007,252.4748720000007,252.4748720000007,252.4225508743338,252.4748720000007,252.4748720000007,252.4748720000007,252.4748720000007,252.4748720000007,257.65550625000105,257.65550625000105,261.71235633300057,None,0,,reldom2_s002,001,2025-01-23_14h50.45.044,Aud-A-Scan_AC,2022.2.5,None,
19,First_Order,4.0,audwhat,stimulus/audwhat_stim/dummy.wav,stimulus/audwhat_stim/dummy.wav,stimulus/audwhat_stim/percussion mallet_low-pitch_D_loud.wav,stimulus/audwhat_stim/string viola_low-pitch_D_loud.wav,stimulus/audwhat_stim/blank_white.png,stimulus/audwhat_stim/category_box.png,stimulus/audwhat_stim/category_yes.png,stimulus/audwhat_stim/category_no.png,None,Category,None,Pitch,2,0.0,0,5.125,0,5.125,0,5.125,0,0.0,0.625,0,0,0,0,0,0,0,0,0,0.0,0,0.0,1,0.5,1,2.125,0,,,,,0,25,25,25,,,,,,,,,261.71235633300057,261.71235633300057,261.71235633300057,261.71235633300057,261.71235633300057,261.71235633300057,261.71235633300057,261.71235633300057,261.64010937466685,261.71235633300057,261.71235633300057,261.71235633300057,261.64010937466685,261.71235633300057,261.71235633300057,261.71235633300057,263.8029651249999,267.8278356659994,261.71235633300057,261.71235633300057,266.8781904999996,261.71235633300057,261.71235633300057,261.71235633300057,261.71235633300057,262.1775535830002,263.2472675829995,262.14703487466636,,263.8029651249999,264.87543354099944,263.77318445766673,,261.71235633300057,266.8781904999996,261.71235633300057,266.8781904999996,266.91943612499927,267.57284362500104,261.71235633300057,2,1,1.2128493749987683,reldom2_s002,001,2025-01-23_14h50.45.044,Aud-A-Scan_AC,2022.2.5,None,
20,First_Order,4.0,audwhat,stimulus/audwhat_stim/dummy.wav,stimulus/audwhat_stim/dummy.wav,stimulus/audwhat_stim/percussion xylophone_high-pitch_Dtri_loud.wav,stimulus/audwhat_stim/string cello_high-pitch_Dtri_loud.wav,stimulus/audwhat_stim/blank_white.png,stimulus/audwhat_stim/pitch_box.png,stimulus/audwhat_stim/pitch_yes.png,stimulus/audwhat_stim/pitch_no.png,None,Pitch,None,Pitch,1,0.0,0,5.125,0,5.125,0,5.125,0,0.0,0.625,0,0,0,0,0,0,0,0,0,0.0,0,0.0,1,0.5,1,2.125,0,,,,,0,26,26,26,,,,,,,,,267.8278356659994,267.8278356659994,267.8278356659994,267.8278356659994,267.8278356659994,267.8278356659994,267.8278356659994,267.8278356659994,267.7467992083331,267.8278356659994,267.8278356659994,267.8278356659994,267.7467992083331,267.8278356659994,267.8278356659994,267.8278356659994,269.92130441600057,,267.8278356659994,267.8278356659994,272.9843122080001,267.8278356659994,267.8278356659994,267.8278356659994,267.8278356659994,268.29247812500034,269.364184125001,268.26300412466685,269.3179327500002,269.92130441600057,270.98968554100065,269.89128758266656,,267.8278356659994,272.9843122080001,267.8278356659994,272.9843122080001,273.0254597910007,273.67952704100026,267.8278356659994,1,1,1.0468876249997265,reldom2_s002,001,2025-01-23_14h50.45.044,Aud-A-Scan_AC,2022.2.5,None,
21,First_Order,4.0,audwhat,stimulus/audwhat_stim/dummy.wav,stimulus/audwhat_stim/dummy.wav,stimulus/audwhat_stim/string viola_low-pitch_D_loud.wav,stimulus/audwhat_stim/percussion mallet_low-pitch_D_loud.wav,stimulus/audwhat_stim/blank_white.png,stimulus/audwhat_stim/category_box.png,stimulus/audwhat_stim/category_yes.png,stimulus/audwhat_stim/category_no.png,None,Category,None,Pitch,2,0.0,0,5.125,0,5.125,0,5.125,0,0.0,0.625,0,0,0,0,0,0,0,0,0,0.0,0,0.0,1,0.5,1,2.125,0,,,,,0,27,27,27,,,,,,,,,273.93424745800075,273.93424745800075,273.93424745800075,273.93424745800075,273.93424745800075,273.93424745800075,273.93424745800075,273.93424745800075,273.85405604133314,273.93424745800075,273.93424745800075,273.93424745800075,273.85405604133314,273.93424745800075,273.93424745800075,273.93424745800075,276.04045604100065,,273.93424745800075,273.93424745800075,279.1224714580003,273.93424745800075,273.93424745800075,273.93424745800075,273.93424745800075,274.40287033300046,275.43281345800096,274.372977291667,,276.04045604100065,277.1148264580006,276.00983858266613,,273.93424745800075,279.1224714580003,273.93424745800075,279.1224714580003,279.1652531660002,279.8222657080005,273.93424745800075,2,1,1.3842014580004616,reldom2_s002,001,2025-01-23_14h50.45.044,Aud-A-Scan_AC,2022.2.5,None,
22,First_Order,4.0,audwhat,stimulus/audwhat_stim/dummy.wav,stimulus/audwhat_stim/dummy.wav,stimulus/audwhat_stim/string viola_low-pitch_Ftri_loud.wav,stimulus/audwhat_stim/string cello_high-pitch_D_loud.wav,stimulus/audwhat_stim/blank_white.png,stimulus/audwhat_stim/pitch_box.png,stimulus/audwhat_stim/pitch_yes.png,stimulus/audwhat_stim/pitch_no.png,None,Pitch,None,Category,2,0.0,0,5.125,0,5.125,0,5.125,0,0.0,0.625,0,0,0,0,0,0,0,0,0,0.0,0,0.0,1,0.5,1,2.125,0,,,,,0,28,28,28,,,,,,,,,280.037642583,280.037642583,280.037642583,280.037642583,280.037642583,280.037642583,280.037642583,280.037642583,279.9555990413338,280.037642583,280.037642583,280.037642583,279.9555990413338,280.037642583,280.037642583,280.037642583,282.1308381660001,286.177744083001,280.037642583,280.037642583,285.2033192500003,280.037642583,280.037642583,280.037642583,280.037642583,280.50369587500063,281.5744084580001,280.4734941666668,,282.1308381660001,283.2036187909998,282.10055299966757,,280.037642583,285.2033192500003,280.037642583,285.2033192500003,285.2449695409996,285.9007330000004,280.037642583,1,0,1.8977354580001702,reldom2_s002,001,2025-01-23_14h50.45.044,Aud-A-Scan_AC,2022.2.5,None,
0,0.0,None,fixation,stimulus/audwhere_stim/blank_white.png,stimulus/audwhere_stim/blank_white.png,stimulus/audwhat_stim/blank_white.png,stimulus/audwhat_stim/blank_white.png,stimulus/audwhere_stim/blank_white.png,stimulus/audwhere_stim/blank_white.png,stimulus/audwhere_stim/blank_white.png,stimulus/audwhere_stim/blank_white.png,0.0,0.0,0.0,0.0,0,0.0,0,0.0,0,0.0,0,0.0,0,0.0,0.0,0,0,0,0,0,0,0,0,0,0.0,0,0.0,0,0.0,0,0.0,10,,,,,0,29,29,29,,,,,,,,,286.177744083001,286.177744083001,286.177744083001,286.177744083001,286.177744083001,286.177744083001,286.177744083001,286.177744083001,286.07506941633267,286.177744083001,286.177744083001,286.177744083001,286.07506941633267,286.177744083001,286.177744083001,286.177744083001,286.177744083001,286.177744083001,286.177744083001,286.177744083001,286.177744083001,286.177744083001,286.177744083001,286.177744083001,286.177744083001,286.177744083001,286.177744083001,286.1250694163327,286.177744083001,286.177744083001,286.177744083001,286.1250694163327,286.177744083001,286.177744083001,286.177744083001,286.177744083001,286.177744083001,291.37468033299956,291.37468033299956,296.34565720799947,None,0,,reldom2_s002,001,2025-01-23_14h50.45.044,Aud-A-Scan_AC,2022.2.5,None,
23,Second_Order,4.0,audwhat,stimulus/audwhat_stim/string cello_low-pitch_F_loud.wav,stimulus/audwhat_stim/string cello_high-pitch_Ftri_loud.wav,stimulus/audwhat_stim/percussion mallet_high-pitch_Ftri_loud.wav,stimulus/audwhat_stim/percussion mallet_low-pitch_F_loud.wav,stimulus/audwhere_stim/match_blank.png,stimulus/audwhat_stim/match_box.png,stimulus/audwhere_stim/match_yes.png,stimulus/audwhere_stim/match_no.png,1.0,Match,Category,Category,1,5.125,0,5.125,0,5.125,0,5.125,0,0.75,0.75,0,0,0,0,0,0,0,0,1,0.5,1,2.125,1,0.5,1,2.125,0,,,,,0,30,30,30,,,,,,,,,296.34565720799947,301.4602825000002,296.34565720799947,296.34565720799947,296.34565720799947,296.34565720799947,296.79914500000086,297.79758562499956,296.8115914996672,,298.42033533299946,299.4178672500002,298.4323142916676,,301.4602825000002,302.2928328750004,304.37456658299925,,302.2928328750004,302.2928328750004,307.48441320799975,302.2928328750004,302.2928328750004,302.2928328750004,302.2928328750004,302.756065208001,303.82108191599946,302.72616574966764,,304.37456658299925,305.4440072079997,304.34474541666737,,302.2928328750004,307.48441320799975,302.2928328750004,307.48441320799975,307.48441320799975,,302.2928328750004,1,1,2.2502941669990832,reldom2_s002,001,2025-01-23_14h50.45.044,Aud-A-Scan_AC,2022.2.5,None,
24,Second_Order,4.0,audwhat,stimulus/audwhat_stim/percussion xylophone_high-pitch_Dtri_loud.wav,stimulus/audwhat_stim/percussion mallet_low-pitch_D_loud.wav,stimulus/audwhat_stim/string cello_low-pitch_Ftri_loud.wav,stimulus/audwhat_stim/string viola_high-pitch_D_loud.wav,stimulus/audwhere_stim/match_blank.png,stimulus/audwhat_stim/match_box.png,stimulus/audwhere_stim/match_yes.png,stimulus/audwhere_stim/match_no.png,1.0,Match,Category,Category,1,5.125,0,5.125,0,5.125,0,5.125,0,0.625,0.625,0,0,0,0,0,0,0,0,1,0.5,1,2.125,1,0.5,1,2.125,0,,,,,0,31,31,31,,,,,,,,,308.2950769580002,313.4168893749993,308.2950769580002,308.2950769580002,308.2950769580002,308.2950769580002,308.742742208,309.7414068329999,308.7558559996671,309.7496274999994,310.3766787910008,311.36536024999987,310.3801319576671,311.37848595800097,313.4168893749993,314.13029149999966,316.1973915409999,320.25827916600065,314.13029149999966,314.13029149999966,319.2912221660008,314.13029149999966,314.13029149999966,314.13029149999966,314.13029149999966,314.58909858300103,315.6455879160003,314.5593033326661,,316.1973915409999,317.25939741600087,316.16734233266675,,314.13029149999966,319.2912221660008,314.13029149999966,319.2912221660008,319.33174408299965,319.9810488330004,314.13029149999966,1,1,1.6578689590005524,reldom2_s002,001,2025-01-23_14h50.45.044,Aud-A-Scan_AC,2022.2.5,None,
0,0.0,None,fixation,stimulus/audwhere_stim/blank_white.png,stimulus/audwhere_stim/blank_white.png,stimulus/audwhat_stim/blank_white.png,stimulus/audwhat_stim/blank_white.png,stimulus/audwhere_stim/blank_white.png,stimulus/audwhere_stim/blank_white.png,stimulus/audwhere_stim/blank_white.png,stimulus/audwhere_stim/blank_white.png,0.0,0.0,0.0,0.0,0,0.0,0,0.0,0,0.0,0,0.0,0,0.0,0.0,0,0,0,0,0,0,0,0,0,0.0,0,0.0,0,0.0,0,0.0,9,,,,,0,32,32,32,,,,,,,,,320.25827916600065,320.25827916600065,320.25827916600065,320.25827916600065,320.25827916600065,320.25827916600065,320.25827916600065,320.25827916600065,320.1545019163333,320.25827916600065,320.25827916600065,320.25827916600065,320.1545019163333,320.25827916600065,320.25827916600065,320.25827916600065,320.25827916600065,320.25827916600065,320.25827916600065,320.25827916600065,320.25827916600065,320.25827916600065,320.25827916600065,320.25827916600065,320.25827916600065,320.25827916600065,320.25827916600065,320.2045019163333,320.25827916600065,320.25827916600065,320.25827916600065,320.2045019163333,320.25827916600065,320.25827916600065,320.25827916600065,320.25827916600065,320.25827916600065,325.4734104580002,325.4734104580002,329.50333629099987,None,0,,reldom2_s002,001,2025-01-23_14h50.45.044,Aud-A-Scan_AC,2022.2.5,None,
25,First_Order,5.0,audwhere,stimulus/audwhere_stim/dummy.wav,stimulus/audwhere_stim/dummy.wav,stimulus/audwhere_stim/right_away_300h.wav,stimulus/audwhere_stim/right_toward_300h.wav,stimulus/audwhere_stim/blank_white.png,stimulus/audwhere_stim/direction_box.png,stimulus/audwhere_stim/direction_yes.png,stimulus/audwhere_stim/direction_no.png,None,Direction,None,Side,2,0.0,0,5.125,0,5.125,0,5.125,0,0.0,0.625,0,0,0,0,0,0,0,0,0,0.0,0,0.0,1,0.5,1,2.125,0,,,,,0,33,33,33,,,,,,,,,329.50333629099987,329.50333629099987,329.50333629099987,329.50333629099987,329.50333629099987,329.50333629099987,329.50333629099987,329.50333629099987,329.4283461666661,329.50333629099987,329.50333629099987,329.50333629099987,329.4283461666661,329.50333629099987,329.50333629099987,329.50333629099987,331.61025533300017,,329.50333629099987,329.50333629099987,334.6557616659993,329.50333629099987,329.50333629099987,329.50333629099987,329.50333629099987,329.9697392500002,331.0459070830002,329.93983074966695,,331.61025533300017,332.64267287499933,331.5797453746675,,329.50333629099987,334.6557616659993,329.50333629099987,334.6557616659993,334.69723437500033,335.35338695800056,329.50333629099987,2,1,1.9332068749990867,reldom2_s002,001,2025-01-23_14h50.45.044,Aud-A-Scan_AC,2022.2.5,None,
26,First_Order,5.0,audwhere,stimulus/audwhere_stim/dummy.wav,stimulus/audwhere_stim/dummy.wav,stimulus/audwhere_stim/right_away_280h.wav,stimulus/audwhere_stim/left_away_270h.wav,stimulus/audwhere_stim/blank_white.png,stimulus/audwhere_stim/side_box.png,stimulus/audwhere_stim/side_yes.png,stimulus/audwhere_stim/side_no.png,None,Side,None,Direction,2,0.0,0,5.125,0,5.125,0,5.125,0,0.0,0.625,0,0,0,0,0,0,0,0,0,0.0,0,0.0,1,0.5,1,2.125,0,,,,,0,34,34,34,,,,,,,,,335.6081682080003,335.6081682080003,335.6081682080003,335.6081682080003,335.6081682080003,335.6081682080003,335.6081682080003,335.6081682080003,335.52805658333284,335.6081682080003,335.6081682080003,335.6081682080003,335.52805658333284,335.6081682080003,335.6081682080003,335.6081682080003,337.70668875000047,341.7313969580009,335.6081682080003,335.6081682080003,340.7777522079996,335.6081682080003,335.6081682080003,335.6081682080003,335.6081682080003,336.076459625001,337.1484423330003,336.04646749966764,,337.70668875000047,338.77821075000065,337.6767639996672,,335.6081682080003,340.7777522079996,335.6081682080003,340.7777522079996,340.8189772910009,341.4756337910003,335.6081682080003,2,1,1.5962321659990266,reldom2_s002,001,2025-01-23_14h50.45.044,Aud-A-Scan_AC,2022.2.5,None,
27,First_Order,5.0,audwhere,stimulus/audwhere_stim/dummy.wav,stimulus/audwhere_stim/dummy.wav,stimulus/audwhere_stim/left_away_300h.wav,stimulus/audwhere_stim/right_away_290h.wav,stimulus/audwhere_stim/blank_white.png,stimulus/audwhere_stim/direction_box.png,stimulus/audwhere_stim/direction_yes.png,stimulus/audwhere_stim/direction_no.png,None,Direction,None,Direction,1,0.0,0,5.125,0,5.125,0,5.125,0,0.0,0.625,0,0,0,0,0,0,0,0,0,0.0,0,0.0,1,0.5,1,2.125,0,,,,,0,35,35,35,,,,,,,,,341.7313969580009,341.7313969580009,341.7313969580009,341.7313969580009,341.7313969580009,341.7313969580009,341.7313969580009,341.7313969580009,341.6502329163342,341.7313969580009,341.7313969580009,341.7313969580009,341.6502329163342,341.7313969580009,341.7313969580009,341.7313969580009,343.84256262500094,347.8487965410004,341.7313969580009,341.7313969580009,346.8908145000005,341.7313969580009,341.7313969580009,341.7313969580009,341.7313969580009,342.20138179100104,343.23363666600017,342.1715968326664,,343.84256262500094,344.87554683300004,343.81248545766744,,341.7313969580009,346.8908145000005,341.7313969580009,346.8908145000005,346.93190895800035,347.59293400000024,341.7313969580009,2,0,1.1790235839980596,reldom2_s002,001,2025-01-23_14h50.45.044,Aud-A-Scan_AC,2022.2.5,None,
28,First_Order,5.0,audwhere,stimulus/audwhere_stim/dummy.wav,stimulus/audwhere_stim/dummy.wav,stimulus/audwhere_stim/left_away_290h.wav,stimulus/audwhere_stim/right_away_280h.wav,stimulus/audwhere_stim/blank_white.png,stimulus/audwhere_stim/direction_box.png,stimulus/audwhere_stim/direction_yes.png,stimulus/audwhere_stim/direction_no.png,None,Direction,None,Direction,1,0.0,0,5.125,0,5.125,0,5.125,0,0.0,0.625,0,0,0,0,0,0,0,0,0,0.0,0,0.0,1,0.5,1,2.125,0,,,,,0,36,36,36,,,,,,,,,347.8487965410004,347.8487965410004,347.8487965410004,347.8487965410004,347.8487965410004,347.8487965410004,347.8487965410004,347.8487965410004,347.7674835413328,347.8487965410004,347.8487965410004,347.8487965410004,347.7674835413328,347.8487965410004,347.8487965410004,347.8487965410004,349.9637839999996,353.99448683300034,347.8487965410004,347.8487965410004,353.015281375001,347.8487965410004,347.8487965410004,347.8487965410004,347.8487965410004,348.31892191599945,349.35264758300036,348.28811387466726,,349.9637839999996,350.9965532080005,349.9334084996665,,347.8487965410004,353.015281375001,347.8487965410004,353.015281375001,353.0563092499997,353.71784237500106,347.8487965410004,1,1,2.05382283399922,reldom2_s002,001,2025-01-23_14h50.45.044,Aud-A-Scan_AC,2022.2.5,None,
0,0.0,None,fixation,stimulus/audwhere_stim/blank_white.png,stimulus/audwhere_stim/blank_white.png,stimulus/audwhat_stim/blank_white.png,stimulus/audwhat_stim/blank_white.png,stimulus/audwhere_stim/blank_white.png,stimulus/audwhere_stim/blank_white.png,stimulus/audwhere_stim/blank_white.png,stimulus/audwhere_stim/blank_white.png,0.0,0.0,0.0,0.0,0,0.0,0,0.0,0,0.0,0,0.0,0,0.0,0.0,0,0,0,0,0,0,0,0,0,0.0,0,0.0,0,0.0,0,0.0,9,,,,,0,37,37,37,,,,,,,,,353.99448683300034,353.99448683300034,353.99448683300034,353.99448683300034,353.99448683300034,353.99448683300034,353.99448683300034,353.99448683300034,353.892261166333,353.99448683300034,353.99448683300034,353.99448683300034,353.892261166333,353.99448683300034,353.99448683300034,353.99448683300034,353.99448683300034,353.99448683300034,353.99448683300034,353.99448683300034,353.99448683300034,353.99448683300034,353.99448683300034,353.99448683300034,353.99448683300034,353.99448683300034,353.99448683300034,353.942261166333,353.99448683300034,353.99448683300034,353.99448683300034,353.942261166333,353.99448683300034,353.99448683300034,353.99448683300034,353.99448683300034,353.99448683300034,359.2179777500005,359.2179777500005,363.1362064160003,None,0,,reldom2_s002,001,2025-01-23_14h50.45.044,Aud-A-Scan_AC,2022.2.5,None,
29,Second_Order,5.0,audwhere,stimulus/audwhere_stim/right_toward_270h.wav,stimulus/audwhere_stim/right_away_280h.wav,stimulus/audwhere_stim/left_toward_290h.wav,stimulus/audwhere_stim/left_away_290h.wav,stimulus/audwhere_stim/match_blank.png,stimulus/audwhere_stim/match_box.png,stimulus/audwhere_stim/match_yes.png,stimulus/audwhere_stim/match_no.png,1.0,Match,Side,Side,1,5.125,0,5.125,0,5.125,0,5.125,0,0.75,0.75,0,0,0,0,0,0,0,0,1,0.5,1,2.125,1,0.5,1,2.125,0,,,,,0,38,38,38,,,,,,,,,363.1362064160003,368.2600594579999,363.1362064160003,363.1362064160003,363.1362064160003,363.1362064160003,363.587717583001,364.58459349999976,363.59905316666686,364.59223349999957,365.2194322079995,366.2135650830005,365.22292654166654,366.2135650830005,368.2600594579999,369.0916954160002,371.17980941600035,375.10696229099995,369.0916954160002,369.0916954160002,374.24962700000106,369.0916954160002,369.0916954160002,369.0916954160002,369.0916954160002,369.5566507500007,370.62296575000073,369.5267704996661,,371.17980941600035,372.2508453749997,371.1492927916663,,369.0916954160002,374.24962700000106,369.0916954160002,374.24962700000106,374.29118237500006,,369.0916954160002,2,0,2.8621240419979586,reldom2_s002,001,2025-01-23_14h50.45.044,Aud-A-Scan_AC,2022.2.5,None,
30,Second_Order,5.0,audwhere,stimulus/audwhere_stim/left_toward_300h.wav,stimulus/audwhere_stim/left_away_290h.wav,stimulus/audwhere_stim/right_away_290h.wav,stimulus/audwhere_stim/right_toward_280h.wav,stimulus/audwhere_stim/match_blank.png,stimulus/audwhere_stim/match_box.png,stimulus/audwhere_stim/match_yes.png,stimulus/audwhere_stim/match_no.png,1.0,Match,Side,Side,1,5.125,0,5.125,0,5.125,0,5.125,0,0.625,0.625,0,0,0,0,0,0,0,0,1,0.5,1,2.125,1,0.5,1,2.125,0,,,,,0,39,39,39,,,,,,,,,375.10696229099995,380.226340833,375.10696229099995,375.10696229099995,375.10696229099995,375.10696229099995,375.5643762079999,376.5627355830002,375.5767980826661,376.57028004099993,377.1848743749997,378.18266166600006,377.196909749666,378.1909041250001,380.226340833,380.9362868749995,383.01433854100105,,380.9362868749995,380.9362868749995,386.11748412499946,380.9362868749995,380.9362868749995,380.9362868749995,380.9362868749995,381.39694283300014,382.4605821660007,381.3670598326664,,383.01433854100105,384.0801663750008,382.9851039166663,,380.9362868749995,386.11748412499946,380.9362868749995,386.11748412499946,386.11748412499946,386.76999224999963,380.9362868749995,1,1,1.1715422500001296,reldom2_s002,001,2025-01-23_14h50.45.044,Aud-A-Scan_AC,2022.2.5,None,
0,0.0,None,fixation,stimulus/audwhere_stim/blank_white.png,stimulus/audwhere_stim/blank_white.png,stimulus/audwhat_stim/blank_white.png,stimulus/audwhat_stim/blank_white.png,stimulus/audwhere_stim/blank_white.png,stimulus/audwhere_stim/blank_white.png,stimulus/audwhere_stim/blank_white.png,stimulus/audwhere_stim/blank_white.png,0.0,0.0,0.0,0.0,0,0.0,0,0.0,0,0.0,0,0.0,0,0.0,0.0,0,0,0,0,0,0,0,0,0,0.0,0,0.0,0,0.0,0,0.0,9,,,,,0,40,40,40,,,,,,,,,387.04588499999954,387.04588499999954,387.04588499999954,387.04588499999954,387.04588499999954,387.04588499999954,387.04588499999954,387.04588499999954,386.94436058333315,387.04588499999954,387.04588499999954,387.04588499999954,386.94436058333315,387.04588499999954,387.04588499999954,387.04588499999954,387.04588499999954,387.04588499999954,387.04588499999954,387.04588499999954,387.04588499999954,387.04588499999954,387.04588499999954,387.04588499999954,387.04588499999954,387.04588499999954,387.04588499999954,386.99436058333316,387.04588499999954,387.04588499999954,387.04588499999954,386.99436058333316,387.04588499999954,387.04588499999954,387.04588499999954,387.04588499999954,387.04588499999954,392.22937841600105,392.22937841600105,396.31576279100045,None,0,,reldom2_s002,001,2025-01-23_14h50.45.044,Aud-A-Scan_AC,2022.2.5,None,
31,First_Order,6.0,audwhere,stimulus/audwhere_stim/dummy.wav,stimulus/audwhere_stim/dummy.wav,stimulus/audwhere_stim/left_away_300h.wav,stimulus/audwhere_stim/left_toward_300h.wav,stimulus/audwhere_stim/blank_white.png,stimulus/audwhere_stim/side_box.png,stimulus/audwhere_stim/side_yes.png,stimulus/audwhere_stim/side_no.png,None,Side,None,Side,1,0.0,0,5.125,0,5.125,0,5.125,0,0.0,0.625,0,0,0,0,0,0,0,0,0,0.0,0,0.0,1,0.5,1,2.125,0,,,,,0,41,41,41,,,,,,,,,396.31576279100045,396.31576279100045,396.31576279100045,396.31576279100045,396.31576279100045,396.31576279100045,396.31576279100045,396.31576279100045,396.24183145766676,396.31576279100045,396.31576279100045,396.31576279100045,396.24183145766676,396.31576279100045,396.31576279100045,396.31576279100045,398.412072000001,402.43812787500065,396.31576279100045,396.31576279100045,401.4862677500005,396.31576279100045,396.31576279100045,396.31576279100045,396.31576279100045,396.78045637499963,397.85296054100036,396.75073720766727,,398.412072000001,399.48613300000034,398.38220095766724,,396.31576279100045,401.4862677500005,396.31576279100045,401.4862677500005,401.52706175000094,402.18387124999936,396.31576279100045,1,1,1.9391628749999654,reldom2_s002,001,2025-01-23_14h50.45.044,Aud-A-Scan_AC,2022.2.5,None,
32,First_Order,6.0,audwhere,stimulus/audwhere_stim/dummy.wav,stimulus/audwhere_stim/dummy.wav,stimulus/audwhere_stim/right_away_270h.wav,stimulus/audwhere_stim/left_away_280h.wav,stimulus/audwhere_stim/blank_white.png,stimulus/audwhere_stim/side_box.png,stimulus/audwhere_stim/side_yes.png,stimulus/audwhere_stim/side_no.png,None,Side,None,Direction,2,0.0,0,5.125,0,5.125,0,5.125,0,0.0,0.625,0,0,0,0,0,0,0,0,0,0.0,0,0.0,1,0.5,1,2.125,0,,,,,0,42,42,42,,,,,,,,,402.43812787500065,402.43812787500065,402.43812787500065,402.43812787500065,402.43812787500065,402.43812787500065,402.43812787500065,402.43812787500065,402.3577178743327,402.43812787500065,402.43812787500065,402.43812787500065,402.3577178743327,402.43812787500065,402.43812787500065,402.43812787500065,404.5372806659998,408.57003229099973,402.43812787500065,402.43812787500065,407.6162608329996,402.43812787500065,402.43812787500065,402.43812787500065,402.43812787500065,402.903575833001,403.97814791600103,402.8739352076666,,404.5372806659998,405.6134253330001,404.5071714996668,,402.43812787500065,407.6162608329996,402.43812787500065,407.6162608329996,407.6574412080008,408.3149119999998,402.43812787500065,2,1,1.069365374998597,reldom2_s002,001,2025-01-23_14h50.45.044,Aud-A-Scan_AC,2022.2.5,None,
33,First_Order,6.0,audwhere,stimulus/audwhere_stim/dummy.wav,stimulus/audwhere_stim/dummy.wav,stimulus/audwhere_stim/left_toward_270h.wav,stimulus/audwhere_stim/left_away_270h.wav,stimulus/audwhere_stim/blank_white.png,stimulus/audwhere_stim/direction_box.png,stimulus/audwhere_stim/direction_yes.png,stimulus/audwhere_stim/direction_no.png,None,Direction,None,Side,2,0.0,0,5.125,0,5.125,0,5.125,0,0.0,0.625,0,0,0,0,0,0,0,0,0,0.0,0,0.0,1,0.5,1,2.125,0,,,,,0,43,43,43,,,,,,,,,408.57003229099973,408.57003229099973,408.57003229099973,408.57003229099973,408.57003229099973,408.57003229099973,408.57003229099973,408.57003229099973,408.48932895833434,408.57003229099973,408.57003229099973,408.57003229099973,408.48932895833434,408.57003229099973,408.57003229099973,408.57003229099973,410.6862650410003,414.69632383300086,408.57003229099973,408.57003229099973,413.7375469159997,408.57003229099973,408.57003229099973,408.57003229099973,408.57003229099973,409.0414251250004,410.0765599160004,409.0109703326673,,410.6862650410003,411.72078820800016,410.65549829166616,,408.57003229099973,413.7375469159997,408.57003229099973,413.7375469159997,413.7789165409995,414.4403833329998,408.57003229099973,1,0,1.9545668749997276,reldom2_s002,001,2025-01-23_14h50.45.044,Aud-A-Scan_AC,2022.2.5,None,
34,First_Order,6.0,audwhere,stimulus/audwhere_stim/dummy.wav,stimulus/audwhere_stim/dummy.wav,stimulus/audwhere_stim/left_toward_300h.wav,stimulus/audwhere_stim/left_away_300h.wav,stimulus/audwhere_stim/blank_white.png,stimulus/audwhere_stim/side_box.png,stimulus/audwhere_stim/side_yes.png,stimulus/audwhere_stim/side_no.png,None,Side,None,Side,1,0.0,0,5.125,0,5.125,0,5.125,0,0.0,0.625,0,0,0,0,0,0,0,0,0,0.0,0,0.0,1,0.5,1,2.125,0,,,,,0,44,44,44,,,,,,,,,414.69632383300086,414.69632383300086,414.69632383300086,414.69632383300086,414.69632383300086,414.69632383300086,414.69632383300086,414.69632383300086,414.61453670833373,414.69632383300086,414.69632383300086,414.69632383300086,414.61453670833373,414.69632383300086,414.69632383300086,414.69632383300086,416.8028667079998,,414.69632383300086,414.69632383300086,419.891468541,414.69632383300086,414.69632383300086,414.69632383300086,414.69632383300086,415.1658313330008,416.2419009999994,415.13412545766755,,416.8028667079998,417.8345042910005,416.7723632496675,,414.69632383300086,419.891468541,414.69632383300086,419.891468541,419.891468541,420.5486570409994,414.69632383300086,1,1,1.9377343749983993,reldom2_s002,001,2025-01-23_14h50.45.044,Aud-A-Scan_AC,2022.2.5,None,
0,0.0,None,fixation,stimulus/audwhere_stim/blank_white.png,stimulus/audwhere_stim/blank_white.png,stimulus/audwhat_stim/blank_white.png,stimulus/audwhat_stim/blank_white.png,stimulus/audwhere_stim/blank_white.png,stimulus/audwhere_stim/blank_white.png,stimulus/audwhere_stim/blank_white.png,stimulus/audwhere_stim/blank_white.png,0.0,0.0,0.0,0.0,0,0.0,0,0.0,0,0.0,0,0.0,0,0.0,0.0,0,0,0,0,0,0,0,0,0,0.0,0,0.0,0,0.0,0,0.0,10,,,,,0,45,45,45,,,,,,,,,420.82417712499955,420.82417712499955,420.82417712499955,420.82417712499955,420.82417712499955,420.82417712499955,420.82417712499955,420.82417712499955,420.72234970833426,420.82417712499955,420.82417712499955,420.82417712499955,420.72234970833426,420.82417712499955,420.82417712499955,420.82417712499955,420.82417712499955,420.82417712499955,420.82417712499955,420.82417712499955,420.82417712499955,420.82417712499955,420.82417712499955,420.82417712499955,420.82417712499955,420.82417712499955,420.82417712499955,420.7723497083343,420.82417712499955,420.82417712499955,420.82417712499955,420.7723497083343,420.82417712499955,420.82417712499955,420.82417712499955,420.82417712499955,420.82417712499955,426.0499599579998,426.0499599579998,430.9918483750007,None,0,,reldom2_s002,001,2025-01-23_14h50.45.044,Aud-A-Scan_AC,2022.2.5,None,
35,Second_Order,6.0,audwhere,stimulus/audwhere_stim/left_away_280h.wav,stimulus/audwhere_stim/left_toward_300h.wav,stimulus/audwhere_stim/right_away_280h.wav,stimulus/audwhere_stim/right_toward_300h.wav,stimulus/audwhere_stim/match_blank.png,stimulus/audwhere_stim/match_box.png,stimulus/audwhere_stim/match_yes.png,stimulus/audwhere_stim/match_no.png,1.0,Match,Side,Side,1,5.125,0,5.125,0,5.125,0,5.125,0,0.75,0.75,0,0,0,0,0,0,0,0,1,0.5,1,2.125,1,0.5,1,2.125,0,,,,,0,46,46,46,,,,,,,,,430.9918483750007,436.1042022500005,430.9918483750007,430.9918483750007,430.9918483750007,430.9918483750007,431.44300875000044,432.4414228330006,431.45537733266633,432.44958479100023,433.0761241660002,434.065318125,433.0795683746676,434.07832841600066,436.1042022500005,436.93455829100094,439.0318668330001,,436.93455829100094,436.93455829100094,442.1082064580005,436.93455829100094,436.93455829100094,436.93455829100094,436.93455829100094,437.4009174160001,438.47327937500086,437.3710627076673,,439.0318668330001,440.0617251250005,439.00257770766643,,436.93455829100094,442.1082064580005,436.93455829100094,442.1082064580005,442.14958995800043,,436.93455829100094,1,1,1.1065706249992218,reldom2_s002,001,2025-01-23_14h50.45.044,Aud-A-Scan_AC,2022.2.5,None,
36,Second_Order,6.0,audwhere,stimulus/audwhere_stim/left_away_290h.wav,stimulus/audwhere_stim/left_toward_270h.wav,stimulus/audwhere_stim/left_toward_290h.wav,stimulus/audwhere_stim/right_toward_270h.wav,stimulus/audwhere_stim/match_blank.png,stimulus/audwhere_stim/match_box.png,stimulus/audwhere_stim/match_yes.png,stimulus/audwhere_stim/match_no.png,2.0,Match,Side,Direction,2,5.125,0,5.125,0,5.125,0,5.125,0,0.625,0.625,0,0,0,0,0,0,0,0,1,0.5,1,2.125,1,0.5,1,2.125,0,,,,,0,47,47,47,,,,,,,,,442.92260208300104,448.04388674999973,442.92260208300104,442.92260208300104,442.92260208300104,442.92260208300104,443.38326212500033,444.3722324579994,443.38672316666657,444.38525808300074,445.00826374999997,446.00571870800013,445.02041820766703,446.0136547080001,448.04388674999973,448.7561104159995,450.84113249999973,,448.7561104159995,448.7561104159995,453.9107997080009,448.7561104159995,448.7561104159995,448.7561104159995,448.7561104159995,449.22039975000007,450.28614025000024,449.19130141666597,,450.84113249999973,451.9138481659993,450.810743082666,,448.7561104159995,453.9107997080009,448.7561104159995,453.9107997080009,453.951865291001,454.60389883300013,448.7561104159995,2,1,2.2582436249995226,reldom2_s002,001,2025-01-23_14h50.45.044,Aud-A-Scan_AC,2022.2.5,None,
0,0.0,None,fixation,stimulus/audwhere_stim/blank_white.png,stimulus/audwhere_stim/blank_white.png,stimulus/audwhat_stim/blank_white.png,stimulus/audwhat_stim/blank_white.png,stimulus/audwhere_stim/blank_white.png,stimulus/audwhere_stim/blank_white.png,stimulus/audwhere_stim/blank_white.png,stimulus/audwhere_stim/blank_white.png,0.0,0.0,0.0,0.0,0,0.0,0,0.0,0,0.0,0,0.0,0,0.0,0.0,0,0,0,0,0,0,0,0,0,0.0,0,0.0,0,0.0,0,0.0,9,,,,,0,48,48,48,,,,,,,,,454.8807423750004,454.8807423750004,454.8807423750004,454.8807423750004,454.8807423750004,454.8807423750004,454.8807423750004,454.8807423750004,454.77816629133315,454.8807423750004,454.8807423750004,454.8807423750004,454.77816629133315,454.8807423750004,454.8807423750004,454.8807423750004,454.8807423750004,454.8807423750004,454.8807423750004,454.8807423750004,454.8807423750004,454.8807423750004,454.8807423750004,454.8807423750004,454.8807423750004,454.8807423750004,454.8807423750004,454.82816629133316,454.8807423750004,454.8807423750004,454.8807423750004,454.82816629133316,454.8807423750004,454.8807423750004,454.8807423750004,454.8807423750004,454.8807423750004,460.0736282910002,460.0736282910002,464.1192509579996,None,0,,reldom2_s002,001,2025-01-23_14h50.45.044,Aud-A-Scan_AC,2022.2.5,None,
37,First_Order,7.0,audwhat,stimulus/audwhat_stim/dummy.wav,stimulus/audwhat_stim/dummy.wav,stimulus/audwhat_stim/string cello_low-pitch_Ftri_loud.wav,stimulus/audwhat_stim/string cello_high-pitch_D_loud.wav,stimulus/audwhat_stim/blank_white.png,stimulus/audwhat_stim/pitch_box.png,stimulus/audwhat_stim/pitch_yes.png,stimulus/audwhat_stim/pitch_no.png,None,Pitch,None,Category,2,0.0,0,5.125,0,5.125,0,5.125,0,0.0,0.625,0,0,0,0,0,0,0,0,0,0.0,0,0.0,1,0.5,1,2.125,0,,,,,0,49,49,49,,,,,,,,,464.1192509579996,464.1192509579996,464.1192509579996,464.1192509579996,464.1192509579996,464.1192509579996,464.1192509579996,464.1192509579996,464.0445241666663,464.1192509579996,464.1192509579996,464.1192509579996,464.0445241666663,464.1192509579996,464.1192509579996,464.1192509579996,466.2215657079996,,464.1192509579996,464.1192509579996,469.30545600000005,464.1192509579996,464.1192509579996,464.1192509579996,464.1192509579996,464.5855362080001,465.61505433300044,464.55566987466614,,466.2215657079996,467.2509424580003,466.19128070766624,,464.1192509579996,469.30545600000005,464.1192509579996,469.30545600000005,469.34678195800007,470.00206337500094,464.1192509579996,2,1,1.6077303340007347,reldom2_s002,001,2025-01-23_14h50.45.044,Aud-A-Scan_AC,2022.2.5,None,
38,First_Order,7.0,audwhat,stimulus/audwhat_stim/dummy.wav,stimulus/audwhat_stim/dummy.wav,stimulus/audwhat_stim/string cello_low-pitch_D_loud.wav,stimulus/audwhat_stim/string cello_high-pitch_Ftri_loud.wav,stimulus/audwhat_stim/blank_white.png,stimulus/audwhat_stim/pitch_box.png,stimulus/audwhat_stim/pitch_yes.png,stimulus/audwhat_stim/pitch_no.png,None,Pitch,None,Category,2,0.0,0,5.125,0,5.125,0,5.125,0,0.0,0.625,0,0,0,0,0,0,0,0,0,0.0,0,0.0,1,0.5,1,2.125,0,,,,,0,50,50,50,,,,,,,,,470.21586066599957,470.21586066599957,470.21586066599957,470.21586066599957,470.21586066599957,470.21586066599957,470.21586066599957,470.21586066599957,470.13539670833427,470.21586066599957,470.21586066599957,470.21586066599957,470.13539670833427,470.21586066599957,470.21586066599957,470.21586066599957,472.31429529100024,,470.21586066599957,470.21586066599957,475.3985020830005,470.21586066599957,470.21586066599957,470.21586066599957,470.21586066599957,470.6815450409995,471.75487149999935,470.65122374966654,,472.31429529100024,473.3445190000002,472.28460654166724,,470.21586066599957,475.3985020830005,470.21586066599957,475.3985020830005,475.43974137499936,476.0995046250009,470.21586066599957,1,0,1.7029112079999322,reldom2_s002,001,2025-01-23_14h50.45.044,Aud-A-Scan_AC,2022.2.5,None,
39,First_Order,7.0,audwhat,stimulus/audwhat_stim/dummy.wav,stimulus/audwhat_stim/dummy.wav,stimulus/audwhat_stim/percussion xylophone_high-pitch_Dtri_loud.wav,stimulus/audwhat_stim/string cello_high-pitch_Dtri_loud.wav,stimulus/audwhat_stim/blank_white.png,stimulus/audwhat_stim/pitch_box.png,stimulus/audwhat_stim/pitch_yes.png,stimulus/audwhat_stim/pitch_no.png,None,Pitch,None,Pitch,1,0.0,0,5.125,0,5.125,0,5.125,0,0.0,0.625,0,0,0,0,0,0,0,0,0,0.0,0,0.0,1,0.5,1,2.125,0,,,,,0,51,51,51,,,,,,,,,476.3148951250005,476.3148951250005,476.3148951250005,476.3148951250005,476.3148951250005,476.3148951250005,476.3148951250005,476.3148951250005,476.23283795833424,476.3148951250005,476.3148951250005,476.3148951250005,476.23283795833424,476.3148951250005,476.3148951250005,476.3148951250005,478.42686974999924,,476.3148951250005,476.3148951250005,481.4673182080005,476.3148951250005,476.3148951250005,476.3148951250005,476.3148951250005,476.7824317079994,477.81838270799926,476.7524570416665,477.81838270799926,478.42686974999924,479.4597087500006,478.39660541666694,,476.3148951250005,481.4673182080005,476.3148951250005,481.4673182080005,481.50867525000103,482.1653149579997,476.3148951250005,2,0,1.1960843339984422,reldom2_s002,001,2025-01-23_14h50.45.044,Aud-A-Scan_AC,2022.2.5,None,
40,First_Order,7.0,audwhat,stimulus/audwhat_stim/dummy.wav,stimulus/audwhat_stim/dummy.wav,stimulus/audwhat_stim/string cello_low-pitch_D_loud.wav,stimulus/audwhat_stim/percussion mallet_low-pitch_D_loud.wav,stimulus/audwhat_stim/blank_white.png,stimulus/audwhat_stim/pitch_box.png,stimulus/audwhat_stim/pitch_yes.png,stimulus/audwhat_stim/pitch_no.png,None,Pitch,None,Pitch,1,0.0,0,5.125,0,5.125,0,5.125,0,0.0,0.625,0,0,0,0,0,0,0,0,0,0.0,0,0.0,1,0.5,1,2.125,0,,,,,0,52,52,52,,,,,,,,,482.42147195799953,482.42147195799953,482.42147195799953,482.42147195799953,482.42147195799953,482.42147195799953,482.42147195799953,482.42147195799953,482.3401106663333,482.42147195799953,482.42147195799953,482.42147195799953,482.3401106663333,482.42147195799953,482.42147195799953,482.42147195799953,484.5268291249995,,482.42147195799953,482.42147195799953,487.5741892500009,482.42147195799953,482.42147195799953,482.42147195799953,482.42147195799953,482.8889745409997,483.9207457909997,482.85838266666747,,484.5268291249995,485.56298729099944,484.49629208266765,,482.42147195799953,487.5741892500009,482.42147195799953,487.5741892500009,487.61537495800076,488.27338479100035,482.42147195799953,1,1,0.7118475419993047,reldom2_s002,001,2025-01-23_14h50.45.044,Aud-A-Scan_AC,2022.2.5,None,
0,0.0,None,fixation,stimulus/audwhere_stim/blank_white.png,stimulus/audwhere_stim/blank_white.png,stimulus/audwhat_stim/blank_white.png,stimulus/audwhat_stim/blank_white.png,stimulus/audwhere_stim/blank_white.png,stimulus/audwhere_stim/blank_white.png,stimulus/audwhere_stim/blank_white.png,stimulus/audwhere_stim/blank_white.png,0.0,0.0,0.0,0.0,0,0.0,0,0.0,0,0.0,0,0.0,0,0.0,0.0,0,0,0,0,0,0,0,0,0,0.0,0,0.0,0,0.0,0,0.0,10,,,,,0,53,53,53,,,,,,,,,488.55007345800004,488.55007345800004,488.55007345800004,488.55007345800004,488.55007345800004,488.55007345800004,488.55007345800004,488.55007345800004,488.44775116633366,488.55007345800004,488.55007345800004,488.55007345800004,488.44775116633366,488.55007345800004,488.55007345800004,488.55007345800004,488.55007345800004,488.55007345800004,488.55007345800004,488.55007345800004,488.55007345800004,488.55007345800004,488.55007345800004,488.55007345800004,488.55007345800004,488.55007345800004,488.55007345800004,488.49775116633367,488.55007345800004,488.55007345800004,488.55007345800004,488.49775116633367,488.55007345800004,488.55007345800004,488.55007345800004,488.55007345800004,488.55007345800004,493.7400295000007,493.7400295000007,498.6849415830002,None,0,,reldom2_s002,001,2025-01-23_14h50.45.044,Aud-A-Scan_AC,2022.2.5,None,
41,Second_Order,7.0,audwhat,stimulus/audwhat_stim/percussion xylophone_high-pitch_Ftri_loud.wav,stimulus/audwhat_stim/percussion mallet_low-pitch_Dtri_loud.wav,stimulus/audwhat_stim/string viola_low-pitch_Ftri_loud.wav,stimulus/audwhat_stim/percussion mallet_low-pitch_Ftri_loud.wav,stimulus/audwhere_stim/match_blank.png,stimulus/audwhat_stim/match_box.png,stimulus/audwhere_stim/match_yes.png,stimulus/audwhere_stim/match_no.png,2.0,Match,Category,Pitch,2,5.125,0,5.125,0,5.125,0,5.125,0,0.75,0.75,0,0,0,0,0,0,0,0,1,0.5,1,2.125,1,0.5,1,2.125,0,,,,,0,54,54,54,,,,,,,,,498.6849415830002,503.8057896659993,498.6849415830002,498.6849415830002,498.6849415830002,498.6849415830002,499.13547808300063,500.1382271250004,499.145461166667,500.1382271250004,500.7657165410001,501.75464383300096,500.7695321666672,501.7676799580004,503.8057896659993,504.6399522499996,506.7340945830001,,504.6399522499996,504.6399522499996,509.81688587499957,504.6399522499996,504.6399522499996,504.6399522499996,504.6399522499996,505.1046406660007,506.17491416600024,505.0744448746666,,506.7340945830001,507.808235333001,506.70424783266594,,504.6399522499996,509.81688587499957,504.6399522499996,509.81688587499957,509.81688587499957,,504.6399522499996,2,1,1.417492708998907,reldom2_s002,001,2025-01-23_14h50.45.044,Aud-A-Scan_AC,2022.2.5,None,
42,Second_Order,7.0,audwhat,stimulus/audwhat_stim/string cello_high-pitch_Dtri_loud.wav,stimulus/audwhat_stim/percussion mallet_high-pitch_Dtri_loud.wav,stimulus/audwhat_stim/percussion mallet_low-pitch_D_loud.wav,stimulus/audwhat_stim/string cello_low-pitch_D_loud.wav,stimulus/audwhere_stim/match_blank.png,stimulus/audwhat_stim/match_box.png,stimulus/audwhere_stim/match_yes.png,stimulus/audwhere_stim/match_no.png,1.0,Match,Pitch,Pitch,1,5.125,0,5.125,0,5.125,0,5.125,0,0.625,0.625,0,0,0,0,0,0,0,0,1,0.5,1,2.125,1,0.5,1,2.125,0,,,,,0,55,55,55,,,,,,,,,510.6334443750002,515.7545169580007,510.6334443750002,510.6334443750002,510.6334443750002,510.6334443750002,511.0892072080005,512.0787444159996,511.0925640416665,,512.7144124580009,513.7121352499998,512.7261506246671,513.7200136249994,515.7545169580007,516.4670525410002,518.5535157079994,522.5966160410007,516.4670525410002,516.4670525410002,521.625388333001,516.4670525410002,516.4670525410002,516.4670525410002,516.4670525410002,516.9290839160003,517.9958127909995,516.8990628746672,,518.5535157079994,519.6269882910001,518.5241422916663,,516.4670525410002,521.625388333001,516.4670525410002,521.625388333001,521.6663012080007,522.3201184160007,516.4670525410002,1,1,0.9678639579997252,reldom2_s002,001,2025-01-23_14h50.45.044,Aud-A-Scan_AC,2022.2.5,None,
0,0.0,None,fixation,stimulus/audwhere_stim/blank_white.png,stimulus/audwhere_stim/blank_white.png,stimulus/audwhat_stim/blank_white.png,stimulus/audwhat_stim/blank_white.png,stimulus/audwhere_stim/blank_white.png,stimulus/audwhere_stim/blank_white.png,stimulus/audwhere_stim/blank_white.png,stimulus/audwhere_stim/blank_white.png,0.0,0.0,0.0,0.0,0,0.0,0,0.0,0,0.0,0,0.0,0,0.0,0.0,0,0,0,0,0,0,0,0,0,0.0,0,0.0,0,0.0,0,0.0,9,,,,,0,56,56,56,,,,,,,,,522.5966160410007,522.5966160410007,522.5966160410007,522.5966160410007,522.5966160410007,522.5966160410007,522.5966160410007,522.5966160410007,522.4939368743327,522.5966160410007,522.5966160410007,522.5966160410007,522.4939368743327,522.5966160410007,522.5966160410007,522.5966160410007,522.5966160410007,522.5966160410007,522.5966160410007,522.5966160410007,522.5966160410007,522.5966160410007,522.5966160410007,522.5966160410007,522.5966160410007,522.5966160410007,522.5966160410007,522.5439368743326,522.5966160410007,522.5966160410007,522.5966160410007,522.5439368743326,522.5966160410007,522.5966160410007,522.5966160410007,522.5966160410007,522.5966160410007,527.7923217499992,527.7923217499992,531.8406494999999,None,0,,reldom2_s002,001,2025-01-23_14h50.45.044,Aud-A-Scan_AC,2022.2.5,None,
43,First_Order,8.0,audwhat,stimulus/audwhat_stim/dummy.wav,stimulus/audwhat_stim/dummy.wav,stimulus/audwhat_stim/string viola_low-pitch_F_loud.wav,stimulus/audwhat_stim/percussion mallet_low-pitch_F_loud.wav,stimulus/audwhat_stim/blank_white.png,stimulus/audwhat_stim/category_box.png,stimulus/audwhat_stim/category_yes.png,stimulus/audwhat_stim/category_no.png,None,Category,None,Pitch,2,0.0,0,5.125,0,5.125,0,5.125,0,0.0,0.625,0,0,0,0,0,0,0,0,0,0.0,0,0.0,1,0.5,1,2.125,0,,,,,0,57,57,57,,,,,,,,,531.8406494999999,531.8406494999999,531.8406494999999,531.8406494999999,531.8406494999999,531.8406494999999,531.8406494999999,531.8406494999999,531.7666289996674,531.8406494999999,531.8406494999999,531.8406494999999,531.7666289996674,531.8406494999999,531.8406494999999,531.8406494999999,533.9505108329995,537.9645771249998,531.8406494999999,531.8406494999999,537.0009882079994,531.8406494999999,531.8406494999999,531.8406494999999,531.8406494999999,532.3095449579996,533.3409952080001,532.279088624666,,533.9505108329995,534.9824770409996,533.9198571246673,,531.8406494999999,537.0009882079994,531.8406494999999,537.0009882079994,537.0423117499995,537.7045995000008,531.8406494999999,2,1,1.2725442079990898,reldom2_s002,001,2025-01-23_14h50.45.044,Aud-A-Scan_AC,2022.2.5,None,
44,First_Order,8.0,audwhat,stimulus/audwhat_stim/dummy.wav,stimulus/audwhat_stim/dummy.wav,stimulus/audwhat_stim/percussion mallet_low-pitch_Dtri_loud.wav,stimulus/audwhat_stim/percussion xylophone_high-pitch_F_loud.wav,stimulus/audwhat_stim/blank_white.png,stimulus/audwhat_stim/category_box.png,stimulus/audwhat_stim/category_yes.png,stimulus/audwhat_stim/category_no.png,None,Category,None,Category,1,0.0,0,5.125,0,5.125,0,5.125,0,0.0,0.625,0,0,0,0,0,0,0,0,0,0.0,0,0.0,1,0.5,1,2.125,0,,,,,0,58,58,58,,,,,,,,,537.9645771249998,537.9645771249998,537.9645771249998,537.9645771249998,537.9645771249998,537.9645771249998,537.9645771249998,537.9645771249998,537.879111749333,537.9645771249998,537.9645771249998,537.9645771249998,537.879111749333,537.9645771249998,537.9645771249998,537.9645771249998,540.079105750001,544.0993722910007,537.9645771249998,537.9645771249998,543.137034708001,537.9645771249998,537.9645771249998,537.9645771249998,537.9645771249998,538.4357266660008,539.4693155000004,538.4047911246673,,540.079105750001,541.117531666001,540.047922791666,541.117531666001,537.9645771249998,543.137034708001,537.9645771249998,543.137034708001,543.1792994160005,543.8390805409999,537.9645771249998,1,1,1.1458129579987144,reldom2_s002,001,2025-01-23_14h50.45.044,Aud-A-Scan_AC,2022.2.5,None,
45,First_Order,8.0,audwhat,stimulus/audwhat_stim/dummy.wav,stimulus/audwhat_stim/dummy.wav,stimulus/audwhat_stim/string cello_high-pitch_Dtri_loud.wav,stimulus/audwhat_stim/percussion xylophone_high-pitch_Dtri_loud.wav,stimulus/audwhat_stim/blank_white.png,stimulus/audwhat_stim/category_box.png,stimulus/audwhat_stim/category_yes.png,stimulus/audwhat_stim/category_no.png,None,Category,None,Pitch,2,0.0,0,5.125,0,5.125,0,5.125,0,0.0,0.625,0,0,0,0,0,0,0,0,0,0.0,0,0.0,1,0.5,1,2.125,0,,,,,0,59,59,59,,,,,,,,,544.0993722910007,544.0993722910007,544.0993722910007,544.0993722910007,544.0993722910007,544.0993722910007,544.0993722910007,544.0993722910007,544.0133152913332,544.0993722910007,544.0993722910007,544.0993722910007,544.0133152913332,544.0993722910007,544.0993722910007,544.0993722910007,546.1707381659999,,544.0993722910007,544.0993722910007,549.2810906659997,544.0993722910007,544.0993722910007,544.0993722910007,544.0993722910007,544.5690843749999,545.6067545000005,544.5387463746667,,546.1707381659999,547.210674291,546.1399269996675,547.210674291,544.0993722910007,549.2810906659997,544.0993722910007,549.2810906659997,549.3222880829999,549.9835102910001,544.0993722910007,2,1,1.5911527919979562,reldom2_s002,001,2025-01-23_14h50.45.044,Aud-A-Scan_AC,2022.2.5,None,
46,First_Order,8.0,audwhat,stimulus/audwhat_stim/dummy.wav,stimulus/audwhat_stim/dummy.wav,stimulus/audwhat_stim/percussion mallet_low-pitch_Ftri_loud.wav,stimulus/audwhat_stim/percussion mallet_high-pitch_F_loud.wav,stimulus/audwhat_stim/blank_white.png,stimulus/audwhat_stim/category_box.png,stimulus/audwhat_stim/category_yes.png,stimulus/audwhat_stim/category_no.png,None,Category,None,Category,1,0.0,0,5.125,0,5.125,0,5.125,0,0.0,0.625,0,0,0,0,0,0,0,0,0,0.0,0,0.0,1,0.5,1,2.125,0,,,,,0,60,60,60,,,,,,,,,550.2036068750003,550.2036068750003,550.2036068750003,550.2036068750003,550.2036068750003,550.2036068750003,550.2036068750003,550.2036068750003,550.1168436243335,550.2036068750003,550.2036068750003,550.2036068750003,550.1168436243335,550.2036068750003,550.2036068750003,550.2036068750003,552.2766379160003,,550.2036068750003,550.2036068750003,555.3852734579996,550.2036068750003,550.2036068750003,550.2036068750003,550.2036068750003,550.6751282500009,551.7121381249999,550.6444250826664,,552.2766379160003,553.3179946660002,552.2467260416672,,550.2036068750003,555.3852734579996,550.2036068750003,555.3852734579996,555.4268736249996,556.0901967909995,550.2036068750003,1,1,0.8831047079984273,reldom2_s002,001,2025-01-23_14h50.45.044,Aud-A-Scan_AC,2022.2.5,None,
0,0.0,None,fixation,stimulus/audwhere_stim/blank_white.png,stimulus/audwhere_stim/blank_white.png,stimulus/audwhat_stim/blank_white.png,stimulus/audwhat_stim/blank_white.png,stimulus/audwhere_stim/blank_white.png,stimulus/audwhere_stim/blank_white.png,stimulus/audwhere_stim/blank_white.png,stimulus/audwhere_stim/blank_white.png,0.0,0.0,0.0,0.0,0,0.0,0,0.0,0,0.0,0,0.0,0,0.0,0.0,0,0,0,0,0,0,0,0,0,0.0,0,0.0,0,0.0,0,0.0,8,,,,,0,61,61,61,,,,,,,,,556.3277012079998,556.3277012079998,556.3277012079998,556.3277012079998,556.3277012079998,556.3277012079998,556.3277012079998,556.3277012079998,556.2235301243328,556.3277012079998,556.3277012079998,556.3277012079998,556.2235301243328,556.3277012079998,556.3277012079998,556.3277012079998,556.3277012079998,556.3277012079998,556.3277012079998,556.3277012079998,556.3277012079998,556.3277012079998,556.3277012079998,556.3277012079998,556.3277012079998,556.3277012079998,556.3277012079998,556.2735301243328,556.3277012079998,556.3277012079998,556.3277012079998,556.2735301243328,556.3277012079998,556.3277012079998,556.3277012079998,556.3277012079998,556.3277012079998,561.5277554999993,561.5277554999993,564.485744208001,None,0,,reldom2_s002,001,2025-01-23_14h50.45.044,Aud-A-Scan_AC,2022.2.5,None,
47,Second_Order,8.0,audwhat,stimulus/audwhat_stim/string cello_high-pitch_F_loud.wav,stimulus/audwhat_stim/string viola_low-pitch_D_loud.wav,stimulus/audwhat_stim/percussion mallet_low-pitch_Ftri_loud.wav,stimulus/audwhat_stim/percussion xylophone_high-pitch_F_loud.wav,stimulus/audwhere_stim/match_blank.png,stimulus/audwhat_stim/match_box.png,stimulus/audwhere_stim/match_yes.png,stimulus/audwhere_stim/match_no.png,1.0,Match,Category,Category,1,5.125,0,5.125,0,5.125,0,5.125,0,0.75,0.75,0,0,0,0,0,0,0,0,1,0.5,1,2.125,1,0.5,1,2.125,0,,,,,0,62,62,62,,,,,,,,,564.485744208001,569.6081169160007,564.485744208001,564.485744208001,564.485744208001,564.485744208001,564.934053125,565.932568708,564.946639541666,,566.5672724579999,567.5562234579993,566.5714384576661,,569.6081169160007,570.4413968330009,572.5403259159993,,570.4413968330009,570.4413968330009,575.6232346249999,570.4413968330009,570.4413968330009,570.4413968330009,570.4413968330009,570.9062914580009,571.980400208,570.8759567916661,,572.5403259159993,573.6192873330001,572.5100858326662,573.5730290409992,570.4413968330009,575.6232346249999,570.4413968330009,575.6232346249999,575.6232346249999,,570.4413968330009,1,1,2.616358916999161,reldom2_s002,001,2025-01-23_14h50.45.044,Aud-A-Scan_AC,2022.2.5,None,
48,Second_Order,8.0,audwhat,stimulus/audwhat_stim/percussion mallet_high-pitch_Ftri_loud.wav,stimulus/audwhat_stim/percussion mallet_low-pitch_D_loud.wav,stimulus/audwhat_stim/string cello_high-pitch_Ftri_loud.wav,stimulus/audwhat_stim/percussion xylophone_high-pitch_Ftri_loud.wav,stimulus/audwhere_stim/match_blank.png,stimulus/audwhat_stim/match_box.png,stimulus/audwhere_stim/match_yes.png,stimulus/audwhere_stim/match_no.png,2.0,Match,Category,Pitch,2,5.125,0,5.125,0,5.125,0,5.125,0,0.625,0.625,0,0,0,0,0,0,0,0,1,0.5,1,2.125,1,0.5,1,2.125,0,,,,,0,63,63,63,,,,,,,,,576.4429892080007,581.5559549999998,576.4429892080007,576.4429892080007,576.4429892080007,576.4429892080007,576.8953609580003,577.8932940409995,576.9078634166674,577.9013139580002,578.5163024579997,579.5137492909998,578.5284114996668,579.5213753330008,581.5559549999998,582.2628694579998,584.3530664579994,588.3989982500007,582.2628694579998,582.2628694579998,587.4240476249997,582.2628694579998,582.2628694579998,582.2628694579998,582.2628694579998,582.7256614580001,583.7961730829993,582.6957594576672,,584.3530664579994,585.4267386659994,584.3230468746663,585.3796416250007,582.2628694579998,587.4240476249997,582.2628694579998,587.4240476249997,587.4652370830008,588.1211372079997,582.2628694579998,2,1,0.7582674169989332,reldom2_s002,001,2025-01-23_14h50.45.044,Aud-A-Scan_AC,2022.2.5,None,
0,0.0,None,fixation,stimulus/audwhere_stim/blank_white.png,stimulus/audwhere_stim/blank_white.png,stimulus/audwhat_stim/blank_white.png,stimulus/audwhat_stim/blank_white.png,stimulus/audwhere_stim/blank_white.png,stimulus/audwhere_stim/blank_white.png,stimulus/audwhere_stim/blank_white.png,stimulus/audwhere_stim/blank_white.png,0.0,0.0,0.0,0.0,0,0.0,0,0.0,0,0.0,0,0.0,0,0.0,0.0,0,0,0,0,0,0,0,0,0,0.0,0,0.0,0,0.0,0,0.0,16,,,,,0,64,64,64,,,,,,,,,588.3989982500007,588.3989982500007,588.3989982500007,588.3989982500007,588.3989982500007,588.3989982500007,588.3989982500007,588.3989982500007,588.2951327493339,588.3989982500007,588.3989982500007,588.3989982500007,588.2951327493339,588.3989982500007,588.3989982500007,588.3989982500007,588.3989982500007,588.3989982500007,588.3989982500007,588.3989982500007,588.3989982500007,588.3989982500007,588.3989982500007,588.3989982500007,588.3989982500007,588.3989982500007,588.3989982500007,588.3451327493339,588.3989982500007,588.3989982500007,588.3989982500007,588.3451327493339,588.3989982500007,588.3989982500007,588.3989982500007,588.3989982500007,588.3989982500007,593.6023870829995,593.6023870829995,604.5499023329994,None,0,,reldom2_s002,001,2025-01-23_14h50.45.044,Aud-A-Scan_AC,2022.2.5,None,
