Trial,Order,Block,Type,Stimuli_File1,Stimuli_File2,Stimuli_File3,Stimuli_File4,Cue_File1,Cue_File2,Response_File_Yes,Response_File_No,Match,Cue_Dimension,Pair1_Dimension,Pair2_Dimension,Key,Cue1_Duration,Cue1_Onset,Cue2_Duration,Cue2_Onset,ResponseYes_Duration,ResponseYes_Onset,ResponseNo_Duration,ResponseNo_Onset,ITI_Within,ITI_Between,Image1_Duration,Image1_Onset,Image2_Duration,Image2_Onset,Image3_Duration,Image3_Onset,Image4_Duration,Image4_Onset,Sound1_Duration,Sound1_Onset,Sound2_Duration,Sound2_Onset,Sound3_Duration,Sound3_Onset,Sound4_Duration,Sound4_Onset,Fixation_Duration,trials_2.thisRepN,trials_2.thisTrialN,trials_2.thisN,trials_2.thisIndex,trials.thisRepN,trials.thisTrialN,trials.thisN,trials.thisIndex,text_start.started,key_resp_start.started,key_resp_start.keys,key_resp_start.rt,text2.started,key_resp_2.started,key_resp_2.keys,key_resp_2.rt,cue_file1.started,cue_file1.stopped,image_1.started,image_1.stopped,image_2.started,image_2.stopped,sound_icon1.started,sound_icon1.stopped,sound_1.started,sound_1.stopped,sound_icon2.started,sound_icon2.stopped,sound_2.started,sound_2.stopped,image_blank_1.started,image_blank_1.stopped,key_press.started,key_press.stopped,fixation_text.started,cue_file2.started,cue_file2.stopped,image_3.started,image_3.stopped,image_4.started,image_4.stopped,sound_icon3.started,sound_icon3.stopped,sound_3.started,sound_3.stopped,sound_icon4.started,sound_icon4.stopped,sound_4.started,sound_4.stopped,response_yes.started,response_yes.stopped,response_no.started,response_no.stopped,iti_blank.started,iti_blank.stopped,fixation_text.stopped,key_press.keys,key_press.corr,key_press.rt,participant,session,date,expName,psychopyVersion,frameRate,
,,,,,,,,,,,,,,,,,,,,,,,,,,,,,,,,,,,,,,,,,,,,,,,,,,,,11.271441042000333,11.271441042000333,2,1.4811930830001074,,,,,,,,,,,,,,,,,,,,,,,,,,,,,,,,,,,,,,,,,,,,,,,,reldom2_s004,001,2025-01-23_12h26.22.327,Vis-A-Scan_AC,2022.2.5,None,
,,,,,,,,,,,,,,,,,,,,,,,,,,,,,,,,,,,,,,,,,,,,0,0,0,0,,,,,,,,,12.772686082999826,12.772686082999826,5,19.413968124999883,,,,,,,,,,,,,,,,,,,,,,,,,,,,,,,,,,,,,,,,,,,,reldom2_s004,001,2025-01-23_12h26.22.327,Vis-A-Scan_AC,2022.2.5,None,
,,,,,,,,,,,,,,,,,,,,,,,,,,,,,,,,,,,,,,,,,,,,1,0,1,0,,,,,,,,,32.19941245799964,32.19941245799964,5,1.9863725000004706,,,,,,,,,,,,,,,,,,,,,,,,,,,,,,,,,,,,,,,,,,,,reldom2_s004,001,2025-01-23_12h26.22.327,Vis-A-Scan_AC,2022.2.5,None,
,,,,,,,,,,,,,,,,,,,,,,,,,,,,,,,,,,,,,,,,,,,,2,0,2,0,,,,,,,,,34.206862750000255,34.206862750000255,5,1.981420624000748,,,,,,,,,,,,,,,,,,,,,,,,,,,,,,,,,,,,,,,,,,,,reldom2_s004,001,2025-01-23_12h26.22.327,Vis-A-Scan_AC,2022.2.5,None,
,,,,,,,,,,,,,,,,,,,,,,,,,,,,,,,,,,,,,,,,,,,,3,0,3,0,,,,,,,,,36.20148862499991,36.20148862499991,5,1.9850184580009227,,,,,,,,,,,,,,,,,,,,,,,,,,,,,,,,,,,,,,,,,,,,reldom2_s004,001,2025-01-23_12h26.22.327,Vis-A-Scan_AC,2022.2.5,None,
0,0.0,None,fixation,stimulus/viswhat_stim/blank_white.png,stimulus/viswhat_stim/blank_white.png,stimulus/viswhere_stim/blank_white.png,stimulus/viswhere_stim/blank_white.png,stimulus/viswhat_stim/blank_white.png,stimulus/viswhat_stim/blank_white.png,stimulus/viswhat_stim/blank_white.png,stimulus/viswhat_stim/blank_white.png,0.0,0.0,0.0,0.0,0,0.0,0,0.0,0,0.0,0,0.0,0,0.0,0.0,0,0.0,0,0.0,0,0.0,0,0.0,0,0,0,0,0,0,0,0,16,,,,,0,0,0,0,,,,,,,,,38.38487929199982,38.38487929199982,38.38487929199982,38.38487929199982,38.38487929199982,38.38487929199982,38.38487929199982,38.38487929199982,38.2896144579996,38.38487929199982,38.38487929199982,38.38487929199982,38.2896144579996,38.38487929199982,38.38487929199982,38.38487929199982,38.38487929199982,38.38487929199982,38.38487929199982,38.38487929199982,38.38487929199982,38.38487929199982,38.38487929199982,38.38487929199982,38.38487929199982,38.38487929199982,38.38487929199982,38.339614457999595,38.38487929199982,38.38487929199982,38.38487929199982,38.339614457999595,38.38487929199982,38.38487929199982,38.38487929199982,38.38487929199982,38.38487929199982,43.59879570799967,43.59879570799967,54.63532537500032,None,0,,reldom2_s004,001,2025-01-23_12h26.22.327,Vis-A-Scan_AC,2022.2.5,None,
1,First_Order,1.0,viswhat,stimulus/viswhat_stim/blank_white.png,stimulus/viswhat_stim/blank_white.png,stimulus/viswhat_stim/land_animal-moose.png,stimulus/viswhat_stim/water_animal-seaturtle.png,stimulus/viswhat_stim/blank_white.png,stimulus/viswhat_stim/type_box.png,stimulus/viswhat_stim/type_yes.png,stimulus/viswhat_stim/type_no.png,None,Type,None,Type,1,0.0,0,5.125,0,5.125,0,5.125,0,0.0,0.625,0,0.0,0,0.0,1,0.5,1,2.125,0,0,0,0,0,0,0,0,0,,,,,0,1,1,1,,,,,,,,,54.63532537500032,54.63532537500032,54.63532537500032,54.63532537500032,54.63532537500032,54.63532537500032,54.63532537500032,54.63532537500032,54.53236691699967,54.63532537500032,54.63532537500032,54.63532537500032,54.53236691699967,54.63532537500032,54.63532537500032,54.63532537500032,56.732538833000035,,54.63532537500032,54.63532537500032,59.83401083300032,55.10114358299961,56.14958083300007,56.732538833000035,57.78855924999971,54.63532537500032,54.63532537500032,54.58236691699967,54.63532537500032,54.63532537500032,54.63532537500032,54.58236691699967,54.63532537500032,54.63532537500032,59.83401083300032,54.63532537500032,59.83401083300032,59.83401083300032,60.670465917,54.63532537500032,1,1,0.7602970410007401,reldom2_s004,001,2025-01-23_12h26.22.327,Vis-A-Scan_AC,2022.2.5,None,
2,First_Order,1.0,viswhat,stimulus/viswhat_stim/blank_white.png,stimulus/viswhat_stim/blank_white.png,stimulus/viswhat_stim/water_vehicle-submarine.png,stimulus/viswhat_stim/land_vehicle-firetruck.png,stimulus/viswhat_stim/blank_white.png,stimulus/viswhat_stim/type_box.png,stimulus/viswhat_stim/type_yes.png,stimulus/viswhat_stim/type_no.png,None,Type,None,Type,1,0.0,0,5.125,0,5.125,0,5.125,0,0.0,0.625,0,0.0,0,0.0,1,0.5,1,2.125,0,0,0,0,0,0,0,0,0,,,,,0,2,2,2,,,,,,,,,60.670465917,60.670465917,60.670465917,60.670465917,60.670465917,60.670465917,60.670465917,60.670465917,60.638472374666584,60.670465917,60.670465917,60.670465917,60.638472374666584,60.670465917,60.670465917,60.670465917,62.7588802500004,66.77648412500002,60.670465917,60.670465917,65.81077158300013,61.15916358300001,62.190890333000425,62.7588802500004,63.770683499999905,60.670465917,60.670465917,60.65513904133325,60.670465917,60.670465917,60.670465917,60.65513904133325,60.670465917,60.670465917,65.81077158300013,60.670465917,65.81077158300013,65.89162433300044,66.52152550000028,60.670465917,1,1,0.740633541000534,reldom2_s004,001,2025-01-23_12h26.22.327,Vis-A-Scan_AC,2022.2.5,None,
3,First_Order,1.0,viswhat,stimulus/viswhat_stim/blank_white.png,stimulus/viswhat_stim/blank_white.png,stimulus/viswhat_stim/water_vehicle-kayak.png,stimulus/viswhat_stim/land_vehicle-vespa.png,stimulus/viswhat_stim/blank_white.png,stimulus/viswhat_stim/location_box.png,stimulus/viswhat_stim/location_yes.png,stimulus/viswhat_stim/location_no.png,None,Location,None,Type,2,0.0,0,5.125,0,5.125,0,5.125,0,0.0,0.625,0,0.0,0,0.0,1,0.5,1,2.125,0,0,0,0,0,0,0,0,0,,,,,0,3,3,3,,,,,,,,,66.77648412500002,66.77648412500002,66.77648412500002,66.77648412500002,66.77648412500002,66.77648412500002,66.77648412500002,66.77648412500002,66.722556583,66.77648412500002,66.77648412500002,66.77648412500002,66.722556583,66.77648412500002,66.77648412500002,66.77648412500002,68.8755229999997,,66.77648412500002,66.77648412500002,71.93874637499994,67.25395649999973,68.2871713329996,68.8755229999997,69.91320883299977,66.77648412500002,66.77648412500002,66.73922324966667,66.77648412500002,66.77648412500002,66.77648412500002,66.73922324966667,66.77648412500002,66.77648412500002,71.93874637499994,66.77648412500002,71.93874637499994,72.00164558300003,72.6571528329996,66.77648412500002,2,1,0.642390833000718,reldom2_s004,001,2025-01-23_12h26.22.327,Vis-A-Scan_AC,2022.2.5,None,
4,First_Order,1.0,viswhat,stimulus/viswhat_stim/blank_white.png,stimulus/viswhat_stim/blank_white.png,stimulus/viswhat_stim/water_vehicle-pirateship.png,stimulus/viswhat_stim/land_vehicle-buldozer.png,stimulus/viswhat_stim/blank_white.png,stimulus/viswhat_stim/location_box.png,stimulus/viswhat_stim/location_yes.png,stimulus/viswhat_stim/location_no.png,None,Location,None,Type,2,0.0,0,5.125,0,5.125,0,5.125,0,0.0,0.625,0,0.0,0,0.0,1,0.5,1,2.125,0,0,0,0,0,0,0,0,0,,,,,0,4,4,4,,,,,,,,,72.85804174999976,72.85804174999976,72.85804174999976,72.85804174999976,72.85804174999976,72.85804174999976,72.85804174999976,72.85804174999976,72.80480929166684,72.85804174999976,72.85804174999976,72.85804174999976,72.80480929166684,72.85804174999976,72.85804174999976,72.85804174999976,74.96467004199985,79.00304700000015,72.85804174999976,72.85804174999976,78.01173412499975,73.34015758300029,74.3794117919997,74.96467004199985,76.00671254200006,72.85804174999976,72.85804174999976,72.83814262500019,72.85804174999976,72.85804174999976,72.85804174999976,72.83814262500019,72.85804174999976,72.85804174999976,78.01173412499975,72.85804174999976,78.01173412499975,78.06941900000038,78.70637516700026,72.85804174999976,2,1,0.6317272490005053,reldom2_s004,001,2025-01-23_12h26.22.327,Vis-A-Scan_AC,2022.2.5,None,
0,0.0,None,fixation,stimulus/viswhat_stim/blank_white.png,stimulus/viswhat_stim/blank_white.png,stimulus/viswhere_stim/blank_white.png,stimulus/viswhere_stim/blank_white.png,stimulus/viswhat_stim/blank_white.png,stimulus/viswhat_stim/blank_white.png,stimulus/viswhat_stim/blank_white.png,stimulus/viswhat_stim/blank_white.png,0.0,0.0,0.0,0.0,0,0.0,0,0.0,0,0.0,0,0.0,0,0.0,0.0,0,0.0,0,0.0,0,0.0,0,0.0,0,0,0,0,0,0,0,0,9,,,,,0,5,5,5,,,,,,,,,79.00304700000015,79.00304700000015,79.00304700000015,79.00304700000015,79.00304700000015,79.00304700000015,79.00304700000015,79.00304700000015,78.90899699966654,79.00304700000015,79.00304700000015,79.00304700000015,78.90899699966654,79.00304700000015,79.00304700000015,79.00304700000015,79.00304700000015,79.00304700000015,79.00304700000015,79.00304700000015,79.00304700000015,79.00304700000015,79.00304700000015,79.00304700000015,79.00304700000015,79.00304700000015,79.00304700000015,78.95899699966655,79.00304700000015,79.00304700000015,79.00304700000015,78.95899699966655,79.00304700000015,79.00304700000015,79.00304700000015,79.00304700000015,79.00304700000015,84.20791325000027,84.20791325000027,88.16058433299986,None,0,,reldom2_s004,001,2025-01-23_12h26.22.327,Vis-A-Scan_AC,2022.2.5,None,
5,Second_Order,1.0,viswhat,stimulus/viswhat_stim/water_vehicle-cruiser.png,stimulus/viswhat_stim/land_vehicle-pickuptruck.png,stimulus/viswhat_stim/land_animal-snake.png,stimulus/viswhat_stim/land_vehicle-trolley.png,stimulus/viswhat_stim/match_blank.png,stimulus/viswhat_stim/match_box.png,stimulus/viswhat_stim/match_yes.png,stimulus/viswhat_stim/match_no.png,2.0,Match,Type,Location,2,5.125,0,5.125,0,5.125,0,5.125,0,0.75,0.75,1,0.5,1,2.125,1,0.5,1,2.125,0,0,0,0,0,0,0,0,0,,,,,0,6,6,6,,,,,,,,,88.16058433299986,93.28338245800023,88.58913124999981,89.5781079999997,90.21404995800003,91.21188966699992,88.16058433299986,88.16058433299986,88.17233458333334,88.16058433299986,88.16058433299986,88.16058433299986,88.17233458333334,88.16058433299986,93.28338245800023,94.0736284579998,96.16140183300013,100.06468833300005,94.0736284579998,94.0736284579998,99.21908024999993,94.53373062500032,95.53928454200013,96.16140183300013,97.17847666699981,94.0736284579998,94.0736284579998,94.05175945833301,94.0736284579998,94.0736284579998,94.0736284579998,94.05175945833301,94.0736284579998,94.0736284579998,99.21908024999993,94.0736284579998,99.21908024999993,99.27125820800029,100.06468833300005,94.0736284579998,2,1,0.6464694580008654,reldom2_s004,001,2025-01-23_12h26.22.327,Vis-A-Scan_AC,2022.2.5,None,
6,Second_Order,1.0,viswhat,stimulus/viswhat_stim/land_vehicle-firetruck.png,stimulus/viswhat_stim/land_animal-dog.png,stimulus/viswhat_stim/water_animal-seaturtle.png,stimulus/viswhat_stim/water_vehicle-sailboat.png,stimulus/viswhat_stim/match_blank.png,stimulus/viswhat_stim/match_box.png,stimulus/viswhat_stim/match_yes.png,stimulus/viswhat_stim/match_no.png,1.0,Match,Location,Location,1,5.125,0,5.125,0,5.125,0,5.125,0,0.625,0.625,1,0.5,1,2.125,1,0.5,1,2.125,0,0,0,0,0,0,0,0,0,,,,,0,7,7,7,,,,,,,,,100.06468833300005,105.18241399999988,100.53728175000015,101.53603033299987,102.15827162499954,103.15654833299959,100.06468833300005,100.06468833300005,100.06471158299955,100.06468833300005,100.06468833300005,100.06468833300005,100.06471158299955,100.06468833300005,105.18241399999988,105.9068668330001,107.98043091700038,,105.9068668330001,105.9068668330001,111.06197237499964,106.3329949580002,107.39695874999961,107.98043091700038,109.04999058300018,105.9068668330001,105.9068668330001,105.86218387466675,105.9068668330001,105.9068668330001,105.9068668330001,105.86218387466675,105.9068668330001,105.9068668330001,111.06197237499964,105.9068668330001,111.06197237499964,111.10978704199988,111.77339424999991,105.9068668330001,1,1,0.6156376240005557,reldom2_s004,001,2025-01-23_12h26.22.327,Vis-A-Scan_AC,2022.2.5,None,
0,0.0,None,fixation,stimulus/viswhat_stim/blank_white.png,stimulus/viswhat_stim/blank_white.png,stimulus/viswhere_stim/blank_white.png,stimulus/viswhere_stim/blank_white.png,stimulus/viswhat_stim/blank_white.png,stimulus/viswhat_stim/blank_white.png,stimulus/viswhat_stim/blank_white.png,stimulus/viswhat_stim/blank_white.png,0.0,0.0,0.0,0.0,0,0.0,0,0.0,0,0.0,0,0.0,0,0.0,0.0,0,0.0,0,0.0,0,0.0,0,0.0,0,0,0,0,0,0,0,0,9,,,,,0,8,8,8,,,,,,,,,112.02735233299973,112.02735233299973,112.02735233299973,112.02735233299973,112.02735233299973,112.02735233299973,112.02735233299973,112.02735233299973,111.92339424999992,112.02735233299973,112.02735233299973,112.02735233299973,111.92339424999992,112.02735233299973,112.02735233299973,112.02735233299973,112.02735233299973,112.02735233299973,112.02735233299973,112.02735233299973,112.02735233299973,112.02735233299973,112.02735233299973,112.02735233299973,112.02735233299973,112.02735233299973,112.02735233299973,111.97339424999991,112.02735233299973,112.02735233299973,112.02735233299973,111.97339424999991,112.02735233299973,112.02735233299973,112.02735233299973,112.02735233299973,112.02735233299973,117.2442070420002,117.2442070420002,121.30084479200013,None,0,,reldom2_s004,001,2025-01-23_12h26.22.327,Vis-A-Scan_AC,2022.2.5,None,
7,First_Order,2.0,viswhat,stimulus/viswhat_stim/blank_white.png,stimulus/viswhat_stim/blank_white.png,stimulus/viswhat_stim/water_vehicle-ship.png,stimulus/viswhat_stim/water_animal-stingray.png,stimulus/viswhat_stim/blank_white.png,stimulus/viswhat_stim/type_box.png,stimulus/viswhat_stim/type_yes.png,stimulus/viswhat_stim/type_no.png,None,Type,None,Location,2,0.0,0,5.125,0,5.125,0,5.125,0,0.0,0.625,0,0.0,0,0.0,1,0.5,1,2.125,0,0,0,0,0,0,0,0,0,,,,,0,9,9,9,,,,,,,,,121.30084479200013,121.30084479200013,121.30084479200013,121.30084479200013,121.30084479200013,121.30084479200013,121.30084479200013,121.30084479200013,121.20256579166623,121.30084479200013,121.30084479200013,121.30084479200013,121.20256579166623,121.30084479200013,121.30084479200013,121.30084479200013,123.37163016700015,,121.30084479200013,121.30084479200013,126.49852791699959,121.7474739170002,122.81307691700022,123.37163016700015,124.43582841700027,121.30084479200013,121.30084479200013,121.25256579166623,121.30084479200013,121.30084479200013,121.30084479200013,121.25256579166623,121.30084479200013,121.30084479200013,126.49852791699959,121.30084479200013,126.49852791699959,126.49852791699959,127.33921474999988,121.30084479200013,2,1,0.6576609160001681,reldom2_s004,001,2025-01-23_12h26.22.327,Vis-A-Scan_AC,2022.2.5,None,
8,First_Order,2.0,viswhat,stimulus/viswhat_stim/blank_white.png,stimulus/viswhat_stim/blank_white.png,stimulus/viswhat_stim/land_vehicle-train.png,stimulus/viswhat_stim/land_animal-fox.png,stimulus/viswhat_stim/blank_white.png,stimulus/viswhat_stim/type_box.png,stimulus/viswhat_stim/type_yes.png,stimulus/viswhat_stim/type_no.png,None,Type,None,Location,2,0.0,0,5.125,0,5.125,0,5.125,0,0.0,0.625,0,0.0,0,0.0,1,0.5,1,2.125,0,0,0,0,0,0,0,0,0,,,,,0,10,10,10,,,,,,,,,127.33921474999988,127.33921474999988,127.33921474999988,127.33921474999988,127.33921474999988,127.33921474999988,127.33921474999988,127.33921474999988,127.30211499999987,127.33921474999988,127.33921474999988,127.33921474999988,127.30211499999987,127.33921474999988,127.33921474999988,127.33921474999988,129.444620708,133.44816150000042,127.33921474999988,127.33921474999988,132.4849569170001,127.82073062499967,128.830447542,129.444620708,130.46108566699968,127.33921474999988,127.33921474999988,127.31878166666654,127.33921474999988,127.33921474999988,127.33921474999988,127.31878166666654,127.33921474999988,127.33921474999988,132.4849569170001,127.33921474999988,132.4849569170001,132.56677916700028,133.19374533300015,127.33921474999988,2,1,0.506107250000241,reldom2_s004,001,2025-01-23_12h26.22.327,Vis-A-Scan_AC,2022.2.5,None,
9,First_Order,2.0,viswhat,stimulus/viswhat_stim/blank_white.png,stimulus/viswhat_stim/blank_white.png,stimulus/viswhat_stim/land_animal-lion.png,stimulus/viswhat_stim/land_vehicle-bus.png,stimulus/viswhat_stim/blank_white.png,stimulus/viswhat_stim/location_box.png,stimulus/viswhat_stim/location_yes.png,stimulus/viswhat_stim/location_no.png,None,Location,None,Location,1,0.0,0,5.125,0,5.125,0,5.125,0,0.0,0.625,0,0.0,0,0.0,1,0.5,1,2.125,0,0,0,0,0,0,0,0,0,,,,,0,11,11,11,,,,,,,,,133.44816150000042,133.44816150000042,133.44816150000042,133.44816150000042,133.44816150000042,133.44816150000042,133.44816150000042,133.44816150000042,133.37764683333293,133.44816150000042,133.44816150000042,133.44816150000042,133.37764683333293,133.44816150000042,133.44816150000042,133.44816150000042,135.54637733300024,,133.44816150000042,133.44816150000042,138.62134499999956,133.91462941699956,134.96485870800007,135.54637733300024,136.60285304199988,133.44816150000042,133.44816150000042,133.41098016666626,133.44816150000042,133.44816150000042,133.44816150000042,133.41098016666626,133.44816150000042,133.44816150000042,138.62134499999956,133.44816150000042,138.62134499999956,138.65462133300025,139.31769333299962,133.44816150000042,1,1,0.5489294990002236,reldom2_s004,001,2025-01-23_12h26.22.327,Vis-A-Scan_AC,2022.2.5,None,
10,First_Order,2.0,viswhat,stimulus/viswhat_stim/blank_white.png,stimulus/viswhat_stim/blank_white.png,stimulus/viswhat_stim/land_animal-elephant.png,stimulus/viswhat_stim/land_vehicle-motorcycle.png,stimulus/viswhat_stim/blank_white.png,stimulus/viswhat_stim/location_box.png,stimulus/viswhat_stim/location_yes.png,stimulus/viswhat_stim/location_no.png,None,Location,None,Location,1,0.0,0,5.125,0,5.125,0,5.125,0,0.0,0.625,0,0.0,0,0.0,1,0.5,1,2.125,0,0,0,0,0,0,0,0,0,,,,,0,12,12,12,,,,,,,,,139.59560166699976,139.59560166699976,139.59560166699976,139.59560166699976,139.59560166699976,139.59560166699976,139.59560166699976,139.59560166699976,139.4672891246663,139.59560166699976,139.59560166699976,139.59560166699976,139.4672891246663,139.59560166699976,139.59560166699976,139.59560166699976,141.70329895800023,145.73841854199964,139.59560166699976,139.59560166699976,144.83368079199954,140.07154699999955,141.15981812500013,141.70329895800023,142.7949029170004,139.59560166699976,139.59560166699976,139.53395579133297,139.59560166699976,139.59560166699976,139.59560166699976,139.53395579133297,139.59560166699976,139.59560166699976,144.83368079199954,139.59560166699976,144.83368079199954,144.77134924999973,145.45602316700024,139.59560166699976,1,1,0.8225985410008434,reldom2_s004,001,2025-01-23_12h26.22.327,Vis-A-Scan_AC,2022.2.5,None,
0,0.0,None,fixation,stimulus/viswhat_stim/blank_white.png,stimulus/viswhat_stim/blank_white.png,stimulus/viswhere_stim/blank_white.png,stimulus/viswhere_stim/blank_white.png,stimulus/viswhat_stim/blank_white.png,stimulus/viswhat_stim/blank_white.png,stimulus/viswhat_stim/blank_white.png,stimulus/viswhat_stim/blank_white.png,0.0,0.0,0.0,0.0,0,0.0,0,0.0,0,0.0,0,0.0,0,0.0,0.0,0,0.0,0,0.0,0,0.0,0,0.0,0,0,0,0,0,0,0,0,10,,,,,0,13,13,13,,,,,,,,,145.73841854199964,145.73841854199964,145.73841854199964,145.73841854199964,145.73841854199964,145.73841854199964,145.73841854199964,145.73841854199964,145.63935650033358,145.73841854199964,145.73841854199964,145.73841854199964,145.63935650033358,145.73841854199964,145.73841854199964,145.73841854199964,145.73841854199964,145.73841854199964,145.73841854199964,145.73841854199964,145.73841854199964,145.73841854199964,145.73841854199964,145.73841854199964,145.73841854199964,145.73841854199964,145.73841854199964,145.6893565003336,145.73841854199964,145.73841854199964,145.73841854199964,145.6893565003336,145.73841854199964,145.73841854199964,145.73841854199964,145.73841854199964,145.73841854199964,150.92722604200026,150.92722604200026,155.88366012499955,None,0,,reldom2_s004,001,2025-01-23_12h26.22.327,Vis-A-Scan_AC,2022.2.5,None,
11,Second_Order,2.0,viswhat,stimulus/viswhat_stim/water_vehicle-cabincruiser.png,stimulus/viswhat_stim/land_vehicle-scooter.png,stimulus/viswhat_stim/land_animal-giraffe.png,stimulus/viswhat_stim/water_animal-squid.png,stimulus/viswhat_stim/match_blank.png,stimulus/viswhat_stim/match_box.png,stimulus/viswhat_stim/match_yes.png,stimulus/viswhat_stim/match_no.png,1.0,Match,Type,Type,1,5.125,0,5.125,0,5.125,0,5.125,0,0.75,0.75,1,0.5,1,2.125,1,0.5,1,2.125,0,0,0,0,0,0,0,0,0,,,,,0,14,14,14,,,,,,,,,155.88366012499955,161.00691529199958,156.3494968750001,157.34795266699984,157.97032441699957,158.96823508299985,155.88366012499955,155.88366012499955,155.89666516700018,155.88366012499955,155.88366012499955,155.88366012499955,155.89666516700018,155.88366012499955,161.00691529199958,161.858930333,163.91680729200016,167.88298683300036,161.858930333,161.858930333,167.0362231250001,162.30613116699988,163.3618270830002,163.91680729200016,164.9791232079997,161.858930333,161.858930333,161.8087776246667,161.858930333,161.858930333,161.858930333,161.8087776246667,161.858930333,161.858930333,167.0362231250001,161.858930333,167.0362231250001,167.0362231250001,,161.858930333,1,1,0.5973502920005558,reldom2_s004,001,2025-01-23_12h26.22.327,Vis-A-Scan_AC,2022.2.5,None,
12,Second_Order,2.0,viswhat,stimulus/viswhat_stim/land_animal-bunny.png,stimulus/viswhat_stim/land_vehicle-shortbus.png,stimulus/viswhat_stim/water_vehicle-sailboat.png,stimulus/viswhat_stim/water_animal-whale.png,stimulus/viswhat_stim/match_blank.png,stimulus/viswhat_stim/match_box.png,stimulus/viswhat_stim/match_yes.png,stimulus/viswhat_stim/match_no.png,1.0,Match,Location,Location,1,5.125,0,5.125,0,5.125,0,5.125,0,0.625,0.625,1,0.5,1,2.125,1,0.5,1,2.125,0,0,0,0,0,0,0,0,0,,,,,0,15,15,15,,,,,,,,,167.88298683300036,173.0061067079996,168.32657999999992,169.3250627919997,169.9492271250001,170.9456224579999,167.88298683300036,167.88298683300036,167.88558074999983,167.88298683300036,167.88298683300036,167.88298683300036,167.88558074999983,167.88298683300036,173.0061067079996,173.72973287500008,175.78693620800004,,173.72973287500008,173.72973287500008,178.8927442080003,174.20782083300037,175.26105716700022,175.78693620800004,176.84325870799967,173.72973287500008,173.72973287500008,173.6854087916664,173.72973287500008,173.72973287500008,173.72973287500008,173.6854087916664,173.72973287500008,173.72973287500008,178.8927442080003,173.72973287500008,178.8927442080003,178.94017562499994,179.59751383299954,173.72973287500008,1,1,0.6831658330002028,reldom2_s004,001,2025-01-23_12h26.22.327,Vis-A-Scan_AC,2022.2.5,None,
0,0.0,None,fixation,stimulus/viswhat_stim/blank_white.png,stimulus/viswhat_stim/blank_white.png,stimulus/viswhere_stim/blank_white.png,stimulus/viswhere_stim/blank_white.png,stimulus/viswhat_stim/blank_white.png,stimulus/viswhat_stim/blank_white.png,stimulus/viswhat_stim/blank_white.png,stimulus/viswhat_stim/blank_white.png,0.0,0.0,0.0,0.0,0,0.0,0,0.0,0,0.0,0,0.0,0,0.0,0.0,0,0.0,0,0.0,0,0.0,0,0.0,0,0,0,0,0,0,0,0,9,,,,,0,16,16,16,,,,,,,,,179.85247745800007,179.85247745800007,179.85247745800007,179.85247745800007,179.85247745800007,179.85247745800007,179.85247745800007,179.85247745800007,179.74751383299954,179.85247745800007,179.85247745800007,179.85247745800007,179.74751383299954,179.85247745800007,179.85247745800007,179.85247745800007,179.85247745800007,179.85247745800007,179.85247745800007,179.85247745800007,179.85247745800007,179.85247745800007,179.85247745800007,179.85247745800007,179.85247745800007,179.85247745800007,179.85247745800007,179.79751383299956,179.85247745800007,179.85247745800007,179.85247745800007,179.79751383299956,179.85247745800007,179.85247745800007,179.85247745800007,179.85247745800007,179.85247745800007,185.06772591699973,185.06772591699973,189.03194362500017,None,0,,reldom2_s004,001,2025-01-23_12h26.22.327,Vis-A-Scan_AC,2022.2.5,None,
13,First_Order,3.0,viswhere,stimulus/viswhere_stim/blank_white.png,stimulus/viswhere_stim/blank_white.png,stimulus/viswhere_stim/90-deg_dot-left_slateblue.png,stimulus/viswhere_stim/120-deg_dot-left_slateblue.png,stimulus/viswhere_stim/blank_white.png,stimulus/viswhere_stim/dot_box.png,stimulus/viswhere_stim/dot_yes.png,stimulus/viswhere_stim/dot_no.png,None,Dot,None,Dot,1,0.0,0,5.125,0,5.125,0,5.125,0,0.0,0.625,0,0.0,0,0.0,1,0.5,1,2.125,0,0,0,0,0,0,0,0,0,,,,,0,17,17,17,,,,,,,,,189.03194362500017,189.03194362500017,189.03194362500017,189.03194362500017,189.03194362500017,189.03194362500017,189.03194362500017,189.03194362500017,189.0044409166664,189.03194362500017,189.03194362500017,189.03194362500017,189.0044409166664,189.03194362500017,189.03194362500017,189.03194362500017,191.1351585829998,195.0872802920003,189.03194362500017,189.03194362500017,194.16930129199955,189.5158393749998,190.52040812500036,191.1351585829998,192.14187029200002,189.03194362500017,189.03194362500017,189.02110758333305,189.03194362500017,189.03194362500017,189.03194362500017,189.02110758333305,189.03194362500017,189.03194362500017,194.16930129199955,189.03194362500017,194.16930129199955,194.24333000000024,194.86939887500012,189.03194362500017,1,1,1.0177066240003114,reldom2_s004,001,2025-01-23_12h26.22.327,Vis-A-Scan_AC,2022.2.5,None,
14,First_Order,3.0,viswhere,stimulus/viswhere_stim/blank_white.png,stimulus/viswhere_stim/blank_white.png,stimulus/viswhere_stim/30-deg_dot-left_royalblue.png,stimulus/viswhere_stim/30-deg_dot-right_peru.png,stimulus/viswhere_stim/blank_white.png,stimulus/viswhere_stim/dot_box.png,stimulus/viswhere_stim/dot_yes.png,stimulus/viswhere_stim/dot_no.png,None,Dot,None,Line,2,0.0,0,5.125,0,5.125,0,5.125,0,0.0,0.625,0,0.0,0,0.0,1,0.5,1,2.125,0,0,0,0,0,0,0,0,0,,,,,0,18,18,18,,,,,,,,,195.0872802920003,195.0872802920003,195.0872802920003,195.0872802920003,195.0872802920003,195.0872802920003,195.0872802920003,195.0872802920003,195.06374991633342,195.0872802920003,195.0872802920003,195.0872802920003,195.06374991633342,195.0872802920003,195.0872802920003,195.0872802920003,197.19026895800016,201.15834483300023,195.0872802920003,195.0872802920003,200.20923087499978,195.56907108300038,196.57425883300039,197.19026895800016,198.20094716699987,195.0872802920003,195.0872802920003,195.0804165830001,195.0872802920003,195.0872802920003,195.0872802920003,195.0804165830001,195.0872802920003,195.0872802920003,200.20923087499978,195.0872802920003,200.20923087499978,200.30700054200042,200.9382761249999,195.0872802920003,2,1,0.7461474580004506,reldom2_s004,001,2025-01-23_12h26.22.327,Vis-A-Scan_AC,2022.2.5,None,
15,First_Order,3.0,viswhere,stimulus/viswhere_stim/blank_white.png,stimulus/viswhere_stim/blank_white.png,stimulus/viswhere_stim/150-deg_dot-right_turquoise.png,stimulus/viswhere_stim/150-deg_dot-left_cyan.png,stimulus/viswhere_stim/blank_white.png,stimulus/viswhere_stim/line_box.png,stimulus/viswhere_stim/line_yes.png,stimulus/viswhere_stim/line_no.png,None,Line,None,Line,1,0.0,0,5.125,0,5.125,0,5.125,0,0.0,0.625,0,0.0,0,0.0,1,0.5,1,2.125,0,0,0,0,0,0,0,0,0,,,,,0,19,19,19,,,,,,,,,201.15834483300023,201.15834483300023,201.15834483300023,201.15834483300023,201.15834483300023,201.15834483300023,201.15834483300023,201.15834483300023,201.1338701663329,201.15834483300023,201.15834483300023,201.15834483300023,201.1338701663329,201.15834483300023,201.15834483300023,201.15834483300023,203.27123674999984,207.2224032920003,201.15834483300023,201.15834483300023,206.293539667,201.64860354200027,202.66730554199967,203.27123674999984,204.27705874999992,201.15834483300023,201.15834483300023,201.1505368329996,201.15834483300023,201.15834483300023,201.15834483300023,201.1505368329996,201.15834483300023,201.15834483300023,206.293539667,201.15834483300023,206.293539667,206.39343341699987,207.01693824999984,201.15834483300023,1,1,0.6493220420006764,reldom2_s004,001,2025-01-23_12h26.22.327,Vis-A-Scan_AC,2022.2.5,None,
16,First_Order,3.0,viswhere,stimulus/viswhere_stim/blank_white.png,stimulus/viswhere_stim/blank_white.png,stimulus/viswhere_stim/120-deg_dot-right_mediumslateblue.png,stimulus/viswhere_stim/150-deg_dot-right_royalblue.png,stimulus/viswhere_stim/blank_white.png,stimulus/viswhere_stim/line_box.png,stimulus/viswhere_stim/line_yes.png,stimulus/viswhere_stim/line_no.png,None,Line,None,Dot,2,0.0,0,5.125,0,5.125,0,5.125,0,0.0,0.625,0,0.0,0,0.0,1,0.5,1,2.125,0,0,0,0,0,0,0,0,0,,,,,0,20,20,20,,,,,,,,,207.2224032920003,207.2224032920003,207.2224032920003,207.2224032920003,207.2224032920003,207.2224032920003,207.2224032920003,207.2224032920003,207.19806933333288,207.2224032920003,207.2224032920003,207.2224032920003,207.19806933333288,207.2224032920003,207.2224032920003,207.2224032920003,209.32236883299993,213.369238667,207.2224032920003,207.2224032920003,212.3438770419998,207.7079745000001,208.7212534170003,209.32236883299993,210.3393906250003,207.2224032920003,207.2224032920003,207.21473599999956,207.2224032920003,207.2224032920003,207.2224032920003,207.21473599999956,207.2224032920003,207.2224032920003,212.3438770419998,207.2224032920003,212.3438770419998,212.44619158299975,213.07248054199954,207.2224032920003,2,1,1.0002913330008596,reldom2_s004,001,2025-01-23_12h26.22.327,Vis-A-Scan_AC,2022.2.5,None,
0,0.0,None,fixation,stimulus/viswhat_stim/blank_white.png,stimulus/viswhat_stim/blank_white.png,stimulus/viswhere_stim/blank_white.png,stimulus/viswhere_stim/blank_white.png,stimulus/viswhat_stim/blank_white.png,stimulus/viswhat_stim/blank_white.png,stimulus/viswhat_stim/blank_white.png,stimulus/viswhat_stim/blank_white.png,0.0,0.0,0.0,0.0,0,0.0,0,0.0,0,0.0,0,0.0,0,0.0,0.0,0,0.0,0,0.0,0,0.0,0,0.0,0,0,0,0,0,0,0,0,8,,,,,0,21,21,21,,,,,,,,,213.369238667,213.369238667,213.369238667,213.369238667,213.369238667,213.369238667,213.369238667,213.369238667,213.266892500333,213.369238667,213.369238667,213.369238667,213.266892500333,213.369238667,213.369238667,213.369238667,213.369238667,213.369238667,213.369238667,213.369238667,213.369238667,213.369238667,213.369238667,213.369238667,213.369238667,213.369238667,213.369238667,213.316892500333,213.369238667,213.369238667,213.369238667,213.316892500333,213.369238667,213.369238667,213.369238667,213.369238667,213.369238667,218.5771021669998,218.5771021669998,221.52503608299958,None,0,,reldom2_s004,001,2025-01-23_12h26.22.327,Vis-A-Scan_AC,2022.2.5,None,
17,Second_Order,3.0,viswhere,stimulus/viswhere_stim/60-deg_dot-right_seagreen.png,stimulus/viswhere_stim/150-deg_dot-right_seagreen.png,stimulus/viswhere_stim/90-deg_dot-right_salmon.png,stimulus/viswhere_stim/90-deg_dot-left_seagreen.png,stimulus/viswhat_stim/match_blank.png,stimulus/viswhat_stim/match_box.png,stimulus/viswhat_stim/match_yes.png,stimulus/viswhat_stim/match_no.png,2.0,Match,Dot,Line,2,5.125,0,5.125,0,5.125,0,5.125,0,0.75,0.75,1,0.5,1,2.125,1,0.5,1,2.125,0,0,0,0,0,0,0,0,0,,,,,0,22,22,22,,,,,,,,,221.52503608299958,226.64649325000028,221.99959133300035,222.9865327919997,223.6205837919997,224.6196034579998,221.52503608299958,221.52503608299958,221.5357012503329,221.52503608299958,221.52503608299958,221.52503608299958,221.5357012503329,221.52503608299958,226.64649325000028,227.42784904200016,229.5152365419999,233.3773625419999,227.42784904200016,227.42784904200016,232.55374308299997,227.89713954200033,228.91285074999996,229.5152365419999,230.51714254200033,227.42784904200016,227.42784904200016,227.41350875033328,227.42784904200016,227.42784904200016,227.42784904200016,227.41350875033328,227.42784904200016,227.42784904200016,232.55374308299997,227.42784904200016,232.55374308299997,232.65400783299992,,227.42784904200016,2,1,0.8055528330005473,reldom2_s004,001,2025-01-23_12h26.22.327,Vis-A-Scan_AC,2022.2.5,None,
18,Second_Order,3.0,viswhere,stimulus/viswhere_stim/150-deg_dot-right_goldenrod.png,stimulus/viswhere_stim/150-deg_dot-left_cyan.png,stimulus/viswhere_stim/120-deg_dot-left_royalblue.png,stimulus/viswhere_stim/60-deg_dot-left_royalblue.png,stimulus/viswhat_stim/match_blank.png,stimulus/viswhat_stim/match_box.png,stimulus/viswhat_stim/match_yes.png,stimulus/viswhat_stim/match_no.png,2.0,Match,Line,Dot,2,5.125,0,5.125,0,5.125,0,5.125,0,0.625,0.625,1,0.5,1,2.125,1,0.5,1,2.125,0,0,0,0,0,0,0,0,0,,,,,0,23,23,23,,,,,,,,,233.41477833299996,238.5355838329997,233.89494916700005,234.89352787499956,235.5157634999996,236.5141817499998,233.41477833299996,233.41477833299996,233.4273625419999,233.41477833299996,233.41477833299996,233.41477833299996,233.4273625419999,233.41477833299996,238.5355838329997,239.19873066699984,241.2901549999997,245.3315888750003,239.19873066699984,239.19873066699984,244.32152512500033,239.66311320800014,240.67106279200016,241.2901549999997,242.30676891700023,239.19873066699984,239.19873066699984,239.18684237533358,239.19873066699984,239.19873066699984,239.19873066699984,239.18684237533358,239.19873066699984,239.19873066699984,244.32152512500033,239.19873066699984,244.32152512500033,244.4059495829997,245.0323892919996,239.19873066699984,2,1,0.7223252080002567,reldom2_s004,001,2025-01-23_12h26.22.327,Vis-A-Scan_AC,2022.2.5,None,
0,0.0,None,fixation,stimulus/viswhat_stim/blank_white.png,stimulus/viswhat_stim/blank_white.png,stimulus/viswhere_stim/blank_white.png,stimulus/viswhere_stim/blank_white.png,stimulus/viswhat_stim/blank_white.png,stimulus/viswhat_stim/blank_white.png,stimulus/viswhat_stim/blank_white.png,stimulus/viswhat_stim/blank_white.png,0.0,0.0,0.0,0.0,0,0.0,0,0.0,0,0.0,0,0.0,0,0.0,0.0,0,0.0,0,0.0,0,0.0,0,0.0,0,0,0,0,0,0,0,0,10,,,,,0,24,24,24,,,,,,,,,245.3315888750003,245.3315888750003,245.3315888750003,245.3315888750003,245.3315888750003,245.3315888750003,245.3315888750003,245.3315888750003,245.2265616253329,245.3315888750003,245.3315888750003,245.3315888750003,245.2265616253329,245.3315888750003,245.3315888750003,245.3315888750003,245.3315888750003,245.3315888750003,245.3315888750003,245.3315888750003,245.3315888750003,245.3315888750003,245.3315888750003,245.3315888750003,245.3315888750003,245.3315888750003,245.3315888750003,245.2765616253329,245.3315888750003,245.3315888750003,245.3315888750003,245.2765616253329,245.3315888750003,245.3315888750003,245.3315888750003,245.3315888750003,245.3315888750003,250.52252583300015,250.52252583300015,255.5271940829998,None,0,,reldom2_s004,001,2025-01-23_12h26.22.327,Vis-A-Scan_AC,2022.2.5,None,
19,First_Order,4.0,viswhere,stimulus/viswhere_stim/blank_white.png,stimulus/viswhere_stim/blank_white.png,stimulus/viswhere_stim/90-deg_dot-right_royalblue.png,stimulus/viswhere_stim/120-deg_dot-right_goldenrod.png,stimulus/viswhere_stim/blank_white.png,stimulus/viswhere_stim/dot_box.png,stimulus/viswhere_stim/dot_yes.png,stimulus/viswhere_stim/dot_no.png,None,Dot,None,Dot,1,0.0,0,5.125,0,5.125,0,5.125,0,0.0,0.625,0,0.0,0,0.0,1,0.5,1,2.125,0,0,0,0,0,0,0,0,0,,,,,0,25,25,25,,,,,,,,,255.5271940829998,255.5271940829998,255.5271940829998,255.5271940829998,255.5271940829998,255.5271940829998,255.5271940829998,255.5271940829998,255.50313020866696,255.5271940829998,255.5271940829998,255.5271940829998,255.50313020866696,255.5271940829998,255.5271940829998,255.5271940829998,257.63301341700026,261.59677525000006,255.5271940829998,255.5271940829998,260.65505391700026,256.0114540000004,257.0173923749999,257.63301341700026,258.64722204200007,255.5271940829998,255.5271940829998,255.5197968753336,255.5271940829998,255.5271940829998,255.5271940829998,255.5197968753336,255.5271940829998,255.5271940829998,260.65505391700026,255.5271940829998,260.65505391700026,260.74316550000003,261.37464770800034,255.5271940829998,1,1,0.725763667001047,reldom2_s004,001,2025-01-23_12h26.22.327,Vis-A-Scan_AC,2022.2.5,None,
20,First_Order,4.0,viswhere,stimulus/viswhere_stim/blank_white.png,stimulus/viswhere_stim/blank_white.png,stimulus/viswhere_stim/90-deg_dot-left_peru.png,stimulus/viswhere_stim/90-deg_dot-right_royalblue.png,stimulus/viswhere_stim/blank_white.png,stimulus/viswhere_stim/dot_box.png,stimulus/viswhere_stim/dot_yes.png,stimulus/viswhere_stim/dot_no.png,None,Dot,None,Line,2,0.0,0,5.125,0,5.125,0,5.125,0,0.0,0.625,0,0.0,0,0.0,1,0.5,1,2.125,0,0,0,0,0,0,0,0,0,,,,,0,26,26,26,,,,,,,,,261.59677525000006,261.59677525000006,261.59677525000006,261.59677525000006,261.59677525000006,261.59677525000006,261.59677525000006,261.59677525000006,261.5704828333331,261.59677525000006,261.59677525000006,261.59677525000006,261.5704828333331,261.59677525000006,261.59677525000006,261.59677525000006,263.70750916700035,267.665721458,261.59677525000006,261.59677525000006,266.72168324999984,262.08090891699976,263.0901398750002,263.70750916700035,264.72267787500004,261.59677525000006,261.59677525000006,261.5871494999997,261.59677525000006,261.59677525000006,261.59677525000006,261.5871494999997,261.59677525000006,261.59677525000006,266.72168324999984,261.59677525000006,266.72168324999984,266.8187107499998,267.4477996249998,261.59677525000006,2,1,0.6749185409998972,reldom2_s004,001,2025-01-23_12h26.22.327,Vis-A-Scan_AC,2022.2.5,None,
21,First_Order,4.0,viswhere,stimulus/viswhere_stim/blank_white.png,stimulus/viswhere_stim/blank_white.png,stimulus/viswhere_stim/120-deg_dot-left_cyan.png,stimulus/viswhere_stim/150-deg_dot-left_seagreen.png,stimulus/viswhere_stim/blank_white.png,stimulus/viswhere_stim/line_box.png,stimulus/viswhere_stim/line_yes.png,stimulus/viswhere_stim/line_no.png,None,Line,None,Dot,2,0.0,0,5.125,0,5.125,0,5.125,0,0.0,0.625,0,0.0,0,0.0,1,0.5,1,2.125,0,0,0,0,0,0,0,0,0,,,,,0,27,27,27,,,,,,,,,267.665721458,267.665721458,267.665721458,267.665721458,267.665721458,267.665721458,267.665721458,267.665721458,267.64192800033317,267.665721458,267.665721458,267.665721458,267.64192800033317,267.665721458,267.665721458,267.665721458,269.76697412500016,273.7386644170001,267.665721458,267.665721458,272.7894475000003,268.15221137499975,269.1653634579998,269.76697412500016,270.78744129200004,267.665721458,267.665721458,267.6585946669998,267.665721458,267.665721458,267.665721458,267.6585946669998,267.665721458,267.665721458,272.7894475000003,267.665721458,272.7894475000003,272.8943460419996,273.5200639579998,267.665721458,2,1,0.6831912080006077,reldom2_s004,001,2025-01-23_12h26.22.327,Vis-A-Scan_AC,2022.2.5,None,
22,First_Order,4.0,viswhere,stimulus/viswhere_stim/blank_white.png,stimulus/viswhere_stim/blank_white.png,stimulus/viswhere_stim/150-deg_dot-right_seagreen.png,stimulus/viswhere_stim/150-deg_dot-left_slateblue.png,stimulus/viswhere_stim/blank_white.png,stimulus/viswhere_stim/line_box.png,stimulus/viswhere_stim/line_yes.png,stimulus/viswhere_stim/line_no.png,None,Line,None,Line,1,0.0,0,5.125,0,5.125,0,5.125,0,0.0,0.625,0,0.0,0,0.0,1,0.5,1,2.125,0,0,0,0,0,0,0,0,0,,,,,0,28,28,28,,,,,,,,,273.7386644170001,273.7386644170001,273.7386644170001,273.7386644170001,273.7386644170001,273.7386644170001,273.7386644170001,273.7386644170001,273.71503829133354,273.7386644170001,273.7386644170001,273.7386644170001,273.71503829133354,273.7386644170001,273.7386644170001,273.7386644170001,275.853490083,279.88241670800016,273.7386644170001,273.7386644170001,278.8771580419998,274.22989029200016,275.24838841699966,275.853490083,276.8599440420003,273.7386644170001,273.7386644170001,273.7317049580002,273.7386644170001,273.7386644170001,273.7386644170001,273.7317049580002,273.7386644170001,273.7386644170001,278.8771580419998,273.7386644170001,278.8771580419998,278.97737920799955,279.61229283299963,273.7386644170001,1,1,0.5874927499999103,reldom2_s004,001,2025-01-23_12h26.22.327,Vis-A-Scan_AC,2022.2.5,None,
0,0.0,None,fixation,stimulus/viswhat_stim/blank_white.png,stimulus/viswhat_stim/blank_white.png,stimulus/viswhere_stim/blank_white.png,stimulus/viswhere_stim/blank_white.png,stimulus/viswhat_stim/blank_white.png,stimulus/viswhat_stim/blank_white.png,stimulus/viswhat_stim/blank_white.png,stimulus/viswhat_stim/blank_white.png,0.0,0.0,0.0,0.0,0,0.0,0,0.0,0,0.0,0,0.0,0,0.0,0.0,0,0.0,0,0.0,0,0.0,0,0.0,0,0,0,0,0,0,0,0,9,,,,,0,29,29,29,,,,,,,,,279.88241670800016,279.88241670800016,279.88241670800016,279.88241670800016,279.88241670800016,279.88241670800016,279.88241670800016,279.88241670800016,279.7789247913336,279.88241670800016,279.88241670800016,279.88241670800016,279.7789247913336,279.88241670800016,279.88241670800016,279.88241670800016,279.88241670800016,279.88241670800016,279.88241670800016,279.88241670800016,279.88241670800016,279.88241670800016,279.88241670800016,279.88241670800016,279.88241670800016,279.88241670800016,279.88241670800016,279.82892479133363,279.88241670800016,279.88241670800016,279.88241670800016,279.82892479133363,279.88241670800016,279.88241670800016,279.88241670800016,279.88241670800016,279.88241670800016,285.1092631250003,285.1092631250003,289.0336190420003,None,0,,reldom2_s004,001,2025-01-23_12h26.22.327,Vis-A-Scan_AC,2022.2.5,None,
23,Second_Order,4.0,viswhere,stimulus/viswhere_stim/90-deg_dot-right_salmon.png,stimulus/viswhere_stim/150-deg_dot-right_seagreen.png,stimulus/viswhere_stim/150-deg_dot-right_mediumslateblue.png,stimulus/viswhere_stim/150-deg_dot-left_lightsseagreen.png,stimulus/viswhat_stim/match_blank.png,stimulus/viswhat_stim/match_box.png,stimulus/viswhat_stim/match_yes.png,stimulus/viswhat_stim/match_no.png,2.0,Match,Dot,Line,2,5.125,0,5.125,0,5.125,0,5.125,0,0.75,0.75,1,0.5,1,2.125,1,0.5,1,2.125,0,0,0,0,0,0,0,0,0,,,,,0,30,30,30,,,,,,,,,289.0336190420003,294.1533746670002,289.5068034579999,290.5049912499999,291.1395729579999,292.12890037499983,289.0336190420003,289.0336190420003,289.0459458333336,289.0336190420003,289.0336190420003,289.0336190420003,289.0459458333336,289.0336190420003,294.1533746670002,294.9452831669996,297.0277790829996,300.9300846670003,294.9452831669996,294.9452831669996,300.08037720799985,295.41727504200026,296.4203846250002,297.0277790829996,298.0363132499997,294.9452831669996,294.9452831669996,294.9315661663336,294.9452831669996,294.9452831669996,294.9452831669996,294.9315661663336,294.9452831669996,294.9452831669996,300.08037720799985,294.9452831669996,300.08037720799985,300.15145304199996,300.9300846670003,294.9452831669996,2,1,0.8020966240001144,reldom2_s004,001,2025-01-23_12h26.22.327,Vis-A-Scan_AC,2022.2.5,None,
24,Second_Order,4.0,viswhere,stimulus/viswhere_stim/90-deg_dot-left_cyan.png,stimulus/viswhere_stim/60-deg_dot-left_slateblue.png,stimulus/viswhere_stim/120-deg_dot-right_goldenrod.png,stimulus/viswhere_stim/90-deg_dot-right_seagreen.png,stimulus/viswhat_stim/match_blank.png,stimulus/viswhat_stim/match_box.png,stimulus/viswhat_stim/match_yes.png,stimulus/viswhat_stim/match_no.png,1.0,Match,Dot,Dot,1,5.125,0,5.125,0,5.125,0,5.125,0,0.625,0.625,1,0.5,1,2.125,1,0.5,1,2.125,0,0,0,0,0,0,0,0,0,,,,,0,31,31,31,,,,,,,,,300.9300846670003,306.04648279199955,301.4135379999998,302.40228466699955,303.03880166700037,304.03609441699973,300.9300846670003,300.9300846670003,300.9418510419999,300.9300846670003,300.9300846670003,300.9300846670003,300.9418510419999,300.9300846670003,306.04648279199955,306.7015297079997,308.7993551669997,312.834106583,306.7015297079997,306.7015297079997,311.839647625,307.1677179999997,308.17726245799986,308.7993551669997,309.8169385000001,306.7015297079997,306.7015297079997,306.6920891253335,306.7015297079997,306.7015297079997,306.7015297079997,306.6920891253335,306.7015297079997,306.7015297079997,311.839647625,306.7015297079997,311.839647625,311.9144888330002,312.54853233300037,306.7015297079997,1,1,0.7188785000007556,reldom2_s004,001,2025-01-23_12h26.22.327,Vis-A-Scan_AC,2022.2.5,None,
0,0.0,None,fixation,stimulus/viswhat_stim/blank_white.png,stimulus/viswhat_stim/blank_white.png,stimulus/viswhere_stim/blank_white.png,stimulus/viswhere_stim/blank_white.png,stimulus/viswhat_stim/blank_white.png,stimulus/viswhat_stim/blank_white.png,stimulus/viswhat_stim/blank_white.png,stimulus/viswhat_stim/blank_white.png,0.0,0.0,0.0,0.0,0,0.0,0,0.0,0,0.0,0,0.0,0,0.0,0.0,0,0.0,0,0.0,0,0.0,0,0.0,0,0,0,0,0,0,0,0,10,,,,,0,32,32,32,,,,,,,,,312.834106583,312.834106583,312.834106583,312.834106583,312.834106583,312.834106583,312.834106583,312.834106583,312.7296334583337,312.834106583,312.834106583,312.834106583,312.7296334583337,312.834106583,312.834106583,312.834106583,312.834106583,312.834106583,312.834106583,312.834106583,312.834106583,312.834106583,312.834106583,312.834106583,312.834106583,312.834106583,312.834106583,312.7796334583337,312.834106583,312.834106583,312.834106583,312.7796334583337,312.834106583,312.834106583,312.834106583,312.834106583,312.834106583,318.04102908299956,318.04102908299956,323.0791453749998,None,0,,reldom2_s004,001,2025-01-23_12h26.22.327,Vis-A-Scan_AC,2022.2.5,None,
25,First_Order,5.0,viswhat,stimulus/viswhat_stim/blank_white.png,stimulus/viswhat_stim/blank_white.png,stimulus/viswhat_stim/land_vehicle-shortbus.png,stimulus/viswhat_stim/land_animal-pig.png,stimulus/viswhat_stim/blank_white.png,stimulus/viswhat_stim/location_box.png,stimulus/viswhat_stim/location_yes.png,stimulus/viswhat_stim/location_no.png,None,Location,None,Location,1,0.0,0,5.125,0,5.125,0,5.125,0,0.0,0.625,0,0.0,0,0.0,1,0.5,1,2.125,0,0,0,0,0,0,0,0,0,,,,,0,33,33,33,,,,,,,,,323.0791453749998,323.0791453749998,323.0791453749998,323.0791453749998,323.0791453749998,323.0791453749998,323.0791453749998,323.0791453749998,323.03525199966646,323.0791453749998,323.0791453749998,323.0791453749998,323.03525199966646,323.0791453749998,323.0791453749998,323.0791453749998,325.18021704199964,329.2055946669998,323.0791453749998,323.0791453749998,328.2343259999998,323.5529089170004,324.58880970799964,325.18021704199964,326.22175745799996,323.0791453749998,323.0791453749998,323.05191866633317,323.0791453749998,323.0791453749998,323.0791453749998,323.05191866633317,323.0791453749998,323.0791453749998,328.2343259999998,323.0791453749998,328.2343259999998,328.30604745799974,328.9479478330004,323.0791453749998,1,1,0.9835137490008492,reldom2_s004,001,2025-01-23_12h26.22.327,Vis-A-Scan_AC,2022.2.5,None,
26,First_Order,5.0,viswhat,stimulus/viswhat_stim/blank_white.png,stimulus/viswhat_stim/blank_white.png,stimulus/viswhat_stim/land_vehicle-rv.png,stimulus/viswhat_stim/land_animal-bunny.png,stimulus/viswhat_stim/blank_white.png,stimulus/viswhat_stim/type_box.png,stimulus/viswhat_stim/type_yes.png,stimulus/viswhat_stim/type_no.png,None,Type,None,Location,2,0.0,0,5.125,0,5.125,0,5.125,0,0.0,0.625,0,0.0,0,0.0,1,0.5,1,2.125,0,0,0,0,0,0,0,0,0,,,,,0,34,34,34,,,,,,,,,329.2055946669998,329.2055946669998,329.2055946669998,329.2055946669998,329.2055946669998,329.2055946669998,329.2055946669998,329.2055946669998,329.11884625,329.2055946669998,329.2055946669998,329.2055946669998,329.11884625,329.2055946669998,329.2055946669998,329.2055946669998,331.2844602920004,335.31833995800025,329.2055946669998,329.2055946669998,334.37942620800004,329.6899048329997,330.7536584999998,331.2844602920004,332.3513056669999,329.2055946669998,329.2055946669998,329.16884625,329.2055946669998,329.2055946669998,329.2055946669998,329.16884625,329.2055946669998,329.2055946669998,334.37942620800004,329.2055946669998,334.37942620800004,334.42240374999983,335.1022352500004,329.2055946669998,2,1,1.4095932910004194,reldom2_s004,001,2025-01-23_12h26.22.327,Vis-A-Scan_AC,2022.2.5,None,
27,First_Order,5.0,viswhat,stimulus/viswhat_stim/blank_white.png,stimulus/viswhat_stim/blank_white.png,stimulus/viswhat_stim/land_animal-zebra.png,stimulus/viswhat_stim/land_vehicle-oldcar.png,stimulus/viswhat_stim/blank_white.png,stimulus/viswhat_stim/location_box.png,stimulus/viswhat_stim/location_yes.png,stimulus/viswhat_stim/location_no.png,None,Location,None,Location,1,0.0,0,5.125,0,5.125,0,5.125,0,0.0,0.625,0,0.0,0,0.0,1,0.5,1,2.125,0,0,0,0,0,0,0,0,0,,,,,0,35,35,35,,,,,,,,,335.31833995800025,335.31833995800025,335.31833995800025,335.31833995800025,335.31833995800025,335.31833995800025,335.31833995800025,335.31833995800025,335.25223525000035,335.31833995800025,335.31833995800025,335.31833995800025,335.25223525000035,335.31833995800025,335.31833995800025,335.31833995800025,337.41375012499975,341.41195574999983,335.31833995800025,335.31833995800025,340.49988091700016,335.7641174170003,336.83373287500035,337.41375012499975,338.4496208749997,335.31833995800025,335.31833995800025,335.2855685833337,335.31833995800025,335.31833995800025,335.31833995800025,335.2855685833337,335.31833995800025,335.31833995800025,340.49988091700016,335.31833995800025,340.49988091700016,340.53896087500016,341.19847070800006,335.31833995800025,1,1,0.7385102080006618,reldom2_s004,001,2025-01-23_12h26.22.327,Vis-A-Scan_AC,2022.2.5,None,
28,First_Order,5.0,viswhat,stimulus/viswhat_stim/blank_white.png,stimulus/viswhat_stim/blank_white.png,stimulus/viswhat_stim/water_vehicle-canoe.png,stimulus/viswhat_stim/land_vehicle-trolley.png,stimulus/viswhat_stim/blank_white.png,stimulus/viswhat_stim/type_box.png,stimulus/viswhat_stim/type_yes.png,stimulus/viswhat_stim/type_no.png,None,Type,None,Type,1,0.0,0,5.125,0,5.125,0,5.125,0,0.0,0.625,0,0.0,0,0.0,1,0.5,1,2.125,0,0,0,0,0,0,0,0,0,,,,,0,36,36,36,,,,,,,,,341.41195574999983,341.41195574999983,341.41195574999983,341.41195574999983,341.41195574999983,341.41195574999983,341.41195574999983,341.41195574999983,341.37037987533324,341.41195574999983,341.41195574999983,341.41195574999983,341.37037987533324,341.41195574999983,341.41195574999983,341.41195574999983,343.5015445830004,347.5556268749997,341.41195574999983,341.41195574999983,346.5608629999997,341.8810230830004,342.9031046250002,343.5015445830004,344.52466591699977,341.41195574999983,341.41195574999983,341.3870465419999,341.41195574999983,341.41195574999983,341.41195574999983,341.3870465419999,341.41195574999983,341.41195574999983,346.5608629999997,341.41195574999983,346.5608629999997,346.6220559579997,347.25511429200014,341.41195574999983,1,1,1.2894881250003891,reldom2_s004,001,2025-01-23_12h26.22.327,Vis-A-Scan_AC,2022.2.5,None,
0,0.0,None,fixation,stimulus/viswhat_stim/blank_white.png,stimulus/viswhat_stim/blank_white.png,stimulus/viswhere_stim/blank_white.png,stimulus/viswhere_stim/blank_white.png,stimulus/viswhat_stim/blank_white.png,stimulus/viswhat_stim/blank_white.png,stimulus/viswhat_stim/blank_white.png,stimulus/viswhat_stim/blank_white.png,0.0,0.0,0.0,0.0,0,0.0,0,0.0,0,0.0,0,0.0,0,0.0,0.0,0,0.0,0,0.0,0,0.0,0,0.0,0,0,0,0,0,0,0,0,9,,,,,0,37,37,37,,,,,,,,,347.5556268749997,347.5556268749997,347.5556268749997,347.5556268749997,347.5556268749997,347.5556268749997,347.5556268749997,347.5556268749997,347.45614337500007,347.5556268749997,347.5556268749997,347.5556268749997,347.45614337500007,347.5556268749997,347.5556268749997,347.5556268749997,347.5556268749997,347.5556268749997,347.5556268749997,347.5556268749997,347.5556268749997,347.5556268749997,347.5556268749997,347.5556268749997,347.5556268749997,347.5556268749997,347.5556268749997,347.5061433750001,347.5556268749997,347.5556268749997,347.5556268749997,347.5061433750001,347.5556268749997,347.5556268749997,347.5556268749997,347.5556268749997,347.5556268749997,352.7741364579997,352.7741364579997,356.71273383300013,None,0,,reldom2_s004,001,2025-01-23_12h26.22.327,Vis-A-Scan_AC,2022.2.5,None,
29,Second_Order,5.0,viswhat,stimulus/viswhat_stim/land_vehicle-schoolbus.png,stimulus/viswhat_stim/land_animal-snake.png,stimulus/viswhat_stim/water_vehicle-cruiser.png,stimulus/viswhat_stim/water_animal-whale.png,stimulus/viswhat_stim/match_blank.png,stimulus/viswhat_stim/match_box.png,stimulus/viswhat_stim/match_yes.png,stimulus/viswhat_stim/match_no.png,1.0,Match,Location,Location,1,5.125,0,5.125,0,5.125,0,5.125,0,0.75,0.75,1,0.5,1,2.125,1,0.5,1,2.125,0,0,0,0,0,0,0,0,0,,,,,0,38,38,38,,,,,,,,,356.71273383300013,361.83592141699955,357.17970700000023,358.177641708,358.8128253750001,359.8028507079998,356.71273383300013,356.71273383300013,356.7173848333333,356.71273383300013,356.71273383300013,356.71273383300013,356.7173848333333,356.71273383300013,361.83592141699955,362.7231822499998,364.75058179200005,,362.7231822499998,362.7231822499998,367.89552054199976,363.14284795799995,364.2626180420002,364.75058179200005,365.87171820799995,362.7231822499998,362.7231822499998,362.65470216633304,362.7231822499998,362.7231822499998,362.7231822499998,362.65470216633304,362.7231822499998,362.7231822499998,367.89552054199976,362.7231822499998,367.89552054199976,367.89552054199976,,362.7231822499998,1,1,1.7857537920008326,reldom2_s004,001,2025-01-23_12h26.22.327,Vis-A-Scan_AC,2022.2.5,None,
30,Second_Order,5.0,viswhat,stimulus/viswhat_stim/land_vehicle-tank.png,stimulus/viswhat_stim/water_vehicle-cabincruiser.png,stimulus/viswhat_stim/land_animal-pig.png,stimulus/viswhat_stim/water_animal-stingray.png,stimulus/viswhat_stim/match_blank.png,stimulus/viswhat_stim/match_box.png,stimulus/viswhat_stim/match_yes.png,stimulus/viswhat_stim/match_no.png,1.0,Match,Type,Type,1,5.125,0,5.125,0,5.125,0,5.125,0,0.625,0.625,1,0.5,1,2.125,1,0.5,1,2.125,0,0,0,0,0,0,0,0,0,,,,,0,39,39,39,,,,,,,,,368.69121212499977,373.81413854200036,369.15666987500026,370.1554111249998,370.7780121249998,371.7765489169997,368.69121212499977,368.69121212499977,368.70495120866656,368.69121212499977,368.69121212499977,368.69121212499977,368.70495120866656,368.69121212499977,373.81413854200036,374.4804335830004,376.56594679200043,380.6242890829999,374.4804335830004,374.4804335830004,379.61227470799986,374.94618833299955,375.96519270800036,376.56594679200043,377.57169175000035,374.4804335830004,374.4804335830004,374.46482175033316,374.4804335830004,374.4804335830004,374.4804335830004,374.46482175033316,374.4804335830004,374.4804335830004,379.61227470799986,374.4804335830004,379.61227470799986,379.6958763749999,380.33060016699983,374.4804335830004,1,1,0.598188917000698,reldom2_s004,001,2025-01-23_12h26.22.327,Vis-A-Scan_AC,2022.2.5,None,
0,0.0,None,fixation,stimulus/viswhat_stim/blank_white.png,stimulus/viswhat_stim/blank_white.png,stimulus/viswhere_stim/blank_white.png,stimulus/viswhere_stim/blank_white.png,stimulus/viswhat_stim/blank_white.png,stimulus/viswhat_stim/blank_white.png,stimulus/viswhat_stim/blank_white.png,stimulus/viswhat_stim/blank_white.png,0.0,0.0,0.0,0.0,0,0.0,0,0.0,0,0.0,0,0.0,0,0.0,0.0,0,0.0,0,0.0,0,0.0,0,0.0,0,0,0,0,0,0,0,0,10,,,,,0,40,40,40,,,,,,,,,380.6242890829999,380.6242890829999,380.6242890829999,380.6242890829999,380.6242890829999,380.6242890829999,380.6242890829999,380.6242890829999,380.530841458,380.6242890829999,380.6242890829999,380.6242890829999,380.530841458,380.6242890829999,380.6242890829999,380.6242890829999,380.6242890829999,380.6242890829999,380.6242890829999,380.6242890829999,380.6242890829999,380.6242890829999,380.6242890829999,380.6242890829999,380.6242890829999,380.6242890829999,380.6242890829999,380.580841458,380.6242890829999,380.6242890829999,380.6242890829999,380.580841458,380.6242890829999,380.6242890829999,380.6242890829999,380.6242890829999,380.6242890829999,385.8320592500004,385.8320592500004,390.80918329199994,None,0,,reldom2_s004,001,2025-01-23_12h26.22.327,Vis-A-Scan_AC,2022.2.5,None,
31,First_Order,6.0,viswhat,stimulus/viswhat_stim/blank_white.png,stimulus/viswhat_stim/blank_white.png,stimulus/viswhat_stim/land_vehicle-rv.png,stimulus/viswhat_stim/land_animal-ostrich.png,stimulus/viswhat_stim/blank_white.png,stimulus/viswhat_stim/type_box.png,stimulus/viswhat_stim/type_yes.png,stimulus/viswhat_stim/type_no.png,None,Type,None,Location,2,0.0,0,5.125,0,5.125,0,5.125,0,0.0,0.625,0,0.0,0,0.0,1,0.5,1,2.125,0,0,0,0,0,0,0,0,0,,,,,0,41,41,41,,,,,,,,,390.80918329199994,390.80918329199994,390.80918329199994,390.80918329199994,390.80918329199994,390.80918329199994,390.80918329199994,390.80918329199994,390.7761939996668,390.80918329199994,390.80918329199994,390.80918329199994,390.7761939996668,390.80918329199994,390.80918329199994,390.80918329199994,392.9070698329997,396.96065129199997,390.80918329199994,390.80918329199994,395.9568559170002,391.2969575830002,392.3225848330003,392.9070698329997,393.93237987500015,390.80918329199994,390.80918329199994,390.7928606663335,390.80918329199994,390.80918329199994,390.80918329199994,390.7928606663335,390.80918329199994,390.80918329199994,395.9568559170002,390.80918329199994,395.9568559170002,396.0322887080001,396.67035725000005,390.80918329199994,2,1,1.301965917000416,reldom2_s004,001,2025-01-23_12h26.22.327,Vis-A-Scan_AC,2022.2.5,None,
32,First_Order,6.0,viswhat,stimulus/viswhat_stim/blank_white.png,stimulus/viswhat_stim/blank_white.png,stimulus/viswhat_stim/land_animal-moose.png,stimulus/viswhat_stim/water_animal-dolphin.png,stimulus/viswhat_stim/blank_white.png,stimulus/viswhat_stim/type_box.png,stimulus/viswhat_stim/type_yes.png,stimulus/viswhat_stim/type_no.png,None,Type,None,Type,1,0.0,0,5.125,0,5.125,0,5.125,0,0.0,0.625,0,0.0,0,0.0,1,0.5,1,2.125,0,0,0,0,0,0,0,0,0,,,,,0,42,42,42,,,,,,,,,396.96065129199997,396.96065129199997,396.96065129199997,396.96065129199997,396.96065129199997,396.96065129199997,396.96065129199997,396.96065129199997,396.86219854200004,396.96065129199997,396.96065129199997,396.96065129199997,396.86219854200004,396.96065129199997,396.96065129199997,396.96065129199997,399.0436794999996,403.0574895,396.96065129199997,396.96065129199997,402.1279106669999,397.4365021249996,398.51027104199966,399.0436794999996,400.115950417,396.96065129199997,396.96065129199997,396.91219854200006,396.96065129199997,396.96065129199997,396.96065129199997,396.91219854200006,396.96065129199997,396.96065129199997,402.1279106669999,396.96065129199997,402.1279106669999,402.1816613330002,403.0574895,396.96065129199997,1,1,0.6171714580004846,reldom2_s004,001,2025-01-23_12h26.22.327,Vis-A-Scan_AC,2022.2.5,None,
33,First_Order,6.0,viswhat,stimulus/viswhat_stim/blank_white.png,stimulus/viswhat_stim/blank_white.png,stimulus/viswhat_stim/land_vehicle-buldozer.png,stimulus/viswhat_stim/water_vehicle-canoe.png,stimulus/viswhat_stim/blank_white.png,stimulus/viswhat_stim/location_box.png,stimulus/viswhat_stim/location_yes.png,stimulus/viswhat_stim/location_no.png,None,Location,None,Type,2,0.0,0,5.125,0,5.125,0,5.125,0,0.0,0.625,0,0.0,0,0.0,1,0.5,1,2.125,0,0,0,0,0,0,0,0,0,,,,,0,43,43,43,,,,,,,,,403.0574895,403.0574895,403.0574895,403.0574895,403.0574895,403.0574895,403.0574895,403.0574895,402.99857012466657,403.0574895,403.0574895,403.0574895,402.99857012466657,403.0574895,403.0574895,403.0574895,405.1480867500004,409.12187816700043,403.0574895,403.0574895,408.20416166700034,403.53285725000023,404.5613720000001,405.1480867500004,406.18209204199957,403.0574895,403.0574895,403.03190345799993,403.0574895,403.0574895,403.0574895,403.03190345799993,403.0574895,403.0574895,408.20416166700034,403.0574895,408.20416166700034,408.2663945000004,408.91573874999995,403.0574895,2,1,0.9040047910002613,reldom2_s004,001,2025-01-23_12h26.22.327,Vis-A-Scan_AC,2022.2.5,None,
34,First_Order,6.0,viswhat,stimulus/viswhat_stim/blank_white.png,stimulus/viswhat_stim/blank_white.png,stimulus/viswhat_stim/land_vehicle-scooter.png,stimulus/viswhat_stim/water_vehicle-motorboatraft.png,stimulus/viswhat_stim/blank_white.png,stimulus/viswhat_stim/location_box.png,stimulus/viswhat_stim/location_yes.png,stimulus/viswhat_stim/location_no.png,None,Location,None,Type,2,0.0,0,5.125,0,5.125,0,5.125,0,0.0,0.625,0,0.0,0,0.0,1,0.5,1,2.125,0,0,0,0,0,0,0,0,0,,,,,0,44,44,44,,,,,,,,,409.12187816700043,409.12187816700043,409.12187816700043,409.12187816700043,409.12187816700043,409.12187816700043,409.12187816700043,409.12187816700043,409.09443187466684,409.12187816700043,409.12187816700043,409.12187816700043,409.09443187466684,409.12187816700043,409.12187816700043,409.12187816700043,411.2269730420003,415.2666147919999,409.12187816700043,409.12187816700043,414.26353366700005,409.60642491700037,410.6193512079999,411.2269730420003,412.24375054200027,409.12187816700043,409.12187816700043,409.1110985413335,409.12187816700043,409.12187816700043,409.12187816700043,409.1110985413335,409.12187816700043,409.12187816700043,414.26353366700005,409.12187816700043,414.26353366700005,414.3424632919996,414.96533366699987,409.12187816700043,2,1,0.7900542080005835,reldom2_s004,001,2025-01-23_12h26.22.327,Vis-A-Scan_AC,2022.2.5,None,
0,0.0,None,fixation,stimulus/viswhat_stim/blank_white.png,stimulus/viswhat_stim/blank_white.png,stimulus/viswhere_stim/blank_white.png,stimulus/viswhere_stim/blank_white.png,stimulus/viswhat_stim/blank_white.png,stimulus/viswhat_stim/blank_white.png,stimulus/viswhat_stim/blank_white.png,stimulus/viswhat_stim/blank_white.png,0.0,0.0,0.0,0.0,0,0.0,0,0.0,0,0.0,0,0.0,0,0.0,0.0,0,0.0,0,0.0,0,0.0,0,0.0,0,0,0,0,0,0,0,0,8,,,,,0,45,45,45,,,,,,,,,415.2666147919999,415.2666147919999,415.2666147919999,415.2666147919999,415.2666147919999,415.2666147919999,415.2666147919999,415.2666147919999,415.16030020833324,415.2666147919999,415.2666147919999,415.2666147919999,415.16030020833324,415.2666147919999,415.2666147919999,415.2666147919999,415.2666147919999,415.2666147919999,415.2666147919999,415.2666147919999,415.2666147919999,415.2666147919999,415.2666147919999,415.2666147919999,415.2666147919999,415.2666147919999,415.2666147919999,415.2269668749999,415.2666147919999,415.2666147919999,415.2666147919999,415.2269668749999,415.2666147919999,415.2666147919999,415.2666147919999,415.2666147919999,415.2666147919999,420.44634487500025,420.44634487500025,423.43356358300025,None,0,,reldom2_s004,001,2025-01-23_12h26.22.327,Vis-A-Scan_AC,2022.2.5,None,
35,Second_Order,6.0,viswhat,stimulus/viswhat_stim/land_vehicle-train.png,stimulus/viswhat_stim/land_animal-moose.png,stimulus/viswhat_stim/land_vehicle-schoolbus.png,stimulus/viswhat_stim/water_vehicle-sailboat.png,stimulus/viswhat_stim/match_blank.png,stimulus/viswhat_stim/match_box.png,stimulus/viswhat_stim/match_yes.png,stimulus/viswhat_stim/match_no.png,2.0,Match,Location,Type,2,5.125,0,5.125,0,5.125,0,5.125,0,0.75,0.75,1,0.5,1,2.125,1,0.5,1,2.125,0,0,0,0,0,0,0,0,0,,,,,0,46,46,46,,,,,,,,,423.43356358300025,428.55657641699963,423.8792149580004,424.8683417499997,425.5048883749996,426.50185774999954,423.43356358300025,423.43356358300025,423.44361208366684,423.43356358300025,423.43356358300025,423.43356358300025,423.44361208366684,423.43356358300025,428.55657641699963,429.4066966669998,431.49459758299963,435.42220754200025,429.4066966669998,429.4066966669998,434.5781627079996,429.87598570800037,430.92082237500017,431.49459758299963,432.54358775000037,429.4066966669998,429.4066966669998,429.3585930836662,429.4066966669998,429.4066966669998,429.4066966669998,429.3585930836662,429.4066966669998,429.4066966669998,434.5781627079996,429.4066966669998,434.5781627079996,434.5781627079996,,429.4066966669998,2,1,1.0911243330001525,reldom2_s004,001,2025-01-23_12h26.22.327,Vis-A-Scan_AC,2022.2.5,None,
36,Second_Order,6.0,viswhat,stimulus/viswhat_stim/land_animal-moose.png,stimulus/viswhat_stim/land_vehicle-schoolbus.png,stimulus/viswhat_stim/land_vehicle-pickuptruck.png,stimulus/viswhat_stim/water_vehicle-canoe(1).png,stimulus/viswhat_stim/match_blank.png,stimulus/viswhat_stim/match_box.png,stimulus/viswhat_stim/match_yes.png,stimulus/viswhat_stim/match_no.png,2.0,Match,Location,Type,2,5.125,0,5.125,0,5.125,0,5.125,0,0.625,0.625,1,0.5,1,2.125,1,0.5,1,2.125,0,0,0,0,0,0,0,0,0,,,,,0,47,47,47,,,,,,,,,435.42220754200025,440.5383106250001,435.86030624999967,436.8591592920002,437.4831850829996,438.47970720800004,435.42220754200025,435.42220754200025,435.42709845800016,435.42220754200025,435.42220754200025,435.42220754200025,435.42709845800016,435.42220754200025,440.5383106250001,441.19945845799975,443.2973512919998,447.3463740420002,441.19945845799975,441.19945845799975,446.32361429199955,441.65846970799976,442.66628112499984,443.2973512919998,444.3123920420003,441.19945845799975,441.19945845799975,441.18554983333297,441.19945845799975,441.19945845799975,441.19945845799975,441.18554983333297,441.19945845799975,441.19945845799975,446.32361429199955,441.19945845799975,446.32361429199955,446.40441779199955,447.03414075,441.19945845799975,2,1,0.7346476250004343,reldom2_s004,001,2025-01-23_12h26.22.327,Vis-A-Scan_AC,2022.2.5,None,
0,0.0,None,fixation,stimulus/viswhat_stim/blank_white.png,stimulus/viswhat_stim/blank_white.png,stimulus/viswhere_stim/blank_white.png,stimulus/viswhere_stim/blank_white.png,stimulus/viswhat_stim/blank_white.png,stimulus/viswhat_stim/blank_white.png,stimulus/viswhat_stim/blank_white.png,stimulus/viswhat_stim/blank_white.png,0.0,0.0,0.0,0.0,0,0.0,0,0.0,0,0.0,0,0.0,0,0.0,0.0,0,0.0,0,0.0,0,0.0,0,0.0,0,0,0,0,0,0,0,0,8,,,,,0,48,48,48,,,,,,,,,447.3463740420002,447.3463740420002,447.3463740420002,447.3463740420002,447.3463740420002,447.3463740420002,447.3463740420002,447.3463740420002,447.25116891700014,447.3463740420002,447.3463740420002,447.3463740420002,447.25116891700014,447.3463740420002,447.3463740420002,447.3463740420002,447.3463740420002,447.3463740420002,447.3463740420002,447.3463740420002,447.3463740420002,447.3463740420002,447.3463740420002,447.3463740420002,447.3463740420002,447.3463740420002,447.3463740420002,447.30116891700015,447.3463740420002,447.3463740420002,447.3463740420002,447.30116891700015,447.3463740420002,447.3463740420002,447.3463740420002,447.3463740420002,447.3463740420002,452.557505625,452.557505625,455.5716925830002,None,0,,reldom2_s004,001,2025-01-23_12h26.22.327,Vis-A-Scan_AC,2022.2.5,None,
37,First_Order,7.0,viswhere,stimulus/viswhere_stim/blank_white.png,stimulus/viswhere_stim/blank_white.png,stimulus/viswhere_stim/120-deg_dot-right_turquoise.png,stimulus/viswhere_stim/120-deg_dot-left_slateblue.png,stimulus/viswhere_stim/blank_white.png,stimulus/viswhere_stim/line_box.png,stimulus/viswhere_stim/line_yes.png,stimulus/viswhere_stim/line_no.png,None,Line,None,Line,1,0.0,0,5.125,0,5.125,0,5.125,0,0.0,0.625,0,0.0,0,0.0,1,0.5,1,2.125,0,0,0,0,0,0,0,0,0,,,,,0,49,49,49,,,,,,,,,455.5716925830002,455.5716925830002,455.5716925830002,455.5716925830002,455.5716925830002,455.5716925830002,455.5716925830002,455.5716925830002,455.5477671666664,455.5716925830002,455.5716925830002,455.5716925830002,455.5477671666664,455.5716925830002,455.5716925830002,455.5716925830002,457.6786205420003,461.62961616699977,455.5716925830002,455.5716925830002,460.7025220830001,456.05630912499964,457.0619682079996,457.6786205420003,458.6922075829998,455.5716925830002,455.5716925830002,455.5644338333331,455.5716925830002,455.5716925830002,455.5716925830002,455.5644338333331,455.5716925830002,455.5716925830002,460.7025220830001,455.5716925830002,460.7025220830001,460.7853693750003,461.4116145420003,455.5716925830002,1,1,0.6457556249997651,reldom2_s004,001,2025-01-23_12h26.22.327,Vis-A-Scan_AC,2022.2.5,None,
38,First_Order,7.0,viswhere,stimulus/viswhere_stim/blank_white.png,stimulus/viswhere_stim/blank_white.png,stimulus/viswhere_stim/30-deg_dot-right_royalblue.png,stimulus/viswhere_stim/30-deg_dot-left_royalblue.png,stimulus/viswhere_stim/blank_white.png,stimulus/viswhere_stim/dot_box.png,stimulus/viswhere_stim/dot_yes.png,stimulus/viswhere_stim/dot_no.png,None,Dot,None,Line,2,0.0,0,5.125,0,5.125,0,5.125,0,0.0,0.625,0,0.0,0,0.0,1,0.5,1,2.125,0,0,0,0,0,0,0,0,0,,,,,0,50,50,50,,,,,,,,,461.62961616699977,461.62961616699977,461.62961616699977,461.62961616699977,461.62961616699977,461.62961616699977,461.62961616699977,461.62961616699977,461.6058933753332,461.62961616699977,461.62961616699977,461.62961616699977,461.6058933753332,461.62961616699977,461.62961616699977,461.62961616699977,463.741568208,467.6981501250002,461.62961616699977,461.62961616699977,466.75144825000007,462.11416462499983,463.12424295799974,463.741568208,464.75487491700005,461.62961616699977,461.62961616699977,461.62256004199986,461.62961616699977,461.62961616699977,461.62961616699977,461.62256004199986,461.62961616699977,461.62961616699977,466.75144825000007,461.62961616699977,466.75144825000007,466.84948279200034,467.4789650829998,461.62961616699977,2,1,0.9762573329999213,reldom2_s004,001,2025-01-23_12h26.22.327,Vis-A-Scan_AC,2022.2.5,None,
39,First_Order,7.0,viswhere,stimulus/viswhere_stim/blank_white.png,stimulus/viswhere_stim/blank_white.png,stimulus/viswhere_stim/150-deg_dot-left_peru.png,stimulus/viswhere_stim/30-deg_dot-left_goldenrod.png,stimulus/viswhere_stim/blank_white.png,stimulus/viswhere_stim/line_box.png,stimulus/viswhere_stim/line_yes.png,stimulus/viswhere_stim/line_no.png,None,Line,None,Dot,2,0.0,0,5.125,0,5.125,0,5.125,0,0.0,0.625,0,0.0,0,0.0,1,0.5,1,2.125,0,0,0,0,0,0,0,0,0,,,,,0,51,51,51,,,,,,,,,467.6981501250002,467.6981501250002,467.6981501250002,467.6981501250002,467.6981501250002,467.6981501250002,467.6981501250002,467.6981501250002,467.67332725033367,467.6981501250002,467.6981501250002,467.6981501250002,467.67332725033367,467.6981501250002,467.6981501250002,467.6981501250002,469.8077161250003,473.7684879999997,467.6981501250002,467.6981501250002,472.82469299999957,468.1868230829996,469.2042209580004,469.8077161250003,470.8115577919998,467.6981501250002,467.6981501250002,467.6899939170003,467.6981501250002,467.6981501250002,467.6981501250002,467.6899939170003,467.6981501250002,467.6981501250002,472.82469299999957,467.6981501250002,472.82469299999957,472.9221335829998,473.55102066699965,467.6981501250002,2,1,0.8188384160002897,reldom2_s004,001,2025-01-23_12h26.22.327,Vis-A-Scan_AC,2022.2.5,None,
40,First_Order,7.0,viswhere,stimulus/viswhere_stim/blank_white.png,stimulus/viswhere_stim/blank_white.png,stimulus/viswhere_stim/120-deg_dot-left_royalblue.png,stimulus/viswhere_stim/120-deg_dot-right_slateblue.png,stimulus/viswhere_stim/blank_white.png,stimulus/viswhere_stim/dot_box.png,stimulus/viswhere_stim/dot_yes.png,stimulus/viswhere_stim/dot_no.png,None,Dot,None,Line,2,0.0,0,5.125,0,5.125,0,5.125,0,0.0,0.625,0,0.0,0,0.0,1,0.5,1,2.125,0,0,0,0,0,0,0,0,0,,,,,0,52,52,52,,,,,,,,,473.7684879999997,473.7684879999997,473.7684879999997,473.7684879999997,473.7684879999997,473.7684879999997,473.7684879999997,473.7684879999997,473.7457966253335,473.7684879999997,473.7684879999997,473.7684879999997,473.7457966253335,473.7684879999997,473.7684879999997,473.7684879999997,475.8847500419997,479.91806283299957,473.7684879999997,473.7684879999997,478.895040292,474.25473283300016,475.266652667,475.8847500419997,476.90073754199966,473.7684879999997,473.7684879999997,473.7624632920002,473.7684879999997,473.7684879999997,473.7684879999997,473.7624632920002,473.7684879999997,473.7684879999997,478.895040292,473.7684879999997,478.895040292,478.99394058300004,479.6204782499999,473.7684879999997,2,1,0.7809407499998997,reldom2_s004,001,2025-01-23_12h26.22.327,Vis-A-Scan_AC,2022.2.5,None,
0,0.0,None,fixation,stimulus/viswhat_stim/blank_white.png,stimulus/viswhat_stim/blank_white.png,stimulus/viswhere_stim/blank_white.png,stimulus/viswhere_stim/blank_white.png,stimulus/viswhat_stim/blank_white.png,stimulus/viswhat_stim/blank_white.png,stimulus/viswhat_stim/blank_white.png,stimulus/viswhat_stim/blank_white.png,0.0,0.0,0.0,0.0,0,0.0,0,0.0,0,0.0,0,0.0,0,0.0,0.0,0,0.0,0,0.0,0,0.0,0,0.0,0,0,0,0,0,0,0,0,9,,,,,0,53,53,53,,,,,,,,,479.91806283299957,479.91806283299957,479.91806283299957,479.91806283299957,479.91806283299957,479.91806283299957,479.91806283299957,479.91806283299957,479.8147739583331,479.91806283299957,479.91806283299957,479.91806283299957,479.8147739583331,479.91806283299957,479.91806283299957,479.91806283299957,479.91806283299957,479.91806283299957,479.91806283299957,479.91806283299957,479.91806283299957,479.91806283299957,479.91806283299957,479.91806283299957,479.91806283299957,479.91806283299957,479.91806283299957,479.8647739583331,479.91806283299957,479.91806283299957,479.91806283299957,479.8647739583331,479.91806283299957,479.91806283299957,479.91806283299957,479.91806283299957,479.91806283299957,485.14536970799963,485.14536970799963,489.02286941700004,None,0,,reldom2_s004,001,2025-01-23_12h26.22.327,Vis-A-Scan_AC,2022.2.5,None,
41,Second_Order,7.0,viswhere,stimulus/viswhere_stim/90-deg_dot-right_seagreen.png,stimulus/viswhere_stim/90-deg_dot-left_salmon.png,stimulus/viswhere_stim/60-deg_dot-left_slateblue.png,stimulus/viswhere_stim/60-deg_dot-right_lightsseagreen.png,stimulus/viswhat_stim/match_blank.png,stimulus/viswhat_stim/match_box.png,stimulus/viswhat_stim/match_yes.png,stimulus/viswhat_stim/match_no.png,1.0,Match,Line,Line,1,5.125,0,5.125,0,5.125,0,5.125,0,0.75,0.75,1,0.5,1,2.125,1,0.5,1,2.125,0,0,0,0,0,0,0,0,0,,,,,0,54,54,54,,,,,,,,,489.02286941700004,494.14731324999957,489.5012539170002,490.4991281250004,491.1223661670001,492.11997087500004,489.02286941700004,489.02286941700004,489.0344438333333,489.02286941700004,489.02286941700004,489.02286941700004,489.0344438333333,489.02286941700004,494.14731324999957,494.92691883299995,497.0265194579997,500.9145723749998,494.92691883299995,494.92691883299995,500.0482244579998,495.3935248329999,496.4063038329996,497.0265194579997,498.044815708,494.92691883299995,494.92691883299995,494.91416879133294,494.92691883299995,494.92691883299995,494.92691883299995,494.91416879133294,494.92691883299995,494.92691883299995,500.0482244579998,494.92691883299995,500.0482244579998,500.1318976250004,500.9145723749998,494.92691883299995,1,1,0.6578253739999127,reldom2_s004,001,2025-01-23_12h26.22.327,Vis-A-Scan_AC,2022.2.5,None,
42,Second_Order,7.0,viswhere,stimulus/viswhere_stim/150-deg_dot-left_cyan.png,stimulus/viswhere_stim/60-deg_dot-left_royalblue.png,stimulus/viswhere_stim/30-deg_dot-right_mediumslateblue.png,stimulus/viswhere_stim/90-deg_dot-right_peru.png,stimulus/viswhat_stim/match_blank.png,stimulus/viswhat_stim/match_box.png,stimulus/viswhat_stim/match_yes.png,stimulus/viswhat_stim/match_no.png,1.0,Match,Dot,Dot,1,5.125,0,5.125,0,5.125,0,5.125,0,0.625,0.625,1,0.5,1,2.125,1,0.5,1,2.125,0,0,0,0,0,0,0,0,0,,,,,0,55,55,55,,,,,,,,,500.9145723749998,506.0352369579996,501.39553004200025,502.3933973330004,503.0166738750004,504.01425674999973,500.9145723749998,500.9145723749998,500.9277950419999,500.9145723749998,500.9145723749998,500.9145723749998,500.9277950419999,500.9145723749998,506.0352369579996,506.69451395800024,508.7976268330003,512.8287192500002,506.69451395800024,506.69451395800024,511.8217918749997,507.16110025000035,508.1740714999996,508.7976268330003,509.81543633300043,506.69451395800024,506.69451395800024,506.686850208333,506.69451395800024,506.69451395800024,506.69451395800024,506.686850208333,506.69451395800024,506.69451395800024,511.8217918749997,506.69451395800024,511.8217918749997,511.9060711250004,512.538097875,506.69451395800024,1,1,0.8527713329995095,reldom2_s004,001,2025-01-23_12h26.22.327,Vis-A-Scan_AC,2022.2.5,None,
0,0.0,None,fixation,stimulus/viswhat_stim/blank_white.png,stimulus/viswhat_stim/blank_white.png,stimulus/viswhere_stim/blank_white.png,stimulus/viswhere_stim/blank_white.png,stimulus/viswhat_stim/blank_white.png,stimulus/viswhat_stim/blank_white.png,stimulus/viswhat_stim/blank_white.png,stimulus/viswhat_stim/blank_white.png,0.0,0.0,0.0,0.0,0,0.0,0,0.0,0,0.0,0,0.0,0,0.0,0.0,0,0.0,0,0.0,0,0.0,0,0.0,0,0,0,0,0,0,0,0,8,,,,,0,56,56,56,,,,,,,,,512.8287192500002,512.8287192500002,512.8287192500002,512.8287192500002,512.8287192500002,512.8287192500002,512.8287192500002,512.8287192500002,512.724315875333,512.8287192500002,512.8287192500002,512.8287192500002,512.724315875333,512.8287192500002,512.8287192500002,512.8287192500002,512.8287192500002,512.8287192500002,512.8287192500002,512.8287192500002,512.8287192500002,512.8287192500002,512.8287192500002,512.8287192500002,512.8287192500002,512.8287192500002,512.8287192500002,512.774315875333,512.8287192500002,512.8287192500002,512.8287192500002,512.774315875333,512.8287192500002,512.8287192500002,512.8287192500002,512.8287192500002,512.8287192500002,518.0493004580003,518.0493004580003,521.0156242499997,None,0,,reldom2_s004,001,2025-01-23_12h26.22.327,Vis-A-Scan_AC,2022.2.5,None,
43,First_Order,8.0,viswhere,stimulus/viswhere_stim/blank_white.png,stimulus/viswhere_stim/blank_white.png,stimulus/viswhere_stim/150-deg_dot-left_lightsseagreen.png,stimulus/viswhere_stim/30-deg_dot-left_salmon.png,stimulus/viswhere_stim/blank_white.png,stimulus/viswhere_stim/dot_box.png,stimulus/viswhere_stim/dot_yes.png,stimulus/viswhere_stim/dot_no.png,None,Dot,None,Dot,1,0.0,0,5.125,0,5.125,0,5.125,0,0.0,0.625,0,0.0,0,0.0,1,0.5,1,2.125,0,0,0,0,0,0,0,0,0,,,,,0,57,57,57,,,,,,,,,521.0156242499997,521.0156242499997,521.0156242499997,521.0156242499997,521.0156242499997,521.0156242499997,521.0156242499997,521.0156242499997,520.9876188336663,521.0156242499997,521.0156242499997,521.0156242499997,520.9876188336663,521.0156242499997,521.0156242499997,521.0156242499997,523.1173730829996,527.0917930420001,521.0156242499997,521.0156242499997,526.1400174999999,521.4834344170004,522.4970070830004,523.1173730829996,524.1324738330004,521.0156242499997,521.0156242499997,521.0042855003329,521.0156242499997,521.0156242499997,521.0156242499997,521.0042855003329,521.0156242499997,521.0156242499997,526.1400174999999,521.0156242499997,526.1400174999999,526.2290424579996,526.8542912080002,521.0156242499997,2,0,0.8194968750003682,reldom2_s004,001,2025-01-23_12h26.22.327,Vis-A-Scan_AC,2022.2.5,None,
44,First_Order,8.0,viswhere,stimulus/viswhere_stim/blank_white.png,stimulus/viswhere_stim/blank_white.png,stimulus/viswhere_stim/150-deg_dot-right_seagreen.png,stimulus/viswhere_stim/150-deg_dot-left_goldenrod.png,stimulus/viswhere_stim/blank_white.png,stimulus/viswhere_stim/line_box.png,stimulus/viswhere_stim/line_yes.png,stimulus/viswhere_stim/line_no.png,None,Line,None,Line,1,0.0,0,5.125,0,5.125,0,5.125,0,0.0,0.625,0,0.0,0,0.0,1,0.5,1,2.125,0,0,0,0,0,0,0,0,0,,,,,0,58,58,58,,,,,,,,,527.0917930420001,527.0917930420001,527.0917930420001,527.0917930420001,527.0917930420001,527.0917930420001,527.0917930420001,527.0917930420001,527.066169166333,527.0917930420001,527.0917930420001,527.0917930420001,527.066169166333,527.0917930420001,527.0917930420001,527.0917930420001,529.1905917499998,533.1564616670003,527.0917930420001,527.0917930420001,532.2168796670003,527.5818005000001,528.6030741670002,529.1905917499998,530.1977940830002,527.0917930420001,527.0917930420001,527.0828358329996,527.0917930420001,527.0917930420001,527.0917930420001,527.0828358329996,527.0917930420001,527.0917930420001,532.2168796670003,527.0917930420001,532.2168796670003,532.3201879170001,532.9634630829996,527.0917930420001,1,1,0.5504167080007392,reldom2_s004,001,2025-01-23_12h26.22.327,Vis-A-Scan_AC,2022.2.5,None,
45,First_Order,8.0,viswhere,stimulus/viswhere_stim/blank_white.png,stimulus/viswhere_stim/blank_white.png,stimulus/viswhere_stim/150-deg_dot-left_seagreen.png,stimulus/viswhere_stim/60-deg_dot-left_turquoise.png,stimulus/viswhere_stim/blank_white.png,stimulus/viswhere_stim/dot_box.png,stimulus/viswhere_stim/dot_yes.png,stimulus/viswhere_stim/dot_no.png,None,Dot,None,Dot,1,0.0,0,5.125,0,5.125,0,5.125,0,0.0,0.625,0,0.0,0,0.0,1,0.5,1,2.125,0,0,0,0,0,0,0,0,0,,,,,0,59,59,59,,,,,,,,,533.1564616670003,533.1564616670003,533.1564616670003,533.1564616670003,533.1564616670003,533.1564616670003,533.1564616670003,533.1564616670003,533.1327823333335,533.1564616670003,533.1564616670003,533.1564616670003,533.1327823333335,533.1564616670003,533.1564616670003,533.1564616670003,535.2612880420002,539.2244706250003,533.1564616670003,533.1564616670003,538.2882387919999,533.6435729579998,534.6588671250001,535.2612880420002,536.2819405,533.1564616670003,533.1564616670003,533.1494490000001,533.1564616670003,533.1564616670003,533.1564616670003,533.1494490000001,533.1564616670003,533.1564616670003,538.2882387919999,533.1564616670003,538.2882387919999,538.3925464169997,539.0439689579998,533.1564616670003,1,1,0.907416791000287,reldom2_s004,001,2025-01-23_12h26.22.327,Vis-A-Scan_AC,2022.2.5,None,
46,First_Order,8.0,viswhere,stimulus/viswhere_stim/blank_white.png,stimulus/viswhere_stim/blank_white.png,stimulus/viswhere_stim/150-deg_dot-left_lightsseagreen.png,stimulus/viswhere_stim/60-deg_dot-left_royalblue.png,stimulus/viswhere_stim/blank_white.png,stimulus/viswhere_stim/line_box.png,stimulus/viswhere_stim/line_yes.png,stimulus/viswhere_stim/line_no.png,None,Line,None,Dot,2,0.0,0,5.125,0,5.125,0,5.125,0,0.0,0.625,0,0.0,0,0.0,1,0.5,1,2.125,0,0,0,0,0,0,0,0,0,,,,,0,60,60,60,,,,,,,,,539.2244706250003,539.2244706250003,539.2244706250003,539.2244706250003,539.2244706250003,539.2244706250003,539.2244706250003,539.2244706250003,539.1968526663335,539.2244706250003,539.2244706250003,539.2244706250003,539.1968526663335,539.2244706250003,539.2244706250003,539.2244706250003,541.3320105829998,545.363089292,539.2244706250003,539.2244706250003,544.3630208329996,539.6936914170001,540.7100289170003,541.3320105829998,542.3518276249997,539.2244706250003,539.2244706250003,539.2135193330001,539.2244706250003,539.2244706250003,539.2244706250003,539.2135193330001,539.2244706250003,539.2244706250003,544.3630208329996,539.2244706250003,544.3630208329996,544.4485258329996,545.0912951250002,539.2244706250003,2,1,1.1890458750003745,reldom2_s004,001,2025-01-23_12h26.22.327,Vis-A-Scan_AC,2022.2.5,None,
0,0.0,None,fixation,stimulus/viswhat_stim/blank_white.png,stimulus/viswhat_stim/blank_white.png,stimulus/viswhere_stim/blank_white.png,stimulus/viswhere_stim/blank_white.png,stimulus/viswhat_stim/blank_white.png,stimulus/viswhat_stim/blank_white.png,stimulus/viswhat_stim/blank_white.png,stimulus/viswhat_stim/blank_white.png,0.0,0.0,0.0,0.0,0,0.0,0,0.0,0,0.0,0,0.0,0,0.0,0.0,0,0.0,0,0.0,0,0.0,0,0.0,0,0,0,0,0,0,0,0,9,,,,,0,61,61,61,,,,,,,,,545.363089292,545.363089292,545.363089292,545.363089292,545.363089292,545.363089292,545.363089292,545.363089292,545.2606816253332,545.363089292,545.363089292,545.363089292,545.2606816253332,545.363089292,545.363089292,545.363089292,545.363089292,545.363089292,545.363089292,545.363089292,545.363089292,545.363089292,545.363089292,545.363089292,545.363089292,545.363089292,545.363089292,545.3106816253331,545.363089292,545.363089292,545.363089292,545.3106816253331,545.363089292,545.363089292,545.363089292,545.363089292,545.363089292,550.589053875,550.589053875,554.5189343749998,None,0,,reldom2_s004,001,2025-01-23_12h26.22.327,Vis-A-Scan_AC,2022.2.5,None,
47,Second_Order,8.0,viswhere,stimulus/viswhere_stim/120-deg_dot-left_goldenrod.png,stimulus/viswhere_stim/120-deg_dot-right_seagreen.png,stimulus/viswhere_stim/90-deg_dot-left_peru.png,stimulus/viswhere_stim/90-deg_dot-right_turquoise.png,stimulus/viswhat_stim/match_blank.png,stimulus/viswhat_stim/match_box.png,stimulus/viswhat_stim/match_yes.png,stimulus/viswhat_stim/match_no.png,1.0,Match,Line,Line,1,5.125,0,5.125,0,5.125,0,5.125,0,0.75,0.75,1,0.5,1,2.125,1,0.5,1,2.125,0,0,0,0,0,0,0,0,0,,,,,0,62,62,62,,,,,,,,,554.5189343749998,559.6424214580002,555.0020657499999,556.0004380419996,556.6229834169999,557.6208672080002,554.5189343749998,554.5189343749998,554.5308065413329,554.5189343749998,554.5189343749998,554.5189343749998,554.5308065413329,554.5189343749998,559.6424214580002,560.4227647500002,562.5110656249999,566.4273788749997,560.4227647500002,560.4227647500002,565.5439999999999,560.8908847920002,561.9057401250002,562.5110656249999,563.5315678329998,560.4227647500002,560.4227647500002,560.4105577503337,560.4227647500002,560.4227647500002,560.4227647500002,560.4105577503337,560.4227647500002,560.4227647500002,565.5439999999999,560.4227647500002,565.5439999999999,565.6271903329998,566.3902211249997,560.4227647500002,1,1,0.6373895830001857,reldom2_s004,001,2025-01-23_12h26.22.327,Vis-A-Scan_AC,2022.2.5,None,
48,Second_Order,8.0,viswhere,stimulus/viswhere_stim/150-deg_dot-right_salmon.png,stimulus/viswhere_stim/90-deg_dot-right_cyan.png,stimulus/viswhere_stim/60-deg_dot-left_mediumslateblue.png,stimulus/viswhere_stim/30-deg_dot-left_turquoise.png,stimulus/viswhat_stim/match_blank.png,stimulus/viswhat_stim/match_box.png,stimulus/viswhat_stim/match_yes.png,stimulus/viswhat_stim/match_no.png,1.0,Match,Dot,Dot,1,5.125,0,5.125,0,5.125,0,5.125,0,0.625,0.625,1,0.5,1,2.125,1,0.5,1,2.125,0,0,0,0,0,0,0,0,0,,,,,0,63,63,63,,,,,,,,,566.4273788749997,571.5418814579998,566.9131473750003,567.911562667,568.5343083750004,569.5318486249998,566.4273788749997,566.4273788749997,566.4402211249997,566.4273788749997,566.4273788749997,566.4273788749997,566.4402211249997,566.4273788749997,571.5418814579998,572.1996466250002,574.2966779999997,578.3271884169999,572.1996466250002,572.1996466250002,577.3354849999996,572.6659044170001,573.6763647919997,574.2966779999997,575.3142001670003,572.1996466250002,572.1996466250002,572.1877978333337,572.1996466250002,572.1996466250002,572.1996466250002,572.1877978333337,572.1996466250002,572.1996466250002,577.3354849999996,572.1996466250002,577.3354849999996,577.4100871669998,578.0418229999996,572.1996466250002,1,1,0.6102192500002275,reldom2_s004,001,2025-01-23_12h26.22.327,Vis-A-Scan_AC,2022.2.5,None,
0,0.0,None,fixation,stimulus/viswhat_stim/blank_white.png,stimulus/viswhat_stim/blank_white.png,stimulus/viswhere_stim/blank_white.png,stimulus/viswhere_stim/blank_white.png,stimulus/viswhat_stim/blank_white.png,stimulus/viswhat_stim/blank_white.png,stimulus/viswhat_stim/blank_white.png,stimulus/viswhat_stim/blank_white.png,0.0,0.0,0.0,0.0,0,0.0,0,0.0,0,0.0,0,0.0,0,0.0,0.0,0,0.0,0,0.0,0,0.0,0,0.0,0,0,0,0,0,0,0,0,16,,,,,0,64,64,64,,,,,,,,,578.3271884169999,578.3271884169999,578.3271884169999,578.3271884169999,578.3271884169999,578.3271884169999,578.3271884169999,578.3271884169999,578.2217777083337,578.3271884169999,578.3271884169999,578.3271884169999,578.2217777083337,578.3271884169999,578.3271884169999,578.3271884169999,578.3271884169999,578.3271884169999,578.3271884169999,578.3271884169999,578.3271884169999,578.3271884169999,578.3271884169999,578.3271884169999,578.3271884169999,578.3271884169999,578.3271884169999,578.2717777083336,578.3271884169999,578.3271884169999,578.3271884169999,578.2717777083336,578.3271884169999,578.3271884169999,578.3271884169999,578.3271884169999,578.3271884169999,583.5450747499999,583.5450747499999,594.502657,None,0,,reldom2_s004,001,2025-01-23_12h26.22.327,Vis-A-Scan_AC,2022.2.5,None,
