Trial,Order,Block,Type,Stimuli_File1,Stimuli_File2,Stimuli_File3,Stimuli_File4,Cue_File1,Cue_File2,Response_File_Yes,Response_File_No,Match,Cue_Dimension,Pair1_Dimension,Pair2_Dimension,Key,Cue1_Duration,Cue1_Onset,Cue2_Duration,Cue2_Onset,ResponseYes_Duration,ResponseYes_Onset,ResponseNo_Duration,ResponseNo_Onset,ITI_Within,ITI_Between,Image1_Duration,Image1_Onset,Image2_Duration,Image2_Onset,Image3_Duration,Image3_Onset,Image4_Duration,Image4_Onset,Sound1_Duration,Sound1_Onset,Sound2_Duration,Sound2_Onset,Sound3_Duration,Sound3_Onset,Sound4_Duration,Sound4_Onset,Fixation_Duration,trials_2.thisRepN,trials_2.thisTrialN,trials_2.thisN,trials_2.thisIndex,trials.thisRepN,trials.thisTrialN,trials.thisN,trials.thisIndex,text_start.started,key_resp_start.started,key_resp_start.keys,key_resp_start.rt,text2.started,key_resp_2.started,key_resp_2.keys,key_resp_2.rt,cue_file1.started,cue_file1.stopped,image_1.started,image_1.stopped,image_2.started,image_2.stopped,sound_icon1.started,sound_icon1.stopped,sound_1.started,sound_1.stopped,sound_icon2.started,sound_icon2.stopped,sound_2.started,sound_2.stopped,image_blank_1.started,image_blank_1.stopped,key_press.started,key_press.stopped,fixation_text.started,cue_file2.started,cue_file2.stopped,image_3.started,image_3.stopped,image_4.started,image_4.stopped,sound_icon3.started,sound_icon3.stopped,sound_3.started,sound_3.stopped,sound_icon4.started,sound_icon4.stopped,sound_4.started,sound_4.stopped,response_yes.started,response_yes.stopped,response_no.started,response_no.stopped,iti_blank.started,iti_blank.stopped,fixation_text.stopped,key_press.keys,key_press.corr,key_press.rt,participant,session,date,expName,psychopyVersion,frameRate,
,,,,,,,,,,,,,,,,,,,,,,,,,,,,,,,,,,,,,,,,,,,,,,,,,,,,7.962527207999756,7.962527207999756,2,1.9978129580003952,,,,,,,,,,,,,,,,,,,,,,,,,,,,,,,,,,,,,,,,,,,,,,,,reldom2_s004,001,2025-01-23_12h14.56.739,Aud-A-Scan_AC,2022.2.5,None,
,,,,,,,,,,,,,,,,,,,,,,,,,,,,,,,,,,,,,,,,,,,,0,0,0,0,,,,,,,,,9.978997374999835,9.978997374999835,5,17.705683666999903,,,,,,,,,,,,,,,,,,,,,,,,,,,,,,,,,,,,,,,,,,,,reldom2_s004,001,2025-01-23_12h14.56.739,Aud-A-Scan_AC,2022.2.5,None,
,,,,,,,,,,,,,,,,,,,,,,,,,,,,,,,,,,,,,,,,,,,,1,0,1,0,,,,,,,,,27.69813033299988,27.69813033299988,5,1.9865570000001753,,,,,,,,,,,,,,,,,,,,,,,,,,,,,,,,,,,,,,,,,,,,reldom2_s004,001,2025-01-23_12h14.56.739,Aud-A-Scan_AC,2022.2.5,None,
,,,,,,,,,,,,,,,,,,,,,,,,,,,,,,,,,,,,,,,,,,,,2,0,2,0,,,,,,,,,29.694917583000006,29.694917583000006,5,1.9907035000005635,,,,,,,,,,,,,,,,,,,,,,,,,,,,,,,,,,,,,,,,,,,,reldom2_s004,001,2025-01-23_12h14.56.739,Aud-A-Scan_AC,2022.2.5,None,
,,,,,,,,,,,,,,,,,,,,,,,,,,,,,,,,,,,,,,,,,,,,3,0,3,0,,,,,,,,,31.695721707999837,31.695721707999837,5,1.98878891700042,,,,,,,,,,,,,,,,,,,,,,,,,,,,,,,,,,,,,,,,,,,,reldom2_s004,001,2025-01-23_12h14.56.739,Aud-A-Scan_AC,2022.2.5,None,
0,0.0,None,fixation,stimulus/audwhere_stim/blank_white.png,stimulus/audwhere_stim/blank_white.png,stimulus/audwhat_stim/blank_white.png,stimulus/audwhat_stim/blank_white.png,stimulus/audwhere_stim/blank_white.png,stimulus/audwhere_stim/blank_white.png,stimulus/audwhere_stim/blank_white.png,stimulus/audwhere_stim/blank_white.png,0.0,0.0,0.0,0.0,0,0.0,0,0.0,0,0.0,0,0.0,0,0.0,0.0,0,0,0,0,0,0,0,0,0,0.0,0,0.0,0,0.0,0,0.0,16,,,,,0,0,0,0,,,,,,,,,33.88706870799979,33.88706870799979,33.88706870799979,33.88706870799979,33.88706870799979,33.88706870799979,33.88706870799979,33.88706870799979,33.79504604099984,33.88706870799979,33.88706870799979,33.88706870799979,33.79504604099984,33.88706870799979,33.88706870799979,33.88706870799979,33.88706870799979,33.88706870799979,33.88706870799979,33.88706870799979,33.88706870799979,33.88706870799979,33.88706870799979,33.88706870799979,33.88706870799979,33.88706870799979,33.88706870799979,33.84504604099984,33.88706870799979,33.88706870799979,33.88706870799979,33.84504604099984,33.88706870799979,33.88706870799979,33.88706870799979,33.88706870799979,33.88706870799979,39.085995915999774,39.085995915999774,50.12191020799992,None,0,,reldom2_s004,001,2025-01-23_12h14.56.739,Aud-A-Scan_AC,2022.2.5,None,
1,First_Order,1.0,audwhere,stimulus/audwhere_stim/dummy.wav,stimulus/audwhere_stim/dummy.wav,stimulus/audwhere_stim/left_away_280h.wav,stimulus/audwhere_stim/right_away_290h.wav,stimulus/audwhere_stim/blank_white.png,stimulus/audwhere_stim/direction_box.png,stimulus/audwhere_stim/direction_yes.png,stimulus/audwhere_stim/direction_no.png,None,Direction,None,Direction,1,0.0,0,5.125,0,5.125,0,5.125,0,0.0,0.625,0,0,0,0,0,0,0,0,0,0.0,0,0.0,1,0.5,1,2.125,0,,,,,0,1,1,1,,,,,,,,,50.12191020799992,50.12191020799992,50.12191020799992,50.12191020799992,50.12191020799992,50.12191020799992,50.12191020799992,50.12191020799992,50.046052332999714,50.12191020799992,50.12191020799992,50.12191020799992,50.046052332999714,50.12191020799992,50.12191020799992,50.12191020799992,52.216200874999686,56.23671120799963,50.12191020799992,50.12191020799992,55.284629666,50.12191020799992,50.12191020799992,50.12191020799992,50.12191020799992,50.58673083299982,51.65825370799985,50.55677574966627,,52.216200874999686,53.285603541,52.18667020766658,,50.12191020799992,55.284629666,50.12191020799992,55.284629666,55.326322457999595,55.98277195799983,50.12191020799992,1,1,1.401755334000427,reldom2_s004,001,2025-01-23_12h14.56.739,Aud-A-Scan_AC,2022.2.5,None,
2,First_Order,1.0,audwhere,stimulus/audwhere_stim/dummy.wav,stimulus/audwhere_stim/dummy.wav,stimulus/audwhere_stim/left_away_270h.wav,stimulus/audwhere_stim/left_toward_270h.wav,stimulus/audwhere_stim/blank_white.png,stimulus/audwhere_stim/direction_box.png,stimulus/audwhere_stim/direction_yes.png,stimulus/audwhere_stim/direction_no.png,None,Direction,None,Side,2,0.0,0,5.125,0,5.125,0,5.125,0,0.0,0.625,0,0,0,0,0,0,0,0,0,0.0,0,0.0,1,0.5,1,2.125,0,,,,,0,2,2,2,,,,,,,,,56.23671120799963,56.23671120799963,56.23671120799963,56.23671120799963,56.23671120799963,56.23671120799963,56.23671120799963,56.23671120799963,56.15750754133308,56.23671120799963,56.23671120799963,56.23671120799963,56.15750754133308,56.23671120799963,56.23671120799963,56.23671120799963,58.33356108299995,62.37130529099977,56.23671120799963,56.23671120799963,61.4166739999996,56.23671120799963,56.23671120799963,56.23671120799963,56.23671120799963,56.703634249999595,57.77524012499998,56.67342308266667,,58.33356108299995,59.407404957999915,58.30312858266667,,56.23671120799963,61.4166739999996,56.23671120799963,61.4166739999996,61.45836766599996,62.11366295799962,56.23671120799963,2,1,1.1351552500000253,reldom2_s004,001,2025-01-23_12h14.56.739,Aud-A-Scan_AC,2022.2.5,None,
3,First_Order,1.0,audwhere,stimulus/audwhere_stim/dummy.wav,stimulus/audwhere_stim/dummy.wav,stimulus/audwhere_stim/left_toward_300h.wav,stimulus/audwhere_stim/left_away_280h.wav,stimulus/audwhere_stim/blank_white.png,stimulus/audwhere_stim/direction_box.png,stimulus/audwhere_stim/direction_yes.png,stimulus/audwhere_stim/direction_no.png,None,Direction,None,Side,2,0.0,0,5.125,0,5.125,0,5.125,0,0.0,0.625,0,0,0,0,0,0,0,0,0,0.0,0,0.0,1,0.5,1,2.125,0,,,,,0,3,3,3,,,,,,,,,62.37130529099977,62.37130529099977,62.37130529099977,62.37130529099977,62.37130529099977,62.37130529099977,62.37130529099977,62.37130529099977,62.28795279133295,62.37130529099977,62.37130529099977,62.37130529099977,62.28795279133295,62.37130529099977,62.37130529099977,62.37130529099977,64.48042870799964,68.4863805,62.37130529099977,62.37130529099977,67.52565841599971,62.37130529099977,62.37130529099977,62.37130529099977,62.37130529099977,62.842380540999784,63.872847332999754,62.811622582666374,,64.48042870799964,65.51267349999989,64.45052783266625,,62.37130529099977,67.52565841599971,62.37130529099977,67.52565841599971,67.56672970799991,68.22839408299978,62.37130529099977,2,1,1.291557042000477,reldom2_s004,001,2025-01-23_12h14.56.739,Aud-A-Scan_AC,2022.2.5,None,
4,First_Order,1.0,audwhere,stimulus/audwhere_stim/dummy.wav,stimulus/audwhere_stim/dummy.wav,stimulus/audwhere_stim/left_away_270h.wav,stimulus/audwhere_stim/left_toward_290h.wav,stimulus/audwhere_stim/blank_white.png,stimulus/audwhere_stim/side_box.png,stimulus/audwhere_stim/side_yes.png,stimulus/audwhere_stim/side_no.png,None,Side,None,Side,1,0.0,0,5.125,0,5.125,0,5.125,0,0.0,0.625,0,0,0,0,0,0,0,0,0,0.0,0,0.0,1,0.5,1,2.125,0,,,,,0,4,4,4,,,,,,,,,68.4863805,68.4863805,68.4863805,68.4863805,68.4863805,68.4863805,68.4863805,68.4863805,68.40302424933327,68.4863805,68.4863805,68.4863805,68.40302424933327,68.4863805,68.4863805,68.4863805,70.58931887499966,,68.4863805,68.4863805,73.63851658299973,68.4863805,68.4863805,68.4863805,68.4863805,68.9524575409996,69.98211520799987,68.92221058266638,,70.58931887499966,71.62121662499976,70.55861937466649,,68.4863805,73.63851658299973,68.4863805,73.63851658299973,73.67935016599995,74.34166287499966,68.4863805,1,1,1.0836537500003942,reldom2_s004,001,2025-01-23_12h14.56.739,Aud-A-Scan_AC,2022.2.5,None,
0,0.0,None,fixation,stimulus/audwhere_stim/blank_white.png,stimulus/audwhere_stim/blank_white.png,stimulus/audwhat_stim/blank_white.png,stimulus/audwhat_stim/blank_white.png,stimulus/audwhere_stim/blank_white.png,stimulus/audwhere_stim/blank_white.png,stimulus/audwhere_stim/blank_white.png,stimulus/audwhere_stim/blank_white.png,0.0,0.0,0.0,0.0,0,0.0,0,0.0,0,0.0,0,0.0,0,0.0,0.0,0,0,0,0,0,0,0,0,0,0.0,0,0.0,0,0.0,0,0.0,9,,,,,0,5,5,5,,,,,,,,,74.61906208299979,74.61906208299979,74.61906208299979,74.61906208299979,74.61906208299979,74.61906208299979,74.61906208299979,74.61906208299979,74.51634916633304,74.61906208299979,74.61906208299979,74.61906208299979,74.51634916633304,74.61906208299979,74.61906208299979,74.61906208299979,74.61906208299979,74.61906208299979,74.61906208299979,74.61906208299979,74.61906208299979,74.61906208299979,74.61906208299979,74.61906208299979,74.61906208299979,74.61906208299979,74.61906208299979,74.56634916633305,74.61906208299979,74.61906208299979,74.61906208299979,74.56634916633305,74.61906208299979,74.61906208299979,74.61906208299979,74.61906208299979,74.61906208299979,79.84703174999959,79.84703174999959,83.76432583299993,None,0,,reldom2_s004,001,2025-01-23_12h14.56.739,Aud-A-Scan_AC,2022.2.5,None,
5,Second_Order,1.0,audwhere,stimulus/audwhere_stim/left_away_290h.wav,stimulus/audwhere_stim/right_away_300h.wav,stimulus/audwhere_stim/right_toward_290h.wav,stimulus/audwhere_stim/left_toward_300h.wav,stimulus/audwhere_stim/match_blank.png,stimulus/audwhere_stim/match_box.png,stimulus/audwhere_stim/match_yes.png,stimulus/audwhere_stim/match_no.png,1.0,Match,Direction,Direction,1,5.125,0,5.125,0,5.125,0,5.125,0,0.75,0.75,0,0,0,0,0,0,0,0,1,0.5,1,2.125,1,0.5,1,2.125,0,,,,,0,6,6,6,,,,,,,,,83.76432583299993,88.87743641599991,83.76432583299993,83.76432583299993,83.76432583299993,83.76432583299993,84.21480199999996,85.21382941599995,84.2279362076663,85.22195058299985,85.83655170799966,86.83428424999966,85.84838487466665,86.84231783299992,88.87743641599991,89.70925699999998,91.80609849999973,,89.70925699999998,89.70925699999998,94.8870459159998,89.70925699999998,89.70925699999998,89.70925699999998,89.70925699999998,90.17461729099978,91.24484604099962,90.14529237466628,,91.80609849999973,92.8381721249998,91.77615158266669,,89.70925699999998,94.8870459159998,89.70925699999998,94.8870459159998,94.8870459159998,,89.70925699999998,1,1,1.1258800420000625,reldom2_s004,001,2025-01-23_12h14.56.739,Aud-A-Scan_AC,2022.2.5,None,
6,Second_Order,1.0,audwhere,stimulus/audwhere_stim/left_away_280h.wav,stimulus/audwhere_stim/right_away_280h.wav,stimulus/audwhere_stim/left_away_300h.wav,stimulus/audwhere_stim/left_toward_280h.wav,stimulus/audwhere_stim/match_blank.png,stimulus/audwhere_stim/match_box.png,stimulus/audwhere_stim/match_yes.png,stimulus/audwhere_stim/match_no.png,2.0,Match,Direction,Side,2,5.125,0,5.125,0,5.125,0,5.125,0,0.625,0.625,0,0,0,0,0,0,0,0,1,0.5,1,2.125,1,0.5,1,2.125,0,,,,,0,7,7,7,,,,,,,,,95.70488499999965,100.82291204099965,95.70488499999965,95.70488499999965,95.70488499999965,95.70488499999965,96.15779270799976,97.14505170799976,96.17197383266627,97.16614466599958,97.78090099999963,98.77797454099982,97.79301458266652,98.78616262499963,100.82291204099965,101.52082624999957,103.61589520799998,,101.52082624999957,101.52082624999957,106.6977133749997,101.52082624999957,101.52082624999957,101.52082624999957,101.52082624999957,101.9881533329999,103.05589999999984,101.9589213746665,,103.61589520799998,104.69149108299962,103.58631458266633,,101.52082624999957,106.6977133749997,101.52082624999957,106.6977133749997,106.73937858299996,107.39731841599996,101.52082624999957,2,1,1.251883958000235,reldom2_s004,001,2025-01-23_12h14.56.739,Aud-A-Scan_AC,2022.2.5,None,
0,0.0,None,fixation,stimulus/audwhere_stim/blank_white.png,stimulus/audwhere_stim/blank_white.png,stimulus/audwhat_stim/blank_white.png,stimulus/audwhat_stim/blank_white.png,stimulus/audwhere_stim/blank_white.png,stimulus/audwhere_stim/blank_white.png,stimulus/audwhere_stim/blank_white.png,stimulus/audwhere_stim/blank_white.png,0.0,0.0,0.0,0.0,0,0.0,0,0.0,0,0.0,0,0.0,0,0.0,0.0,0,0,0,0,0,0,0,0,0,0.0,0,0.0,0,0.0,0,0.0,10,,,,,0,8,8,8,,,,,,,,,107.638006958,107.638006958,107.638006958,107.638006958,107.638006958,107.638006958,107.638006958,107.638006958,107.53065174933329,107.638006958,107.638006958,107.638006958,107.53065174933329,107.638006958,107.638006958,107.638006958,107.638006958,107.638006958,107.638006958,107.638006958,107.638006958,107.638006958,107.638006958,107.638006958,107.638006958,107.638006958,107.638006958,107.59731841599996,107.638006958,107.638006958,107.638006958,107.59731841599996,107.638006958,107.638006958,107.638006958,107.638006958,107.638006958,112.85036537499991,112.85036537499991,117.8864492079997,None,0,,reldom2_s004,001,2025-01-23_12h14.56.739,Aud-A-Scan_AC,2022.2.5,None,
7,First_Order,2.0,audwhere,stimulus/audwhere_stim/dummy.wav,stimulus/audwhere_stim/dummy.wav,stimulus/audwhere_stim/left_away_300h.wav,stimulus/audwhere_stim/right_away_300h.wav,stimulus/audwhere_stim/blank_white.png,stimulus/audwhere_stim/side_box.png,stimulus/audwhere_stim/side_yes.png,stimulus/audwhere_stim/side_no.png,None,Side,None,Direction,2,0.0,0,5.125,0,5.125,0,5.125,0,0.0,0.625,0,0,0,0,0,0,0,0,0,0.0,0,0.0,1,0.5,1,2.125,0,,,,,0,9,9,9,,,,,,,,,117.8864492079997,117.8864492079997,117.8864492079997,117.8864492079997,117.8864492079997,117.8864492079997,117.8864492079997,117.8864492079997,117.80970883266643,117.8864492079997,117.8864492079997,117.8864492079997,117.80970883266643,117.8864492079997,117.8864492079997,117.8864492079997,119.99514216599982,124.00288049999972,117.8864492079997,117.8864492079997,123.04129408299968,117.8864492079997,117.8864492079997,117.8864492079997,117.8864492079997,118.35438491599962,119.38554608300001,118.32388891666666,,119.99514216599982,121.03111454099962,119.96432999966625,,117.8864492079997,123.04129408299968,117.8864492079997,123.04129408299968,123.0831603749998,123.74523012499958,117.8864492079997,2,1,0.6046541660002731,reldom2_s004,001,2025-01-23_12h14.56.739,Aud-A-Scan_AC,2022.2.5,None,
8,First_Order,2.0,audwhere,stimulus/audwhere_stim/dummy.wav,stimulus/audwhere_stim/dummy.wav,stimulus/audwhere_stim/left_away_280h.wav,stimulus/audwhere_stim/right_away_270h.wav,stimulus/audwhere_stim/blank_white.png,stimulus/audwhere_stim/side_box.png,stimulus/audwhere_stim/side_yes.png,stimulus/audwhere_stim/side_no.png,None,Side,None,Direction,2,0.0,0,5.125,0,5.125,0,5.125,0,0.0,0.625,0,0,0,0,0,0,0,0,0,0.0,0,0.0,1,0.5,1,2.125,0,,,,,0,10,10,10,,,,,,,,,124.00288049999972,124.00288049999972,124.00288049999972,124.00288049999972,124.00288049999972,124.00288049999972,124.00288049999972,124.00288049999972,123.91995270833297,124.00288049999972,124.00288049999972,124.00288049999972,123.91995270833297,124.00288049999972,124.00288049999972,124.00288049999972,126.11639833299978,130.1284609999998,124.00288049999972,124.00288049999972,129.16595608299986,124.00288049999972,124.00288049999972,124.00288049999972,124.00288049999972,124.47156404099997,125.5070948749999,124.44137808266647,,126.11639833299978,127.15015316599965,126.08607820766635,,124.00288049999972,129.16595608299986,124.00288049999972,129.16595608299986,129.20715341599998,129.87146541599986,124.00288049999972,2,1,0.6137389580003401,reldom2_s004,001,2025-01-23_12h14.56.739,Aud-A-Scan_AC,2022.2.5,None,
9,First_Order,2.0,audwhere,stimulus/audwhere_stim/dummy.wav,stimulus/audwhere_stim/dummy.wav,stimulus/audwhere_stim/left_away_280h.wav,stimulus/audwhere_stim/right_away_300h.wav,stimulus/audwhere_stim/blank_white.png,stimulus/audwhere_stim/direction_box.png,stimulus/audwhere_stim/direction_yes.png,stimulus/audwhere_stim/direction_no.png,None,Direction,None,Direction,1,0.0,0,5.125,0,5.125,0,5.125,0,0.0,0.625,0,0,0,0,0,0,0,0,0,0.0,0,0.0,1,0.5,1,2.125,0,,,,,0,11,11,11,,,,,,,,,130.1284609999998,130.1284609999998,130.1284609999998,130.1284609999998,130.1284609999998,130.1284609999998,130.1284609999998,130.1284609999998,130.04596616633322,130.1284609999998,130.1284609999998,130.1284609999998,130.04596616633322,130.1284609999998,130.1284609999998,130.1284609999998,132.2111910409999,136.2505259579998,130.1284609999998,130.1284609999998,135.28414291599984,130.1284609999998,130.1284609999998,130.1284609999998,130.1284609999998,130.60163324999985,131.6426823329998,130.57057908266668,,132.2111910409999,133.25350574999993,132.18020999966646,,130.1284609999998,135.28414291599984,130.1284609999998,135.28414291599984,135.32549312499987,135.99237374999984,130.1284609999998,1,1,1.5251848330003668,reldom2_s004,001,2025-01-23_12h14.56.739,Aud-A-Scan_AC,2022.2.5,None,
10,First_Order,2.0,audwhere,stimulus/audwhere_stim/dummy.wav,stimulus/audwhere_stim/dummy.wav,stimulus/audwhere_stim/right_away_270h.wav,stimulus/audwhere_stim/right_toward_300h.wav,stimulus/audwhere_stim/blank_white.png,stimulus/audwhere_stim/side_box.png,stimulus/audwhere_stim/side_yes.png,stimulus/audwhere_stim/side_no.png,None,Side,None,Side,1,0.0,0,5.125,0,5.125,0,5.125,0,0.0,0.625,0,0,0,0,0,0,0,0,0,0.0,0,0.0,1,0.5,1,2.125,0,,,,,0,12,12,12,,,,,,,,,136.2505259579998,136.2505259579998,136.2505259579998,136.2505259579998,136.2505259579998,136.2505259579998,136.2505259579998,136.2505259579998,136.16694791633304,136.2505259579998,136.2505259579998,136.2505259579998,136.16694791633304,136.2505259579998,136.2505259579998,136.2505259579998,138.32399062499962,,136.2505259579998,136.2505259579998,141.43242833299973,136.2505259579998,136.2505259579998,136.2505259579998,136.2505259579998,136.7207404579999,137.7601620409996,136.6897766666664,,138.32399062499962,139.3629888329997,138.29369041666658,,136.2505259579998,141.43242833299973,136.2505259579998,141.43242833299973,141.47380870799998,142.13685208299967,136.2505259579998,1,1,0.7518549999999777,reldom2_s004,001,2025-01-23_12h14.56.739,Aud-A-Scan_AC,2022.2.5,None,
0,0.0,None,fixation,stimulus/audwhere_stim/blank_white.png,stimulus/audwhere_stim/blank_white.png,stimulus/audwhat_stim/blank_white.png,stimulus/audwhat_stim/blank_white.png,stimulus/audwhere_stim/blank_white.png,stimulus/audwhere_stim/blank_white.png,stimulus/audwhere_stim/blank_white.png,stimulus/audwhere_stim/blank_white.png,0.0,0.0,0.0,0.0,0,0.0,0,0.0,0,0.0,0,0.0,0,0.0,0.0,0,0,0,0,0,0,0,0,0,0.0,0,0.0,0,0.0,0,0.0,8,,,,,0,13,13,13,,,,,,,,,142.37526983299995,142.37526983299995,142.37526983299995,142.37526983299995,142.37526983299995,142.37526983299995,142.37526983299995,142.37526983299995,142.27018541633302,142.37526983299995,142.37526983299995,142.37526983299995,142.27018541633302,142.37526983299995,142.37526983299995,142.37526983299995,142.37526983299995,142.37526983299995,142.37526983299995,142.37526983299995,142.37526983299995,142.37526983299995,142.37526983299995,142.37526983299995,142.37526983299995,142.37526983299995,142.37526983299995,142.320185416333,142.37526983299995,142.37526983299995,142.37526983299995,142.320185416333,142.37526983299995,142.37526983299995,142.37526983299995,142.37526983299995,142.37526983299995,147.58142520799993,147.58142520799993,150.54836591599997,None,0,,reldom2_s004,001,2025-01-23_12h14.56.739,Aud-A-Scan_AC,2022.2.5,None,
11,Second_Order,2.0,audwhere,stimulus/audwhere_stim/left_away_280h.wav,stimulus/audwhere_stim/left_toward_280h.wav,stimulus/audwhere_stim/right_toward_280h.wav,stimulus/audwhere_stim/left_toward_270h.wav,stimulus/audwhere_stim/match_blank.png,stimulus/audwhere_stim/match_box.png,stimulus/audwhere_stim/match_yes.png,stimulus/audwhere_stim/match_no.png,2.0,Match,Side,Direction,2,5.125,0,5.125,0,5.125,0,5.125,0,0.75,0.75,0,0,0,0,0,0,0,0,1,0.5,1,2.125,1,0.5,1,2.125,0,,,,,0,14,14,14,,,,,,,,,150.54836591599997,155.66497495799968,150.54836591599997,150.54836591599997,150.54836591599997,150.54836591599997,151.00063249999994,151.98820908299967,151.01481683266664,152.00905666599965,152.62445249999973,153.62179662499966,152.6359144576666,153.6298287909999,155.66497495799968,156.49462649999987,158.56009858299967,,156.49462649999987,156.49462649999987,161.6602526659999,156.49462649999987,156.49462649999987,156.49462649999987,156.49462649999987,156.96427041599964,157.9975562499999,156.93379883266633,,158.56009858299967,159.5980129159998,158.5293977076665,,156.49462649999987,161.6602526659999,156.49462649999987,161.6602526659999,161.7030740829996,,156.49462649999987,2,1,0.8988807500004441,reldom2_s004,001,2025-01-23_12h14.56.739,Aud-A-Scan_AC,2022.2.5,None,
12,Second_Order,2.0,audwhere,stimulus/audwhere_stim/left_away_300h.wav,stimulus/audwhere_stim/right_away_270h.wav,stimulus/audwhere_stim/left_toward_280h.wav,stimulus/audwhere_stim/right_toward_280h.wav,stimulus/audwhere_stim/match_blank.png,stimulus/audwhere_stim/match_box.png,stimulus/audwhere_stim/match_yes.png,stimulus/audwhere_stim/match_no.png,1.0,Match,Direction,Direction,1,5.125,0,5.125,0,5.125,0,5.125,0,0.625,0.625,0,0,0,0,0,0,0,0,1,0.5,1,2.125,1,0.5,1,2.125,0,,,,,0,15,15,15,,,,,,,,,162.48502195799983,167.60831845799976,162.48502195799983,162.48502195799983,162.48502195799983,162.48502195799983,162.94315766599993,163.93198129099983,162.94637416666663,163.9451084579996,164.56832429099995,165.5655483329997,164.58028054166633,165.5739723329998,167.60831845799976,168.32076474999985,170.3810274579996,174.45615295799962,168.32076474999985,168.32076474999985,173.47351016599987,168.32076474999985,168.32076474999985,168.32076474999985,168.32076474999985,168.78901941599997,169.81937662499968,168.7582609576664,,170.3810274579996,171.41451070799985,170.3498694576663,,168.32076474999985,173.47351016599987,168.32076474999985,173.47351016599987,173.5152563329998,174.17802620799966,168.32076474999985,1,1,1.1841521250003098,reldom2_s004,001,2025-01-23_12h14.56.739,Aud-A-Scan_AC,2022.2.5,None,
0,0.0,None,fixation,stimulus/audwhere_stim/blank_white.png,stimulus/audwhere_stim/blank_white.png,stimulus/audwhat_stim/blank_white.png,stimulus/audwhat_stim/blank_white.png,stimulus/audwhere_stim/blank_white.png,stimulus/audwhere_stim/blank_white.png,stimulus/audwhere_stim/blank_white.png,stimulus/audwhere_stim/blank_white.png,0.0,0.0,0.0,0.0,0,0.0,0,0.0,0,0.0,0,0.0,0,0.0,0.0,0,0,0,0,0,0,0,0,0,0.0,0,0.0,0,0.0,0,0.0,8,,,,,0,16,16,16,,,,,,,,,174.45615295799962,174.45615295799962,174.45615295799962,174.45615295799962,174.45615295799962,174.45615295799962,174.45615295799962,174.45615295799962,174.3521489993333,174.45615295799962,174.45615295799962,174.45615295799962,174.3521489993333,174.45615295799962,174.45615295799962,174.45615295799962,174.45615295799962,174.45615295799962,174.45615295799962,174.45615295799962,174.45615295799962,174.45615295799962,174.45615295799962,174.45615295799962,174.45615295799962,174.45615295799962,174.45615295799962,174.4021489993333,174.45615295799962,174.45615295799962,174.45615295799962,174.4021489993333,174.45615295799962,174.45615295799962,174.45615295799962,174.45615295799962,174.45615295799962,179.6446082499997,179.6446082499997,182.70068437499958,None,0,,reldom2_s004,001,2025-01-23_12h14.56.739,Aud-A-Scan_AC,2022.2.5,None,
13,First_Order,3.0,audwhat,stimulus/audwhat_stim/dummy.wav,stimulus/audwhat_stim/dummy.wav,stimulus/audwhat_stim/percussion xylophone_high-pitch_F_loud.wav,stimulus/audwhat_stim/percussion mallet_low-pitch_Dtri_loud.wav,stimulus/audwhat_stim/blank_white.png,stimulus/audwhat_stim/category_box.png,stimulus/audwhat_stim/category_yes.png,stimulus/audwhat_stim/category_no.png,None,Category,None,Category,1,0.0,0,5.125,0,5.125,0,5.125,0,0.0,0.625,0,0,0,0,0,0,0,0,0,0.0,0,0.0,1,0.5,1,2.125,0,,,,,0,17,17,17,,,,,,,,,182.70068437499958,182.70068437499958,182.70068437499958,182.70068437499958,182.70068437499958,182.70068437499958,182.70068437499958,182.70068437499958,182.6237948326663,182.70068437499958,182.70068437499958,182.70068437499958,182.6237948326663,182.70068437499958,182.70068437499958,182.70068437499958,184.78583941599982,188.82395974999963,182.70068437499958,182.70068437499958,187.85978637499966,182.70068437499958,182.70068437499958,182.70068437499958,182.70068437499958,183.17211449999968,184.2179673329997,183.1416284996665,184.2179673329997,184.78583941599982,185.83252916599986,184.75508837466649,,182.70068437499958,187.85978637499966,182.70068437499958,187.85978637499966,187.90142204099993,188.5646869999996,182.70068437499958,1,1,0.6419560840004124,reldom2_s004,001,2025-01-23_12h14.56.739,Aud-A-Scan_AC,2022.2.5,None,
14,First_Order,3.0,audwhat,stimulus/audwhat_stim/dummy.wav,stimulus/audwhat_stim/dummy.wav,stimulus/audwhat_stim/string cello_low-pitch_Ftri_loud.wav,stimulus/audwhat_stim/string viola_high-pitch_F_loud.wav,stimulus/audwhat_stim/blank_white.png,stimulus/audwhat_stim/category_box.png,stimulus/audwhat_stim/category_yes.png,stimulus/audwhat_stim/category_no.png,None,Category,None,Category,1,0.0,0,5.125,0,5.125,0,5.125,0,0.0,0.625,0,0,0,0,0,0,0,0,0,0.0,0,0.0,1,0.5,1,2.125,0,,,,,0,18,18,18,,,,,,,,,188.82395974999963,188.82395974999963,188.82395974999963,188.82395974999963,188.82395974999963,188.82395974999963,188.82395974999963,188.82395974999963,188.73965770833334,188.82395974999963,188.82395974999963,188.82395974999963,188.73965770833334,188.82395974999963,188.82395974999963,188.82395974999963,190.90176487499957,194.9440787909998,188.82395974999963,188.82395974999963,194.0192076659996,188.82395974999963,188.82395974999963,188.82395974999963,188.82395974999963,189.29577924999967,190.3363012079999,189.2650587916667,,190.90176487499957,191.9443791249996,190.8708322076666,,188.82395974999963,194.0192076659996,188.82395974999963,194.0192076659996,194.0192076659996,194.6843209159997,188.82395974999963,1,1,0.6792464160002964,reldom2_s004,001,2025-01-23_12h14.56.739,Aud-A-Scan_AC,2022.2.5,None,
15,First_Order,3.0,audwhat,stimulus/audwhat_stim/dummy.wav,stimulus/audwhat_stim/dummy.wav,stimulus/audwhat_stim/string viola_low-pitch_D_loud.wav,stimulus/audwhat_stim/percussion mallet_low-pitch_D_loud.wav,stimulus/audwhat_stim/blank_white.png,stimulus/audwhat_stim/pitch_box.png,stimulus/audwhat_stim/pitch_yes.png,stimulus/audwhat_stim/pitch_no.png,None,Pitch,None,Pitch,1,0.0,0,5.125,0,5.125,0,5.125,0,0.0,0.625,0,0,0,0,0,0,0,0,0,0.0,0,0.0,1,0.5,1,2.125,0,,,,,0,19,19,19,,,,,,,,,194.9440787909998,194.9440787909998,194.9440787909998,194.9440787909998,194.9440787909998,194.9440787909998,194.9440787909998,194.9440787909998,194.859889416333,194.9440787909998,194.9440787909998,194.9440787909998,194.859889416333,194.9440787909998,194.9440787909998,194.9440787909998,197.01873224999963,,194.9440787909998,194.9440787909998,200.12815862499974,194.9440787909998,194.9440787909998,194.9440787909998,194.9440787909998,195.41555687499977,196.4534951249998,195.38456966666652,,197.01873224999963,198.05940037499977,196.98764883266657,,194.9440787909998,200.12815862499974,194.9440787909998,200.12815862499974,200.17005749999998,200.83379799999966,194.9440787909998,1,1,0.646182542000588,reldom2_s004,001,2025-01-23_12h14.56.739,Aud-A-Scan_AC,2022.2.5,None,
16,First_Order,3.0,audwhat,stimulus/audwhat_stim/dummy.wav,stimulus/audwhat_stim/dummy.wav,stimulus/audwhat_stim/string cello_low-pitch_D_loud.wav,stimulus/audwhat_stim/string viola_high-pitch_Dtri_loud.wav,stimulus/audwhat_stim/blank_white.png,stimulus/audwhat_stim/pitch_box.png,stimulus/audwhat_stim/pitch_yes.png,stimulus/audwhat_stim/pitch_no.png,None,Pitch,None,Category,2,0.0,0,5.125,0,5.125,0,5.125,0,0.0,0.625,0,0,0,0,0,0,0,0,0,0.0,0,0.0,1,0.5,1,2.125,0,,,,,0,20,20,20,,,,,,,,,201.051208375,201.051208375,201.051208375,201.051208375,201.051208375,201.051208375,201.051208375,201.051208375,200.96713133333301,201.051208375,201.051208375,201.051208375,200.96713133333301,201.051208375,201.051208375,201.051208375,203.13216833299975,,201.051208375,201.051208375,206.20024941599968,201.051208375,201.051208375,201.051208375,201.051208375,201.5265936249998,202.56696129099964,201.49489704166652,,203.13216833299975,204.17500337499996,203.1016926246664,,201.051208375,206.20024941599968,201.051208375,206.20024941599968,206.24211316599985,206.90636345799976,201.051208375,2,1,0.655228334000185,reldom2_s004,001,2025-01-23_12h14.56.739,Aud-A-Scan_AC,2022.2.5,None,
0,0.0,None,fixation,stimulus/audwhere_stim/blank_white.png,stimulus/audwhere_stim/blank_white.png,stimulus/audwhat_stim/blank_white.png,stimulus/audwhat_stim/blank_white.png,stimulus/audwhere_stim/blank_white.png,stimulus/audwhere_stim/blank_white.png,stimulus/audwhere_stim/blank_white.png,stimulus/audwhere_stim/blank_white.png,0.0,0.0,0.0,0.0,0,0.0,0,0.0,0,0.0,0,0.0,0,0.0,0.0,0,0,0,0,0,0,0,0,0,0.0,0,0.0,0,0.0,0,0.0,8,,,,,0,21,21,21,,,,,,,,,207.18706170799987,207.18706170799987,207.18706170799987,207.18706170799987,207.18706170799987,207.18706170799987,207.18706170799987,207.18706170799987,207.0813816243332,207.18706170799987,207.18706170799987,207.18706170799987,207.0813816243332,207.18706170799987,207.18706170799987,207.18706170799987,207.18706170799987,207.18706170799987,207.18706170799987,207.18706170799987,207.18706170799987,207.18706170799987,207.18706170799987,207.18706170799987,207.18706170799987,207.18706170799987,207.18706170799987,207.1313816243332,207.18706170799987,207.18706170799987,207.18706170799987,207.1313816243332,207.18706170799987,207.18706170799987,207.18706170799987,207.18706170799987,207.18706170799987,212.4033755409996,212.4033755409996,215.320504583,None,0,,reldom2_s004,001,2025-01-23_12h14.56.739,Aud-A-Scan_AC,2022.2.5,None,
17,Second_Order,3.0,audwhat,stimulus/audwhat_stim/percussion mallet_high-pitch_F_loud.wav,stimulus/audwhat_stim/string viola_high-pitch_F_loud.wav,stimulus/audwhat_stim/string cello_low-pitch_Ftri_loud.wav,stimulus/audwhat_stim/string cello_high-pitch_Dtri_loud.wav,stimulus/audwhere_stim/match_blank.png,stimulus/audwhat_stim/match_box.png,stimulus/audwhere_stim/match_yes.png,stimulus/audwhere_stim/match_no.png,2.0,Match,Pitch,Category,2,5.125,0,5.125,0,5.125,0,5.125,0,0.75,0.75,0,0,0,0,0,0,0,0,1,0.5,1,2.125,1,0.5,1,2.125,0,,,,,0,22,22,22,,,,,,,,,215.320504583,220.44269070799965,215.320504583,215.320504583,215.320504583,215.320504583,215.7686040409999,216.7674002499998,215.78123816666655,216.77558116599994,217.40198599999985,218.3917390409997,217.40567566666667,,220.44269070799965,221.27737654099974,223.34502841599988,,221.27737654099974,221.27737654099974,226.45459941599984,221.27737654099974,221.27737654099974,221.27737654099974,221.27737654099974,221.74825462499984,222.78068183300002,221.7172168326663,,223.34502841599988,224.38527324999995,223.31461212466664,,221.27737654099974,226.45459941599984,221.27737654099974,226.45459941599984,226.45459941599984,,221.27737654099974,2,1,0.8341870830004154,reldom2_s004,001,2025-01-23_12h14.56.739,Aud-A-Scan_AC,2022.2.5,None,
18,Second_Order,3.0,audwhat,stimulus/audwhat_stim/string viola_low-pitch_F_loud.wav,stimulus/audwhat_stim/percussion mallet_low-pitch_F_loud.wav,stimulus/audwhat_stim/percussion mallet_high-pitch_Ftri_loud.wav,stimulus/audwhat_stim/string cello_high-pitch_Ftri_loud.wav,stimulus/audwhere_stim/match_blank.png,stimulus/audwhat_stim/match_box.png,stimulus/audwhere_stim/match_yes.png,stimulus/audwhere_stim/match_no.png,1.0,Match,Pitch,Pitch,1,5.125,0,5.125,0,5.125,0,5.125,0,0.625,0.625,0,0,0,0,0,0,0,0,1,0.5,1,2.125,1,0.5,1,2.125,0,,,,,0,23,23,23,,,,,,,,,227.27995979099978,232.4032304159996,227.27995979099978,227.27995979099978,227.27995979099978,227.27995979099978,227.73109629099963,228.7278494999996,227.74287408266653,,229.36306087499997,230.35177570799988,229.36726062466667,230.3649527079997,232.4032304159996,233.11826012499978,235.22149516599984,239.26149670799987,233.11826012499978,233.11826012499978,238.27844687499964,233.11826012499978,233.11826012499978,233.11826012499978,233.11826012499978,233.583061541,234.61386837499958,233.55345333266658,,235.22149516599984,236.26296491599987,235.19125254166627,,233.11826012499978,238.27844687499964,233.11826012499978,238.27844687499964,238.32031008299964,238.98206624999966,233.11826012499978,1,1,0.6541294580001704,reldom2_s004,001,2025-01-23_12h14.56.739,Aud-A-Scan_AC,2022.2.5,None,
0,0.0,None,fixation,stimulus/audwhere_stim/blank_white.png,stimulus/audwhere_stim/blank_white.png,stimulus/audwhat_stim/blank_white.png,stimulus/audwhat_stim/blank_white.png,stimulus/audwhere_stim/blank_white.png,stimulus/audwhere_stim/blank_white.png,stimulus/audwhere_stim/blank_white.png,stimulus/audwhere_stim/blank_white.png,0.0,0.0,0.0,0.0,0,0.0,0,0.0,0,0.0,0,0.0,0,0.0,0.0,0,0,0,0,0,0,0,0,0,0.0,0,0.0,0,0.0,0,0.0,9,,,,,0,24,24,24,,,,,,,,,239.26149670799987,239.26149670799987,239.26149670799987,239.26149670799987,239.26149670799987,239.26149670799987,239.26149670799987,239.26149670799987,239.1566559163331,239.26149670799987,239.26149670799987,239.26149670799987,239.1566559163331,239.26149670799987,239.26149670799987,239.26149670799987,239.26149670799987,239.26149670799987,239.26149670799987,239.26149670799987,239.26149670799987,239.26149670799987,239.26149670799987,239.26149670799987,239.26149670799987,239.26149670799987,239.26149670799987,239.2066559163331,239.26149670799987,239.26149670799987,239.26149670799987,239.2066559163331,239.26149670799987,239.26149670799987,239.26149670799987,239.26149670799987,239.26149670799987,244.45304741599966,244.45304741599966,248.54170954099982,None,0,,reldom2_s004,001,2025-01-23_12h14.56.739,Aud-A-Scan_AC,2022.2.5,None,
19,First_Order,4.0,audwhat,stimulus/audwhat_stim/dummy.wav,stimulus/audwhat_stim/dummy.wav,stimulus/audwhat_stim/percussion mallet_low-pitch_D_loud.wav,stimulus/audwhat_stim/string viola_low-pitch_D_loud.wav,stimulus/audwhat_stim/blank_white.png,stimulus/audwhat_stim/category_box.png,stimulus/audwhat_stim/category_yes.png,stimulus/audwhat_stim/category_no.png,None,Category,None,Pitch,2,0.0,0,5.125,0,5.125,0,5.125,0,0.0,0.625,0,0,0,0,0,0,0,0,0,0.0,0,0.0,1,0.5,1,2.125,0,,,,,0,25,25,25,,,,,,,,,248.54170954099982,248.54170954099982,248.54170954099982,248.54170954099982,248.54170954099982,248.54170954099982,248.54170954099982,248.54170954099982,248.4645979576664,248.54170954099982,248.54170954099982,248.54170954099982,248.4645979576664,248.54170954099982,248.54170954099982,248.54170954099982,250.62638412499973,254.67550079099965,248.54170954099982,248.54170954099982,253.7058670409997,248.54170954099982,248.54170954099982,248.54170954099982,248.54170954099982,249.01543804099992,250.05909699999984,248.9846622916664,,250.62638412499973,251.6723291659996,250.5953458746665,,248.54170954099982,253.7058670409997,248.54170954099982,253.7058670409997,253.74836279099964,254.41463324999995,248.54170954099982,2,1,0.5598499580000862,reldom2_s004,001,2025-01-23_12h14.56.739,Aud-A-Scan_AC,2022.2.5,None,
20,First_Order,4.0,audwhat,stimulus/audwhat_stim/dummy.wav,stimulus/audwhat_stim/dummy.wav,stimulus/audwhat_stim/percussion xylophone_high-pitch_Dtri_loud.wav,stimulus/audwhat_stim/string cello_high-pitch_Dtri_loud.wav,stimulus/audwhat_stim/blank_white.png,stimulus/audwhat_stim/pitch_box.png,stimulus/audwhat_stim/pitch_yes.png,stimulus/audwhat_stim/pitch_no.png,None,Pitch,None,Pitch,1,0.0,0,5.125,0,5.125,0,5.125,0,0.0,0.625,0,0,0,0,0,0,0,0,0,0.0,0,0.0,1,0.5,1,2.125,0,,,,,0,26,26,26,,,,,,,,,254.67550079099965,254.67550079099965,254.67550079099965,254.67550079099965,254.67550079099965,254.67550079099965,254.67550079099965,254.67550079099965,254.5895779993331,254.67550079099965,254.67550079099965,254.67550079099965,254.5895779993331,254.67550079099965,254.67550079099965,254.67550079099965,256.75529845799974,,254.67550079099965,254.67550079099965,259.8640302079998,254.67550079099965,254.67550079099965,254.67550079099965,254.67550079099965,255.14773729099988,256.19059049999987,255.11692445766656,256.19059049999987,256.75529845799974,257.79683054099996,256.72462212466667,,254.67550079099965,259.8640302079998,254.67550079099965,259.8640302079998,259.8640302079998,260.52831445799984,254.67550079099965,1,1,0.5672316250002041,reldom2_s004,001,2025-01-23_12h14.56.739,Aud-A-Scan_AC,2022.2.5,None,
21,First_Order,4.0,audwhat,stimulus/audwhat_stim/dummy.wav,stimulus/audwhat_stim/dummy.wav,stimulus/audwhat_stim/string viola_low-pitch_D_loud.wav,stimulus/audwhat_stim/percussion mallet_low-pitch_D_loud.wav,stimulus/audwhat_stim/blank_white.png,stimulus/audwhat_stim/category_box.png,stimulus/audwhat_stim/category_yes.png,stimulus/audwhat_stim/category_no.png,None,Category,None,Pitch,2,0.0,0,5.125,0,5.125,0,5.125,0,0.0,0.625,0,0,0,0,0,0,0,0,0,0.0,0,0.0,1,0.5,1,2.125,0,,,,,0,27,27,27,,,,,,,,,260.7918561659999,260.7918561659999,260.7918561659999,260.7918561659999,260.7918561659999,260.7918561659999,260.7918561659999,260.7918561659999,260.703243208333,260.7918561659999,260.7918561659999,260.7918561659999,260.703243208333,260.7918561659999,260.7918561659999,260.7918561659999,262.87974212499967,,260.7918561659999,260.7918561659999,265.9636277499999,260.7918561659999,260.7918561659999,260.7918561659999,260.7918561659999,261.2670119159998,262.3122106659998,261.23601954166656,,262.87974212499967,263.92630062499984,262.8491544576666,,260.7918561659999,265.9636277499999,260.7918561659999,265.9636277499999,266.00555666599985,266.6728619579999,260.7918561659999,1,0,2.088809083000342,reldom2_s004,001,2025-01-23_12h14.56.739,Aud-A-Scan_AC,2022.2.5,None,
22,First_Order,4.0,audwhat,stimulus/audwhat_stim/dummy.wav,stimulus/audwhat_stim/dummy.wav,stimulus/audwhat_stim/string viola_low-pitch_Ftri_loud.wav,stimulus/audwhat_stim/string cello_high-pitch_D_loud.wav,stimulus/audwhat_stim/blank_white.png,stimulus/audwhat_stim/pitch_box.png,stimulus/audwhat_stim/pitch_yes.png,stimulus/audwhat_stim/pitch_no.png,None,Pitch,None,Category,2,0.0,0,5.125,0,5.125,0,5.125,0,0.0,0.625,0,0,0,0,0,0,0,0,0,0.0,0,0.0,1,0.5,1,2.125,0,,,,,0,28,28,28,,,,,,,,,266.89138829099966,266.89138829099966,266.89138829099966,266.89138829099966,266.89138829099966,266.89138829099966,266.89138829099966,266.89138829099966,266.8061952913332,266.89138829099966,266.89138829099966,266.89138829099966,266.8061952913332,266.89138829099966,266.89138829099966,266.89138829099966,268.9689839159996,273.0304860409997,266.89138829099966,266.89138829099966,272.0846352499998,266.89138829099966,266.89138829099966,266.89138829099966,266.89138829099966,267.3633417909996,268.40285274999997,267.33277383266636,,268.9689839159996,270.0105143329997,268.93867745766624,,266.89138829099966,272.0846352499998,266.89138829099966,272.0846352499998,272.0846352499998,272.748187875,266.89138829099966,2,1,1.7885757090002699,reldom2_s004,001,2025-01-23_12h14.56.739,Aud-A-Scan_AC,2022.2.5,None,
0,0.0,None,fixation,stimulus/audwhere_stim/blank_white.png,stimulus/audwhere_stim/blank_white.png,stimulus/audwhat_stim/blank_white.png,stimulus/audwhat_stim/blank_white.png,stimulus/audwhere_stim/blank_white.png,stimulus/audwhere_stim/blank_white.png,stimulus/audwhere_stim/blank_white.png,stimulus/audwhere_stim/blank_white.png,0.0,0.0,0.0,0.0,0,0.0,0,0.0,0,0.0,0,0.0,0,0.0,0.0,0,0,0,0,0,0,0,0,0,0.0,0,0.0,0,0.0,0,0.0,10,,,,,0,29,29,29,,,,,,,,,273.0304860409997,273.0304860409997,273.0304860409997,273.0304860409997,273.0304860409997,273.0304860409997,273.0304860409997,273.0304860409997,272.9231549163329,273.0304860409997,273.0304860409997,273.0304860409997,272.9231549163329,273.0304860409997,273.0304860409997,273.0304860409997,273.0304860409997,273.0304860409997,273.0304860409997,273.0304860409997,273.0304860409997,273.0304860409997,273.0304860409997,273.0304860409997,273.0304860409997,273.0304860409997,273.0304860409997,272.9898215829996,273.0304860409997,273.0304860409997,273.0304860409997,272.9898215829996,273.0304860409997,273.0304860409997,273.0304860409997,273.0304860409997,273.0304860409997,278.2487847079997,278.2487847079997,283.17819695800017,None,0,,reldom2_s004,001,2025-01-23_12h14.56.739,Aud-A-Scan_AC,2022.2.5,None,
23,Second_Order,4.0,audwhat,stimulus/audwhat_stim/string cello_low-pitch_F_loud.wav,stimulus/audwhat_stim/string cello_high-pitch_Ftri_loud.wav,stimulus/audwhat_stim/percussion mallet_high-pitch_Ftri_loud.wav,stimulus/audwhat_stim/percussion mallet_low-pitch_F_loud.wav,stimulus/audwhere_stim/match_blank.png,stimulus/audwhat_stim/match_box.png,stimulus/audwhere_stim/match_yes.png,stimulus/audwhere_stim/match_no.png,1.0,Match,Category,Category,1,5.125,0,5.125,0,5.125,0,5.125,0,0.75,0.75,0,0,0,0,0,0,0,0,1,0.5,1,2.125,1,0.5,1,2.125,0,,,,,0,30,30,30,,,,,,,,,283.17819695800017,288.29887608299987,283.17819695800017,283.17819695800017,283.17819695800017,283.17819695800017,283.62482987500016,284.62357437499986,283.638266249666,,285.2588949579999,286.24768179099965,285.26230766666663,,288.29887608299987,289.1320306249995,291.20415833299967,295.14443429099947,289.1320306249995,289.1320306249995,294.31780266599935,289.1320306249995,289.1320306249995,289.1320306249995,289.1320306249995,289.60127529099964,290.6401164160002,289.5711458746662,,291.20415833299967,292.2463877079995,291.1737295416667,,289.1320306249995,294.31780266599935,289.1320306249995,294.31780266599935,294.31780266599935,,289.1320306249995,1,1,0.8522243749998779,reldom2_s004,001,2025-01-23_12h14.56.739,Aud-A-Scan_AC,2022.2.5,None,
24,Second_Order,4.0,audwhat,stimulus/audwhat_stim/percussion xylophone_high-pitch_Dtri_loud.wav,stimulus/audwhat_stim/percussion mallet_low-pitch_D_loud.wav,stimulus/audwhat_stim/string cello_low-pitch_Ftri_loud.wav,stimulus/audwhat_stim/string viola_high-pitch_D_loud.wav,stimulus/audwhere_stim/match_blank.png,stimulus/audwhat_stim/match_box.png,stimulus/audwhere_stim/match_yes.png,stimulus/audwhere_stim/match_no.png,1.0,Match,Category,Category,1,5.125,0,5.125,0,5.125,0,5.125,0,0.625,0.625,0,0,0,0,0,0,0,0,1,0.5,1,2.125,1,0.5,1,2.125,0,,,,,0,31,31,31,,,,,,,,,295.14443429099947,300.2654096659994,295.14443429099947,295.14443429099947,295.14443429099947,295.14443429099947,295.6037823749998,296.6013325409999,295.61598262466646,296.6090750829994,297.22456579099935,298.22171766600013,297.2359909166669,298.2294431659998,300.2654096659994,300.9747862909994,303.0401828749996,,300.9747862909994,300.9747862909994,306.14623920799977,300.9747862909994,300.9747862909994,300.9747862909994,300.9747862909994,301.4428124159999,302.47701591599935,301.4128328326667,,303.0401828749996,304.0776021249999,303.010035707666,,300.9747862909994,306.14623920799977,300.9747862909994,306.14623920799977,306.1879945409996,306.8510582499998,300.9747862909994,1,1,1.058465750000778,reldom2_s004,001,2025-01-23_12h14.56.739,Aud-A-Scan_AC,2022.2.5,None,
0,0.0,None,fixation,stimulus/audwhere_stim/blank_white.png,stimulus/audwhere_stim/blank_white.png,stimulus/audwhat_stim/blank_white.png,stimulus/audwhat_stim/blank_white.png,stimulus/audwhere_stim/blank_white.png,stimulus/audwhere_stim/blank_white.png,stimulus/audwhere_stim/blank_white.png,stimulus/audwhere_stim/blank_white.png,0.0,0.0,0.0,0.0,0,0.0,0,0.0,0,0.0,0,0.0,0,0.0,0.0,0,0,0,0,0,0,0,0,0,0.0,0,0.0,0,0.0,0,0.0,9,,,,,0,32,32,32,,,,,,,,,307.0889345829996,307.0889345829996,307.0889345829996,307.0889345829996,307.0889345829996,307.0889345829996,307.0889345829996,307.0889345829996,306.98439158333315,307.0889345829996,307.0889345829996,307.0889345829996,306.98439158333315,307.0889345829996,307.0889345829996,307.0889345829996,307.0889345829996,307.0889345829996,307.0889345829996,307.0889345829996,307.0889345829996,307.0889345829996,307.0889345829996,307.0889345829996,307.0889345829996,307.0889345829996,307.0889345829996,307.03439158333316,307.0889345829996,307.0889345829996,307.0889345829996,307.03439158333316,307.0889345829996,307.0889345829996,307.0889345829996,307.0889345829996,307.0889345829996,312.2863564160002,312.2863564160002,316.3257228329999,None,0,,reldom2_s004,001,2025-01-23_12h14.56.739,Aud-A-Scan_AC,2022.2.5,None,
25,First_Order,5.0,audwhere,stimulus/audwhere_stim/dummy.wav,stimulus/audwhere_stim/dummy.wav,stimulus/audwhere_stim/right_away_300h.wav,stimulus/audwhere_stim/right_toward_300h.wav,stimulus/audwhere_stim/blank_white.png,stimulus/audwhere_stim/direction_box.png,stimulus/audwhere_stim/direction_yes.png,stimulus/audwhere_stim/direction_no.png,None,Direction,None,Side,2,0.0,0,5.125,0,5.125,0,5.125,0,0.0,0.625,0,0,0,0,0,0,0,0,0,0.0,0,0.0,1,0.5,1,2.125,0,,,,,0,33,33,33,,,,,,,,,316.3257228329999,316.3257228329999,316.3257228329999,316.3257228329999,316.3257228329999,316.3257228329999,316.3257228329999,316.3257228329999,316.2484117916666,316.3257228329999,316.3257228329999,316.3257228329999,316.2484117916666,316.3257228329999,316.3257228329999,316.3257228329999,318.41317562499944,,316.3257228329999,316.3257228329999,321.4960766250001,316.3257228329999,316.3257228329999,316.3257228329999,316.3257228329999,316.7999020829998,317.8449802909995,316.7688964576662,,318.41317562499944,319.4574539579994,318.38244612466656,,316.3257228329999,321.4960766250001,316.3257228329999,321.4960766250001,321.5372590000002,322.2043986249996,316.3257228329999,2,1,1.8201432500004557,reldom2_s004,001,2025-01-23_12h14.56.739,Aud-A-Scan_AC,2022.2.5,None,
26,First_Order,5.0,audwhere,stimulus/audwhere_stim/dummy.wav,stimulus/audwhere_stim/dummy.wav,stimulus/audwhere_stim/right_away_280h.wav,stimulus/audwhere_stim/left_away_270h.wav,stimulus/audwhere_stim/blank_white.png,stimulus/audwhere_stim/side_box.png,stimulus/audwhere_stim/side_yes.png,stimulus/audwhere_stim/side_no.png,None,Side,None,Direction,2,0.0,0,5.125,0,5.125,0,5.125,0,0.0,0.625,0,0,0,0,0,0,0,0,0,0.0,0,0.0,1,0.5,1,2.125,0,,,,,0,34,34,34,,,,,,,,,322.421212666,322.421212666,322.421212666,322.421212666,322.421212666,322.421212666,322.421212666,322.421212666,322.33773195833294,322.421212666,322.421212666,322.421212666,322.33773195833294,322.421212666,322.421212666,322.421212666,324.4963830410002,,322.421212666,322.421212666,327.6082958329994,322.421212666,322.421212666,322.421212666,322.421212666,322.8926290409995,323.93084179100015,322.86230658266663,,324.4963830410002,325.53659149999976,324.4656845416664,,322.421212666,327.6082958329994,322.421212666,327.6082958329994,327.6502621249997,328.31600979099994,322.421212666,2,1,0.5929684580000867,reldom2_s004,001,2025-01-23_12h14.56.739,Aud-A-Scan_AC,2022.2.5,None,
27,First_Order,5.0,audwhere,stimulus/audwhere_stim/dummy.wav,stimulus/audwhere_stim/dummy.wav,stimulus/audwhere_stim/left_away_300h.wav,stimulus/audwhere_stim/right_away_290h.wav,stimulus/audwhere_stim/blank_white.png,stimulus/audwhere_stim/direction_box.png,stimulus/audwhere_stim/direction_yes.png,stimulus/audwhere_stim/direction_no.png,None,Direction,None,Direction,1,0.0,0,5.125,0,5.125,0,5.125,0,0.0,0.625,0,0,0,0,0,0,0,0,0,0.0,0,0.0,1,0.5,1,2.125,0,,,,,0,35,35,35,,,,,,,,,328.53326870799947,328.53326870799947,328.53326870799947,328.53326870799947,328.53326870799947,328.53326870799947,328.53326870799947,328.53326870799947,328.44934312433327,328.53326870799947,328.53326870799947,328.53326870799947,328.44934312433327,328.53326870799947,328.53326870799947,328.53326870799947,330.62211075000005,,328.53326870799947,328.53326870799947,333.7040862079998,328.53326870799947,328.53326870799947,328.53326870799947,328.53326870799947,329.00843729100006,330.05392654100024,328.9772512496663,,330.62211075000005,331.66539741599945,330.5910027076668,,328.53326870799947,333.7040862079998,328.53326870799947,333.7040862079998,333.7463211250001,334.413822,328.53326870799947,1,1,1.0962042910009586,reldom2_s004,001,2025-01-23_12h14.56.739,Aud-A-Scan_AC,2022.2.5,None,
28,First_Order,5.0,audwhere,stimulus/audwhere_stim/dummy.wav,stimulus/audwhere_stim/dummy.wav,stimulus/audwhere_stim/left_away_290h.wav,stimulus/audwhere_stim/right_away_280h.wav,stimulus/audwhere_stim/blank_white.png,stimulus/audwhere_stim/direction_box.png,stimulus/audwhere_stim/direction_yes.png,stimulus/audwhere_stim/direction_no.png,None,Direction,None,Direction,1,0.0,0,5.125,0,5.125,0,5.125,0,0.0,0.625,0,0,0,0,0,0,0,0,0,0.0,0,0.0,1,0.5,1,2.125,0,,,,,0,36,36,36,,,,,,,,,334.63678416599987,334.63678416599987,334.63678416599987,334.63678416599987,334.63678416599987,334.63678416599987,334.63678416599987,334.63678416599987,334.5471553333333,334.63678416599987,334.63678416599987,334.63678416599987,334.5471553333333,334.63678416599987,334.63678416599987,334.63678416599987,336.7230701659996,,334.63678416599987,334.63678416599987,339.80644329100005,334.63678416599987,334.63678416599987,334.63678416599987,334.63678416599987,335.11199008299945,336.15507262500023,335.08048858266625,,336.7230701659996,337.76978087499947,336.69182533266644,,334.63678416599987,339.80644329100005,334.63678416599987,339.80644329100005,339.84839566599976,340.5131750830001,334.63678416599987,1,1,1.0977910830001747,reldom2_s004,001,2025-01-23_12h14.56.739,Aud-A-Scan_AC,2022.2.5,None,
0,0.0,None,fixation,stimulus/audwhere_stim/blank_white.png,stimulus/audwhere_stim/blank_white.png,stimulus/audwhat_stim/blank_white.png,stimulus/audwhat_stim/blank_white.png,stimulus/audwhere_stim/blank_white.png,stimulus/audwhere_stim/blank_white.png,stimulus/audwhere_stim/blank_white.png,stimulus/audwhere_stim/blank_white.png,0.0,0.0,0.0,0.0,0,0.0,0,0.0,0,0.0,0,0.0,0,0.0,0.0,0,0,0,0,0,0,0,0,0,0.0,0,0.0,0,0.0,0,0.0,9,,,,,0,37,37,37,,,,,,,,,340.7525413749995,340.7525413749995,340.7525413749995,340.7525413749995,340.7525413749995,340.7525413749995,340.7525413749995,340.7525413749995,340.6465084163334,340.7525413749995,340.7525413749995,340.7525413749995,340.6465084163334,340.7525413749995,340.7525413749995,340.7525413749995,340.7525413749995,340.7525413749995,340.7525413749995,340.7525413749995,340.7525413749995,340.7525413749995,340.7525413749995,340.7525413749995,340.7525413749995,340.7525413749995,340.7525413749995,340.6965084163334,340.7525413749995,340.7525413749995,340.7525413749995,340.6965084163334,340.7525413749995,340.7525413749995,340.7525413749995,340.7525413749995,340.7525413749995,345.98246295799936,345.98246295799936,349.89062137500014,None,0,,reldom2_s004,001,2025-01-23_12h14.56.739,Aud-A-Scan_AC,2022.2.5,None,
29,Second_Order,5.0,audwhere,stimulus/audwhere_stim/right_toward_270h.wav,stimulus/audwhere_stim/right_away_280h.wav,stimulus/audwhere_stim/left_toward_290h.wav,stimulus/audwhere_stim/left_away_290h.wav,stimulus/audwhere_stim/match_blank.png,stimulus/audwhere_stim/match_box.png,stimulus/audwhere_stim/match_yes.png,stimulus/audwhere_stim/match_no.png,1.0,Match,Side,Side,1,5.125,0,5.125,0,5.125,0,5.125,0,0.75,0.75,0,0,0,0,0,0,0,0,1,0.5,1,2.125,1,0.5,1,2.125,0,,,,,0,38,38,38,,,,,,,,,349.89062137500014,355.0077379999998,349.89062137500014,349.89062137500014,349.89062137500014,349.89062137500014,350.3462772500002,351.34391608299984,350.358736957666,351.3521195829994,351.967222625,352.9643927909997,351.97916041666645,352.9729869580001,355.0077379999998,355.8358722500002,357.91114637500004,361.848503875,355.8358722500002,355.8358722500002,361.02224941599934,355.8358722500002,355.8358722500002,355.8358722500002,355.8358722500002,356.305607541,357.3426474160001,356.2749454166667,,357.91114637500004,358.9524344159995,357.8801434996665,,355.8358722500002,361.02224941599934,355.8358722500002,361.02224941599934,361.02224941599934,,355.8358722500002,1,1,0.6090377089999492,reldom2_s004,001,2025-01-23_12h14.56.739,Aud-A-Scan_AC,2022.2.5,None,
30,Second_Order,5.0,audwhere,stimulus/audwhere_stim/left_toward_300h.wav,stimulus/audwhere_stim/left_away_290h.wav,stimulus/audwhere_stim/right_away_290h.wav,stimulus/audwhere_stim/right_toward_280h.wav,stimulus/audwhere_stim/match_blank.png,stimulus/audwhere_stim/match_box.png,stimulus/audwhere_stim/match_yes.png,stimulus/audwhere_stim/match_no.png,1.0,Match,Side,Side,1,5.125,0,5.125,0,5.125,0,5.125,0,0.625,0.625,0,0,0,0,0,0,0,0,1,0.5,1,2.125,1,0.5,1,2.125,0,,,,,0,39,39,39,,,,,,,,,361.848503875,366.968695,361.848503875,361.848503875,361.848503875,361.848503875,362.30716733300005,363.3051971660002,362.3195693326668,363.3132340830002,363.9279059159994,364.9255556659996,363.9398526666662,364.93343058300024,366.968695,367.6779726660002,369.7469861249997,,367.6779726660002,367.6779726660002,372.8501369159999,367.6779726660002,367.6779726660002,367.6779726660002,367.6779726660002,368.1478888329998,369.182179291,368.1172629166665,,369.7469861249997,370.7845438749996,369.7157671246666,,367.6779726660002,372.8501369159999,367.6779726660002,372.8501369159999,372.89167620799935,373.55517295799973,367.6779726660002,1,1,0.946963291000884,reldom2_s004,001,2025-01-23_12h14.56.739,Aud-A-Scan_AC,2022.2.5,None,
0,0.0,None,fixation,stimulus/audwhere_stim/blank_white.png,stimulus/audwhere_stim/blank_white.png,stimulus/audwhat_stim/blank_white.png,stimulus/audwhat_stim/blank_white.png,stimulus/audwhere_stim/blank_white.png,stimulus/audwhere_stim/blank_white.png,stimulus/audwhere_stim/blank_white.png,stimulus/audwhere_stim/blank_white.png,0.0,0.0,0.0,0.0,0,0.0,0,0.0,0,0.0,0,0.0,0,0.0,0.0,0,0,0,0,0,0,0,0,0,0.0,0,0.0,0,0.0,0,0.0,9,,,,,0,40,40,40,,,,,,,,,373.799256541,373.799256541,373.799256541,373.799256541,373.799256541,373.799256541,373.799256541,373.799256541,373.68850629133306,373.799256541,373.799256541,373.799256541,373.68850629133306,373.799256541,373.799256541,373.799256541,373.799256541,373.799256541,373.799256541,373.799256541,373.799256541,373.799256541,373.799256541,373.799256541,373.799256541,373.799256541,373.799256541,373.7551729579997,373.799256541,373.799256541,373.799256541,373.7551729579997,373.799256541,373.799256541,373.799256541,373.799256541,373.799256541,379.0036161659996,379.0036161659996,383.0428215830002,None,0,,reldom2_s004,001,2025-01-23_12h14.56.739,Aud-A-Scan_AC,2022.2.5,None,
31,First_Order,6.0,audwhere,stimulus/audwhere_stim/dummy.wav,stimulus/audwhere_stim/dummy.wav,stimulus/audwhere_stim/left_away_300h.wav,stimulus/audwhere_stim/left_toward_300h.wav,stimulus/audwhere_stim/blank_white.png,stimulus/audwhere_stim/side_box.png,stimulus/audwhere_stim/side_yes.png,stimulus/audwhere_stim/side_no.png,None,Side,None,Side,1,0.0,0,5.125,0,5.125,0,5.125,0,0.0,0.625,0,0,0,0,0,0,0,0,0,0.0,0,0.0,1,0.5,1,2.125,0,,,,,0,41,41,41,,,,,,,,,383.0428215830002,383.0428215830002,383.0428215830002,383.0428215830002,383.0428215830002,383.0428215830002,383.0428215830002,383.0428215830002,382.96599062466623,383.0428215830002,383.0428215830002,383.0428215830002,382.96599062466623,383.0428215830002,383.0428215830002,383.0428215830002,385.1165074579999,,383.0428215830002,383.0428215830002,388.22397441600015,383.0428215830002,383.0428215830002,383.0428215830002,383.0428215830002,383.5138888329998,384.552453625,383.48322908266687,,385.1165074579999,386.15630674999966,385.0855731246663,,383.0428215830002,388.22397441600015,383.0428215830002,388.22397441600015,388.2653749999995,388.9294412909999,383.0428215830002,1,1,1.0679285410001285,reldom2_s004,001,2025-01-23_12h14.56.739,Aud-A-Scan_AC,2022.2.5,None,
32,First_Order,6.0,audwhere,stimulus/audwhere_stim/dummy.wav,stimulus/audwhere_stim/dummy.wav,stimulus/audwhere_stim/right_away_270h.wav,stimulus/audwhere_stim/left_away_280h.wav,stimulus/audwhere_stim/blank_white.png,stimulus/audwhere_stim/side_box.png,stimulus/audwhere_stim/side_yes.png,stimulus/audwhere_stim/side_no.png,None,Side,None,Direction,2,0.0,0,5.125,0,5.125,0,5.125,0,0.0,0.625,0,0,0,0,0,0,0,0,0,0.0,0,0.0,1,0.5,1,2.125,0,,,,,0,42,42,42,,,,,,,,,389.1461919159997,389.1461919159997,389.1461919159997,389.1461919159997,389.1461919159997,389.1461919159997,389.1461919159997,389.1461919159997,389.0627746243332,389.1461919159997,389.1461919159997,389.1461919159997,389.0627746243332,389.1461919159997,389.1461919159997,389.1461919159997,391.22319174999984,395.2650275410001,389.1461919159997,389.1461919159997,394.3403752499994,389.1461919159997,389.1461919159997,389.1461919159997,389.1461919159997,389.6177720410001,390.65820287499946,389.58721174966627,,391.22319174999984,392.2647340409999,391.1929056246661,,389.1461919159997,394.3403752499994,389.1461919159997,394.3403752499994,394.3403752499994,395.00516095800003,389.1461919159997,2,1,0.5339800839997224,reldom2_s004,001,2025-01-23_12h14.56.739,Aud-A-Scan_AC,2022.2.5,None,
33,First_Order,6.0,audwhere,stimulus/audwhere_stim/dummy.wav,stimulus/audwhere_stim/dummy.wav,stimulus/audwhere_stim/left_toward_270h.wav,stimulus/audwhere_stim/left_away_270h.wav,stimulus/audwhere_stim/blank_white.png,stimulus/audwhere_stim/direction_box.png,stimulus/audwhere_stim/direction_yes.png,stimulus/audwhere_stim/direction_no.png,None,Direction,None,Side,2,0.0,0,5.125,0,5.125,0,5.125,0,0.0,0.625,0,0,0,0,0,0,0,0,0,0.0,0,0.0,1,0.5,1,2.125,0,,,,,0,43,43,43,,,,,,,,,395.2650275410001,395.2650275410001,395.2650275410001,395.2650275410001,395.2650275410001,395.2650275410001,395.2650275410001,395.2650275410001,395.18050470833316,395.2650275410001,395.2650275410001,395.2650275410001,395.18050470833316,395.2650275410001,395.2650275410001,395.2650275410001,397.35368745799997,,395.2650275410001,395.2650275410001,400.4400932909998,395.2650275410001,395.2650275410001,395.2650275410001,395.2650275410001,395.7415192499998,396.78513758300005,395.7101137916668,,397.35368745799997,398.39891733299964,397.32270683266665,,395.2650275410001,400.4400932909998,395.2650275410001,400.4400932909998,400.4820422079997,401.14891787499937,395.2650275410001,2,1,1.1093687500001579,reldom2_s004,001,2025-01-23_12h14.56.739,Aud-A-Scan_AC,2022.2.5,None,
34,First_Order,6.0,audwhere,stimulus/audwhere_stim/dummy.wav,stimulus/audwhere_stim/dummy.wav,stimulus/audwhere_stim/left_toward_300h.wav,stimulus/audwhere_stim/left_away_300h.wav,stimulus/audwhere_stim/blank_white.png,stimulus/audwhere_stim/side_box.png,stimulus/audwhere_stim/side_yes.png,stimulus/audwhere_stim/side_no.png,None,Side,None,Side,1,0.0,0,5.125,0,5.125,0,5.125,0,0.0,0.625,0,0,0,0,0,0,0,0,0,0.0,0,0.0,1,0.5,1,2.125,0,,,,,0,44,44,44,,,,,,,,,401.36820195799964,401.36820195799964,401.36820195799964,401.36820195799964,401.36820195799964,401.36820195799964,401.36820195799964,401.36820195799964,401.2822512083327,401.36820195799964,401.36820195799964,401.36820195799964,401.2822512083327,401.36820195799964,401.36820195799964,401.36820195799964,403.4436416659996,407.5040724159994,401.36820195799964,401.36820195799964,406.5588814580001,401.36820195799964,401.36820195799964,401.36820195799964,401.36820195799964,401.84205274999977,402.8795272499997,401.8114685826665,,403.4436416659996,404.4844265409997,403.4130261246662,,401.36820195799964,406.5588814580001,401.36820195799964,406.5588814580001,406.5588814580001,407.2242289999999,401.36820195799964,1,1,1.4021541659999457,reldom2_s004,001,2025-01-23_12h14.56.739,Aud-A-Scan_AC,2022.2.5,None,
0,0.0,None,fixation,stimulus/audwhere_stim/blank_white.png,stimulus/audwhere_stim/blank_white.png,stimulus/audwhat_stim/blank_white.png,stimulus/audwhat_stim/blank_white.png,stimulus/audwhere_stim/blank_white.png,stimulus/audwhere_stim/blank_white.png,stimulus/audwhere_stim/blank_white.png,stimulus/audwhere_stim/blank_white.png,0.0,0.0,0.0,0.0,0,0.0,0,0.0,0,0.0,0,0.0,0,0.0,0.0,0,0,0,0,0,0,0,0,0,0.0,0,0.0,0,0.0,0,0.0,10,,,,,0,45,45,45,,,,,,,,,407.5040724159994,407.5040724159994,407.5040724159994,407.5040724159994,407.5040724159994,407.5040724159994,407.5040724159994,407.5040724159994,407.3985748743331,407.5040724159994,407.5040724159994,407.5040724159994,407.3985748743331,407.5040724159994,407.5040724159994,407.5040724159994,407.5040724159994,407.5040724159994,407.5040724159994,407.5040724159994,407.5040724159994,407.5040724159994,407.5040724159994,407.5040724159994,407.5040724159994,407.5040724159994,407.5040724159994,407.44857487433313,407.5040724159994,407.5040724159994,407.5040724159994,407.44857487433313,407.5040724159994,407.5040724159994,407.5040724159994,407.5040724159994,407.5040724159994,412.72984604099975,412.72984604099975,417.6621542079997,None,0,,reldom2_s004,001,2025-01-23_12h14.56.739,Aud-A-Scan_AC,2022.2.5,None,
35,Second_Order,6.0,audwhere,stimulus/audwhere_stim/left_away_280h.wav,stimulus/audwhere_stim/left_toward_300h.wav,stimulus/audwhere_stim/right_away_280h.wav,stimulus/audwhere_stim/right_toward_300h.wav,stimulus/audwhere_stim/match_blank.png,stimulus/audwhere_stim/match_box.png,stimulus/audwhere_stim/match_yes.png,stimulus/audwhere_stim/match_no.png,1.0,Match,Side,Side,1,5.125,0,5.125,0,5.125,0,5.125,0,0.75,0.75,0,0,0,0,0,0,0,0,1,0.5,1,2.125,1,0.5,1,2.125,0,,,,,0,46,46,46,,,,,,,,,417.6621542079997,422.7802132080001,417.6621542079997,417.6621542079997,417.6621542079997,417.6621542079997,418.1191428749994,419.1171614579994,418.1316962076669,419.1251019999995,419.73891474999937,420.7378599159997,419.75178974966616,420.74563762499974,422.7802132080001,423.612576,425.69063470799983,429.6310433329995,423.612576,423.612576,428.805122708,423.612576,423.612576,423.612576,423.612576,424.0865737499994,425.12410537499954,424.05572287466634,,425.69063470799983,426.7329007080002,425.65863891666663,,423.612576,428.805122708,423.612576,428.805122708,428.805122708,,423.612576,1,1,0.7340611249996982,reldom2_s004,001,2025-01-23_12h14.56.739,Aud-A-Scan_AC,2022.2.5,None,
36,Second_Order,6.0,audwhere,stimulus/audwhere_stim/left_away_290h.wav,stimulus/audwhere_stim/left_toward_270h.wav,stimulus/audwhere_stim/left_toward_290h.wav,stimulus/audwhere_stim/right_toward_270h.wav,stimulus/audwhere_stim/match_blank.png,stimulus/audwhere_stim/match_box.png,stimulus/audwhere_stim/match_yes.png,stimulus/audwhere_stim/match_no.png,2.0,Match,Side,Direction,2,5.125,0,5.125,0,5.125,0,5.125,0,0.625,0.625,0,0,0,0,0,0,0,0,1,0.5,1,2.125,1,0.5,1,2.125,0,,,,,0,47,47,47,,,,,,,,,429.6310433329995,434.7537354579995,429.6310433329995,429.6310433329995,429.6310433329995,429.6310433329995,430.0800597499997,431.07852175000016,430.09270237466603,431.0863994999995,431.7130130829996,432.70269849999977,431.7166811666664,432.7153252909998,434.7537354579995,435.47072937500025,437.5385952499996,,435.47072937500025,435.47072937500025,440.6486802909999,435.47072937500025,435.47072937500025,435.47072937500025,435.47072937500025,435.94156950000024,436.97447204099944,435.9117704576663,,437.5385952499996,438.5804438330001,437.5088720826668,,435.47072937500025,440.6486802909999,435.47072937500025,440.6486802909999,440.6486802909999,441.30992091599956,435.47072937500025,2,1,0.4829252500007897,reldom2_s004,001,2025-01-23_12h14.56.739,Aud-A-Scan_AC,2022.2.5,None,
0,0.0,None,fixation,stimulus/audwhere_stim/blank_white.png,stimulus/audwhere_stim/blank_white.png,stimulus/audwhat_stim/blank_white.png,stimulus/audwhat_stim/blank_white.png,stimulus/audwhere_stim/blank_white.png,stimulus/audwhere_stim/blank_white.png,stimulus/audwhere_stim/blank_white.png,stimulus/audwhere_stim/blank_white.png,0.0,0.0,0.0,0.0,0,0.0,0,0.0,0,0.0,0,0.0,0,0.0,0.0,0,0,0,0,0,0,0,0,0,0.0,0,0.0,0,0.0,0,0.0,9,,,,,0,48,48,48,,,,,,,,,441.59099654099964,441.59099654099964,441.59099654099964,441.59099654099964,441.59099654099964,441.59099654099964,441.59099654099964,441.59099654099964,441.484346791333,441.59099654099964,441.59099654099964,441.59099654099964,441.484346791333,441.59099654099964,441.59099654099964,441.59099654099964,441.59099654099964,441.59099654099964,441.59099654099964,441.59099654099964,441.59099654099964,441.59099654099964,441.59099654099964,441.59099654099964,441.59099654099964,441.59099654099964,441.59099654099964,441.55101345799966,441.59099654099964,441.59099654099964,441.59099654099964,441.55101345799966,441.59099654099964,441.59099654099964,441.59099654099964,441.59099654099964,441.59099654099964,446.8007407079999,446.8007407079999,450.84670383299954,None,0,,reldom2_s004,001,2025-01-23_12h14.56.739,Aud-A-Scan_AC,2022.2.5,None,
37,First_Order,7.0,audwhat,stimulus/audwhat_stim/dummy.wav,stimulus/audwhat_stim/dummy.wav,stimulus/audwhat_stim/string cello_low-pitch_Ftri_loud.wav,stimulus/audwhat_stim/string cello_high-pitch_D_loud.wav,stimulus/audwhat_stim/blank_white.png,stimulus/audwhat_stim/pitch_box.png,stimulus/audwhat_stim/pitch_yes.png,stimulus/audwhat_stim/pitch_no.png,None,Pitch,None,Category,2,0.0,0,5.125,0,5.125,0,5.125,0,0.0,0.625,0,0,0,0,0,0,0,0,0,0.0,0,0.0,1,0.5,1,2.125,0,,,,,0,49,49,49,,,,,,,,,450.84670383299954,450.84670383299954,450.84670383299954,450.84670383299954,450.84670383299954,450.84670383299954,450.84670383299954,450.84670383299954,450.76892520766626,450.84670383299954,450.84670383299954,450.84670383299954,450.76892520766626,450.84670383299954,450.84670383299954,450.84670383299954,452.925112333,456.96340250000003,450.84670383299954,450.84670383299954,456.0399330409996,450.84670383299954,450.84670383299954,450.84670383299954,450.84670383299954,451.3201010829994,452.35960804100023,451.28976404166656,,452.925112333,453.96323474999963,452.8943492496662,,450.84670383299954,456.0399330409996,450.84670383299954,456.0399330409996,456.0399330409996,456.7047672909998,450.84670383299954,2,1,1.1084156250003616,reldom2_s004,001,2025-01-23_12h14.56.739,Aud-A-Scan_AC,2022.2.5,None,
38,First_Order,7.0,audwhat,stimulus/audwhat_stim/dummy.wav,stimulus/audwhat_stim/dummy.wav,stimulus/audwhat_stim/string cello_low-pitch_D_loud.wav,stimulus/audwhat_stim/string cello_high-pitch_Ftri_loud.wav,stimulus/audwhat_stim/blank_white.png,stimulus/audwhat_stim/pitch_box.png,stimulus/audwhat_stim/pitch_yes.png,stimulus/audwhat_stim/pitch_no.png,None,Pitch,None,Category,2,0.0,0,5.125,0,5.125,0,5.125,0,0.0,0.625,0,0,0,0,0,0,0,0,0,0.0,0,0.0,1,0.5,1,2.125,0,,,,,0,50,50,50,,,,,,,,,456.96340250000003,456.96340250000003,456.96340250000003,456.96340250000003,456.96340250000003,456.96340250000003,456.96340250000003,456.96340250000003,456.8795062493333,456.96340250000003,456.96340250000003,456.96340250000003,456.8795062493333,456.96340250000003,456.96340250000003,456.96340250000003,459.0414034579994,463.08163212499994,456.96340250000003,456.96340250000003,462.15697945799957,456.96340250000003,456.96340250000003,456.96340250000003,456.96340250000003,457.43550212499986,458.47403024999994,457.40460670766674,,459.0414034579994,460.08380870799965,459.0106741666666,,456.96340250000003,462.15697945799957,456.96340250000003,462.15697945799957,462.15697945799957,462.82093241600023,456.96340250000003,2,1,1.245717125000283,reldom2_s004,001,2025-01-23_12h14.56.739,Aud-A-Scan_AC,2022.2.5,None,
39,First_Order,7.0,audwhat,stimulus/audwhat_stim/dummy.wav,stimulus/audwhat_stim/dummy.wav,stimulus/audwhat_stim/percussion xylophone_high-pitch_Dtri_loud.wav,stimulus/audwhat_stim/string cello_high-pitch_Dtri_loud.wav,stimulus/audwhat_stim/blank_white.png,stimulus/audwhat_stim/pitch_box.png,stimulus/audwhat_stim/pitch_yes.png,stimulus/audwhat_stim/pitch_no.png,None,Pitch,None,Pitch,1,0.0,0,5.125,0,5.125,0,5.125,0,0.0,0.625,0,0,0,0,0,0,0,0,0,0.0,0,0.0,1,0.5,1,2.125,0,,,,,0,51,51,51,,,,,,,,,463.08163212499994,463.08163212499994,463.08163212499994,463.08163212499994,463.08163212499994,463.08163212499994,463.08163212499994,463.08163212499994,462.99595599933275,463.08163212499994,463.08163212499994,463.08163212499994,462.99595599933275,463.08163212499994,463.08163212499994,463.08163212499994,465.16267679099974,469.19836283299946,463.08163212499994,463.08163212499994,468.23377024999945,463.08163212499994,463.08163212499994,463.08163212499994,463.08163212499994,463.55330645799995,464.59630675000017,463.5225804166664,464.59630675000017,465.16267679099974,466.20763666599987,465.1320415826665,,463.08163212499994,468.23377024999945,463.08163212499994,468.23377024999945,468.2757590409997,468.94015279099995,463.08163212499994,1,1,0.8026988330007043,reldom2_s004,001,2025-01-23_12h14.56.739,Aud-A-Scan_AC,2022.2.5,None,
40,First_Order,7.0,audwhat,stimulus/audwhat_stim/dummy.wav,stimulus/audwhat_stim/dummy.wav,stimulus/audwhat_stim/string cello_low-pitch_D_loud.wav,stimulus/audwhat_stim/percussion mallet_low-pitch_D_loud.wav,stimulus/audwhat_stim/blank_white.png,stimulus/audwhat_stim/pitch_box.png,stimulus/audwhat_stim/pitch_yes.png,stimulus/audwhat_stim/pitch_no.png,None,Pitch,None,Pitch,1,0.0,0,5.125,0,5.125,0,5.125,0,0.0,0.625,0,0,0,0,0,0,0,0,0,0.0,0,0.0,1,0.5,1,2.125,0,,,,,0,52,52,52,,,,,,,,,469.19836283299946,469.19836283299946,469.19836283299946,469.19836283299946,469.19836283299946,469.19836283299946,469.19836283299946,469.19836283299946,469.1150848333333,469.19836283299946,469.19836283299946,469.19836283299946,469.1150848333333,469.19836283299946,469.19836283299946,469.19836283299946,471.27688041600004,475.3369576660002,469.19836283299946,469.19836283299946,474.34892287499997,469.19836283299946,469.19836283299946,469.19836283299946,469.19836283299946,469.6700618330001,470.71121962499956,469.6394875826661,,471.27688041600004,472.3211716659994,471.2459840416666,,469.19836283299946,474.34892287499997,469.19836283299946,474.34892287499997,474.3906012909997,475.05563250000023,469.19836283299946,1,1,0.6020970419999685,reldom2_s004,001,2025-01-23_12h14.56.739,Aud-A-Scan_AC,2022.2.5,None,
0,0.0,None,fixation,stimulus/audwhere_stim/blank_white.png,stimulus/audwhere_stim/blank_white.png,stimulus/audwhat_stim/blank_white.png,stimulus/audwhat_stim/blank_white.png,stimulus/audwhere_stim/blank_white.png,stimulus/audwhere_stim/blank_white.png,stimulus/audwhere_stim/blank_white.png,stimulus/audwhere_stim/blank_white.png,0.0,0.0,0.0,0.0,0,0.0,0,0.0,0,0.0,0,0.0,0,0.0,0.0,0,0,0,0,0,0,0,0,0,0.0,0,0.0,0,0.0,0,0.0,10,,,,,0,53,53,53,,,,,,,,,475.3369576660002,475.3369576660002,475.3369576660002,475.3369576660002,475.3369576660002,475.3369576660002,475.3369576660002,475.3369576660002,475.23087483333313,475.3369576660002,475.3369576660002,475.3369576660002,475.23087483333313,475.3369576660002,475.3369576660002,475.3369576660002,475.3369576660002,475.3369576660002,475.3369576660002,475.3369576660002,475.3369576660002,475.3369576660002,475.3369576660002,475.3369576660002,475.3369576660002,475.3369576660002,475.3369576660002,475.2975414999998,475.3369576660002,475.3369576660002,475.3369576660002,475.2975414999998,475.3369576660002,475.3369576660002,475.3369576660002,475.3369576660002,475.3369576660002,480.56711691600003,480.56711691600003,485.507668791,None,0,,reldom2_s004,001,2025-01-23_12h14.56.739,Aud-A-Scan_AC,2022.2.5,None,
41,Second_Order,7.0,audwhat,stimulus/audwhat_stim/percussion xylophone_high-pitch_Ftri_loud.wav,stimulus/audwhat_stim/percussion mallet_low-pitch_Dtri_loud.wav,stimulus/audwhat_stim/string viola_low-pitch_Ftri_loud.wav,stimulus/audwhat_stim/percussion mallet_low-pitch_Ftri_loud.wav,stimulus/audwhere_stim/match_blank.png,stimulus/audwhat_stim/match_box.png,stimulus/audwhere_stim/match_yes.png,stimulus/audwhere_stim/match_no.png,2.0,Match,Category,Pitch,2,5.125,0,5.125,0,5.125,0,5.125,0,0.75,0.75,0,0,0,0,0,0,0,0,1,0.5,1,2.125,1,0.5,1,2.125,0,,,,,0,54,54,54,,,,,,,,,485.507668791,490.6202359160002,485.507668791,485.507668791,485.507668791,485.507668791,485.95871091599975,486.95700333299965,485.97126687466675,486.9649268749995,487.57974791599963,488.57749004100015,487.5916688746663,488.58558225000024,490.6202359160002,491.4531743329994,493.5305569999996,497.47353779099967,491.4531743329994,491.4531743329994,496.64915925000014,491.4531743329994,491.4531743329994,491.4531743329994,491.4531743329994,491.9265808750001,492.96465029099954,491.8958389166662,,493.5305569999996,494.57420137500003,493.49907749966656,,491.4531743329994,496.64915925000014,491.4531743329994,496.64915925000014,496.64915925000014,,491.4531743329994,2,1,0.6198699589999705,reldom2_s004,001,2025-01-23_12h14.56.739,Aud-A-Scan_AC,2022.2.5,None,
42,Second_Order,7.0,audwhat,stimulus/audwhat_stim/string cello_high-pitch_Dtri_loud.wav,stimulus/audwhat_stim/percussion mallet_high-pitch_Dtri_loud.wav,stimulus/audwhat_stim/percussion mallet_low-pitch_D_loud.wav,stimulus/audwhat_stim/string cello_low-pitch_D_loud.wav,stimulus/audwhere_stim/match_blank.png,stimulus/audwhat_stim/match_box.png,stimulus/audwhere_stim/match_yes.png,stimulus/audwhere_stim/match_no.png,1.0,Match,Pitch,Pitch,1,5.125,0,5.125,0,5.125,0,5.125,0,0.625,0.625,0,0,0,0,0,0,0,0,1,0.5,1,2.125,1,0.5,1,2.125,0,,,,,0,55,55,55,,,,,,,,,497.47353779099967,502.59817804099976,497.47353779099967,497.47353779099967,497.47353779099967,497.47353779099967,497.9322922079996,498.9216737499996,497.9339853746667,,499.55825833300014,500.5548986250001,499.56978320766643,500.56288512499987,502.59817804099976,503.3096326250002,505.3793540829997,,503.3096326250002,503.3096326250002,508.48745825000015,503.3096326250002,503.3096326250002,503.3096326250002,503.3096326250002,503.7798038750002,504.81571083300014,503.7490819166667,,505.3793540829997,506.42045808299963,505.3494988326663,,503.3096326250002,508.48745825000015,503.3096326250002,508.48745825000015,508.48745825000015,509.14961479099975,503.3096326250002,1,1,0.8611620000006042,reldom2_s004,001,2025-01-23_12h14.56.739,Aud-A-Scan_AC,2022.2.5,None,
0,0.0,None,fixation,stimulus/audwhere_stim/blank_white.png,stimulus/audwhere_stim/blank_white.png,stimulus/audwhat_stim/blank_white.png,stimulus/audwhat_stim/blank_white.png,stimulus/audwhere_stim/blank_white.png,stimulus/audwhere_stim/blank_white.png,stimulus/audwhere_stim/blank_white.png,stimulus/audwhere_stim/blank_white.png,0.0,0.0,0.0,0.0,0,0.0,0,0.0,0,0.0,0,0.0,0,0.0,0.0,0,0,0,0,0,0,0,0,0,0.0,0,0.0,0,0.0,0,0.0,9,,,,,0,56,56,56,,,,,,,,,509.43351137499985,509.43351137499985,509.43351137499985,509.43351137499985,509.43351137499985,509.43351137499985,509.43351137499985,509.43351137499985,509.3242489583332,509.43351137499985,509.43351137499985,509.43351137499985,509.3242489583332,509.43351137499985,509.43351137499985,509.43351137499985,509.43351137499985,509.43351137499985,509.43351137499985,509.43351137499985,509.43351137499985,509.43351137499985,509.43351137499985,509.43351137499985,509.43351137499985,509.43351137499985,509.43351137499985,509.3909156249999,509.43351137499985,509.43351137499985,509.43351137499985,509.3909156249999,509.43351137499985,509.43351137499985,509.43351137499985,509.43351137499985,509.43351137499985,514.639925041,514.639925041,518.6850677079997,None,0,,reldom2_s004,001,2025-01-23_12h14.56.739,Aud-A-Scan_AC,2022.2.5,None,
43,First_Order,8.0,audwhat,stimulus/audwhat_stim/dummy.wav,stimulus/audwhat_stim/dummy.wav,stimulus/audwhat_stim/string viola_low-pitch_F_loud.wav,stimulus/audwhat_stim/percussion mallet_low-pitch_F_loud.wav,stimulus/audwhat_stim/blank_white.png,stimulus/audwhat_stim/category_box.png,stimulus/audwhat_stim/category_yes.png,stimulus/audwhat_stim/category_no.png,None,Category,None,Pitch,2,0.0,0,5.125,0,5.125,0,5.125,0,0.0,0.625,0,0,0,0,0,0,0,0,0,0.0,0,0.0,1,0.5,1,2.125,0,,,,,0,57,57,57,,,,,,,,,518.6850677079997,518.6850677079997,518.6850677079997,518.6850677079997,518.6850677079997,518.6850677079997,518.6850677079997,518.6850677079997,518.6079104576667,518.6850677079997,518.6850677079997,518.6850677079997,518.6079104576667,518.6850677079997,518.6850677079997,518.6850677079997,520.7709655829999,524.816767416,518.6850677079997,518.6850677079997,523.84997625,518.6850677079997,518.6850677079997,518.6850677079997,518.6850677079997,519.1591837909996,520.2031207499999,519.1282886246661,,520.7709655829999,521.8157230829997,520.7405036666667,,518.6850677079997,523.84997625,518.6850677079997,523.84997625,523.8920267500002,524.5577636659996,518.6850677079997,2,1,1.8177254580000408,reldom2_s004,001,2025-01-23_12h14.56.739,Aud-A-Scan_AC,2022.2.5,None,
44,First_Order,8.0,audwhat,stimulus/audwhat_stim/dummy.wav,stimulus/audwhat_stim/dummy.wav,stimulus/audwhat_stim/percussion mallet_low-pitch_Dtri_loud.wav,stimulus/audwhat_stim/percussion xylophone_high-pitch_F_loud.wav,stimulus/audwhat_stim/blank_white.png,stimulus/audwhat_stim/category_box.png,stimulus/audwhat_stim/category_yes.png,stimulus/audwhat_stim/category_no.png,None,Category,None,Category,1,0.0,0,5.125,0,5.125,0,5.125,0,0.0,0.625,0,0,0,0,0,0,0,0,0,0.0,0,0.0,1,0.5,1,2.125,0,,,,,0,58,58,58,,,,,,,,,524.816767416,524.816767416,524.816767416,524.816767416,524.816767416,524.816767416,524.816767416,524.816767416,524.7322752913329,524.816767416,524.816767416,524.816767416,524.7322752913329,524.816767416,524.816767416,524.816767416,526.9033020000002,,524.816767416,524.816767416,529.9920244999998,524.816767416,524.816767416,524.816767416,524.816767416,525.2902978329998,526.3345718329997,525.2591915826667,,526.9033020000002,527.9536522909998,526.8724854576665,527.9536522909998,524.816767416,529.9920244999998,524.816767416,529.9920244999998,530.0333803749995,530.699572,524.816767416,1,1,1.1923387499996352,reldom2_s004,001,2025-01-23_12h14.56.739,Aud-A-Scan_AC,2022.2.5,None,
45,First_Order,8.0,audwhat,stimulus/audwhat_stim/dummy.wav,stimulus/audwhat_stim/dummy.wav,stimulus/audwhat_stim/string cello_high-pitch_Dtri_loud.wav,stimulus/audwhat_stim/percussion xylophone_high-pitch_Dtri_loud.wav,stimulus/audwhat_stim/blank_white.png,stimulus/audwhat_stim/category_box.png,stimulus/audwhat_stim/category_yes.png,stimulus/audwhat_stim/category_no.png,None,Category,None,Pitch,2,0.0,0,5.125,0,5.125,0,5.125,0,0.0,0.625,0,0,0,0,0,0,0,0,0,0.0,0,0.0,1,0.5,1,2.125,0,,,,,0,59,59,59,,,,,,,,,530.9175949579999,530.9175949579999,530.9175949579999,530.9175949579999,530.9175949579999,530.9175949579999,530.9175949579999,530.9175949579999,530.8329053333333,530.9175949579999,530.9175949579999,530.9175949579999,530.8329053333333,530.9175949579999,530.9175949579999,530.9175949579999,533.0049427079998,,530.9175949579999,530.9175949579999,536.0921302080001,530.9175949579999,530.9175949579999,530.9175949579999,530.9175949579999,531.3926542909999,532.436651083,531.362073666666,,533.0049427079998,534.0548375829999,532.9739896246663,534.0075646660002,530.9175949579999,536.0921302080001,530.9175949579999,536.0921302080001,536.1337707079997,536.799875708,530.9175949579999,2,1,1.5205906249998407,reldom2_s004,001,2025-01-23_12h14.56.739,Aud-A-Scan_AC,2022.2.5,None,
46,First_Order,8.0,audwhat,stimulus/audwhat_stim/dummy.wav,stimulus/audwhat_stim/dummy.wav,stimulus/audwhat_stim/percussion mallet_low-pitch_Ftri_loud.wav,stimulus/audwhat_stim/percussion mallet_high-pitch_F_loud.wav,stimulus/audwhat_stim/blank_white.png,stimulus/audwhat_stim/category_box.png,stimulus/audwhat_stim/category_yes.png,stimulus/audwhat_stim/category_no.png,None,Category,None,Category,1,0.0,0,5.125,0,5.125,0,5.125,0,0.0,0.625,0,0,0,0,0,0,0,0,0,0.0,0,0.0,1,0.5,1,2.125,0,,,,,0,60,60,60,,,,,,,,,537.0191467909995,537.0191467909995,537.0191467909995,537.0191467909995,537.0191467909995,537.0191467909995,537.0191467909995,537.0191467909995,536.9332090413333,537.0191467909995,537.0191467909995,537.0191467909995,536.9332090413333,537.0191467909995,537.0191467909995,537.0191467909995,539.1053577910002,,537.0191467909995,537.0191467909995,542.1950055410002,537.0191467909995,537.0191467909995,537.0191467909995,537.0191467909995,537.4927500829995,538.5371649579997,537.4618280416669,,539.1053577910002,540.1591619999995,539.074604416666,540.1118766659997,537.0191467909995,542.1950055410002,537.0191467909995,542.1950055410002,542.2367771659997,542.9031097080001,537.0191467909995,1,1,0.7122999160005747,reldom2_s004,001,2025-01-23_12h14.56.739,Aud-A-Scan_AC,2022.2.5,None,
0,0.0,None,fixation,stimulus/audwhere_stim/blank_white.png,stimulus/audwhere_stim/blank_white.png,stimulus/audwhat_stim/blank_white.png,stimulus/audwhat_stim/blank_white.png,stimulus/audwhere_stim/blank_white.png,stimulus/audwhere_stim/blank_white.png,stimulus/audwhere_stim/blank_white.png,stimulus/audwhere_stim/blank_white.png,0.0,0.0,0.0,0.0,0,0.0,0,0.0,0,0.0,0,0.0,0,0.0,0.0,0,0,0,0,0,0,0,0,0,0.0,0,0.0,0,0.0,0,0.0,8,,,,,0,61,61,61,,,,,,,,,543.1421725409996,543.1421725409996,543.1421725409996,543.1421725409996,543.1421725409996,543.1421725409996,543.1421725409996,543.1421725409996,543.0364430413334,543.1421725409996,543.1421725409996,543.1421725409996,543.0364430413334,543.1421725409996,543.1421725409996,543.1421725409996,543.1421725409996,543.1421725409996,543.1421725409996,543.1421725409996,543.1421725409996,543.1421725409996,543.1421725409996,543.1421725409996,543.1421725409996,543.1421725409996,543.1421725409996,543.103109708,543.1421725409996,543.1421725409996,543.1421725409996,543.103109708,543.1421725409996,543.1421725409996,543.1421725409996,543.1421725409996,543.1421725409996,548.3751631660002,548.3751631660002,551.3014195000001,None,0,,reldom2_s004,001,2025-01-23_12h14.56.739,Aud-A-Scan_AC,2022.2.5,None,
47,Second_Order,8.0,audwhat,stimulus/audwhat_stim/string cello_high-pitch_F_loud.wav,stimulus/audwhat_stim/string viola_low-pitch_D_loud.wav,stimulus/audwhat_stim/percussion mallet_low-pitch_Ftri_loud.wav,stimulus/audwhat_stim/percussion xylophone_high-pitch_F_loud.wav,stimulus/audwhere_stim/match_blank.png,stimulus/audwhat_stim/match_box.png,stimulus/audwhere_stim/match_yes.png,stimulus/audwhere_stim/match_no.png,1.0,Match,Category,Category,1,5.125,0,5.125,0,5.125,0,5.125,0,0.75,0.75,0,0,0,0,0,0,0,0,1,0.5,1,2.125,1,0.5,1,2.125,0,,,,,0,62,62,62,,,,,,,,,551.3014195000001,556.4224600829998,551.3014195000001,551.3014195000001,551.3014195000001,551.3014195000001,551.7565301250002,552.7453404160001,551.7596916666669,,553.3819145829998,554.3790646249995,553.3937152916667,,556.4224600829998,557.2534233749998,559.325892458,563.2700755829997,557.2534233749998,557.2534233749998,562.4440247079997,557.2534233749998,557.2534233749998,557.2534233749998,557.2534233749998,557.7248490830002,558.7612353749996,557.6931425826667,,559.325892458,560.371988458,559.295167707666,560.371988458,557.2534233749998,562.4440247079997,557.2534233749998,562.4440247079997,562.4440247079997,,557.2534233749998,1,1,1.8982999590002692,reldom2_s004,001,2025-01-23_12h14.56.739,Aud-A-Scan_AC,2022.2.5,None,
48,Second_Order,8.0,audwhat,stimulus/audwhat_stim/percussion mallet_high-pitch_Ftri_loud.wav,stimulus/audwhat_stim/percussion mallet_low-pitch_D_loud.wav,stimulus/audwhat_stim/string cello_high-pitch_Ftri_loud.wav,stimulus/audwhat_stim/percussion xylophone_high-pitch_Ftri_loud.wav,stimulus/audwhere_stim/match_blank.png,stimulus/audwhat_stim/match_box.png,stimulus/audwhere_stim/match_yes.png,stimulus/audwhere_stim/match_no.png,2.0,Match,Category,Pitch,2,5.125,0,5.125,0,5.125,0,5.125,0,0.625,0.625,0,0,0,0,0,0,0,0,1,0.5,1,2.125,1,0.5,1,2.125,0,,,,,0,63,63,63,,,,,,,,,563.2700755829997,568.3833889579996,563.2700755829997,563.2700755829997,563.2700755829997,563.2700755829997,563.719396041,564.706393291,563.7333851246665,564.7275067079995,565.3423366249995,566.3397472909996,565.3543502076661,566.3473470409995,568.3833889579996,569.0928532080002,571.1604220409995,,569.0928532080002,569.0928532080002,574.2739909999996,569.0928532080002,569.0928532080002,569.0928532080002,569.0928532080002,569.5620626249997,570.5984221249996,569.531197666666,,571.1604220409995,572.2038255000002,571.1300377076666,572.2038255000002,569.0928532080002,574.2739909999996,569.0928532080002,574.2739909999996,574.2739909999996,574.9370673749995,569.0928532080002,2,1,1.0090478750003058,reldom2_s004,001,2025-01-23_12h14.56.739,Aud-A-Scan_AC,2022.2.5,None,
0,0.0,None,fixation,stimulus/audwhere_stim/blank_white.png,stimulus/audwhere_stim/blank_white.png,stimulus/audwhat_stim/blank_white.png,stimulus/audwhat_stim/blank_white.png,stimulus/audwhere_stim/blank_white.png,stimulus/audwhere_stim/blank_white.png,stimulus/audwhere_stim/blank_white.png,stimulus/audwhere_stim/blank_white.png,0.0,0.0,0.0,0.0,0,0.0,0,0.0,0,0.0,0,0.0,0,0.0,0.0,0,0,0,0,0,0,0,0,0,0.0,0,0.0,0,0.0,0,0.0,16,,,,,0,64,64,64,,,,,,,,,575.2170216250001,575.2170216250001,575.2170216250001,575.2170216250001,575.2170216250001,575.2170216250001,575.2170216250001,575.2170216250001,575.1116658333327,575.2170216250001,575.2170216250001,575.2170216250001,575.1116658333327,575.2170216250001,575.2170216250001,575.2170216250001,575.2170216250001,575.2170216250001,575.2170216250001,575.2170216250001,575.2170216250001,575.2170216250001,575.2170216250001,575.2170216250001,575.2170216250001,575.2170216250001,575.2170216250001,575.1783324999993,575.2170216250001,575.2170216250001,575.2170216250001,575.1783324999993,575.2170216250001,575.2170216250001,575.2170216250001,575.2170216250001,575.2170216250001,580.4296733329998,580.4296733329998,591.378708791,None,0,,reldom2_s004,001,2025-01-23_12h14.56.739,Aud-A-Scan_AC,2022.2.5,None,
