Trial,Order,Block,Type,Stimuli_File1,Stimuli_File2,Stimuli_File3,Stimuli_File4,Cue_File1,Cue_File2,Response_File_Yes,Response_File_No,Match,Cue_Dimension,Pair1_Dimension,Pair2_Dimension,Key,Cue1_Duration,Cue1_Onset,Cue2_Duration,Cue2_Onset,ResponseYes_Duration,ResponseYes_Onset,ResponseNo_Duration,ResponseNo_Onset,ITI_Within,ITI_Between,Image1_Duration,Image1_Onset,Image2_Duration,Image2_Onset,Image3_Duration,Image3_Onset,Image4_Duration,Image4_Onset,Sound1_Duration,Sound1_Onset,Sound2_Duration,Sound2_Onset,Sound3_Duration,Sound3_Onset,Sound4_Duration,Sound4_Onset,Fixation_Duration,trials_2.thisRepN,trials_2.thisTrialN,trials_2.thisN,trials_2.thisIndex,trials.thisRepN,trials.thisTrialN,trials.thisN,trials.thisIndex,text_start.started,key_resp_start.started,key_resp_start.keys,key_resp_start.rt,text2.started,key_resp_2.started,key_resp_2.keys,key_resp_2.rt,cue_file1.started,cue_file1.stopped,image_1.started,image_1.stopped,image_2.started,image_2.stopped,sound_icon1.started,sound_icon1.stopped,sound_1.started,sound_1.stopped,sound_icon2.started,sound_icon2.stopped,sound_2.started,sound_2.stopped,image_blank_1.started,image_blank_1.stopped,key_press.started,key_press.stopped,fixation_text.started,cue_file2.started,cue_file2.stopped,image_3.started,image_3.stopped,image_4.started,image_4.stopped,sound_icon3.started,sound_icon3.stopped,sound_3.started,sound_3.stopped,sound_icon4.started,sound_icon4.stopped,sound_4.started,sound_4.stopped,response_yes.started,response_yes.stopped,response_no.started,response_no.stopped,iti_blank.started,iti_blank.stopped,fixation_text.stopped,key_press.keys,key_press.corr,key_press.rt,participant,session,date,expName,psychopyVersion,frameRate,
,,,,,,,,,,,,,,,,,,,,,,,,,,,,,,,,,,,,,,,,,,,,,,,,,,,,8.528194041999996,8.528194041999996,2,1.5857881239999188,,,,,,,,,,,,,,,,,,,,,,,,,,,,,,,,,,,,,,,,,,,,,,,,reldom2_s004,001,2025-01-23_12h03.27.765,Where-A-Scan_AC,2022.2.5,None,
,,,,,,,,,,,,,,,,,,,,,,,,,,,,,,,,,,,,,,,,,,,,0,0,0,0,,,,,,,,,10.136453499999789,10.136453499999789,5,14.96188470800007,,,,,,,,,,,,,,,,,,,,,,,,,,,,,,,,,,,,,,,,,,,,reldom2_s004,001,2025-01-23_12h03.27.765,Where-A-Scan_AC,2022.2.5,None,
,,,,,,,,,,,,,,,,,,,,,,,,,,,,,,,,,,,,,,,,,,,,1,0,1,0,,,,,,,,,25.115216708999924,25.115216708999924,5,1.9833650830000806,,,,,,,,,,,,,,,,,,,,,,,,,,,,,,,,,,,,,,,,,,,,reldom2_s004,001,2025-01-23_12h03.27.765,Where-A-Scan_AC,2022.2.5,None,
,,,,,,,,,,,,,,,,,,,,,,,,,,,,,,,,,,,,,,,,,,,,2,0,2,0,,,,,,,,,27.11288012499972,27.11288012499972,5,1.985365916000319,,,,,,,,,,,,,,,,,,,,,,,,,,,,,,,,,,,,,,,,,,,,reldom2_s004,001,2025-01-23_12h03.27.765,Where-A-Scan_AC,2022.2.5,None,
,,,,,,,,,,,,,,,,,,,,,,,,,,,,,,,,,,,,,,,,,,,,3,0,3,0,,,,,,,,,29.104430625000077,29.104430625000077,5,1.9942466249999597,,,,,,,,,,,,,,,,,,,,,,,,,,,,,,,,,,,,,,,,,,,,reldom2_s004,001,2025-01-23_12h03.27.765,Where-A-Scan_AC,2022.2.5,None,
0,0.0,None,fixation,stimulus/viswhere_stim/blank_white.png,stimulus/viswhere_stim/blank_white.png,stimulus/audwhere_stim/blank_white.png,stimulus/audwhere_stim/blank_white.png,stimulus/viswhere_stim/blank_white.png,stimulus/viswhere_stim/blank_white.png,stimulus/viswhere_stim/blank_white.png,stimulus/viswhere_stim/blank_white.png,0.0,0.0,0.0,0.0,0,0.0,0,0.0,0,0.0,0,0.0,0,0.0,0.0,0,0.0,0,0.0,0,0.0,0,0.0,0,0.0,0,0.0,0,0.0,0,0.0,16,,,,,0,0,0,0,,,,,,,,,31.30086399999982,31.30086399999982,31.30086399999982,31.30086399999982,31.30086399999982,31.30086399999982,31.30086399999982,31.30086399999982,31.205488917,31.30086399999982,31.30086399999982,31.30086399999982,31.205488917,31.30086399999982,31.30086399999982,31.30086399999982,31.30086399999982,31.30086399999982,31.30086399999982,31.30086399999982,31.30086399999982,31.30086399999982,31.30086399999982,31.30086399999982,31.30086399999982,31.30086399999982,31.30086399999982,31.255488917,31.30086399999982,31.30086399999982,31.30086399999982,31.255488917,31.30086399999982,31.30086399999982,31.30086399999982,31.30086399999982,31.30086399999982,36.51469324999971,36.51469324999971,47.496976041999915,None,0,,reldom2_s004,001,2025-01-23_12h03.27.765,Where-A-Scan_AC,2022.2.5,None,
1,First_Order,1.0,viswhere,stimulus/viswhere_stim/blank_white.png,stimulus/viswhere_stim/blank_white.png,stimulus/viswhere_stim/60-deg_dot-left_peru.png,stimulus/viswhere_stim/60-deg_dot-right_turquoise.png,stimulus/viswhere_stim/blank_white.png,stimulus/viswhere_stim/dot_box.png,stimulus/viswhere_stim/dot_yes.png,stimulus/viswhere_stim/dot_no.png,None,Dot,None,Line,2,0.0,0,5.125,0,5.125,0,5.125,0,0.0,0.625,0,0.0,0,0.0,1,0.5,1,2.125,0,0.0,0,0.0,0,0.0,0,0.0,0,,,,,0,1,1,1,,,,,,,,,47.496976041999915,47.496976041999915,47.496976041999915,47.496976041999915,47.496976041999915,47.496976041999915,47.496976041999915,47.496976041999915,47.47385954199981,47.496976041999915,47.496976041999915,47.496976041999915,47.47385954199981,47.496976041999915,47.496976041999915,47.496976041999915,49.60907287500004,53.577721041999666,47.496976041999915,47.496976041999915,52.625500958999964,47.97303570899976,48.98104162499976,49.60907287500004,50.62266245899991,47.496976041999915,47.496976041999915,47.49052620866647,47.496976041999915,47.496976041999915,47.496976041999915,47.49052620866647,47.496976041999915,47.496976041999915,52.625500958999964,47.496976041999915,52.625500958999964,52.72385287499992,53.37257491699984,47.496976041999915,2,1,1.0452209570003106,reldom2_s004,001,2025-01-23_12h03.27.765,Where-A-Scan_AC,2022.2.5,None,
2,First_Order,1.0,viswhere,stimulus/viswhere_stim/blank_white.png,stimulus/viswhere_stim/blank_white.png,stimulus/viswhere_stim/60-deg_dot-right_turquoise.png,stimulus/viswhere_stim/60-deg_dot-left_turquoise.png,stimulus/viswhere_stim/blank_white.png,stimulus/viswhere_stim/line_box.png,stimulus/viswhere_stim/line_yes.png,stimulus/viswhere_stim/line_no.png,None,Line,None,Line,1,0.0,0,5.125,0,5.125,0,5.125,0,0.0,0.625,0,0.0,0,0.0,1,0.5,1,2.125,0,0.0,0,0.0,0,0.0,0,0.0,0,,,,,0,2,2,2,,,,,,,,,53.577721041999666,53.577721041999666,53.577721041999666,53.577721041999666,53.577721041999666,53.577721041999666,53.577721041999666,53.577721041999666,53.556113000333276,53.577721041999666,53.577721041999666,53.577721041999666,53.556113000333276,53.577721041999666,53.577721041999666,53.577721041999666,55.68619824999996,59.64169333399968,53.577721041999666,53.577721041999666,58.701535624999906,54.05714629199974,55.07269137499998,55.68619824999996,56.688107749999745,53.577721041999666,53.577721041999666,53.57277966699994,53.577721041999666,53.577721041999666,53.577721041999666,53.57277966699994,53.577721041999666,53.577721041999666,58.701535624999906,53.577721041999666,58.701535624999906,58.79841562499996,59.423732499999915,53.577721041999666,1,1,0.6954699160000928,reldom2_s004,001,2025-01-23_12h03.27.765,Where-A-Scan_AC,2022.2.5,None,
3,First_Order,1.0,viswhere,stimulus/viswhere_stim/blank_white.png,stimulus/viswhere_stim/blank_white.png,stimulus/viswhere_stim/30-deg_dot-left_salmon.png,stimulus/viswhere_stim/120-deg_dot-left_royalblue.png,stimulus/viswhere_stim/blank_white.png,stimulus/viswhere_stim/line_box.png,stimulus/viswhere_stim/line_yes.png,stimulus/viswhere_stim/line_no.png,None,Line,None,Dot,2,0.0,0,5.125,0,5.125,0,5.125,0,0.0,0.625,0,0.0,0,0.0,1,0.5,1,2.125,0,0.0,0,0.0,0,0.0,0,0.0,0,,,,,0,3,3,3,,,,,,,,,59.64169333399968,59.64169333399968,59.64169333399968,59.64169333399968,59.64169333399968,59.64169333399968,59.64169333399968,59.64169333399968,59.61994820833328,59.64169333399968,59.64169333399968,59.64169333399968,59.61994820833328,59.64169333399968,59.64169333399968,59.64169333399968,61.75501966699994,65.70628220899971,59.64169333399968,59.64169333399968,64.78217479199975,60.12074616700011,61.14128070900006,61.75501966699994,62.75750545899973,59.64169333399968,59.64169333399968,59.63661487499994,59.64169333399968,59.64169333399968,59.64169333399968,59.63661487499994,59.64169333399968,59.64169333399968,64.78217479199975,59.64169333399968,64.78217479199975,64.88241412499974,65.51089358399986,59.64169333399968,2,1,1.062663874000009,reldom2_s004,001,2025-01-23_12h03.27.765,Where-A-Scan_AC,2022.2.5,None,
4,First_Order,1.0,viswhere,stimulus/viswhere_stim/blank_white.png,stimulus/viswhere_stim/blank_white.png,stimulus/viswhere_stim/150-deg_dot-right_salmon.png,stimulus/viswhere_stim/90-deg_dot-right_goldenrod.png,stimulus/viswhere_stim/blank_white.png,stimulus/viswhere_stim/line_box.png,stimulus/viswhere_stim/line_yes.png,stimulus/viswhere_stim/line_no.png,None,Line,None,Dot,2,0.0,0,5.125,0,5.125,0,5.125,0,0.0,0.625,0,0.0,0,0.0,1,0.5,1,2.125,0,0.0,0,0.0,0,0.0,0,0.0,0,,,,,0,4,4,4,,,,,,,,,65.70628220899971,65.70628220899971,65.70628220899971,65.70628220899971,65.70628220899971,65.70628220899971,65.70628220899971,65.70628220899971,65.68403225033337,65.70628220899971,65.70628220899971,65.70628220899971,65.68403225033337,65.70628220899971,65.70628220899971,65.70628220899971,67.80573937500003,71.8571657499997,65.70628220899971,65.70628220899971,70.84166520899998,66.19166150000001,67.20337137499973,67.80573937500003,68.8220887499997,65.70628220899971,65.70628220899971,65.70069891700004,65.70628220899971,65.70628220899971,65.70628220899971,65.70069891700004,65.70628220899971,65.70628220899971,70.84166520899998,65.70628220899971,70.84166520899998,70.92991624999968,71.55873745899999,65.70628220899971,2,1,0.6964082909998979,reldom2_s004,001,2025-01-23_12h03.27.765,Where-A-Scan_AC,2022.2.5,None,
0,0.0,None,fixation,stimulus/viswhere_stim/blank_white.png,stimulus/viswhere_stim/blank_white.png,stimulus/audwhere_stim/blank_white.png,stimulus/audwhere_stim/blank_white.png,stimulus/viswhere_stim/blank_white.png,stimulus/viswhere_stim/blank_white.png,stimulus/viswhere_stim/blank_white.png,stimulus/viswhere_stim/blank_white.png,0.0,0.0,0.0,0.0,0,0.0,0,0.0,0,0.0,0,0.0,0,0.0,0.0,0,0.0,0,0.0,0,0.0,0,0.0,0,0.0,0,0.0,0,0.0,0,0.0,9,,,,,0,5,5,5,,,,,,,,,71.8571657499997,71.8571657499997,71.8571657499997,71.8571657499997,71.8571657499997,71.8571657499997,71.8571657499997,71.8571657499997,71.75288433333328,71.8571657499997,71.8571657499997,71.8571657499997,71.75288433333328,71.8571657499997,71.8571657499997,71.8571657499997,71.8571657499997,71.8571657499997,71.8571657499997,71.8571657499997,71.8571657499997,71.8571657499997,71.8571657499997,71.8571657499997,71.8571657499997,71.8571657499997,71.8571657499997,71.80288433333328,71.8571657499997,71.8571657499997,71.8571657499997,71.80288433333328,71.8571657499997,71.8571657499997,71.8571657499997,71.8571657499997,71.8571657499997,77.08057870899984,77.08057870899984,80.99263579199987,None,0,,reldom2_s004,001,2025-01-23_12h03.27.765,Where-A-Scan_AC,2022.2.5,None,
5,Second_Order,1.0,viswhere,stimulus/viswhere_stim/90-deg_dot-right_mediumslateblue.png,stimulus/viswhere_stim/90-deg_dot-left_peru.png,stimulus/viswhere_stim/150-deg_dot-left_seagreen.png,stimulus/viswhere_stim/120-deg_dot-left_mediumslateblue.png,stimulus/viswhere_stim/match_blank.png,stimulus/viswhere_stim/match_box.png,stimulus/viswhere_stim/match_yes.png,stimulus/viswhere_stim/match_no.png,2.0,Match,Line,Dot,2,5.125,0,5.125,0,5.125,0,5.125,0,0.75,0.75,1,0.5,1,2.125,1,0.5,1,2.125,0,0.0,0,0.0,0,0.0,0,0.0,0,,,,,0,6,6,6,,,,,,,,,80.99263579199987,86.11549191699987,81.47340679199988,82.46041441699981,83.09655225000006,84.0940102919999,80.99263579199987,80.99263579199987,81.00581341733334,80.99263579199987,80.99263579199987,80.99263579199987,81.00581341733334,80.99263579199987,86.11549191699987,86.89691962500001,88.99382512500006,92.87952316700012,86.89691962500001,86.89691962500001,92.0350726669999,87.36420612499978,88.3740470419998,88.99382512500006,90.01203104199976,86.89691962500001,86.89691962500001,86.88397929233318,86.89691962500001,86.89691962500001,86.89691962500001,86.88397929233318,86.89691962500001,86.89691962500001,92.0350726669999,86.89691962500001,92.0350726669999,92.10587566699996,92.87952316700012,86.89691962500001,2,1,0.9346493330003796,reldom2_s004,001,2025-01-23_12h03.27.765,Where-A-Scan_AC,2022.2.5,None,
6,Second_Order,1.0,viswhere,stimulus/viswhere_stim/60-deg_dot-right_salmon.png,stimulus/viswhere_stim/150-deg_dot-right_cyan.png,stimulus/viswhere_stim/120-deg_dot-left_lightsseagreen.png,stimulus/viswhere_stim/90-deg_dot-left_goldenrod.png,stimulus/viswhere_stim/match_blank.png,stimulus/viswhere_stim/match_box.png,stimulus/viswhere_stim/match_yes.png,stimulus/viswhere_stim/match_no.png,1.0,Match,Dot,Dot,1,5.125,0,5.125,0,5.125,0,5.125,0,0.625,0.625,1,0.5,1,2.125,1,0.5,1,2.125,0,0.0,0,0.0,0,0.0,0,0.0,0,,,,,0,7,7,7,,,,,,,,,92.87952316700012,97.99759537499995,93.36557575000006,94.35521104200006,94.98581158399975,95.97552995899969,92.87952316700012,92.87952316700012,92.89122808399979,92.87952316700012,92.87952316700012,92.87952316700012,92.89122808399979,92.87952316700012,97.99759537499995,98.65586866700005,100.75811462499996,104.79062662499973,98.65586866700005,98.65586866700005,103.7813886670001,99.11907758400002,100.12286700000004,100.75811462499996,101.77144487499982,98.65586866700005,98.65586866700005,98.6445267503332,98.65586866700005,98.65586866700005,98.65586866700005,98.6445267503332,98.65586866700005,98.65586866700005,103.7813886670001,98.65586866700005,103.7813886670001,103.8696837919997,104.49499283399973,98.65586866700005,1,1,0.6890613320001648,reldom2_s004,001,2025-01-23_12h03.27.765,Where-A-Scan_AC,2022.2.5,None,
0,0.0,None,fixation,stimulus/viswhere_stim/blank_white.png,stimulus/viswhere_stim/blank_white.png,stimulus/audwhere_stim/blank_white.png,stimulus/audwhere_stim/blank_white.png,stimulus/viswhere_stim/blank_white.png,stimulus/viswhere_stim/blank_white.png,stimulus/viswhere_stim/blank_white.png,stimulus/viswhere_stim/blank_white.png,0.0,0.0,0.0,0.0,0,0.0,0,0.0,0,0.0,0,0.0,0,0.0,0.0,0,0.0,0,0.0,0,0.0,0,0.0,0,0.0,0,0.0,0,0.0,0,0.0,8,,,,,0,8,8,8,,,,,,,,,104.79062662499973,104.79062662499973,104.79062662499973,104.79062662499973,104.79062662499973,104.79062662499973,104.79062662499973,104.79062662499973,104.69066608333317,104.79062662499973,104.79062662499973,104.79062662499973,104.69066608333317,104.79062662499973,104.79062662499973,104.79062662499973,104.79062662499973,104.79062662499973,104.79062662499973,104.79062662499973,104.79062662499973,104.79062662499973,104.79062662499973,104.79062662499973,104.79062662499973,104.79062662499973,104.79062662499973,104.74066608333317,104.79062662499973,104.79062662499973,104.79062662499973,104.74066608333317,104.79062662499973,104.79062662499973,104.79062662499973,104.79062662499973,104.79062662499973,109.99889104199974,109.99889104199974,113.01393841699974,None,0,,reldom2_s004,001,2025-01-23_12h03.27.765,Where-A-Scan_AC,2022.2.5,None,
7,First_Order,2.0,viswhere,stimulus/viswhere_stim/blank_white.png,stimulus/viswhere_stim/blank_white.png,stimulus/viswhere_stim/30-deg_dot-right_cyan.png,stimulus/viswhere_stim/30-deg_dot-left_cyan.png,stimulus/viswhere_stim/blank_white.png,stimulus/viswhere_stim/line_box.png,stimulus/viswhere_stim/line_yes.png,stimulus/viswhere_stim/line_no.png,None,Line,None,Line,1,0.0,0,5.125,0,5.125,0,5.125,0,0.0,0.625,0,0.0,0,0.0,1,0.5,1,2.125,0,0.0,0,0.0,0,0.0,0,0.0,0,,,,,0,9,9,9,,,,,,,,,113.01393841699974,113.01393841699974,113.01393841699974,113.01393841699974,113.01393841699974,113.01393841699974,113.01393841699974,113.01393841699974,112.99146508366645,113.01393841699974,113.01393841699974,113.01393841699974,112.99146508366645,113.01393841699974,113.01393841699974,113.01393841699974,115.11939974999996,119.08345529200005,113.01393841699974,113.01393841699974,118.13894341700006,113.49783833399988,114.50224570899991,115.11939974999996,116.12907558400002,113.01393841699974,113.01393841699974,113.00813175033312,113.01393841699974,113.01393841699974,113.01393841699974,113.00813175033312,113.01393841699974,113.01393841699974,118.13894341700006,113.01393841699974,118.13894341700006,118.23575091699968,118.86152970900002,113.01393841699974,1,1,0.7419030410001142,reldom2_s004,001,2025-01-23_12h03.27.765,Where-A-Scan_AC,2022.2.5,None,
8,First_Order,2.0,viswhere,stimulus/viswhere_stim/blank_white.png,stimulus/viswhere_stim/blank_white.png,stimulus/viswhere_stim/60-deg_dot-right_slateblue.png,stimulus/viswhere_stim/60-deg_dot-left_goldenrod.png,stimulus/viswhere_stim/blank_white.png,stimulus/viswhere_stim/dot_box.png,stimulus/viswhere_stim/dot_yes.png,stimulus/viswhere_stim/dot_no.png,None,Dot,None,Line,2,0.0,0,5.125,0,5.125,0,5.125,0,0.0,0.625,0,0.0,0,0.0,1,0.5,1,2.125,0,0.0,0,0.0,0,0.0,0,0.0,0,,,,,0,10,10,10,,,,,,,,,119.08345529200005,119.08345529200005,119.08345529200005,119.08345529200005,119.08345529200005,119.08345529200005,119.08345529200005,119.08345529200005,119.05711000033337,119.08345529200005,119.08345529200005,119.08345529200005,119.05711000033337,119.08345529200005,119.08345529200005,119.08345529200005,121.18493458400008,125.15235424999992,119.08345529200005,119.08345529200005,124.21920154200006,119.56747554200001,120.58800087500003,121.18493458400008,122.1895307499999,119.08345529200005,119.08345529200005,119.07377666700003,119.08345529200005,119.08345529200005,119.08345529200005,119.07377666700003,119.08345529200005,119.08345529200005,124.21920154200006,119.08345529200005,124.21920154200006,124.3025936250001,124.93443075000005,119.08345529200005,2,1,1.1097073750001982,reldom2_s004,001,2025-01-23_12h03.27.765,Where-A-Scan_AC,2022.2.5,None,
9,First_Order,2.0,viswhere,stimulus/viswhere_stim/blank_white.png,stimulus/viswhere_stim/blank_white.png,stimulus/viswhere_stim/90-deg_dot-right_cyan.png,stimulus/viswhere_stim/60-deg_dot-right_slateblue.png,stimulus/viswhere_stim/blank_white.png,stimulus/viswhere_stim/dot_box.png,stimulus/viswhere_stim/dot_yes.png,stimulus/viswhere_stim/dot_no.png,None,Dot,None,Dot,1,0.0,0,5.125,0,5.125,0,5.125,0,0.0,0.625,0,0.0,0,0.0,1,0.5,1,2.125,0,0.0,0,0.0,0,0.0,0,0.0,0,,,,,0,11,11,11,,,,,,,,,125.15235424999992,125.15235424999992,125.15235424999992,125.15235424999992,125.15235424999992,125.15235424999992,125.15235424999992,125.15235424999992,125.12834925033333,125.15235424999992,125.15235424999992,125.15235424999992,125.12834925033333,125.15235424999992,125.15235424999992,125.15235424999992,127.25673458399979,131.22591054199984,125.15235424999992,125.15235424999992,130.2741888339997,125.63535887499984,126.63960379199989,127.25673458399979,128.26620679200005,125.15235424999992,125.15235424999992,125.145015917,125.15235424999992,125.15235424999992,125.15235424999992,125.145015917,125.15235424999992,125.15235424999992,130.2741888339997,125.15235424999992,130.2741888339997,130.37131887499982,131.00424979199988,125.15235424999992,1,1,0.9154911659998106,reldom2_s004,001,2025-01-23_12h03.27.765,Where-A-Scan_AC,2022.2.5,None,
10,First_Order,2.0,viswhere,stimulus/viswhere_stim/blank_white.png,stimulus/viswhere_stim/blank_white.png,stimulus/viswhere_stim/60-deg_dot-left_mediumslateblue.png,stimulus/viswhere_stim/150-deg_dot-left_peru.png,stimulus/viswhere_stim/blank_white.png,stimulus/viswhere_stim/dot_box.png,stimulus/viswhere_stim/dot_yes.png,stimulus/viswhere_stim/dot_no.png,None,Dot,None,Dot,1,0.0,0,5.125,0,5.125,0,5.125,0,0.0,0.625,0,0.0,0,0.0,1,0.5,1,2.125,0,0.0,0,0.0,0,0.0,0,0.0,0,,,,,0,12,12,12,,,,,,,,,131.22591054199984,131.22591054199984,131.22591054199984,131.22591054199984,131.22591054199984,131.22591054199984,131.22591054199984,131.22591054199984,131.2018455003334,131.22591054199984,131.22591054199984,131.22591054199984,131.2018455003334,131.22591054199984,131.22591054199984,131.22591054199984,133.34020033399975,137.3666547089997,131.22591054199984,131.22591054199984,136.35248333399977,131.71179895899968,132.71966945899976,133.34020033399975,134.35273704199972,131.22591054199984,131.22591054199984,131.21851216700009,131.22591054199984,131.22591054199984,131.22591054199984,131.21851216700009,131.22591054199984,131.22591054199984,136.35248333399977,131.22591054199984,136.35248333399977,136.4503803749999,137.0794082499997,131.22591054199984,1,1,1.7992067079999288,reldom2_s004,001,2025-01-23_12h03.27.765,Where-A-Scan_AC,2022.2.5,None,
0,0.0,None,fixation,stimulus/viswhere_stim/blank_white.png,stimulus/viswhere_stim/blank_white.png,stimulus/audwhere_stim/blank_white.png,stimulus/audwhere_stim/blank_white.png,stimulus/viswhere_stim/blank_white.png,stimulus/viswhere_stim/blank_white.png,stimulus/viswhere_stim/blank_white.png,stimulus/viswhere_stim/blank_white.png,0.0,0.0,0.0,0.0,0,0.0,0,0.0,0,0.0,0,0.0,0,0.0,0.0,0,0.0,0,0.0,0,0.0,0,0.0,0,0.0,0,0.0,0,0.0,0,0.0,10,,,,,0,13,13,13,,,,,,,,,137.3666547089997,137.3666547089997,137.3666547089997,137.3666547089997,137.3666547089997,137.3666547089997,137.3666547089997,137.3666547089997,137.26578500033324,137.3666547089997,137.3666547089997,137.3666547089997,137.26578500033324,137.3666547089997,137.3666547089997,137.3666547089997,137.3666547089997,137.3666547089997,137.3666547089997,137.3666547089997,137.3666547089997,137.3666547089997,137.3666547089997,137.3666547089997,137.3666547089997,137.3666547089997,137.3666547089997,137.31578500033325,137.3666547089997,137.3666547089997,137.3666547089997,137.31578500033325,137.3666547089997,137.3666547089997,137.3666547089997,137.3666547089997,137.3666547089997,142.55173016699973,142.55173016699973,147.473589834,None,0,,reldom2_s004,001,2025-01-23_12h03.27.765,Where-A-Scan_AC,2022.2.5,None,
11,Second_Order,2.0,viswhere,stimulus/viswhere_stim/120-deg_dot-right_turquoise.png,stimulus/viswhere_stim/120-deg_dot-left_goldenrod.png,stimulus/viswhere_stim/60-deg_dot-left_turquoise.png,stimulus/viswhere_stim/150-deg_dot-left_seagreen.png,stimulus/viswhere_stim/match_blank.png,stimulus/viswhere_stim/match_box.png,stimulus/viswhere_stim/match_yes.png,stimulus/viswhere_stim/match_no.png,2.0,Match,Line,Dot,2,5.125,0,5.125,0,5.125,0,5.125,0,0.75,0.75,1,0.5,1,2.125,1,0.5,1,2.125,0,0.0,0,0.0,0,0.0,0,0.0,0,,,,,0,14,14,14,,,,,,,,,147.473589834,152.59039983399998,147.9457605839998,148.94364799999994,149.57854316699968,150.567909375,147.473589834,147.473589834,147.48648920833344,147.473589834,147.473589834,147.473589834,147.48648920833344,147.473589834,152.59039983399998,153.36977854199995,155.4565909590001,159.3704467919997,153.36977854199995,153.36977854199995,158.50593783399972,153.83797416700008,154.85196799999994,155.4565909590001,156.47650395899973,153.36977854199995,153.36977854199995,153.35835029233345,153.36977854199995,153.36977854199995,153.36977854199995,153.35835029233345,153.36977854199995,153.36977854199995,158.50593783399972,153.36977854199995,158.50593783399972,158.57610804199976,159.3704467919997,153.36977854199995,2,1,0.691227624000021,reldom2_s004,001,2025-01-23_12h03.27.765,Where-A-Scan_AC,2022.2.5,None,
12,Second_Order,2.0,viswhere,stimulus/viswhere_stim/30-deg_dot-right_mediumslateblue.png,stimulus/viswhere_stim/30-deg_dot-left_seagreen.png,stimulus/viswhere_stim/120-deg_dot-right_goldenrod.png,stimulus/viswhere_stim/120-deg_dot-left_salmon.png,stimulus/viswhere_stim/match_blank.png,stimulus/viswhere_stim/match_box.png,stimulus/viswhere_stim/match_yes.png,stimulus/viswhere_stim/match_no.png,1.0,Match,Line,Line,1,5.125,0,5.125,0,5.125,0,5.125,0,0.625,0.625,1,0.5,1,2.125,1,0.5,1,2.125,0,0.0,0,0.0,0,0.0,0,0.0,0,,,,,0,15,15,15,,,,,,,,,159.3704467919997,164.48550791699972,159.85606441699974,160.85473108399992,161.47770512499983,162.4750308749999,159.3704467919997,159.3704467919997,159.38354562499973,159.3704467919997,159.3704467919997,159.3704467919997,159.38354562499973,159.3704467919997,164.48550791699972,165.1413618749998,167.22934270899987,171.2688738339998,165.1413618749998,165.1413618749998,170.27545520900003,165.6050063749999,166.6109164999998,167.22934270899987,168.24177387500004,165.1413618749998,165.1413618749998,165.13102491733304,165.1413618749998,165.1413618749998,165.1413618749998,165.13102491733304,165.1413618749998,165.1413618749998,170.27545520900003,165.1413618749998,170.27545520900003,170.35889133399996,170.98461804199997,165.1413618749998,1,1,0.635027374999936,reldom2_s004,001,2025-01-23_12h03.27.765,Where-A-Scan_AC,2022.2.5,None,
0,0.0,None,fixation,stimulus/viswhere_stim/blank_white.png,stimulus/viswhere_stim/blank_white.png,stimulus/audwhere_stim/blank_white.png,stimulus/audwhere_stim/blank_white.png,stimulus/viswhere_stim/blank_white.png,stimulus/viswhere_stim/blank_white.png,stimulus/viswhere_stim/blank_white.png,stimulus/viswhere_stim/blank_white.png,0.0,0.0,0.0,0.0,0,0.0,0,0.0,0,0.0,0,0.0,0,0.0,0.0,0,0.0,0,0.0,0,0.0,0,0.0,0,0.0,0,0.0,0,0.0,0,0.0,8,,,,,0,16,16,16,,,,,,,,,171.2688738339998,171.2688738339998,171.2688738339998,171.2688738339998,171.2688738339998,171.2688738339998,171.2688738339998,171.2688738339998,171.16497783333338,171.2688738339998,171.2688738339998,171.2688738339998,171.16497783333338,171.2688738339998,171.2688738339998,171.2688738339998,171.2688738339998,171.2688738339998,171.2688738339998,171.2688738339998,171.2688738339998,171.2688738339998,171.2688738339998,171.2688738339998,171.2688738339998,171.2688738339998,171.2688738339998,171.2149778333334,171.2688738339998,171.2688738339998,171.2688738339998,171.2149778333334,171.2688738339998,171.2688738339998,171.2688738339998,171.2688738339998,171.2688738339998,176.4642692919997,176.4642692919997,179.4968153750001,None,0,,reldom2_s004,001,2025-01-23_12h03.27.765,Where-A-Scan_AC,2022.2.5,None,
13,First_Order,3.0,audwhere,stimulus/audwhere_stim/dummy.wav,stimulus/audwhere_stim/dummy.wav,stimulus/audwhere_stim/right_away_290h.wav,stimulus/audwhere_stim/right_toward_280h.wav,stimulus/audwhere_stim/blank_white.png,stimulus/audwhere_stim/side_box.png,stimulus/audwhere_stim/side_yes.png,stimulus/audwhere_stim/side_no.png,None,Side,None,Side,1,0.0,0,5.125,0,5.125,0,5.125,0,0.0,0.625,0,0.0,0,0.0,0,0.0,0,0.0,0,0.0,0,0.0,1,0.5,1,2.125,0,,,,,0,17,17,17,,,,,,,,,179.4968153750001,179.4968153750001,179.4968153750001,179.4968153750001,179.4968153750001,179.4968153750001,179.4968153750001,179.4968153750001,179.42086270866656,179.4968153750001,179.4968153750001,179.4968153750001,179.42086270866656,179.4968153750001,179.4968153750001,179.4968153750001,181.60078166699986,,179.4968153750001,179.4968153750001,184.68698670899994,179.4968153750001,179.4968153750001,179.4968153750001,179.4968153750001,179.9657426670001,181.03973199999973,179.93541845866665,,181.60078166699986,182.63058787499995,181.57121175066666,,179.4968153750001,184.68698670899994,179.4968153750001,184.68698670899994,184.68698670899994,185.34509350000008,179.4968153750001,1,1,1.3557263319999038,reldom2_s004,001,2025-01-23_12h03.27.765,Where-A-Scan_AC,2022.2.5,None,
14,First_Order,3.0,audwhere,stimulus/audwhere_stim/dummy.wav,stimulus/audwhere_stim/dummy.wav,stimulus/audwhere_stim/right_away_300h.wav,stimulus/audwhere_stim/left_away_300h.wav,stimulus/audwhere_stim/blank_white.png,stimulus/audwhere_stim/side_box.png,stimulus/audwhere_stim/side_yes.png,stimulus/audwhere_stim/side_no.png,None,Side,None,Direction,2,0.0,0,5.125,0,5.125,0,5.125,0,0.0,0.625,0,0.0,0,0.0,0,0.0,0,0.0,0,0.0,0,0.0,1,0.5,1,2.125,0,,,,,0,18,18,18,,,,,,,,,185.60022145899984,185.60022145899984,185.60022145899984,185.60022145899984,185.60022145899984,185.60022145899984,185.60022145899984,185.60022145899984,185.51933179233325,185.60022145899984,185.60022145899984,185.60022145899984,185.51933179233325,185.60022145899984,185.60022145899984,185.60022145899984,187.70476566699972,,185.60022145899984,185.60022145899984,190.7505968749997,185.60022145899984,185.60022145899984,185.60022145899984,185.60022145899984,186.06550312499985,187.14264495899988,186.03551275066664,,187.70476566699972,188.73914520900007,187.67421583366675,,185.60022145899984,190.7505968749997,185.60022145899984,190.7505968749997,190.79198408399998,191.45300287500004,185.60022145899984,2,1,1.0084932080003455,reldom2_s004,001,2025-01-23_12h03.27.765,Where-A-Scan_AC,2022.2.5,None,
15,First_Order,3.0,audwhere,stimulus/audwhere_stim/dummy.wav,stimulus/audwhere_stim/dummy.wav,stimulus/audwhere_stim/left_away_290h.wav,stimulus/audwhere_stim/right_away_280h.wav,stimulus/audwhere_stim/blank_white.png,stimulus/audwhere_stim/direction_box.png,stimulus/audwhere_stim/direction_yes.png,stimulus/audwhere_stim/direction_no.png,None,Direction,None,Direction,1,0.0,0,5.125,0,5.125,0,5.125,0,0.0,0.625,0,0.0,0,0.0,0,0.0,0,0.0,0,0.0,0,0.0,1,0.5,1,2.125,0,,,,,0,19,19,19,,,,,,,,,191.71000887499986,191.71000887499986,191.71000887499986,191.71000887499986,191.71000887499986,191.71000887499986,191.71000887499986,191.71000887499986,191.62809683333322,191.71000887499986,191.71000887499986,191.71000887499986,191.62809683333322,191.71000887499986,191.71000887499986,191.71000887499986,193.786624459,,191.71000887499986,191.71000887499986,196.8956606669999,191.71000887499986,191.71000887499986,191.71000887499986,191.71000887499986,192.18231949999972,193.22148916700007,192.15126029166666,,193.786624459,194.82465516699995,193.75580716666653,,191.71000887499986,196.8956606669999,191.71000887499986,196.8956606669999,196.93743825,197.60089437499983,191.71000887499986,1,1,1.1793351249998523,reldom2_s004,001,2025-01-23_12h03.27.765,Where-A-Scan_AC,2022.2.5,None,
16,First_Order,3.0,audwhere,stimulus/audwhere_stim/dummy.wav,stimulus/audwhere_stim/dummy.wav,stimulus/audwhere_stim/right_toward_270h.wav,stimulus/audwhere_stim/right_away_300h.wav,stimulus/audwhere_stim/blank_white.png,stimulus/audwhere_stim/direction_box.png,stimulus/audwhere_stim/direction_yes.png,stimulus/audwhere_stim/direction_no.png,None,Direction,None,Side,2,0.0,0,5.125,0,5.125,0,5.125,0,0.0,0.625,0,0.0,0,0.0,0,0.0,0,0.0,0,0.0,0,0.0,1,0.5,1,2.125,0,,,,,0,20,20,20,,,,,,,,,197.81721745899995,197.81721745899995,197.81721745899995,197.81721745899995,197.81721745899995,197.81721745899995,197.81721745899995,197.81721745899995,197.73422770833318,197.81721745899995,197.81721745899995,197.81721745899995,197.73422770833318,197.81721745899995,197.81721745899995,197.81721745899995,199.89164708399994,,197.81721745899995,197.81721745899995,203.0011106249999,197.81721745899995,197.81721745899995,197.81721745899995,197.81721745899995,198.28983974999983,199.32750450000003,198.2587757506665,,199.89164708399994,200.9303464999998,199.86115945866666,,197.81721745899995,203.0011106249999,197.81721745899995,203.0011106249999,203.042260875,203.70607225000003,197.81721745899995,2,1,1.1481190409999726,reldom2_s004,001,2025-01-23_12h03.27.765,Where-A-Scan_AC,2022.2.5,None,
0,0.0,None,fixation,stimulus/viswhere_stim/blank_white.png,stimulus/viswhere_stim/blank_white.png,stimulus/audwhere_stim/blank_white.png,stimulus/audwhere_stim/blank_white.png,stimulus/viswhere_stim/blank_white.png,stimulus/viswhere_stim/blank_white.png,stimulus/viswhere_stim/blank_white.png,stimulus/viswhere_stim/blank_white.png,0.0,0.0,0.0,0.0,0,0.0,0,0.0,0,0.0,0,0.0,0,0.0,0.0,0,0.0,0,0.0,0,0.0,0,0.0,0,0.0,0,0.0,0,0.0,0,0.0,9,,,,,0,21,21,21,,,,,,,,,203.9438649589997,203.9438649589997,203.9438649589997,203.9438649589997,203.9438649589997,203.9438649589997,203.9438649589997,203.9438649589997,203.8394055833334,203.9438649589997,203.9438649589997,203.9438649589997,203.8394055833334,203.9438649589997,203.9438649589997,203.9438649589997,203.9438649589997,203.9438649589997,203.9438649589997,203.9438649589997,203.9438649589997,203.9438649589997,203.9438649589997,203.9438649589997,203.9438649589997,203.9438649589997,203.9438649589997,203.88940558333337,203.9438649589997,203.9438649589997,203.9438649589997,203.88940558333337,203.9438649589997,203.9438649589997,203.9438649589997,203.9438649589997,203.9438649589997,209.13816320899969,209.13816320899969,213.12562666699978,None,0,,reldom2_s004,001,2025-01-23_12h03.27.765,Where-A-Scan_AC,2022.2.5,None,
17,Second_Order,3.0,audwhere,stimulus/audwhere_stim/right_away_270h.wav,stimulus/audwhere_stim/left_away_270h.wav,stimulus/audwhere_stim/right_toward_280h.wav,stimulus/audwhere_stim/left_toward_280h.wav,stimulus/viswhere_stim/match_blank.png,stimulus/audwhere_stim/match_box.png,stimulus/viswhere_stim/match_yes.png,stimulus/viswhere_stim/match_no.png,1.0,Match,Direction,Direction,1,5.125,0,5.125,0,5.125,0,5.125,0,0.75,0.75,0,0.0,0,0.0,0,0.0,0,0.0,1,0.5,1,2.125,1,0.5,1,2.125,0,,,,,0,22,22,22,,,,,,,,,213.12562666699978,218.24190283400003,213.12562666699978,213.12562666699978,213.12562666699978,213.12562666699978,213.58226883399993,214.57844333399999,213.59364500066638,214.5871738339997,215.2009362089998,216.1987816249998,215.2133789166667,216.20695879200002,218.24190283400003,219.0682607499998,221.17127520899976,,219.0682607499998,219.0682607499998,224.25852937499985,219.0682607499998,219.0682607499998,219.0682607499998,219.0682607499998,219.5359791249998,220.6102905419998,219.50589883366663,,221.17127520899976,222.20127458399975,221.14016725066656,,219.0682607499998,224.25852937499985,219.0682607499998,224.25852937499985,224.25852937499985,,219.0682607499998,1,1,1.318831125000088,reldom2_s004,001,2025-01-23_12h03.27.765,Where-A-Scan_AC,2022.2.5,None,
18,Second_Order,3.0,audwhere,stimulus/audwhere_stim/left_away_300h.wav,stimulus/audwhere_stim/right_away_290h.wav,stimulus/audwhere_stim/left_toward_300h.wav,stimulus/audwhere_stim/left_away_290h.wav,stimulus/viswhere_stim/match_blank.png,stimulus/audwhere_stim/match_box.png,stimulus/viswhere_stim/match_yes.png,stimulus/viswhere_stim/match_no.png,2.0,Match,Direction,Side,2,5.125,0,5.125,0,5.125,0,5.125,0,0.625,0.625,0,0.0,0,0.0,0,0.0,0,0.0,1,0.5,1,2.125,1,0.5,1,2.125,0,,,,,0,23,23,23,,,,,,,,,225.0744955,230.19774941700007,225.0744955,225.0744955,225.0744955,225.0744955,225.52477466699975,226.52274145899992,225.53719387566642,226.53070083400007,227.15775470900007,228.14629058399987,227.1614163756665,228.159742542,230.19774941700007,230.91412062499967,233.00652004199992,,230.91412062499967,230.91412062499967,236.08551850000003,230.91412062499967,230.91412062499967,230.91412062499967,230.91412062499967,231.3778737499997,232.4466211250001,231.3475636666665,,233.00652004199992,234.08195954199982,232.97605291666676,,230.91412062499967,236.08551850000003,230.91412062499967,236.08551850000003,236.1261234589997,236.78248291699992,230.91412062499967,2,1,1.9174902909999219,reldom2_s004,001,2025-01-23_12h03.27.765,Where-A-Scan_AC,2022.2.5,None,
0,0.0,None,fixation,stimulus/viswhere_stim/blank_white.png,stimulus/viswhere_stim/blank_white.png,stimulus/audwhere_stim/blank_white.png,stimulus/audwhere_stim/blank_white.png,stimulus/viswhere_stim/blank_white.png,stimulus/viswhere_stim/blank_white.png,stimulus/viswhere_stim/blank_white.png,stimulus/viswhere_stim/blank_white.png,0.0,0.0,0.0,0.0,0,0.0,0,0.0,0,0.0,0,0.0,0,0.0,0.0,0,0.0,0,0.0,0,0.0,0,0.0,0,0.0,0,0.0,0,0.0,0,0.0,9,,,,,0,24,24,24,,,,,,,,,237.0184345419998,237.0184345419998,237.0184345419998,237.0184345419998,237.0184345419998,237.0184345419998,237.0184345419998,237.0184345419998,236.91581625033328,237.0184345419998,237.0184345419998,237.0184345419998,236.91581625033328,237.0184345419998,237.0184345419998,237.0184345419998,237.0184345419998,237.0184345419998,237.0184345419998,237.0184345419998,237.0184345419998,237.0184345419998,237.0184345419998,237.0184345419998,237.0184345419998,237.0184345419998,237.0184345419998,236.96581625033326,237.0184345419998,237.0184345419998,237.0184345419998,236.96581625033326,237.0184345419998,237.0184345419998,237.0184345419998,237.0184345419998,237.0184345419998,242.2203307499999,242.2203307499999,246.27270395899995,None,0,,reldom2_s004,001,2025-01-23_12h03.27.765,Where-A-Scan_AC,2022.2.5,None,
19,First_Order,4.0,audwhere,stimulus/audwhere_stim/dummy.wav,stimulus/audwhere_stim/dummy.wav,stimulus/audwhere_stim/right_away_300h.wav,stimulus/audwhere_stim/left_away_280h.wav,stimulus/audwhere_stim/blank_white.png,stimulus/audwhere_stim/direction_box.png,stimulus/audwhere_stim/direction_yes.png,stimulus/audwhere_stim/direction_no.png,None,Direction,None,Direction,1,0.0,0,5.125,0,5.125,0,5.125,0,0.0,0.625,0,0.0,0,0.0,0,0.0,0,0.0,0,0.0,0,0.0,1,0.5,1,2.125,0,,,,,0,25,25,25,,,,,,,,,246.27270395899995,246.27270395899995,246.27270395899995,246.27270395899995,246.27270395899995,246.27270395899995,246.27270395899995,246.27270395899995,246.1949767086664,246.27270395899995,246.27270395899995,246.27270395899995,246.1949767086664,246.27270395899995,246.27270395899995,246.27270395899995,248.341907,252.4025610419999,246.27270395899995,246.27270395899995,251.44423008400008,246.27270395899995,246.27270395899995,246.27270395899995,246.27270395899995,246.74271470899976,247.77830412499998,246.71244254166666,,248.341907,249.37803804199984,248.31202254166672,,246.27270395899995,251.44423008400008,246.27270395899995,251.44423008400008,251.48598116699986,252.14582358400003,246.27270395899995,1,1,1.6860175819997494,reldom2_s004,001,2025-01-23_12h03.27.765,Where-A-Scan_AC,2022.2.5,None,
20,First_Order,4.0,audwhere,stimulus/audwhere_stim/dummy.wav,stimulus/audwhere_stim/dummy.wav,stimulus/audwhere_stim/right_toward_270h.wav,stimulus/audwhere_stim/right_away_280h.wav,stimulus/audwhere_stim/blank_white.png,stimulus/audwhere_stim/direction_box.png,stimulus/audwhere_stim/direction_yes.png,stimulus/audwhere_stim/direction_no.png,None,Direction,None,Side,2,0.0,0,5.125,0,5.125,0,5.125,0,0.0,0.625,0,0.0,0,0.0,0,0.0,0,0.0,0,0.0,0,0.0,1,0.5,1,2.125,0,,,,,0,26,26,26,,,,,,,,,252.4025610419999,252.4025610419999,252.4025610419999,252.4025610419999,252.4025610419999,252.4025610419999,252.4025610419999,252.4025610419999,252.32018175033332,252.4025610419999,252.4025610419999,252.4025610419999,252.32018175033332,252.4025610419999,252.4025610419999,252.4025610419999,254.47444154200002,,252.4025610419999,252.4025610419999,257.5822370000001,252.4025610419999,252.4025610419999,252.4025610419999,252.4025610419999,252.87234887499972,253.91094758400004,252.84147075066656,,254.47444154200002,255.51333258399973,254.4441493756665,,252.4025610419999,257.5822370000001,252.4025610419999,257.5822370000001,257.62380033399995,258.2863641670001,252.4025610419999,2,1,1.3146247909999147,reldom2_s004,001,2025-01-23_12h03.27.765,Where-A-Scan_AC,2022.2.5,None,
21,First_Order,4.0,audwhere,stimulus/audwhere_stim/dummy.wav,stimulus/audwhere_stim/dummy.wav,stimulus/audwhere_stim/left_toward_300h.wav,stimulus/audwhere_stim/left_away_300h.wav,stimulus/audwhere_stim/blank_white.png,stimulus/audwhere_stim/side_box.png,stimulus/audwhere_stim/side_yes.png,stimulus/audwhere_stim/side_no.png,None,Side,None,Side,1,0.0,0,5.125,0,5.125,0,5.125,0,0.0,0.625,0,0.0,0,0.0,0,0.0,0,0.0,0,0.0,0,0.0,1,0.5,1,2.125,0,,,,,0,27,27,27,,,,,,,,,258.502937834,258.502937834,258.502937834,258.502937834,258.502937834,258.502937834,258.502937834,258.502937834,258.4196975003334,258.502937834,258.502937834,258.502937834,258.4196975003334,258.502937834,258.502937834,258.502937834,260.6150788750001,264.6201232919998,258.502937834,258.502937834,263.6608141669999,258.502937834,258.502937834,258.502937834,258.502937834,258.9717019169998,260.0057253340001,258.94171500066636,,260.6150788750001,261.6474572919997,260.58443075066657,,258.502937834,263.6608141669999,258.502937834,263.6608141669999,263.70259050000004,264.362704959,258.502937834,1,1,1.5871438330000274,reldom2_s004,001,2025-01-23_12h03.27.765,Where-A-Scan_AC,2022.2.5,None,
22,First_Order,4.0,audwhere,stimulus/audwhere_stim/dummy.wav,stimulus/audwhere_stim/dummy.wav,stimulus/audwhere_stim/right_away_270h.wav,stimulus/audwhere_stim/left_away_300h.wav,stimulus/audwhere_stim/blank_white.png,stimulus/audwhere_stim/side_box.png,stimulus/audwhere_stim/side_yes.png,stimulus/audwhere_stim/side_no.png,None,Side,None,Direction,2,0.0,0,5.125,0,5.125,0,5.125,0,0.0,0.625,0,0.0,0,0.0,0,0.0,0,0.0,0,0.0,0,0.0,1,0.5,1,2.125,0,,,,,0,28,28,28,,,,,,,,,264.6201232919998,264.6201232919998,264.6201232919998,264.6201232919998,264.6201232919998,264.6201232919998,264.6201232919998,264.6201232919998,264.53708245833343,264.6201232919998,264.6201232919998,264.6201232919998,264.53708245833343,264.6201232919998,264.6201232919998,264.6201232919998,266.7305659999997,270.7658739999997,264.6201232919998,264.6201232919998,269.781255334,264.6201232919998,264.6201232919998,264.6201232919998,264.6201232919998,265.08793129199967,266.1219902089997,265.05799033366634,,266.7305659999997,267.7676484589997,266.7000935006665,,264.6201232919998,269.781255334,264.6201232919998,269.781255334,269.8225634999999,270.4830579999998,264.6201232919998,2,1,1.1589469989999088,reldom2_s004,001,2025-01-23_12h03.27.765,Where-A-Scan_AC,2022.2.5,None,
0,0.0,None,fixation,stimulus/viswhere_stim/blank_white.png,stimulus/viswhere_stim/blank_white.png,stimulus/audwhere_stim/blank_white.png,stimulus/audwhere_stim/blank_white.png,stimulus/viswhere_stim/blank_white.png,stimulus/viswhere_stim/blank_white.png,stimulus/viswhere_stim/blank_white.png,stimulus/viswhere_stim/blank_white.png,0.0,0.0,0.0,0.0,0,0.0,0,0.0,0,0.0,0,0.0,0,0.0,0.0,0,0.0,0,0.0,0,0.0,0,0.0,0,0.0,0,0.0,0,0.0,0,0.0,9,,,,,0,29,29,29,,,,,,,,,270.7658739999997,270.7658739999997,270.7658739999997,270.7658739999997,270.7658739999997,270.7658739999997,270.7658739999997,270.7658739999997,270.6577480423331,270.7658739999997,270.7658739999997,270.7658739999997,270.6577480423331,270.7658739999997,270.7658739999997,270.7658739999997,270.7658739999997,270.7658739999997,270.7658739999997,270.7658739999997,270.7658739999997,270.7658739999997,270.7658739999997,270.7658739999997,270.7658739999997,270.7658739999997,270.7658739999997,270.72441470899975,270.7658739999997,270.7658739999997,270.7658739999997,270.72441470899975,270.7658739999997,270.7658739999997,270.7658739999997,270.7658739999997,270.7658739999997,275.95660470899975,275.95660470899975,279.9412458749998,None,0,,reldom2_s004,001,2025-01-23_12h03.27.765,Where-A-Scan_AC,2022.2.5,None,
23,Second_Order,4.0,audwhere,stimulus/audwhere_stim/left_away_270h.wav,stimulus/audwhere_stim/left_toward_290h.wav,stimulus/audwhere_stim/left_toward_300h.wav,stimulus/audwhere_stim/right_toward_280h.wav,stimulus/viswhere_stim/match_blank.png,stimulus/audwhere_stim/match_box.png,stimulus/viswhere_stim/match_yes.png,stimulus/viswhere_stim/match_no.png,2.0,Match,Side,Direction,2,5.125,0,5.125,0,5.125,0,5.125,0,0.75,0.75,0,0.0,0,0.0,0,0.0,0,0.0,1,0.5,1,2.125,1,0.5,1,2.125,0,,,,,0,30,30,30,,,,,,,,,279.9412458749998,285.06436783399977,279.9412458749998,279.9412458749998,279.9412458749998,279.9412458749998,280.3968018749997,281.390784917,280.4000385416664,281.390784917,282.0219092090001,283.019734084,282.0340230836666,283.0279445420001,285.06436783399977,285.89328016699983,287.9948224999998,291.9021687919999,285.89328016699983,285.89328016699983,291.08290154199995,285.89328016699983,285.89328016699983,285.89328016699983,285.89328016699983,286.3589780839998,287.4344512919997,286.3287101666667,,287.9948224999998,289.02908924999974,287.96454825066644,,285.89328016699983,291.08290154199995,285.89328016699983,291.08290154199995,291.08290154199995,,285.89328016699983,2,1,0.806873873999848,reldom2_s004,001,2025-01-23_12h03.27.765,Where-A-Scan_AC,2022.2.5,None,
24,Second_Order,4.0,audwhere,stimulus/audwhere_stim/right_toward_290h.wav,stimulus/audwhere_stim/right_away_290h.wav,stimulus/audwhere_stim/left_away_300h.wav,stimulus/audwhere_stim/left_toward_270h.wav,stimulus/viswhere_stim/match_blank.png,stimulus/audwhere_stim/match_box.png,stimulus/viswhere_stim/match_yes.png,stimulus/viswhere_stim/match_no.png,1.0,Match,Side,Side,1,5.125,0,5.125,0,5.125,0,5.125,0,0.625,0.625,0,0.0,0,0.0,0,0.0,0,0.0,1,0.5,1,2.125,1,0.5,1,2.125,0,,,,,0,31,31,31,,,,,,,,,291.9021687919999,297.0242047920001,291.9021687919999,291.9021687919999,291.9021687919999,291.9021687919999,292.36236904199995,293.3601189589999,292.3745485416664,293.3683619169997,293.9844415419998,294.9804853749997,293.9953200006664,294.9888535,297.0242047920001,297.7323146670001,299.8250880840001,,297.7323146670001,297.7323146670001,302.9045633339997,297.7323146670001,297.7323146670001,297.7323146670001,297.7323146670001,298.1942193750001,299.2661130419997,298.1646627916664,,299.8250880840001,300.8979482919999,299.7944793336667,,297.7323146670001,302.9045633339997,297.7323146670001,302.9045633339997,302.9454594169997,303.60236904199974,297.7323146670001,1,1,1.3931470000002264,reldom2_s004,001,2025-01-23_12h03.27.765,Where-A-Scan_AC,2022.2.5,None,
0,0.0,None,fixation,stimulus/viswhere_stim/blank_white.png,stimulus/viswhere_stim/blank_white.png,stimulus/audwhere_stim/blank_white.png,stimulus/audwhere_stim/blank_white.png,stimulus/viswhere_stim/blank_white.png,stimulus/viswhere_stim/blank_white.png,stimulus/viswhere_stim/blank_white.png,stimulus/viswhere_stim/blank_white.png,0.0,0.0,0.0,0.0,0,0.0,0,0.0,0,0.0,0,0.0,0,0.0,0.0,0,0.0,0,0.0,0,0.0,0,0.0,0,0.0,0,0.0,0,0.0,0,0.0,10,,,,,0,32,32,32,,,,,,,,,303.838833625,303.838833625,303.838833625,303.838833625,303.838833625,303.838833625,303.838833625,303.838833625,303.73570237533306,303.838833625,303.838833625,303.838833625,303.73570237533306,303.838833625,303.838833625,303.838833625,303.838833625,303.838833625,303.838833625,303.838833625,303.838833625,303.838833625,303.838833625,303.838833625,303.838833625,303.838833625,303.838833625,303.7857023753331,303.838833625,303.838833625,303.838833625,303.7857023753331,303.838833625,303.838833625,303.838833625,303.838833625,303.838833625,309.049239209,309.049239209,314.0289012919998,None,0,,reldom2_s004,001,2025-01-23_12h03.27.765,Where-A-Scan_AC,2022.2.5,None,
25,First_Order,5.0,viswhere,stimulus/viswhere_stim/blank_white.png,stimulus/viswhere_stim/blank_white.png,stimulus/viswhere_stim/120-deg_dot-right_goldenrod.png,stimulus/viswhere_stim/150-deg_dot-right_turquoise.png,stimulus/viswhere_stim/blank_white.png,stimulus/viswhere_stim/dot_box.png,stimulus/viswhere_stim/dot_yes.png,stimulus/viswhere_stim/dot_no.png,None,Dot,None,Dot,1,0.0,0,5.125,0,5.125,0,5.125,0,0.0,0.625,0,0.0,0,0.0,1,0.5,1,2.125,0,0.0,0,0.0,0,0.0,0,0.0,0,,,,,0,33,33,33,,,,,,,,,314.0289012919998,314.0289012919998,314.0289012919998,314.0289012919998,314.0289012919998,314.0289012919998,314.0289012919998,314.0289012919998,314.00509104166633,314.0289012919998,314.0289012919998,314.0289012919998,314.00509104166633,314.0289012919998,314.0289012919998,314.0289012919998,316.125012042,320.08897533399977,314.0289012919998,314.0289012919998,319.1591267089998,314.514280459,315.52529849999974,316.125012042,317.14124758399976,314.0289012919998,314.0289012919998,314.02175770833304,314.0289012919998,314.0289012919998,314.0289012919998,314.02175770833304,314.0289012919998,314.0289012919998,319.1591267089998,314.0289012919998,319.1591267089998,319.24433333399975,319.8702807919999,314.0289012919998,1,1,0.8684277079996718,reldom2_s004,001,2025-01-23_12h03.27.765,Where-A-Scan_AC,2022.2.5,None,
26,First_Order,5.0,viswhere,stimulus/viswhere_stim/blank_white.png,stimulus/viswhere_stim/blank_white.png,stimulus/viswhere_stim/90-deg_dot-right_royalblue.png,stimulus/viswhere_stim/120-deg_dot-right_seagreen.png,stimulus/viswhere_stim/blank_white.png,stimulus/viswhere_stim/line_box.png,stimulus/viswhere_stim/line_yes.png,stimulus/viswhere_stim/line_no.png,None,Line,None,Dot,2,0.0,0,5.125,0,5.125,0,5.125,0,0.0,0.625,0,0.0,0,0.0,1,0.5,1,2.125,0,0.0,0,0.0,0,0.0,0,0.0,0,,,,,0,34,34,34,,,,,,,,,320.08897533399977,320.08897533399977,320.08897533399977,320.08897533399977,320.08897533399977,320.08897533399977,320.08897533399977,320.08897533399977,320.0647085423332,320.08897533399977,320.08897533399977,320.08897533399977,320.0647085423332,320.08897533399977,320.08897533399977,320.08897533399977,322.2001742499997,326.14826033400004,320.08897533399977,320.08897533399977,325.21643008399997,320.5732819589998,321.58270783399985,322.2001742499997,323.2154822919997,320.08897533399977,320.08897533399977,320.0813752089999,320.08897533399977,320.08897533399977,320.08897533399977,320.0813752089999,320.08897533399977,320.08897533399977,325.21643008399997,320.08897533399977,325.21643008399997,325.31341808399975,325.94515391699997,320.08897533399977,2,1,0.5714777490002234,reldom2_s004,001,2025-01-23_12h03.27.765,Where-A-Scan_AC,2022.2.5,None,
27,First_Order,5.0,viswhere,stimulus/viswhere_stim/blank_white.png,stimulus/viswhere_stim/blank_white.png,stimulus/viswhere_stim/60-deg_dot-left_lightsseagreen.png,stimulus/viswhere_stim/60-deg_dot-right_slateblue.png,stimulus/viswhere_stim/blank_white.png,stimulus/viswhere_stim/line_box.png,stimulus/viswhere_stim/line_yes.png,stimulus/viswhere_stim/line_no.png,None,Line,None,Line,1,0.0,0,5.125,0,5.125,0,5.125,0,0.0,0.625,0,0.0,0,0.0,1,0.5,1,2.125,0,0.0,0,0.0,0,0.0,0,0.0,0,,,,,0,35,35,35,,,,,,,,,326.14826033400004,326.14826033400004,326.14826033400004,326.14826033400004,326.14826033400004,326.14826033400004,326.14826033400004,326.14826033400004,326.125300375333,326.14826033400004,326.14826033400004,326.14826033400004,326.125300375333,326.14826033400004,326.14826033400004,326.14826033400004,328.2540690420001,332.208930667,326.14826033400004,326.14826033400004,331.2801595840001,326.63043370900004,327.63742145900005,328.2540690420001,329.2672159589997,326.14826033400004,326.14826033400004,326.14196704199964,326.14826033400004,326.14826033400004,326.14826033400004,326.14196704199964,326.14826033400004,326.14826033400004,331.2801595840001,326.14826033400004,331.2801595840001,331.37734950000004,332.0028668340001,326.14826033400004,1,1,0.599535749000097,reldom2_s004,001,2025-01-23_12h03.27.765,Where-A-Scan_AC,2022.2.5,None,
28,First_Order,5.0,viswhere,stimulus/viswhere_stim/blank_white.png,stimulus/viswhere_stim/blank_white.png,stimulus/viswhere_stim/120-deg_dot-right_slateblue.png,stimulus/viswhere_stim/90-deg_dot-right_cyan.png,stimulus/viswhere_stim/blank_white.png,stimulus/viswhere_stim/dot_box.png,stimulus/viswhere_stim/dot_yes.png,stimulus/viswhere_stim/dot_no.png,None,Dot,None,Dot,1,0.0,0,5.125,0,5.125,0,5.125,0,0.0,0.625,0,0.0,0,0.0,1,0.5,1,2.125,0,0.0,0,0.0,0,0.0,0,0.0,0,,,,,0,36,36,36,,,,,,,,,332.208930667,332.208930667,332.208930667,332.208930667,332.208930667,332.208930667,332.208930667,332.208930667,332.1849532503332,332.208930667,332.208930667,332.208930667,332.1849532503332,332.208930667,332.208930667,332.208930667,334.32045816699974,338.35788,332.208930667,332.208930667,337.33211308399996,332.693292292,333.70036983399996,334.32045816699974,335.3347631669999,332.208930667,332.208930667,332.20161991699985,332.208930667,332.208930667,332.208930667,332.20161991699985,332.208930667,332.208930667,337.33211308399996,332.208930667,337.33211308399996,337.4302339169999,338.062262209,332.208930667,1,1,0.8594409990000713,reldom2_s004,001,2025-01-23_12h03.27.765,Where-A-Scan_AC,2022.2.5,None,
0,0.0,None,fixation,stimulus/viswhere_stim/blank_white.png,stimulus/viswhere_stim/blank_white.png,stimulus/audwhere_stim/blank_white.png,stimulus/audwhere_stim/blank_white.png,stimulus/viswhere_stim/blank_white.png,stimulus/viswhere_stim/blank_white.png,stimulus/viswhere_stim/blank_white.png,stimulus/viswhere_stim/blank_white.png,0.0,0.0,0.0,0.0,0,0.0,0,0.0,0,0.0,0,0.0,0,0.0,0.0,0,0.0,0,0.0,0,0.0,0,0.0,0,0.0,0,0.0,0,0.0,0,0.0,9,,,,,0,37,37,37,,,,,,,,,338.35788,338.35788,338.35788,338.35788,338.35788,338.35788,338.35788,338.35788,338.256357250333,338.35788,338.35788,338.35788,338.256357250333,338.35788,338.35788,338.35788,338.35788,338.35788,338.35788,338.35788,338.35788,338.35788,338.35788,338.35788,338.35788,338.35788,338.35788,338.306357250333,338.35788,338.35788,338.35788,338.306357250333,338.35788,338.35788,338.35788,338.35788,338.35788,343.56769325000005,343.56769325000005,347.4817586250001,None,0,,reldom2_s004,001,2025-01-23_12h03.27.765,Where-A-Scan_AC,2022.2.5,None,
29,Second_Order,5.0,viswhere,stimulus/viswhere_stim/150-deg_dot-right_cyan.png,stimulus/viswhere_stim/150-deg_dot-left_peru.png,stimulus/viswhere_stim/90-deg_dot-left_goldenrod.png,stimulus/viswhere_stim/90-deg_dot-right_mediumslateblue.png,stimulus/viswhere_stim/match_blank.png,stimulus/viswhere_stim/match_box.png,stimulus/viswhere_stim/match_yes.png,stimulus/viswhere_stim/match_no.png,1.0,Match,Line,Line,1,5.125,0,5.125,0,5.125,0,5.125,0,0.75,0.75,1,0.5,1,2.125,1,0.5,1,2.125,0,0.0,0,0.0,0,0.0,0,0.0,0,,,,,0,38,38,38,,,,,,,,,347.4817586250001,352.601660542,347.9570934999997,348.95520133399987,349.59012108399975,350.57976574999975,347.4817586250001,347.4817586250001,347.4945912083332,347.4817586250001,347.4817586250001,347.4817586250001,347.4945912083332,347.4817586250001,352.601660542,353.37679745900004,355.46524091699985,359.36572720899994,353.37679745900004,353.37679745900004,358.5146209999998,353.8443391669998,354.86025233400005,355.46524091699985,356.485733125,353.37679745900004,353.37679745900004,353.36923712533326,353.37679745900004,353.37679745900004,353.37679745900004,353.36923712533326,353.37679745900004,353.37679745900004,358.5146209999998,353.37679745900004,358.5146209999998,358.5841901250001,359.36572720899994,353.37679745900004,1,1,0.6208544159999292,reldom2_s004,001,2025-01-23_12h03.27.765,Where-A-Scan_AC,2022.2.5,None,
30,Second_Order,5.0,viswhere,stimulus/viswhere_stim/90-deg_dot-right_royalblue.png,stimulus/viswhere_stim/60-deg_dot-right_peru.png,stimulus/viswhere_stim/30-deg_dot-left_slateblue.png,stimulus/viswhere_stim/90-deg_dot-left_seagreen.png,stimulus/viswhere_stim/match_blank.png,stimulus/viswhere_stim/match_box.png,stimulus/viswhere_stim/match_yes.png,stimulus/viswhere_stim/match_no.png,1.0,Match,Dot,Dot,1,5.125,0,5.125,0,5.125,0,5.125,0,0.625,0.625,1,0.5,1,2.125,1,0.5,1,2.125,0,0.0,0,0.0,0,0.0,0,0.0,0,,,,,0,39,39,39,,,,,,,,,359.36572720899994,364.4790002499999,359.85084470899983,360.84935408399997,361.4723467919998,362.4697033749999,359.36572720899994,359.36572720899994,359.3780782500001,359.36572720899994,359.36572720899994,359.36572720899994,359.3780782500001,359.36572720899994,364.4790002499999,365.135873834,367.234782,371.2703489999999,365.135873834,365.135873834,370.2756331249998,365.60102241699997,366.6125677499999,367.234782,368.2537807919998,365.135873834,365.135873834,365.1256487083333,365.135873834,365.135873834,365.135873834,365.1256487083333,365.135873834,365.135873834,370.2756331249998,365.135873834,370.2756331249998,370.3447716249998,370.9717918749998,365.135873834,1,1,0.7036320829997749,reldom2_s004,001,2025-01-23_12h03.27.765,Where-A-Scan_AC,2022.2.5,None,
0,0.0,None,fixation,stimulus/viswhere_stim/blank_white.png,stimulus/viswhere_stim/blank_white.png,stimulus/audwhere_stim/blank_white.png,stimulus/audwhere_stim/blank_white.png,stimulus/viswhere_stim/blank_white.png,stimulus/viswhere_stim/blank_white.png,stimulus/viswhere_stim/blank_white.png,stimulus/viswhere_stim/blank_white.png,0.0,0.0,0.0,0.0,0,0.0,0,0.0,0,0.0,0,0.0,0,0.0,0.0,0,0.0,0,0.0,0,0.0,0,0.0,0,0.0,0,0.0,0,0.0,0,0.0,8,,,,,0,40,40,40,,,,,,,,,371.2703489999999,371.2703489999999,371.2703489999999,371.2703489999999,371.2703489999999,371.2703489999999,371.2703489999999,371.2703489999999,371.1655837503334,371.2703489999999,371.2703489999999,371.2703489999999,371.1655837503334,371.2703489999999,371.2703489999999,371.2703489999999,371.2703489999999,371.2703489999999,371.2703489999999,371.2703489999999,371.2703489999999,371.2703489999999,371.2703489999999,371.2703489999999,371.2703489999999,371.2703489999999,371.2703489999999,371.2155837503334,371.2703489999999,371.2703489999999,371.2703489999999,371.2155837503334,371.2703489999999,371.2703489999999,371.2703489999999,371.2703489999999,371.2703489999999,376.4490207499998,376.4490207499998,379.4476502089997,None,0,,reldom2_s004,001,2025-01-23_12h03.27.765,Where-A-Scan_AC,2022.2.5,None,
31,First_Order,6.0,viswhere,stimulus/viswhere_stim/blank_white.png,stimulus/viswhere_stim/blank_white.png,stimulus/viswhere_stim/90-deg_dot-right_lightsseagreen.png,stimulus/viswhere_stim/90-deg_dot-left_turquoise.png,stimulus/viswhere_stim/blank_white.png,stimulus/viswhere_stim/line_box.png,stimulus/viswhere_stim/line_yes.png,stimulus/viswhere_stim/line_no.png,None,Line,None,Line,1,0.0,0,5.125,0,5.125,0,5.125,0,0.0,0.625,0,0.0,0,0.0,1,0.5,1,2.125,0,0.0,0,0.0,0,0.0,0,0.0,0,,,,,0,41,41,41,,,,,,,,,379.4476502089997,379.4476502089997,379.4476502089997,379.4476502089997,379.4476502089997,379.4476502089997,379.4476502089997,379.4476502089997,379.4256877086665,379.4476502089997,379.4476502089997,379.4476502089997,379.4256877086665,379.4476502089997,379.4476502089997,379.4476502089997,381.546791667,385.51473450000003,379.4476502089997,379.4476502089997,384.58651979199976,379.9341747499998,380.94471833399984,381.546791667,382.5628112919999,379.4476502089997,379.4476502089997,379.4423543753332,379.4476502089997,379.4476502089997,379.4476502089997,379.4423543753332,379.4476502089997,379.4476502089997,384.58651979199976,379.4476502089997,384.58651979199976,384.6868333749999,385.31009724999967,379.4476502089997,1,1,0.6009258330000193,reldom2_s004,001,2025-01-23_12h03.27.765,Where-A-Scan_AC,2022.2.5,None,
32,First_Order,6.0,viswhere,stimulus/viswhere_stim/blank_white.png,stimulus/viswhere_stim/blank_white.png,stimulus/viswhere_stim/30-deg_dot-right_goldenrod.png,stimulus/viswhere_stim/30-deg_dot-left_seagreen.png,stimulus/viswhere_stim/blank_white.png,stimulus/viswhere_stim/dot_box.png,stimulus/viswhere_stim/dot_yes.png,stimulus/viswhere_stim/dot_no.png,None,Dot,None,Line,2,0.0,0,5.125,0,5.125,0,5.125,0,0.0,0.625,0,0.0,0,0.0,1,0.5,1,2.125,0,0.0,0,0.0,0,0.0,0,0.0,0,,,,,0,42,42,42,,,,,,,,,385.51473450000003,385.51473450000003,385.51473450000003,385.51473450000003,385.51473450000003,385.51473450000003,385.51473450000003,385.51473450000003,385.49090633333327,385.51473450000003,385.51473450000003,385.51473450000003,385.49090633333327,385.51473450000003,385.51473450000003,385.51473450000003,387.62307525000006,391.587784459,385.51473450000003,385.51473450000003,390.650663334,385.9978961249999,387.00451491700005,387.62307525000006,388.63623633399993,385.51473450000003,385.51473450000003,385.5075729999999,385.51473450000003,385.51473450000003,385.51473450000003,385.5075729999999,385.51473450000003,385.51473450000003,390.650663334,385.51473450000003,390.650663334,390.7338287919997,391.3656518749999,385.51473450000003,2,1,0.7719921660000182,reldom2_s004,001,2025-01-23_12h03.27.765,Where-A-Scan_AC,2022.2.5,None,
33,First_Order,6.0,viswhere,stimulus/viswhere_stim/blank_white.png,stimulus/viswhere_stim/blank_white.png,stimulus/viswhere_stim/150-deg_dot-left_lightsseagreen.png,stimulus/viswhere_stim/150-deg_dot-right_royalblue.png,stimulus/viswhere_stim/blank_white.png,stimulus/viswhere_stim/dot_box.png,stimulus/viswhere_stim/dot_yes.png,stimulus/viswhere_stim/dot_no.png,None,Dot,None,Line,2,0.0,0,5.125,0,5.125,0,5.125,0,0.0,0.625,0,0.0,0,0.0,1,0.5,1,2.125,0,0.0,0,0.0,0,0.0,0,0.0,0,,,,,0,43,43,43,,,,,,,,,391.587784459,391.587784459,391.587784459,391.587784459,391.587784459,391.587784459,391.587784459,391.587784459,391.55960016733326,391.587784459,391.587784459,391.587784459,391.55960016733326,391.587784459,391.587784459,391.587784459,393.68065483400005,397.649028625,391.587784459,391.587784459,396.7207706250001,392.0571424169998,393.07480695899994,393.68065483400005,394.685823667,391.587784459,391.587784459,391.5762668339999,391.587784459,391.587784459,391.587784459,391.5762668339999,391.587784459,391.587784459,396.7207706250001,391.587784459,396.7207706250001,396.806589584,397.42973241699974,391.587784459,2,1,0.8076438739999503,reldom2_s004,001,2025-01-23_12h03.27.765,Where-A-Scan_AC,2022.2.5,None,
34,First_Order,6.0,viswhere,stimulus/viswhere_stim/blank_white.png,stimulus/viswhere_stim/blank_white.png,stimulus/viswhere_stim/120-deg_dot-left_peru.png,stimulus/viswhere_stim/90-deg_dot-left_royalblue.png,stimulus/viswhere_stim/blank_white.png,stimulus/viswhere_stim/line_box.png,stimulus/viswhere_stim/line_yes.png,stimulus/viswhere_stim/line_no.png,None,Line,None,Dot,2,0.0,0,5.125,0,5.125,0,5.125,0,0.0,0.625,0,0.0,0,0.0,1,0.5,1,2.125,0,0.0,0,0.0,0,0.0,0,0.0,0,,,,,0,44,44,44,,,,,,,,,397.649028625,397.649028625,397.649028625,397.649028625,397.649028625,397.649028625,397.649028625,397.649028625,397.62465175033304,397.649028625,397.649028625,397.649028625,397.62465175033304,397.649028625,397.649028625,397.649028625,399.76412845899995,403.78838124999993,397.649028625,397.649028625,402.78110241700006,398.13437329199996,399.1454934999997,399.76412845899995,400.7801151670001,397.649028625,397.649028625,397.6413184169997,397.649028625,397.649028625,397.649028625,397.6413184169997,397.649028625,397.649028625,402.78110241700006,397.649028625,402.78110241700006,402.895419167,403.5184157089998,397.649028625,2,1,0.731185706999895,reldom2_s004,001,2025-01-23_12h03.27.765,Where-A-Scan_AC,2022.2.5,None,
0,0.0,None,fixation,stimulus/viswhere_stim/blank_white.png,stimulus/viswhere_stim/blank_white.png,stimulus/audwhere_stim/blank_white.png,stimulus/audwhere_stim/blank_white.png,stimulus/viswhere_stim/blank_white.png,stimulus/viswhere_stim/blank_white.png,stimulus/viswhere_stim/blank_white.png,stimulus/viswhere_stim/blank_white.png,0.0,0.0,0.0,0.0,0,0.0,0,0.0,0,0.0,0,0.0,0,0.0,0.0,0,0.0,0,0.0,0,0.0,0,0.0,0,0.0,0,0.0,0,0.0,0,0.0,10,,,,,0,45,45,45,,,,,,,,,403.78838124999993,403.78838124999993,403.78838124999993,403.78838124999993,403.78838124999993,403.78838124999993,403.78838124999993,403.78838124999993,403.68492283333336,403.78838124999993,403.78838124999993,403.78838124999993,403.68492283333336,403.78838124999993,403.78838124999993,403.78838124999993,403.78838124999993,403.78838124999993,403.78838124999993,403.78838124999993,403.78838124999993,403.78838124999993,403.78838124999993,403.78838124999993,403.78838124999993,403.78838124999993,403.78838124999993,403.73492283333337,403.78838124999993,403.78838124999993,403.78838124999993,403.73492283333337,403.78838124999993,403.78838124999993,403.78838124999993,403.78838124999993,403.78838124999993,409.00457874999984,409.00457874999984,413.90627262499993,None,0,,reldom2_s004,001,2025-01-23_12h03.27.765,Where-A-Scan_AC,2022.2.5,None,
35,Second_Order,6.0,viswhere,stimulus/viswhere_stim/60-deg_dot-right_mediumslateblue.png,stimulus/viswhere_stim/150-deg_dot-right_turquoise.png,stimulus/viswhere_stim/90-deg_dot-right_slateblue.png,stimulus/viswhere_stim/90-deg_dot-left_seagreen.png,stimulus/viswhere_stim/match_blank.png,stimulus/viswhere_stim/match_box.png,stimulus/viswhere_stim/match_yes.png,stimulus/viswhere_stim/match_no.png,2.0,Match,Dot,Line,2,5.125,0,5.125,0,5.125,0,5.125,0,0.75,0.75,1,0.5,1,2.125,1,0.5,1,2.125,0,0.0,0,0.0,0,0.0,0,0.0,0,,,,,0,46,46,46,,,,,,,,,413.90627262499993,419.0212353339998,414.38948600000003,415.37863479199996,416.0138623339999,417.01215087499986,413.90627262499993,413.90627262499993,413.91776270833327,413.90627262499993,413.90627262499993,413.90627262499993,413.91776270833327,413.90627262499993,419.0212353339998,419.80063504200007,421.8929297919999,425.78301516700003,419.80063504200007,419.80063504200007,424.92603841699975,420.27022899999974,421.28894545899993,421.8929297919999,422.896183417,419.80063504200007,419.80063504200007,419.78908608333313,419.80063504200007,419.80063504200007,419.80063504200007,419.78908608333313,419.80063504200007,419.80063504200007,424.92603841699975,419.80063504200007,424.92603841699975,425.0103831669999,425.78301516700003,419.80063504200007,2,1,0.7768033739998828,reldom2_s004,001,2025-01-23_12h03.27.765,Where-A-Scan_AC,2022.2.5,None,
36,Second_Order,6.0,viswhere,stimulus/viswhere_stim/120-deg_dot-left_royalblue.png,stimulus/viswhere_stim/120-deg_dot-right_cyan.png,stimulus/viswhere_stim/90-deg_dot-left_slateblue.png,stimulus/viswhere_stim/90-deg_dot-right_turquoise.png,stimulus/viswhere_stim/match_blank.png,stimulus/viswhere_stim/match_box.png,stimulus/viswhere_stim/match_yes.png,stimulus/viswhere_stim/match_no.png,1.0,Match,Line,Line,1,5.125,0,5.125,0,5.125,0,5.125,0,0.625,0.625,1,0.5,1,2.125,1,0.5,1,2.125,0,0.0,0,0.0,0,0.0,0,0.0,0,,,,,0,47,47,47,,,,,,,,,425.78301516700003,430.8990074589997,426.26658870899973,427.2563392090001,427.89165995899975,428.8895520000001,425.78301516700003,425.78301516700003,425.7952560419997,425.78301516700003,425.78301516700003,425.78301516700003,425.7952560419997,425.78301516700003,430.8990074589997,431.5567419169997,433.64409620900005,437.68488079200006,431.5567419169997,431.5567419169997,436.694245917,432.0241067500001,433.038705167,433.64409620900005,434.6647240839998,431.5567419169997,431.5567419169997,431.5456040833333,431.5567419169997,431.5567419169997,431.5567419169997,431.5456040833333,431.5567419169997,431.5567419169997,436.694245917,431.5567419169997,436.694245917,436.764699417,437.399438209,431.5567419169997,1,1,0.469356415999755,reldom2_s004,001,2025-01-23_12h03.27.765,Where-A-Scan_AC,2022.2.5,None,
0,0.0,None,fixation,stimulus/viswhere_stim/blank_white.png,stimulus/viswhere_stim/blank_white.png,stimulus/audwhere_stim/blank_white.png,stimulus/audwhere_stim/blank_white.png,stimulus/viswhere_stim/blank_white.png,stimulus/viswhere_stim/blank_white.png,stimulus/viswhere_stim/blank_white.png,stimulus/viswhere_stim/blank_white.png,0.0,0.0,0.0,0.0,0,0.0,0,0.0,0,0.0,0,0.0,0,0.0,0.0,0,0.0,0,0.0,0,0.0,0,0.0,0,0.0,0,0.0,0,0.0,0,0.0,9,,,,,0,48,48,48,,,,,,,,,437.68488079200006,437.68488079200006,437.68488079200006,437.68488079200006,437.68488079200006,437.68488079200006,437.68488079200006,437.68488079200006,437.58066191733343,437.68488079200006,437.68488079200006,437.68488079200006,437.58066191733343,437.68488079200006,437.68488079200006,437.68488079200006,437.68488079200006,437.68488079200006,437.68488079200006,437.68488079200006,437.68488079200006,437.68488079200006,437.68488079200006,437.68488079200006,437.68488079200006,437.68488079200006,437.68488079200006,437.63066191733344,437.68488079200006,437.68488079200006,437.68488079200006,437.63066191733344,437.68488079200006,437.68488079200006,437.68488079200006,437.68488079200006,437.68488079200006,442.8732572499998,442.8732572499998,446.95301045899987,None,0,,reldom2_s004,001,2025-01-23_12h03.27.765,Where-A-Scan_AC,2022.2.5,None,
37,First_Order,7.0,audwhere,stimulus/audwhere_stim/dummy.wav,stimulus/audwhere_stim/dummy.wav,stimulus/audwhere_stim/left_toward_280h.wav,stimulus/audwhere_stim/left_away_290h.wav,stimulus/audwhere_stim/blank_white.png,stimulus/audwhere_stim/direction_box.png,stimulus/audwhere_stim/direction_yes.png,stimulus/audwhere_stim/direction_no.png,None,Direction,None,Side,2,0.0,0,5.125,0,5.125,0,5.125,0,0.0,0.625,0,0.0,0,0.0,0,0.0,0,0.0,0,0.0,0,0.0,1,0.5,1,2.125,0,,,,,0,49,49,49,,,,,,,,,446.95301045899987,446.95301045899987,446.95301045899987,446.95301045899987,446.95301045899987,446.95301045899987,446.95301045899987,446.95301045899987,446.8776738756666,446.95301045899987,446.95301045899987,446.95301045899987,446.8776738756666,446.95301045899987,446.95301045899987,446.95301045899987,449.0346361249999,453.07028649999984,446.95301045899987,446.95301045899987,452.1076349169998,446.95301045899987,446.95301045899987,446.95301045899987,446.95301045899987,447.4290054999997,448.4691621669999,447.3983886256667,,449.0346361249999,450.07800566700007,449.00412491666634,,446.95301045899987,452.1076349169998,446.95301045899987,452.1076349169998,452.14912849999973,452.81214470899977,446.95301045899987,2,1,1.2484944990001168,reldom2_s004,001,2025-01-23_12h03.27.765,Where-A-Scan_AC,2022.2.5,None,
38,First_Order,7.0,audwhere,stimulus/audwhere_stim/dummy.wav,stimulus/audwhere_stim/dummy.wav,stimulus/audwhere_stim/left_away_300h.wav,stimulus/audwhere_stim/right_away_280h.wav,stimulus/audwhere_stim/blank_white.png,stimulus/audwhere_stim/side_box.png,stimulus/audwhere_stim/side_yes.png,stimulus/audwhere_stim/side_no.png,None,Side,None,Direction,2,0.0,0,5.125,0,5.125,0,5.125,0,0.0,0.625,0,0.0,0,0.0,0,0.0,0,0.0,0,0.0,0,0.0,1,0.5,1,2.125,0,,,,,0,50,50,50,,,,,,,,,453.07028649999984,453.07028649999984,453.07028649999984,453.07028649999984,453.07028649999984,453.07028649999984,453.07028649999984,453.07028649999984,452.987191917333,453.07028649999984,453.07028649999984,453.07028649999984,452.987191917333,453.07028649999984,453.07028649999984,453.07028649999984,455.1450166249997,,453.07028649999984,453.07028649999984,458.24997170899996,453.07028649999984,453.07028649999984,453.07028649999984,453.07028649999984,453.54286512499993,454.5804399999997,453.51237629166667,,455.1450166249997,456.181116709,455.1133969166665,,453.07028649999984,458.24997170899996,453.07028649999984,458.24997170899996,458.291693959,458.9526177919997,453.07028649999984,2,1,0.9598141659998873,reldom2_s004,001,2025-01-23_12h03.27.765,Where-A-Scan_AC,2022.2.5,None,
39,First_Order,7.0,audwhere,stimulus/audwhere_stim/dummy.wav,stimulus/audwhere_stim/dummy.wav,stimulus/audwhere_stim/right_toward_280h.wav,stimulus/audwhere_stim/right_away_300h.wav,stimulus/audwhere_stim/blank_white.png,stimulus/audwhere_stim/side_box.png,stimulus/audwhere_stim/side_yes.png,stimulus/audwhere_stim/side_no.png,None,Side,None,Side,1,0.0,0,5.125,0,5.125,0,5.125,0,0.0,0.625,0,0.0,0,0.0,0,0.0,0,0.0,0,0.0,0,0.0,1,0.5,1,2.125,0,,,,,0,51,51,51,,,,,,,,,459.1704943750001,459.1704943750001,459.1704943750001,459.1704943750001,459.1704943750001,459.1704943750001,459.1704943750001,459.1704943750001,459.08595112533305,459.1704943750001,459.1704943750001,459.1704943750001,459.08595112533305,459.1704943750001,459.1704943750001,459.1704943750001,461.2409457499998,,459.1704943750001,459.1704943750001,464.34778474999985,459.1704943750001,459.1704943750001,459.1704943750001,459.1704943750001,459.6413755419999,460.6750472499998,459.6109182916664,,461.2409457499998,462.2775899170001,461.2102552506665,,459.1704943750001,464.34778474999985,459.1704943750001,464.34778474999985,464.38930004199983,465.0511002919998,459.1704943750001,1,1,1.2777813739999146,reldom2_s004,001,2025-01-23_12h03.27.765,Where-A-Scan_AC,2022.2.5,None,
40,First_Order,7.0,audwhere,stimulus/audwhere_stim/dummy.wav,stimulus/audwhere_stim/dummy.wav,stimulus/audwhere_stim/left_away_280h.wav,stimulus/audwhere_stim/left_toward_300h.wav,stimulus/audwhere_stim/blank_white.png,stimulus/audwhere_stim/side_box.png,stimulus/audwhere_stim/side_yes.png,stimulus/audwhere_stim/side_no.png,None,Side,None,Side,1,0.0,0,5.125,0,5.125,0,5.125,0,0.0,0.625,0,0.0,0,0.0,0,0.0,0,0.0,0,0.0,0,0.0,1,0.5,1,2.125,0,,,,,0,52,52,52,,,,,,,,,465.26880408399984,465.26880408399984,465.26880408399984,465.26880408399984,465.26880408399984,465.26880408399984,465.26880408399984,465.26880408399984,465.1844336253331,465.26880408399984,465.26880408399984,465.26880408399984,465.1844336253331,465.26880408399984,465.26880408399984,465.26880408399984,467.3410198339998,,465.26880408399984,465.26880408399984,470.4483433339997,465.26880408399984,465.26880408399984,465.26880408399984,465.26880408399984,465.7382146249997,466.7744806249998,465.7081721666666,,467.3410198339998,468.3794075420001,467.31018187566656,,465.26880408399984,470.4483433339997,465.26880408399984,470.4483433339997,470.48991662499975,471.1539407089999,465.26880408399984,1,1,0.6601926660000572,reldom2_s004,001,2025-01-23_12h03.27.765,Where-A-Scan_AC,2022.2.5,None,
0,0.0,None,fixation,stimulus/viswhere_stim/blank_white.png,stimulus/viswhere_stim/blank_white.png,stimulus/audwhere_stim/blank_white.png,stimulus/audwhere_stim/blank_white.png,stimulus/viswhere_stim/blank_white.png,stimulus/viswhere_stim/blank_white.png,stimulus/viswhere_stim/blank_white.png,stimulus/viswhere_stim/blank_white.png,0.0,0.0,0.0,0.0,0,0.0,0,0.0,0,0.0,0,0.0,0,0.0,0.0,0,0.0,0,0.0,0,0.0,0,0.0,0,0.0,0,0.0,0,0.0,0,0.0,8,,,,,0,53,53,53,,,,,,,,,471.3909025419998,471.3909025419998,471.3909025419998,471.3909025419998,471.3909025419998,471.3909025419998,471.3909025419998,471.3909025419998,471.28727404233325,471.3909025419998,471.3909025419998,471.3909025419998,471.28727404233325,471.3909025419998,471.3909025419998,471.3909025419998,471.3909025419998,471.3909025419998,471.3909025419998,471.3909025419998,471.3909025419998,471.3909025419998,471.3909025419998,471.3909025419998,471.3909025419998,471.3909025419998,471.3909025419998,471.33727404233326,471.3909025419998,471.3909025419998,471.3909025419998,471.33727404233326,471.3909025419998,471.3909025419998,471.3909025419998,471.3909025419998,471.3909025419998,476.59773300000006,476.59773300000006,479.56531916699987,None,0,,reldom2_s004,001,2025-01-23_12h03.27.765,Where-A-Scan_AC,2022.2.5,None,
41,Second_Order,7.0,audwhere,stimulus/audwhere_stim/left_away_300h.wav,stimulus/audwhere_stim/left_toward_300h.wav,stimulus/audwhere_stim/right_away_290h.wav,stimulus/audwhere_stim/right_toward_290h.wav,stimulus/viswhere_stim/match_blank.png,stimulus/audwhere_stim/match_box.png,stimulus/viswhere_stim/match_yes.png,stimulus/viswhere_stim/match_no.png,1.0,Match,Side,Side,1,5.125,0,5.125,0,5.125,0,5.125,0,0.75,0.75,0,0.0,0,0.0,0,0.0,0,0.0,1,0.5,1,2.125,1,0.5,1,2.125,0,,,,,0,54,54,54,,,,,,,,,479.56531916699987,484.68968429200004,479.56531916699987,479.56531916699987,479.56531916699987,479.56531916699987,480.02401087499993,481.0133094590001,480.0274062506667,481.02631866699994,481.64930966699967,482.6464269170001,481.66110383366663,482.65461849999974,484.68968429200004,485.5208899999998,487.5886653749999,,485.5208899999998,485.5208899999998,490.6902352090001,485.5208899999998,485.5208899999998,485.5208899999998,485.5208899999998,485.9894469589999,487.022968667,485.9587021666664,,487.5886653749999,488.627693292,487.5582246256665,,485.5208899999998,490.6902352090001,485.5208899999998,490.6902352090001,490.7314995419997,,485.5208899999998,1,1,0.6501609160004591,reldom2_s004,001,2025-01-23_12h03.27.765,Where-A-Scan_AC,2022.2.5,None,
42,Second_Order,7.0,audwhere,stimulus/audwhere_stim/left_away_280h.wav,stimulus/audwhere_stim/right_away_270h.wav,stimulus/audwhere_stim/right_toward_270h.wav,stimulus/audwhere_stim/left_toward_280h.wav,stimulus/viswhere_stim/match_blank.png,stimulus/audwhere_stim/match_box.png,stimulus/viswhere_stim/match_yes.png,stimulus/viswhere_stim/match_no.png,1.0,Match,Direction,Direction,1,5.125,0,5.125,0,5.125,0,5.125,0,0.625,0.625,0,0.0,0,0.0,0,0.0,0,0.0,1,0.5,1,2.125,1,0.5,1,2.125,0,,,,,0,55,55,55,,,,,,,,,491.5132803749998,496.6340319589999,491.5132803749998,491.5132803749998,491.5132803749998,491.5132803749998,491.97241670899984,492.9702337919998,491.9853786256665,492.9781754589999,493.59523850000005,494.5910088749997,493.6057419586666,494.59923075000006,496.6340319589999,497.33450616699974,499.43658504199993,,497.33450616699974,497.33450616699974,502.4841570419999,497.33450616699974,497.33450616699974,497.33450616699974,497.33450616699974,497.8001734589998,498.8741069590001,497.77038354166666,,499.43658504199993,500.4689254169998,499.4059650836664,,497.33450616699974,502.4841570419999,497.33450616699974,502.4841570419999,502.5254196249998,503.1851107919997,497.33450616699974,1,1,0.9771520409999539,reldom2_s004,001,2025-01-23_12h03.27.765,Where-A-Scan_AC,2022.2.5,None,
0,0.0,None,fixation,stimulus/viswhere_stim/blank_white.png,stimulus/viswhere_stim/blank_white.png,stimulus/audwhere_stim/blank_white.png,stimulus/audwhere_stim/blank_white.png,stimulus/viswhere_stim/blank_white.png,stimulus/viswhere_stim/blank_white.png,stimulus/viswhere_stim/blank_white.png,stimulus/viswhere_stim/blank_white.png,0.0,0.0,0.0,0.0,0,0.0,0,0.0,0,0.0,0,0.0,0,0.0,0.0,0,0.0,0,0.0,0,0.0,0,0.0,0,0.0,0,0.0,0,0.0,0,0.0,10,,,,,0,56,56,56,,,,,,,,,503.46498324999993,503.46498324999993,503.46498324999993,503.46498324999993,503.46498324999993,503.46498324999993,503.46498324999993,503.46498324999993,503.3601852503331,503.46498324999993,503.46498324999993,503.46498324999993,503.3601852503331,503.46498324999993,503.46498324999993,503.46498324999993,503.46498324999993,503.46498324999993,503.46498324999993,503.46498324999993,503.46498324999993,503.46498324999993,503.46498324999993,503.46498324999993,503.46498324999993,503.46498324999993,503.46498324999993,503.4101852503331,503.46498324999993,503.46498324999993,503.46498324999993,503.4101852503331,503.46498324999993,503.46498324999993,503.46498324999993,503.46498324999993,503.46498324999993,508.69814633399983,508.69814633399983,513.6935887089999,None,0,,reldom2_s004,001,2025-01-23_12h03.27.765,Where-A-Scan_AC,2022.2.5,None,
43,First_Order,8.0,audwhere,stimulus/audwhere_stim/dummy.wav,stimulus/audwhere_stim/dummy.wav,stimulus/audwhere_stim/left_away_270h.wav,stimulus/audwhere_stim/right_away_300h.wav,stimulus/audwhere_stim/blank_white.png,stimulus/audwhere_stim/direction_box.png,stimulus/audwhere_stim/direction_yes.png,stimulus/audwhere_stim/direction_no.png,None,Direction,None,Direction,1,0.0,0,5.125,0,5.125,0,5.125,0,0.0,0.625,0,0.0,0,0.0,0,0.0,0,0.0,0,0.0,0,0.0,1,0.5,1,2.125,0,,,,,0,57,57,57,,,,,,,,,513.6935887089999,513.6935887089999,513.6935887089999,513.6935887089999,513.6935887089999,513.6935887089999,513.6935887089999,513.6935887089999,513.6176464166666,513.6935887089999,513.6935887089999,513.6935887089999,513.6176464166666,513.6935887089999,513.6935887089999,513.6935887089999,515.776966334,519.8188667499999,513.6935887089999,513.6935887089999,518.8467282500001,513.6935887089999,513.6935887089999,513.6935887089999,513.6935887089999,514.1696812499999,515.2127142089998,514.1385830416664,,515.776966334,516.8165026249999,515.7464757086666,,513.6935887089999,518.8467282500001,513.6935887089999,518.8467282500001,518.8883848339997,519.5540689169998,513.6935887089999,1,1,1.0793545409997023,reldom2_s004,001,2025-01-23_12h03.27.765,Where-A-Scan_AC,2022.2.5,None,
44,First_Order,8.0,audwhere,stimulus/audwhere_stim/dummy.wav,stimulus/audwhere_stim/dummy.wav,stimulus/audwhere_stim/left_toward_300h.wav,stimulus/audwhere_stim/left_away_280h.wav,stimulus/audwhere_stim/blank_white.png,stimulus/audwhere_stim/direction_box.png,stimulus/audwhere_stim/direction_yes.png,stimulus/audwhere_stim/direction_no.png,None,Direction,None,Side,2,0.0,0,5.125,0,5.125,0,5.125,0,0.0,0.625,0,0.0,0,0.0,0,0.0,0,0.0,0,0.0,0,0.0,1,0.5,1,2.125,0,,,,,0,58,58,58,,,,,,,,,519.8188667499999,519.8188667499999,519.8188667499999,519.8188667499999,519.8188667499999,519.8188667499999,519.8188667499999,519.8188667499999,519.7285827083334,519.8188667499999,519.8188667499999,519.8188667499999,519.7285827083334,519.8188667499999,519.8188667499999,519.8188667499999,521.900171792,525.9357154169998,519.8188667499999,519.8188667499999,524.9722127089999,519.8188667499999,519.8188667499999,519.8188667499999,519.8188667499999,520.2920966249999,521.3335724999997,520.2614440416667,,521.900171792,522.9414576669997,521.8691998756665,,519.8188667499999,524.9722127089999,519.8188667499999,524.9722127089999,525.0139507499998,525.6785789999999,519.8188667499999,2,1,1.4476043320000826,reldom2_s004,001,2025-01-23_12h03.27.765,Where-A-Scan_AC,2022.2.5,None,
45,First_Order,8.0,audwhere,stimulus/audwhere_stim/dummy.wav,stimulus/audwhere_stim/dummy.wav,stimulus/audwhere_stim/right_away_290h.wav,stimulus/audwhere_stim/left_away_280h.wav,stimulus/audwhere_stim/blank_white.png,stimulus/audwhere_stim/side_box.png,stimulus/audwhere_stim/side_yes.png,stimulus/audwhere_stim/side_no.png,None,Side,None,Direction,2,0.0,0,5.125,0,5.125,0,5.125,0,0.0,0.625,0,0.0,0,0.0,0,0.0,0,0.0,0,0.0,0,0.0,1,0.5,1,2.125,0,,,,,0,59,59,59,,,,,,,,,525.9357154169998,525.9357154169998,525.9357154169998,525.9357154169998,525.9357154169998,525.9357154169998,525.9357154169998,525.9357154169998,525.8526954583332,525.9357154169998,525.9357154169998,525.9357154169998,525.8526954583332,525.9357154169998,525.9357154169998,525.9357154169998,528.0516043339999,,525.9357154169998,525.9357154169998,531.1089079169997,525.9357154169998,525.9357154169998,525.9357154169998,525.9357154169998,526.405447959,527.442367959,526.3747283756663,,528.0516043339999,529.087040334,528.0208753336667,,525.9357154169998,531.1089079169997,525.9357154169998,531.1089079169997,531.1507609169998,531.812334875,525.9357154169998,2,1,1.1989325409999765,reldom2_s004,001,2025-01-23_12h03.27.765,Where-A-Scan_AC,2022.2.5,None,
46,First_Order,8.0,audwhere,stimulus/audwhere_stim/dummy.wav,stimulus/audwhere_stim/dummy.wav,stimulus/audwhere_stim/left_away_270h.wav,stimulus/audwhere_stim/right_away_290h.wav,stimulus/audwhere_stim/blank_white.png,stimulus/audwhere_stim/direction_box.png,stimulus/audwhere_stim/direction_yes.png,stimulus/audwhere_stim/direction_no.png,None,Direction,None,Direction,1,0.0,0,5.125,0,5.125,0,5.125,0,0.0,0.625,0,0.0,0,0.0,0,0.0,0,0.0,0,0.0,0,0.0,1,0.5,1,2.125,0,,,,,0,60,60,60,,,,,,,,,532.0343393339999,532.0343393339999,532.0343393339999,532.0343393339999,532.0343393339999,532.0343393339999,532.0343393339999,532.0343393339999,531.9456682083334,532.0343393339999,532.0343393339999,532.0343393339999,531.9456682083334,532.0343393339999,532.0343393339999,532.0343393339999,534.1187946669997,538.1861428749999,532.0343393339999,532.0343393339999,537.196827709,532.0343393339999,532.0343393339999,532.0343393339999,532.0343393339999,532.507048167,533.5502860839997,532.4762912086665,,534.1187946669997,535.1630122500001,534.0881648336665,,532.0343393339999,537.196827709,532.0343393339999,537.196827709,537.2381034589998,537.9029572919999,532.0343393339999,1,1,1.107417623999936,reldom2_s004,001,2025-01-23_12h03.27.765,Where-A-Scan_AC,2022.2.5,None,
0,0.0,None,fixation,stimulus/viswhere_stim/blank_white.png,stimulus/viswhere_stim/blank_white.png,stimulus/audwhere_stim/blank_white.png,stimulus/audwhere_stim/blank_white.png,stimulus/viswhere_stim/blank_white.png,stimulus/viswhere_stim/blank_white.png,stimulus/viswhere_stim/blank_white.png,stimulus/viswhere_stim/blank_white.png,0.0,0.0,0.0,0.0,0,0.0,0,0.0,0,0.0,0,0.0,0,0.0,0.0,0,0.0,0,0.0,0,0.0,0,0.0,0,0.0,0,0.0,0,0.0,0,0.0,9,,,,,0,61,61,61,,,,,,,,,538.1861428749999,538.1861428749999,538.1861428749999,538.1861428749999,538.1861428749999,538.1861428749999,538.1861428749999,538.1861428749999,538.0778756253331,538.1861428749999,538.1861428749999,538.1861428749999,538.0778756253331,538.1861428749999,538.1861428749999,538.1861428749999,538.1861428749999,538.1861428749999,538.1861428749999,538.1861428749999,538.1861428749999,538.1861428749999,538.1861428749999,538.1861428749999,538.1861428749999,538.1861428749999,538.1861428749999,538.1445422919998,538.1861428749999,538.1861428749999,538.1861428749999,538.1445422919998,538.1861428749999,538.1861428749999,538.1861428749999,538.1861428749999,538.1861428749999,543.389264125,543.389264125,547.3430387089998,None,0,,reldom2_s004,001,2025-01-23_12h03.27.765,Where-A-Scan_AC,2022.2.5,None,
47,Second_Order,8.0,audwhere,stimulus/audwhere_stim/right_away_280h.wav,stimulus/audwhere_stim/left_away_290h.wav,stimulus/audwhere_stim/right_toward_300h.wav,stimulus/audwhere_stim/right_away_300h.wav,stimulus/viswhere_stim/match_blank.png,stimulus/audwhere_stim/match_box.png,stimulus/viswhere_stim/match_yes.png,stimulus/viswhere_stim/match_no.png,2.0,Match,Direction,Side,2,5.125,0,5.125,0,5.125,0,5.125,0,0.75,0.75,0,0.0,0,0.0,0,0.0,0,0.0,1,0.5,1,2.125,1,0.5,1,2.125,0,,,,,0,62,62,62,,,,,,,,,547.3430387089998,552.4622892089997,547.3430387089998,547.3430387089998,547.3430387089998,547.3430387089998,547.8015504589998,548.799205709,547.8138851256665,548.806998042,549.422404125,550.419709542,549.4342030836667,550.427884667,552.4622892089997,553.2873159169999,555.3540147089998,,553.2873159169999,553.2873159169999,558.4565185839997,553.2873159169999,553.2873159169999,553.2873159169999,553.2873159169999,553.7551680839997,554.7896084999998,553.7245240416667,,555.3540147089998,556.3903123749997,555.3232125416664,,553.2873159169999,558.4565185839997,553.2873159169999,558.4565185839997,558.49864725,,553.2873159169999,2,1,0.9035996249999698,reldom2_s004,001,2025-01-23_12h03.27.765,Where-A-Scan_AC,2022.2.5,None,
48,Second_Order,8.0,audwhere,stimulus/audwhere_stim/left_away_280h.wav,stimulus/audwhere_stim/right_away_290h.wav,stimulus/audwhere_stim/left_toward_280h.wav,stimulus/audwhere_stim/right_toward_300h.wav,stimulus/viswhere_stim/match_blank.png,stimulus/audwhere_stim/match_box.png,stimulus/viswhere_stim/match_yes.png,stimulus/viswhere_stim/match_no.png,1.0,Match,Direction,Direction,1,5.125,0,5.125,0,5.125,0,5.125,0,0.625,0.625,0,0.0,0,0.0,0,0.0,0,0.0,1,0.5,1,2.125,1,0.5,1,2.125,0,,,,,0,63,63,63,,,,,,,,,559.2803610000001,564.402073875,559.2803610000001,559.2803610000001,559.2803610000001,559.2803610000001,559.7286315419997,560.7269213750001,559.7411625416664,560.7348308339997,561.3661292500001,562.3640087089998,561.3781271256664,562.3720338749999,564.402073875,565.1203719169998,567.17817375,571.2478367499998,565.1203719169998,565.1203719169998,570.2689574169999,565.1203719169998,565.1203719169998,565.1203719169998,565.1203719169998,565.5882663749999,566.66359375,565.5575692916666,,567.17817375,568.2109028750001,567.1475257916666,,565.1203719169998,570.2689574169999,565.1203719169998,570.2689574169999,570.3105048339999,570.9688623749998,565.1203719169998,1,1,0.9336192069999925,reldom2_s004,001,2025-01-23_12h03.27.765,Where-A-Scan_AC,2022.2.5,None,
0,0.0,None,fixation,stimulus/viswhere_stim/blank_white.png,stimulus/viswhere_stim/blank_white.png,stimulus/audwhere_stim/blank_white.png,stimulus/audwhere_stim/blank_white.png,stimulus/viswhere_stim/blank_white.png,stimulus/viswhere_stim/blank_white.png,stimulus/viswhere_stim/blank_white.png,stimulus/viswhere_stim/blank_white.png,0.0,0.0,0.0,0.0,0,0.0,0,0.0,0,0.0,0,0.0,0,0.0,0.0,0,0.0,0,0.0,0,0.0,0,0.0,0,0.0,0,0.0,0,0.0,0,0.0,16,,,,,0,64,64,64,,,,,,,,,571.2478367499998,571.2478367499998,571.2478367499998,571.2478367499998,571.2478367499998,571.2478367499998,571.2478367499998,571.2478367499998,571.1432817503334,571.2478367499998,571.2478367499998,571.2478367499998,571.1432817503334,571.2478367499998,571.2478367499998,571.2478367499998,571.2478367499998,571.2478367499998,571.2478367499998,571.2478367499998,571.2478367499998,571.2478367499998,571.2478367499998,571.2478367499998,571.2478367499998,571.2478367499998,571.2478367499998,571.1932817503333,571.2478367499998,571.2478367499998,571.2478367499998,571.1932817503333,571.2478367499998,571.2478367499998,571.2478367499998,571.2478367499998,571.2478367499998,576.4311054169998,576.4311054169998,587.3909955839999,None,0,,reldom2_s004,001,2025-01-23_12h03.27.765,Where-A-Scan_AC,2022.2.5,None,
