Trial,Order,Block,Type,Stimuli_File1,Stimuli_File2,Stimuli_File3,Stimuli_File4,Cue_File1,Cue_File2,Response_File_Yes,Response_File_No,Match,Cue_Dimension,Pair1_Dimension,Pair2_Dimension,Key,Cue1_Duration,Cue1_Onset,Cue2_Duration,Cue2_Onset,ResponseYes_Duration,ResponseYes_Onset,ResponseNo_Duration,ResponseNo_Onset,ITI_Within,ITI_Between,Image1_Duration,Image1_Onset,Image2_Duration,Image2_Onset,Image3_Duration,Image3_Onset,Image4_Duration,Image4_Onset,Sound1_Duration,Sound1_Onset,Sound2_Duration,Sound2_Onset,Sound3_Duration,Sound3_Onset,Sound4_Duration,Sound4_Onset,Fixation_Duration,trials_2.thisRepN,trials_2.thisTrialN,trials_2.thisN,trials_2.thisIndex,trials.thisRepN,trials.thisTrialN,trials.thisN,trials.thisIndex,text_start.started,key_resp_start.started,key_resp_start.keys,key_resp_start.rt,text2.started,key_resp_2.started,key_resp_2.keys,key_resp_2.rt,cue_file1.started,cue_file1.stopped,image_1.started,image_1.stopped,image_2.started,image_2.stopped,sound_icon1.started,sound_icon1.stopped,sound_1.started,sound_1.stopped,sound_icon2.started,sound_icon2.stopped,sound_2.started,sound_2.stopped,image_blank_1.started,image_blank_1.stopped,key_press.started,key_press.stopped,fixation_text.started,cue_file2.started,cue_file2.stopped,image_3.started,image_3.stopped,image_4.started,image_4.stopped,sound_icon3.started,sound_icon3.stopped,sound_3.started,sound_3.stopped,sound_icon4.started,sound_icon4.stopped,sound_4.started,sound_4.stopped,response_yes.started,response_yes.stopped,response_no.started,response_no.stopped,iti_blank.started,iti_blank.stopped,fixation_text.stopped,key_press.keys,key_press.corr,key_press.rt,participant,session,date,expName,psychopyVersion,frameRate,
,,,,,,,,,,,,,,,,,,,,,,,,,,,,,,,,,,,,,,,,,,,,,,,,,,,,9.676121333000083,9.676121333000083,2,6.779938749999928,,,,,,,,,,,,,,,,,,,,,,,,,,,,,,,,,,,,,,,,,,,,,,,,reldom2_s004,001,2025-01-23_11h51.55.578,What-A-Scan_AC,2022.2.5,None,
,,,,,,,,,,,,,,,,,,,,,,,,,,,,,,,,,,,,,,,,,,,,0,0,0,0,,,,,,,,,16.47768566600007,16.47768566600007,5,11.540690250000353,,,,,,,,,,,,,,,,,,,,,,,,,,,,,,,,,,,,,,,,,,,,reldom2_s004,001,2025-01-23_11h51.55.578,What-A-Scan_AC,2022.2.5,None,
,,,,,,,,,,,,,,,,,,,,,,,,,,,,,,,,,,,,,,,,,,,,1,0,1,0,,,,,,,,,28.034911332999854,28.034911332999854,5,1.98504687500008,,,,,,,,,,,,,,,,,,,,,,,,,,,,,,,,,,,,,,,,,,,,reldom2_s004,001,2025-01-23_11h51.55.578,What-A-Scan_AC,2022.2.5,None,
,,,,,,,,,,,,,,,,,,,,,,,,,,,,,,,,,,,,,,,,,,,,2,0,2,0,,,,,,,,,30.033731999999873,30.033731999999873,5,1.9845824170001833,,,,,,,,,,,,,,,,,,,,,,,,,,,,,,,,,,,,,,,,,,,,reldom2_s004,001,2025-01-23_11h51.55.578,What-A-Scan_AC,2022.2.5,None,
,,,,,,,,,,,,,,,,,,,,,,,,,,,,,,,,,,,,,,,,,,,,3,0,3,0,,,,,,,,,32.027199457999814,32.027199457999814,5,1.9912244580000333,,,,,,,,,,,,,,,,,,,,,,,,,,,,,,,,,,,,,,,,,,,,reldom2_s004,001,2025-01-23_11h51.55.578,What-A-Scan_AC,2022.2.5,None,
0,0.0,None,fixation,stimulus/audwhat_stim/blank_white.png,stimulus/audwhat_stim/blank_white.png,stimulus/viswhat_stim/blank_white.png,stimulus/viswhat_stim/blank_white.png,stimulus/audwhat_stim/blank_white.png,stimulus/audwhat_stim/blank_white.png,stimulus/audwhat_stim/blank_white.png,stimulus/audwhat_stim/blank_white.png,0.0,0.0,0.0,0.0,0,0.0,0,0.0,0,0.0,0,0.0,0,0.0,0.0,0,0.0,0,0.0,0,0.0,0,0.0,0,0.0,0,0.0,0,0.0,0,0.0,16,,,,,0,0,0,0,,,,,,,,,34.221242290999726,34.221242290999726,34.221242290999726,34.221242290999726,34.221242290999726,34.221242290999726,34.221242290999726,34.221242290999726,34.126784165999744,34.221242290999726,34.221242290999726,34.221242290999726,34.126784165999744,34.221242290999726,34.221242290999726,34.221242290999726,34.221242290999726,34.221242290999726,34.221242290999726,34.221242290999726,34.221242290999726,34.221242290999726,34.221242290999726,34.221242290999726,34.221242290999726,34.221242290999726,34.221242290999726,34.17678416599974,34.221242290999726,34.221242290999726,34.221242290999726,34.17678416599974,34.221242290999726,34.221242290999726,34.221242290999726,34.221242290999726,34.221242290999726,39.39540566599999,39.39540566599999,50.4617697499998,None,0,,reldom2_s004,001,2025-01-23_11h51.55.578,What-A-Scan_AC,2022.2.5,None,
1,First_Order,1.0,audwhat,stimulus/audwhat_stim/dummy.wav,stimulus/audwhat_stim/dummy.wav,stimulus/audwhat_stim/percussion mallet_low-pitch_Dtri_loud.wav,stimulus/audwhat_stim/percussion xylophone_high-pitch_F_loud.wav,stimulus/audwhat_stim/blank_white.png,stimulus/audwhat_stim/pitch_box.png,stimulus/audwhat_stim/pitch_yes.png,stimulus/audwhat_stim/pitch_no.png,None,Pitch,None,Category,2,0.0,0,5.125,0,5.125,0,5.125,0,0.0,0.625,0,0.0,0,0.0,0,0.0,0,0.0,0,0.0,0,0.0,1,0.5,1,2.125,0,,,,,0,1,1,1,,,,,,,,,50.4617697499998,50.4617697499998,50.4617697499998,50.4617697499998,50.4617697499998,50.4617697499998,50.4617697499998,50.4617697499998,50.38863733300004,50.4617697499998,50.4617697499998,50.4617697499998,50.38863733300004,50.4617697499998,50.4617697499998,50.4617697499998,52.55882299999985,,50.4617697499998,50.4617697499998,55.64456274999975,50.4617697499998,50.4617697499998,50.4617697499998,50.4617697499998,50.908356124999955,51.979039791000105,50.88039441666639,,52.55882299999985,53.59425591599984,52.53057695766644,53.59425591599984,50.4617697499998,55.64456274999975,50.4617697499998,55.64456274999975,55.68385933299987,56.35688720799999,50.4617697499998,2,1,0.8649180839997825,reldom2_s004,001,2025-01-23_11h51.55.578,What-A-Scan_AC,2022.2.5,None,
2,First_Order,1.0,audwhat,stimulus/audwhat_stim/dummy.wav,stimulus/audwhat_stim/dummy.wav,stimulus/audwhat_stim/percussion xylophone_high-pitch_Dtri_loud.wav,stimulus/audwhat_stim/percussion mallet_low-pitch_D_loud.wav,stimulus/audwhat_stim/blank_white.png,stimulus/audwhat_stim/pitch_box.png,stimulus/audwhat_stim/pitch_yes.png,stimulus/audwhat_stim/pitch_no.png,None,Pitch,None,Category,2,0.0,0,5.125,0,5.125,0,5.125,0,0.0,0.625,0,0.0,0,0.0,0,0.0,0,0.0,0,0.0,0,0.0,1,0.5,1,2.125,0,,,,,0,2,2,2,,,,,,,,,56.56336250000004,56.56336250000004,56.56336250000004,56.56336250000004,56.56336250000004,56.56336250000004,56.56336250000004,56.56336250000004,56.49022054133332,56.56336250000004,56.56336250000004,56.56336250000004,56.49022054133332,56.56336250000004,56.56336250000004,56.56336250000004,58.67057324999996,62.670962749999944,56.56336250000004,56.56336250000004,61.71551516599993,56.56336250000004,56.56336250000004,56.56336250000004,56.56336250000004,57.010408165999706,58.044043790999694,56.98233487466656,58.044043790999694,58.67057324999996,59.703021332999924,58.642647999666465,,56.56336250000004,61.71551516599993,56.56336250000004,61.71551516599993,61.75500662500008,62.42627179100009,56.56336250000004,2,1,0.7519532080000317,reldom2_s004,001,2025-01-23_11h51.55.578,What-A-Scan_AC,2022.2.5,None,
3,First_Order,1.0,audwhat,stimulus/audwhat_stim/dummy.wav,stimulus/audwhat_stim/dummy.wav,stimulus/audwhat_stim/percussion mallet_low-pitch_F_loud.wav,stimulus/audwhat_stim/percussion xylophone_high-pitch_Ftri_loud.wav,stimulus/audwhat_stim/blank_white.png,stimulus/audwhat_stim/category_box.png,stimulus/audwhat_stim/category_yes.png,stimulus/audwhat_stim/category_no.png,None,Category,None,Category,1,0.0,0,5.125,0,5.125,0,5.125,0,0.0,0.625,0,0.0,0,0.0,0,0.0,0,0.0,0,0.0,0,0.0,1,0.5,1,2.125,0,,,,,0,3,3,3,,,,,,,,,62.670962749999944,62.670962749999944,62.670962749999944,62.670962749999944,62.670962749999944,62.670962749999944,62.670962749999944,62.670962749999944,62.59973404133337,62.670962749999944,62.670962749999944,62.670962749999944,62.59973404133337,62.670962749999944,62.670962749999944,62.670962749999944,64.74445241600006,68.7851150409997,62.670962749999944,62.670962749999944,67.82448149999982,62.670962749999944,62.670962749999944,62.670962749999944,62.670962749999944,63.12275637499988,64.15981591599984,63.09405091666646,,64.74445241600006,65.78955533299995,64.71589604166662,65.78955533299995,62.670962749999944,67.82448149999982,62.670962749999944,67.82448149999982,67.86406937499987,68.53854341599981,62.670962749999944,1,1,1.205408124999849,reldom2_s004,001,2025-01-23_11h51.55.578,What-A-Scan_AC,2022.2.5,None,
4,First_Order,1.0,audwhat,stimulus/audwhat_stim/dummy.wav,stimulus/audwhat_stim/dummy.wav,stimulus/audwhat_stim/percussion mallet_low-pitch_Dtri_loud.wav,stimulus/audwhat_stim/percussion mallet_high-pitch_F_loud.wav,stimulus/audwhat_stim/blank_white.png,stimulus/audwhat_stim/category_box.png,stimulus/audwhat_stim/category_yes.png,stimulus/audwhat_stim/category_no.png,None,Category,None,Category,1,0.0,0,5.125,0,5.125,0,5.125,0,0.0,0.625,0,0.0,0,0.0,0,0.0,0,0.0,0,0.0,0,0.0,1,0.5,1,2.125,0,,,,,0,4,4,4,,,,,,,,,68.7851150409997,68.7851150409997,68.7851150409997,68.7851150409997,68.7851150409997,68.7851150409997,68.7851150409997,68.7851150409997,68.71131995833332,68.7851150409997,68.7851150409997,68.7851150409997,68.71131995833332,68.7851150409997,68.7851150409997,68.7851150409997,70.86390341600008,74.93043541599991,68.7851150409997,68.7851150409997,73.94285516599984,68.7851150409997,68.7851150409997,68.7851150409997,68.7851150409997,69.23575174999996,70.27660775000004,69.20710299966665,,70.86390341600008,71.90641574999972,70.83543741666678,,68.7851150409997,73.94285516599984,68.7851150409997,73.94285516599984,73.98271974999989,74.66014095799983,68.7851150409997,1,1,0.8445471249997354,reldom2_s004,001,2025-01-23_11h51.55.578,What-A-Scan_AC,2022.2.5,None,
0,0.0,None,fixation,stimulus/audwhat_stim/blank_white.png,stimulus/audwhat_stim/blank_white.png,stimulus/viswhat_stim/blank_white.png,stimulus/viswhat_stim/blank_white.png,stimulus/audwhat_stim/blank_white.png,stimulus/audwhat_stim/blank_white.png,stimulus/audwhat_stim/blank_white.png,stimulus/audwhat_stim/blank_white.png,0.0,0.0,0.0,0.0,0,0.0,0,0.0,0,0.0,0,0.0,0,0.0,0.0,0,0.0,0,0.0,0,0.0,0,0.0,0,0.0,0,0.0,0,0.0,0,0.0,10,,,,,0,5,5,5,,,,,,,,,74.93043541599991,74.93043541599991,74.93043541599991,74.93043541599991,74.93043541599991,74.93043541599991,74.93043541599991,74.93043541599991,74.83390533333306,74.93043541599991,74.93043541599991,74.93043541599991,74.83390533333306,74.93043541599991,74.93043541599991,74.93043541599991,74.93043541599991,74.93043541599991,74.93043541599991,74.93043541599991,74.93043541599991,74.93043541599991,74.93043541599991,74.93043541599991,74.93043541599991,74.93043541599991,74.93043541599991,74.88390533333308,74.93043541599991,74.93043541599991,74.93043541599991,74.88390533333308,74.93043541599991,74.93043541599991,74.93043541599991,74.93043541599991,74.93043541599991,80.15051941599995,80.15051941599995,85.0996286249997,None,0,,reldom2_s004,001,2025-01-23_11h51.55.578,What-A-Scan_AC,2022.2.5,None,
5,Second_Order,1.0,audwhat,stimulus/audwhat_stim/string cello_low-pitch_D_loud.wav,stimulus/audwhat_stim/string viola_high-pitch_Dtri_loud.wav,stimulus/audwhat_stim/percussion mallet_low-pitch_D_loud.wav,stimulus/audwhat_stim/string viola_low-pitch_D_loud.wav,stimulus/audwhat_stim/match_blank.png,stimulus/audwhat_stim/match_box.png,stimulus/audwhat_stim/match_yes.png,stimulus/audwhat_stim/match_no.png,2.0,Match,Category,Pitch,2,5.125,0,5.125,0,5.125,0,5.125,0,0.75,0.75,0,0.0,0,0.0,0,0.0,0,0.0,1,0.5,1,2.125,1,0.5,1,2.125,0,,,,,0,6,6,6,,,,,,,,,85.0996286249997,90.22311795799988,85.0996286249997,85.0996286249997,85.0996286249997,85.0996286249997,85.54914229099995,86.53552704100002,85.56237662466653,,87.17118812499984,88.16831849999971,87.18294387466655,,90.22311795799988,91.05689974999996,93.13392129099975,,91.05689974999996,91.05689974999996,96.20965383299972,91.05689974999996,91.05689974999996,91.05689974999996,91.05689974999996,91.50913824999998,92.547251125,91.48045295766657,,93.13392129099975,94.1778287080001,93.10424491666642,,91.05689974999996,96.20965383299972,91.05689974999996,96.20965383299972,96.24920233300008,,91.05689974999996,2,1,1.0841500420001466,reldom2_s004,001,2025-01-23_11h51.55.578,What-A-Scan_AC,2022.2.5,None,
6,Second_Order,1.0,audwhat,stimulus/audwhat_stim/string cello_high-pitch_Dtri_loud.wav,stimulus/audwhat_stim/percussion mallet_high-pitch_Dtri_loud.wav,stimulus/audwhat_stim/percussion mallet_low-pitch_Ftri_loud.wav,stimulus/audwhat_stim/string cello_low-pitch_Ftri_loud.wav,stimulus/audwhat_stim/match_blank.png,stimulus/audwhat_stim/match_box.png,stimulus/audwhat_stim/match_yes.png,stimulus/audwhat_stim/match_no.png,1.0,Match,Pitch,Pitch,1,5.125,0,5.125,0,5.125,0,5.125,0,0.625,0.625,0,0.0,0,0.0,0,0.0,0,0.0,1,0.5,1,2.125,1,0.5,1,2.125,0,,,,,0,7,7,7,,,,,,,,,97.0409169579998,102.15556920800009,97.0409169579998,97.0409169579998,97.0409169579998,97.0409169579998,97.49418574999982,98.49207295799988,97.50677712466656,,99.11601954099979,100.11284337500001,99.12714470766674,100.12058683299983,102.15556920800009,102.86537300000009,104.93769199999997,108.99493358299969,102.86537300000009,102.86537300000009,108.01230720800004,102.86537300000009,102.86537300000009,102.86537300000009,102.86537300000009,103.31511624999985,104.35216095799979,103.28656783266639,,104.93769199999997,105.9808439579997,104.9089534166667,,102.86537300000009,108.01230720800004,102.86537300000009,108.01230720800004,108.05367320799996,108.72884220800006,102.86537300000009,1,1,1.0282913749997533,reldom2_s004,001,2025-01-23_11h51.55.578,What-A-Scan_AC,2022.2.5,None,
0,0.0,None,fixation,stimulus/audwhat_stim/blank_white.png,stimulus/audwhat_stim/blank_white.png,stimulus/viswhat_stim/blank_white.png,stimulus/viswhat_stim/blank_white.png,stimulus/audwhat_stim/blank_white.png,stimulus/audwhat_stim/blank_white.png,stimulus/audwhat_stim/blank_white.png,stimulus/audwhat_stim/blank_white.png,0.0,0.0,0.0,0.0,0,0.0,0,0.0,0,0.0,0,0.0,0,0.0,0.0,0,0.0,0,0.0,0,0.0,0,0.0,0,0.0,0,0.0,0,0.0,0,0.0,9,,,,,0,8,8,8,,,,,,,,,108.99493358299969,108.99493358299969,108.99493358299969,108.99493358299969,108.99493358299969,108.99493358299969,108.99493358299969,108.99493358299969,108.90153433333319,108.99493358299969,108.99493358299969,108.99493358299969,108.90153433333319,108.99493358299969,108.99493358299969,108.99493358299969,108.99493358299969,108.99493358299969,108.99493358299969,108.99493358299969,108.99493358299969,108.99493358299969,108.99493358299969,108.99493358299969,108.99493358299969,108.99493358299969,108.99493358299969,108.9515343333332,108.99493358299969,108.99493358299969,108.99493358299969,108.9515343333332,108.99493358299969,108.99493358299969,108.99493358299969,108.99493358299969,108.99493358299969,114.21925258300007,114.21925258300007,118.24267879099989,None,0,,reldom2_s004,001,2025-01-23_11h51.55.578,What-A-Scan_AC,2022.2.5,None,
7,First_Order,2.0,audwhat,stimulus/audwhat_stim/dummy.wav,stimulus/audwhat_stim/dummy.wav,stimulus/audwhat_stim/string cello_low-pitch_F_loud.wav,stimulus/audwhat_stim/percussion mallet_low-pitch_F_loud.wav,stimulus/audwhat_stim/blank_white.png,stimulus/audwhat_stim/pitch_box.png,stimulus/audwhat_stim/pitch_yes.png,stimulus/audwhat_stim/pitch_no.png,None,Pitch,None,Pitch,1,0.0,0,5.125,0,5.125,0,5.125,0,0.0,0.625,0,0.0,0,0.0,0,0.0,0,0.0,0,0.0,0,0.0,1,0.5,1,2.125,0,,,,,0,9,9,9,,,,,,,,,118.24267879099989,118.24267879099989,118.24267879099989,118.24267879099989,118.24267879099989,118.24267879099989,118.24267879099989,118.24267879099989,118.17235441666678,118.24267879099989,118.24267879099989,118.24267879099989,118.17235441666678,118.24267879099989,118.24267879099989,118.24267879099989,120.33936008299997,124.3665821249997,118.24267879099989,118.24267879099989,123.39533987499999,118.24267879099989,118.24267879099989,118.24267879099989,118.24267879099989,118.69845329100008,119.74690658300005,118.66904466666644,,120.33936008299997,121.39396429099997,120.31036274966642,121.34774145799975,118.24267879099989,123.39533987499999,118.24267879099989,123.39533987499999,123.43570066599978,124.11666620799997,118.24267879099989,1,1,0.6780813750001471,reldom2_s004,001,2025-01-23_11h51.55.578,What-A-Scan_AC,2022.2.5,None,
8,First_Order,2.0,audwhat,stimulus/audwhat_stim/dummy.wav,stimulus/audwhat_stim/dummy.wav,stimulus/audwhat_stim/string cello_low-pitch_Dtri_loud.wav,stimulus/audwhat_stim/percussion mallet_low-pitch_Dtri_loud.wav,stimulus/audwhat_stim/blank_white.png,stimulus/audwhat_stim/category_box.png,stimulus/audwhat_stim/category_yes.png,stimulus/audwhat_stim/category_no.png,None,Category,None,Pitch,2,0.0,0,5.125,0,5.125,0,5.125,0,0.0,0.625,0,0.0,0,0.0,0,0.0,0,0.0,0,0.0,0,0.0,1,0.5,1,2.125,0,,,,,0,10,10,10,,,,,,,,,124.3665821249997,124.3665821249997,124.3665821249997,124.3665821249997,124.3665821249997,124.3665821249997,124.3665821249997,124.3665821249997,124.29014599933328,124.3665821249997,124.3665821249997,124.3665821249997,124.29014599933328,124.3665821249997,124.3665821249997,124.3665821249997,126.47851479099972,130.49180120799974,124.3665821249997,124.3665821249997,129.55456641599994,124.3665821249997,124.3665821249997,124.3665821249997,124.3665821249997,124.82553749999988,125.8805589159997,124.79645874966651,,126.47851479099972,127.5398568329997,126.44849129166666,,124.3665821249997,129.55456641599994,124.3665821249997,129.55456641599994,129.59510691600008,130.28132504099995,124.3665821249997,2,1,0.8645752500001436,reldom2_s004,001,2025-01-23_11h51.55.578,What-A-Scan_AC,2022.2.5,None,
9,First_Order,2.0,audwhat,stimulus/audwhat_stim/dummy.wav,stimulus/audwhat_stim/dummy.wav,stimulus/audwhat_stim/string cello_high-pitch_F_loud.wav,stimulus/audwhat_stim/percussion mallet_high-pitch_F_loud.wav,stimulus/audwhat_stim/blank_white.png,stimulus/audwhat_stim/pitch_box.png,stimulus/audwhat_stim/pitch_yes.png,stimulus/audwhat_stim/pitch_no.png,None,Pitch,None,Pitch,1,0.0,0,5.125,0,5.125,0,5.125,0,0.0,0.625,0,0.0,0,0.0,0,0.0,0,0.0,0,0.0,0,0.0,1,0.5,1,2.125,0,,,,,0,11,11,11,,,,,,,,,130.49180120799974,130.49180120799974,130.49180120799974,130.49180120799974,130.49180120799974,130.49180120799974,130.49180120799974,130.49180120799974,130.4146583743333,130.49180120799974,130.49180120799974,130.49180120799974,130.4146583743333,130.49180120799974,130.49180120799974,130.49180120799974,132.59920883299992,136.60963166600004,130.49180120799974,130.49180120799974,135.67186712500006,130.49180120799974,130.49180120799974,130.49180120799974,130.49180120799974,130.94909825000013,132.00231562499994,130.91969908266654,,132.59920883299992,133.65751470799978,132.5702628746665,,130.49180120799974,135.67186712500006,130.49180120799974,135.67186712500006,135.71312591600008,136.39782520800009,130.49180120799974,1,1,0.5447859999999309,reldom2_s004,001,2025-01-23_11h51.55.578,What-A-Scan_AC,2022.2.5,None,
10,First_Order,2.0,audwhat,stimulus/audwhat_stim/dummy.wav,stimulus/audwhat_stim/dummy.wav,stimulus/audwhat_stim/percussion xylophone_high-pitch_D_loud.wav,stimulus/audwhat_stim/string cello_high-pitch_D_loud.wav,stimulus/audwhat_stim/blank_white.png,stimulus/audwhat_stim/category_box.png,stimulus/audwhat_stim/category_yes.png,stimulus/audwhat_stim/category_no.png,None,Category,None,Pitch,2,0.0,0,5.125,0,5.125,0,5.125,0,0.0,0.625,0,0.0,0,0.0,0,0.0,0,0.0,0,0.0,0,0.0,1,0.5,1,2.125,0,,,,,0,12,12,12,,,,,,,,,136.60963166600004,136.60963166600004,136.60963166600004,136.60963166600004,136.60963166600004,136.60963166600004,136.60963166600004,136.60963166600004,136.53115854133344,136.60963166600004,136.60963166600004,136.60963166600004,136.53115854133344,136.60963166600004,136.60963166600004,136.60963166600004,138.68931512500012,142.74290266599974,136.60963166600004,136.60963166600004,141.78066841600003,136.60963166600004,136.60963166600004,136.60963166600004,136.60963166600004,137.0717092079999,138.13670300000013,137.0421652496664,138.0909866249999,138.68931512500012,139.75420945799988,138.65924233266676,,136.60963166600004,141.78066841600003,136.60963166600004,141.78066841600003,141.82111504099976,142.47192362499982,136.60963166600004,2,1,0.9793344580002667,reldom2_s004,001,2025-01-23_11h51.55.578,What-A-Scan_AC,2022.2.5,None,
0,0.0,None,fixation,stimulus/audwhat_stim/blank_white.png,stimulus/audwhat_stim/blank_white.png,stimulus/viswhat_stim/blank_white.png,stimulus/viswhat_stim/blank_white.png,stimulus/audwhat_stim/blank_white.png,stimulus/audwhat_stim/blank_white.png,stimulus/audwhat_stim/blank_white.png,stimulus/audwhat_stim/blank_white.png,0.0,0.0,0.0,0.0,0,0.0,0,0.0,0,0.0,0,0.0,0,0.0,0.0,0,0.0,0,0.0,0,0.0,0,0.0,0,0.0,0,0.0,0,0.0,0,0.0,10,,,,,0,13,13,13,,,,,,,,,142.74290266599974,142.74290266599974,142.74290266599974,142.74290266599974,142.74290266599974,142.74290266599974,142.74290266599974,142.74290266599974,142.6459589163334,142.74290266599974,142.74290266599974,142.74290266599974,142.6459589163334,142.74290266599974,142.74290266599974,142.74290266599974,142.74290266599974,142.74290266599974,142.74290266599974,142.74290266599974,142.74290266599974,142.74290266599974,142.74290266599974,142.74290266599974,142.74290266599974,142.74290266599974,142.74290266599974,142.69595891633338,142.74290266599974,142.74290266599974,142.74290266599974,142.69595891633338,142.74290266599974,142.74290266599974,142.74290266599974,142.74290266599974,142.74290266599974,147.9692058329997,147.9692058329997,152.87326266599985,None,0,,reldom2_s004,001,2025-01-23_11h51.55.578,What-A-Scan_AC,2022.2.5,None,
11,Second_Order,2.0,audwhat,stimulus/audwhat_stim/string viola_high-pitch_D_loud.wav,stimulus/audwhat_stim/percussion xylophone_high-pitch_D_loud.wav,stimulus/audwhat_stim/percussion mallet_low-pitch_F_loud.wav,stimulus/audwhat_stim/string viola_low-pitch_F_loud.wav,stimulus/audwhat_stim/match_blank.png,stimulus/audwhat_stim/match_box.png,stimulus/audwhat_stim/match_yes.png,stimulus/audwhat_stim/match_no.png,1.0,Match,Pitch,Pitch,1,5.125,0,5.125,0,5.125,0,5.125,0,0.75,0.75,0,0.0,0,0.0,0,0.0,0,0.0,1,0.5,1,2.125,1,0.5,1,2.125,0,,,,,0,14,14,14,,,,,,,,,152.87326266599985,157.99621145799983,152.87326266599985,152.87326266599985,152.87326266599985,152.87326266599985,153.32294054099975,154.32093987500002,153.3353524996667,,154.95571383300012,155.94497545800004,154.9593318746668,155.9580048329999,157.99621145799983,158.82949816600012,160.89203179100014,164.84552433299996,158.82949816600012,158.82949816600012,164.00468524999997,158.82949816600012,158.82949816600012,158.82949816600012,158.82949816600012,159.28630154099983,160.3431472909997,159.25751266666637,160.29760179100003,160.89203179100014,161.94559779099973,160.86252199966637,,158.82949816600012,164.00468524999997,158.82949816600012,164.00468524999997,164.0461406659997,,158.82949816600012,1,1,1.0754215839997414,reldom2_s004,001,2025-01-23_11h51.55.578,What-A-Scan_AC,2022.2.5,None,
12,Second_Order,2.0,audwhat,stimulus/audwhat_stim/percussion mallet_high-pitch_Dtri_loud.wav,stimulus/audwhat_stim/string viola_high-pitch_Dtri_loud.wav,stimulus/audwhat_stim/string viola_low-pitch_Dtri_loud.wav,stimulus/audwhat_stim/percussion mallet_low-pitch_Dtri_loud.wav,stimulus/audwhat_stim/match_blank.png,stimulus/audwhat_stim/match_box.png,stimulus/audwhat_stim/match_yes.png,stimulus/audwhat_stim/match_no.png,1.0,Match,Pitch,Pitch,1,5.125,0,5.125,0,5.125,0,5.125,0,0.625,0.625,0,0.0,0,0.0,0,0.0,0,0.0,1,0.5,1,2.125,1,0.5,1,2.125,0,,,,,0,15,15,15,,,,,,,,,164.84552433299996,169.96193404099995,164.84552433299996,164.84552433299996,164.84552433299996,164.84552433299996,165.29905849999977,166.28535091599997,165.3128771246668,166.30680949999987,166.9213695829999,167.9191797909998,166.9334087496666,,169.96193404099995,170.67050358300003,172.77006462500003,176.79446999999982,170.67050358300003,170.67050358300003,175.83202383299977,170.67050358300003,170.67050358300003,170.67050358300003,170.67050358300003,171.12695333300007,172.17631070800007,171.0980254576664,,172.77006462500003,173.82536383299976,172.74075416666645,173.77952212499986,170.67050358300003,175.83202383299977,170.67050358300003,175.83202383299977,175.87186562499983,176.52349774999993,170.67050358300003,1,1,0.8169650830000137,reldom2_s004,001,2025-01-23_11h51.55.578,What-A-Scan_AC,2022.2.5,None,
0,0.0,None,fixation,stimulus/audwhat_stim/blank_white.png,stimulus/audwhat_stim/blank_white.png,stimulus/viswhat_stim/blank_white.png,stimulus/viswhat_stim/blank_white.png,stimulus/audwhat_stim/blank_white.png,stimulus/audwhat_stim/blank_white.png,stimulus/audwhat_stim/blank_white.png,stimulus/audwhat_stim/blank_white.png,0.0,0.0,0.0,0.0,0,0.0,0,0.0,0,0.0,0,0.0,0,0.0,0.0,0,0.0,0,0.0,0,0.0,0,0.0,0,0.0,0,0.0,0,0.0,0,0.0,8,,,,,0,16,16,16,,,,,,,,,176.79446999999982,176.79446999999982,176.79446999999982,176.79446999999982,176.79446999999982,176.79446999999982,176.79446999999982,176.79446999999982,176.69797649933312,176.79446999999982,176.79446999999982,176.79446999999982,176.69797649933312,176.79446999999982,176.79446999999982,176.79446999999982,176.79446999999982,176.79446999999982,176.79446999999982,176.79446999999982,176.79446999999982,176.79446999999982,176.79446999999982,176.79446999999982,176.79446999999982,176.79446999999982,176.79446999999982,176.7479764993331,176.79446999999982,176.79446999999982,176.79446999999982,176.7479764993331,176.79446999999982,176.79446999999982,176.79446999999982,176.79446999999982,176.79446999999982,181.98622683299982,181.98622683299982,185.1963438749999,None,0,,reldom2_s004,001,2025-01-23_11h51.55.578,What-A-Scan_AC,2022.2.5,None,
13,First_Order,3.0,viswhat,stimulus/viswhat_stim/blank_white.png,stimulus/viswhat_stim/blank_white.png,stimulus/viswhat_stim/water_vehicle-cruiseship.png,stimulus/viswhat_stim/land_vehicle-pickuptruck.png,stimulus/viswhat_stim/blank_white.png,stimulus/viswhat_stim/type_box.png,stimulus/viswhat_stim/type_yes.png,stimulus/viswhat_stim/type_no.png,None,Type,None,Type,1,0.0,0,5.125,0,5.125,0,5.125,0,0.0,0.625,0,0.0,0,0.0,1,0.5,1,2.125,0,0.0,0,0.0,0,0.0,0,0.0,0,,,,,0,17,17,17,,,,,,,,,185.1963438749999,185.1963438749999,185.1963438749999,185.1963438749999,185.1963438749999,185.1963438749999,185.1963438749999,185.1963438749999,184.99649237466673,185.1963438749999,185.1963438749999,185.1963438749999,184.99649237466673,185.1963438749999,185.1963438749999,185.1963438749999,187.24330254100005,,185.1963438749999,185.1963438749999,190.47056999999995,185.58751937499983,186.75769979100005,187.24330254100005,188.42076445800012,185.1963438749999,185.1963438749999,185.09649237466672,185.1963438749999,185.1963438749999,185.1963438749999,185.09649237466672,185.1963438749999,185.1963438749999,190.47056999999995,185.1963438749999,190.47056999999995,190.37865570799977,,185.1963438749999,1,1,0.9516085000000203,reldom2_s004,001,2025-01-23_11h51.55.578,What-A-Scan_AC,2022.2.5,None,
14,First_Order,3.0,viswhat,stimulus/viswhat_stim/blank_white.png,stimulus/viswhat_stim/blank_white.png,stimulus/viswhat_stim/water_animal-lobster.png,stimulus/viswhat_stim/water_vehicle-cruiseship.png,stimulus/viswhat_stim/blank_white.png,stimulus/viswhat_stim/location_box.png,stimulus/viswhat_stim/location_yes.png,stimulus/viswhat_stim/location_no.png,None,Location,None,Location,1,0.0,0,5.125,0,5.125,0,5.125,0,0.0,0.625,0,0.0,0,0.0,1,0.5,1,2.125,0,0.0,0,0.0,0,0.0,0,0.0,0,,,,,0,18,18,18,,,,,,,,,191.61678429099993,191.61678429099993,191.61678429099993,191.61678429099993,191.61678429099993,191.61678429099993,191.61678429099993,191.61678429099993,191.1653676663334,191.61678429099993,191.61678429099993,191.61678429099993,191.1653676663334,191.61678429099993,191.61678429099993,191.61678429099993,193.61764683299998,,191.61678429099993,191.61678429099993,196.95828674999984,192.06183437499976,193.3933377909998,193.61764683299998,194.95807879099993,191.61678429099993,191.61678429099993,191.39870099966672,191.61678429099993,191.61678429099993,191.61678429099993,191.39870099966672,191.61678429099993,191.61678429099993,196.95828674999984,191.61678429099993,196.95828674999984,196.7424148330001,,191.61678429099993,1,1,0.9523751669999001,reldom2_s004,001,2025-01-23_11h51.55.578,What-A-Scan_AC,2022.2.5,None,
15,First_Order,3.0,viswhat,stimulus/viswhat_stim/blank_white.png,stimulus/viswhat_stim/blank_white.png,stimulus/viswhat_stim/water_vehicle-cruiseship.png,stimulus/viswhat_stim/land_vehicle-bus.png,stimulus/viswhat_stim/blank_white.png,stimulus/viswhat_stim/location_box.png,stimulus/viswhat_stim/location_yes.png,stimulus/viswhat_stim/location_no.png,None,Location,None,Type,2,0.0,0,5.125,0,5.125,0,5.125,0,0.0,0.625,0,0.0,0,0.0,1,0.5,1,2.125,0,0.0,0,0.0,0,0.0,0,0.0,0,,,,,0,19,19,19,,,,,,,,,197.6441782500001,197.6441782500001,197.6441782500001,197.6441782500001,197.6441782500001,197.6441782500001,197.6441782500001,197.6441782500001,197.4416200833332,197.6441782500001,197.6441782500001,197.6441782500001,197.4416200833332,197.6441782500001,197.6441782500001,197.6441782500001,199.68665587499981,203.75399779100007,197.6441782500001,197.6441782500001,202.8527477499997,198.05385458299997,199.1770852499999,199.68665587499981,200.8124258329999,197.6441782500001,197.6441782500001,197.54162008333319,197.6441782500001,197.6441782500001,197.6441782500001,197.54162008333319,197.6441782500001,197.6441782500001,202.8527477499997,197.6441782500001,202.8527477499997,202.8527477499997,,197.6441782500001,2,1,1.1119315830001142,reldom2_s004,001,2025-01-23_11h51.55.578,What-A-Scan_AC,2022.2.5,None,
16,First_Order,3.0,viswhat,stimulus/viswhat_stim/blank_white.png,stimulus/viswhat_stim/blank_white.png,stimulus/viswhat_stim/land_vehicle-oldcar.png,stimulus/viswhat_stim/water_vehicle-pirateship.png,stimulus/viswhat_stim/blank_white.png,stimulus/viswhat_stim/type_box.png,stimulus/viswhat_stim/type_yes.png,stimulus/viswhat_stim/type_no.png,None,Type,None,Type,1,0.0,0,5.125,0,5.125,0,5.125,0,0.0,0.625,0,0.0,0,0.0,1,0.5,1,2.125,0,0.0,0,0.0,0,0.0,0,0.0,0,,,,,0,20,20,20,,,,,,,,,203.75399779100007,203.75399779100007,203.75399779100007,203.75399779100007,203.75399779100007,203.75399779100007,203.75399779100007,203.75399779100007,203.68101283299984,203.75399779100007,203.75399779100007,203.75399779100007,203.68101283299984,203.75399779100007,203.75399779100007,203.75399779100007,205.827958458,,203.75399779100007,203.75399779100007,208.90027354099993,204.23095379100005,205.26810483300005,205.827958458,206.86951150000004,203.75399779100007,203.75399779100007,203.7143461663332,203.75399779100007,203.75399779100007,203.75399779100007,203.7143461663332,203.75399779100007,203.75399779100007,208.90027354099993,203.75399779100007,208.90027354099993,208.9753301249998,209.65185225000005,203.75399779100007,1,1,0.7931089999997312,reldom2_s004,001,2025-01-23_11h51.55.578,What-A-Scan_AC,2022.2.5,None,
0,0.0,None,fixation,stimulus/audwhat_stim/blank_white.png,stimulus/audwhat_stim/blank_white.png,stimulus/viswhat_stim/blank_white.png,stimulus/viswhat_stim/blank_white.png,stimulus/audwhat_stim/blank_white.png,stimulus/audwhat_stim/blank_white.png,stimulus/audwhat_stim/blank_white.png,stimulus/audwhat_stim/blank_white.png,0.0,0.0,0.0,0.0,0,0.0,0,0.0,0,0.0,0,0.0,0,0.0,0.0,0,0.0,0,0.0,0,0.0,0,0.0,0,0.0,0,0.0,0,0.0,0,0.0,9,,,,,0,21,21,21,,,,,,,,,209.88112795799998,209.88112795799998,209.88112795799998,209.88112795799998,209.88112795799998,209.88112795799998,209.88112795799998,209.88112795799998,209.7851855833334,209.88112795799998,209.88112795799998,209.88112795799998,209.7851855833334,209.88112795799998,209.88112795799998,209.88112795799998,209.88112795799998,209.88112795799998,209.88112795799998,209.88112795799998,209.88112795799998,209.88112795799998,209.88112795799998,209.88112795799998,209.88112795799998,209.88112795799998,209.88112795799998,209.83518558333338,209.88112795799998,209.88112795799998,209.88112795799998,209.83518558333338,209.88112795799998,209.88112795799998,209.88112795799998,209.88112795799998,209.88112795799998,215.09805304099973,215.09805304099973,219.0144984579997,None,0,,reldom2_s004,001,2025-01-23_11h51.55.578,What-A-Scan_AC,2022.2.5,None,
17,Second_Order,3.0,viswhat,stimulus/viswhat_stim/water_animal-shark.png,stimulus/viswhat_stim/water_vehicle-pirateship.png,stimulus/viswhat_stim/water_animal-squid.png,stimulus/viswhat_stim/land_animal-elephant.png,stimulus/audwhat_stim/match_blank.png,stimulus/audwhat_stim/match_box.png,stimulus/audwhat_stim/match_yes.png,stimulus/audwhat_stim/match_no.png,2.0,Match,Location,Type,2,5.125,0,5.125,0,5.125,0,5.125,0,0.75,0.75,1,0.5,1,2.125,1,0.5,1,2.125,0,0.0,0,0.0,0,0.0,0,0.0,0,,,,,0,22,22,22,,,,,,,,,219.0144984579997,224.13659908299996,219.47566491599991,220.47353266599976,221.09614695799974,222.09390649999978,219.0144984579997,219.0144984579997,219.0241998749997,219.0144984579997,219.0144984579997,219.0144984579997,219.0241998749997,219.0144984579997,224.13659908299996,225.0139181659997,227.08211283299988,,225.0139181659997,225.0139181659997,230.2292353329999,225.4783809579999,226.5464496249997,227.08211283299988,228.15693424999972,225.0139181659997,225.0139181659997,224.95478216633305,225.0139181659997,225.0139181659997,225.0139181659997,224.95478216633305,225.0139181659997,225.0139181659997,230.2292353329999,225.0139181659997,230.2292353329999,230.2292353329999,,225.0139181659997,2,1,0.7996484170002987,reldom2_s004,001,2025-01-23_11h51.55.578,What-A-Scan_AC,2022.2.5,None,
18,Second_Order,3.0,viswhat,stimulus/viswhat_stim/land_vehicle-pickuptruck.png,stimulus/viswhat_stim/water_vehicle-pirateship.png,stimulus/viswhat_stim/water_animal-jellyfish.png,stimulus/viswhat_stim/land_animal-snake.png,stimulus/audwhat_stim/match_blank.png,stimulus/audwhat_stim/match_box.png,stimulus/audwhat_stim/match_yes.png,stimulus/audwhat_stim/match_no.png,1.0,Match,Type,Type,1,5.125,0,5.125,0,5.125,0,5.125,0,0.625,0.625,1,0.5,1,2.125,1,0.5,1,2.125,0,0.0,0,0.0,0,0.0,0,0.0,0,,,,,0,23,23,23,,,,,,,,,230.97983854099994,236.09756779100007,231.4526954580001,232.45107704099973,233.07449495799983,234.07136104099982,230.97983854099994,230.97983854099994,230.99233212499976,230.97983854099994,230.97983854099994,230.97983854099994,230.99233212499976,230.97983854099994,236.09756779100007,236.7736736249999,238.864101958,242.89853191600014,236.7736736249999,236.7736736249999,241.90508633299987,237.2396558329997,238.25821533299995,238.864101958,239.88995662499974,236.7736736249999,236.7736736249999,236.76109770800014,236.7736736249999,236.7736736249999,236.7736736249999,236.76109770800014,236.7736736249999,236.7736736249999,241.90508633299987,236.7736736249999,241.90508633299987,241.97081716599996,242.6103171249997,236.7736736249999,1,1,0.698020458999963,reldom2_s004,001,2025-01-23_11h51.55.578,What-A-Scan_AC,2022.2.5,None,
0,0.0,None,fixation,stimulus/audwhat_stim/blank_white.png,stimulus/audwhat_stim/blank_white.png,stimulus/viswhat_stim/blank_white.png,stimulus/viswhat_stim/blank_white.png,stimulus/audwhat_stim/blank_white.png,stimulus/audwhat_stim/blank_white.png,stimulus/audwhat_stim/blank_white.png,stimulus/audwhat_stim/blank_white.png,0.0,0.0,0.0,0.0,0,0.0,0,0.0,0,0.0,0,0.0,0,0.0,0.0,0,0.0,0,0.0,0,0.0,0,0.0,0,0.0,0,0.0,0,0.0,0,0.0,8,,,,,0,24,24,24,,,,,,,,,242.89853191600014,242.89853191600014,242.89853191600014,242.89853191600014,242.89853191600014,242.89853191600014,242.89853191600014,242.89853191600014,242.79851900000006,242.89853191600014,242.89853191600014,242.89853191600014,242.79851900000006,242.89853191600014,242.89853191600014,242.89853191600014,242.89853191600014,242.89853191600014,242.89853191600014,242.89853191600014,242.89853191600014,242.89853191600014,242.89853191600014,242.89853191600014,242.89853191600014,242.89853191600014,242.89853191600014,242.84851900000004,242.89853191600014,242.89853191600014,242.89853191600014,242.84851900000004,242.89853191600014,242.89853191600014,242.89853191600014,242.89853191600014,242.89853191600014,248.08033533299977,248.08033533299977,251.09273124999982,None,0,,reldom2_s004,001,2025-01-23_11h51.55.578,What-A-Scan_AC,2022.2.5,None,
19,First_Order,4.0,viswhat,stimulus/viswhat_stim/blank_white.png,stimulus/viswhat_stim/blank_white.png,stimulus/viswhat_stim/land_animal-wolf.png,stimulus/viswhat_stim/water_animal-squid.png,stimulus/viswhat_stim/blank_white.png,stimulus/viswhat_stim/location_box.png,stimulus/viswhat_stim/location_yes.png,stimulus/viswhat_stim/location_no.png,None,Location,None,Type,2,0.0,0,5.125,0,5.125,0,5.125,0,0.0,0.625,0,0.0,0,0.0,1,0.5,1,2.125,0,0.0,0,0.0,0,0.0,0,0.0,0,,,,,0,25,25,25,,,,,,,,,251.09273124999982,251.09273124999982,251.09273124999982,251.09273124999982,251.09273124999982,251.09273124999982,251.09273124999982,251.09273124999982,251.04939183266669,251.09273124999982,251.09273124999982,251.09273124999982,251.04939183266669,251.09273124999982,251.09273124999982,251.09273124999982,253.20492699999977,257.1825194580001,251.09273124999982,251.09273124999982,256.23998470800007,251.55282533299987,252.59409983299975,253.20492699999977,254.22017579099975,251.09273124999982,251.09273124999982,251.06605849933334,251.09273124999982,251.09273124999982,251.09273124999982,251.06605849933334,251.09273124999982,251.09273124999982,256.23998470800007,251.09273124999982,256.23998470800007,256.31465345800007,256.9618251659999,251.09273124999982,2,1,1.1065511669999069,reldom2_s004,001,2025-01-23_11h51.55.578,What-A-Scan_AC,2022.2.5,None,
20,First_Order,4.0,viswhat,stimulus/viswhat_stim/blank_white.png,stimulus/viswhat_stim/blank_white.png,stimulus/viswhat_stim/water_animal-jellyfish.png,stimulus/viswhat_stim/water_vehicle-motorboatraft.png,stimulus/viswhat_stim/blank_white.png,stimulus/viswhat_stim/location_box.png,stimulus/viswhat_stim/location_yes.png,stimulus/viswhat_stim/location_no.png,None,Location,None,Location,1,0.0,0,5.125,0,5.125,0,5.125,0,0.0,0.625,0,0.0,0,0.0,1,0.5,1,2.125,0,0.0,0,0.0,0,0.0,0,0.0,0,,,,,0,26,26,26,,,,,,,,,257.1825194580001,257.1825194580001,257.1825194580001,257.1825194580001,257.1825194580001,257.1825194580001,257.1825194580001,257.1825194580001,257.1359937079997,257.1825194580001,257.1825194580001,257.1825194580001,257.1359937079997,257.1825194580001,257.1825194580001,257.1825194580001,259.27227349999976,263.3567129580001,257.1825194580001,257.1825194580001,262.329278875,257.64877120799974,258.6669354159999,259.27227349999976,260.2957296249997,257.1825194580001,257.1825194580001,257.1693270413331,257.1825194580001,257.1825194580001,257.1825194580001,257.1693270413331,257.1825194580001,257.1825194580001,262.329278875,257.1825194580001,262.329278875,262.3942414580001,263.0440629579998,257.1825194580001,1,1,0.7615423330003068,reldom2_s004,001,2025-01-23_11h51.55.578,What-A-Scan_AC,2022.2.5,None,
21,First_Order,4.0,viswhat,stimulus/viswhat_stim/blank_white.png,stimulus/viswhat_stim/blank_white.png,stimulus/viswhat_stim/land_animal-elephant.png,stimulus/viswhat_stim/land_vehicle-buldozer.png,stimulus/viswhat_stim/blank_white.png,stimulus/viswhat_stim/type_box.png,stimulus/viswhat_stim/type_yes.png,stimulus/viswhat_stim/type_no.png,None,Type,None,Location,2,0.0,0,5.125,0,5.125,0,5.125,0,0.0,0.625,0,0.0,0,0.0,1,0.5,1,2.125,0,0.0,0,0.0,0,0.0,0,0.0,0,,,,,0,27,27,27,,,,,,,,,263.3567129580001,263.3567129580001,263.3567129580001,263.3567129580001,263.3567129580001,263.3567129580001,263.3567129580001,263.3567129580001,263.2304891659997,263.3567129580001,263.3567129580001,263.3567129580001,263.2304891659997,263.3567129580001,263.3567129580001,263.3567129580001,265.4649181249997,,263.3567129580001,263.3567129580001,268.553551125,263.77728079100007,264.83289420799974,265.4649181249997,266.52020649999986,263.3567129580001,263.3567129580001,263.29715583266636,263.3567129580001,263.3567129580001,263.3567129580001,263.29715583266636,263.3567129580001,263.3567129580001,268.553551125,263.3567129580001,268.553551125,268.553551125,269.46618224999975,263.3567129580001,2,1,0.8038118340000437,reldom2_s004,001,2025-01-23_11h51.55.578,What-A-Scan_AC,2022.2.5,None,
22,First_Order,4.0,viswhat,stimulus/viswhat_stim/blank_white.png,stimulus/viswhat_stim/blank_white.png,stimulus/viswhat_stim/water_animal-shark.png,stimulus/viswhat_stim/water_vehicle-cabincruiser.png,stimulus/viswhat_stim/blank_white.png,stimulus/viswhat_stim/type_box.png,stimulus/viswhat_stim/type_yes.png,stimulus/viswhat_stim/type_no.png,None,Type,None,Location,2,0.0,0,5.125,0,5.125,0,5.125,0,0.0,0.625,0,0.0,0,0.0,1,0.5,1,2.125,0,0.0,0,0.0,0,0.0,0,0.0,0,,,,,0,28,28,28,,,,,,,,,269.46618224999975,269.46618224999975,269.46618224999975,269.46618224999975,269.46618224999975,269.46618224999975,269.46618224999975,269.46618224999975,269.3803943333332,269.46618224999975,269.46618224999975,269.46618224999975,269.3803943333332,269.46618224999975,269.46618224999975,269.46618224999975,271.577100041,275.6146478329997,269.46618224999975,269.46618224999975,274.651701625,269.944918875,271.002502541,271.577100041,272.63422025,269.46618224999975,269.46618224999975,269.43039433333314,269.46618224999975,269.46618224999975,269.46618224999975,269.43039433333314,269.46618224999975,269.46618224999975,274.651701625,269.46618224999975,274.651701625,274.651701625,275.32752549999987,269.46618224999975,2,1,1.2147468749999462,reldom2_s004,001,2025-01-23_11h51.55.578,What-A-Scan_AC,2022.2.5,None,
0,0.0,None,fixation,stimulus/audwhat_stim/blank_white.png,stimulus/audwhat_stim/blank_white.png,stimulus/viswhat_stim/blank_white.png,stimulus/viswhat_stim/blank_white.png,stimulus/audwhat_stim/blank_white.png,stimulus/audwhat_stim/blank_white.png,stimulus/audwhat_stim/blank_white.png,stimulus/audwhat_stim/blank_white.png,0.0,0.0,0.0,0.0,0,0.0,0,0.0,0,0.0,0,0.0,0,0.0,0.0,0,0.0,0,0.0,0,0.0,0,0.0,0,0.0,0,0.0,0,0.0,0,0.0,9,,,,,0,29,29,29,,,,,,,,,275.6146478329997,275.6146478329997,275.6146478329997,275.6146478329997,275.6146478329997,275.6146478329997,275.6146478329997,275.6146478329997,275.5031499163334,275.6146478329997,275.6146478329997,275.6146478329997,275.5031499163334,275.6146478329997,275.6146478329997,275.6146478329997,275.6146478329997,275.6146478329997,275.6146478329997,275.6146478329997,275.6146478329997,275.6146478329997,275.6146478329997,275.6146478329997,275.6146478329997,275.6146478329997,275.6146478329997,275.5698165830001,275.6146478329997,275.6146478329997,275.6146478329997,275.5698165830001,275.6146478329997,275.6146478329997,275.6146478329997,275.6146478329997,275.6146478329997,280.8131519999997,280.8131519999997,284.75703620800005,None,0,,reldom2_s004,001,2025-01-23_11h51.55.578,What-A-Scan_AC,2022.2.5,None,
23,Second_Order,4.0,viswhat,stimulus/viswhat_stim/water_vehicle-canoe(1).png,stimulus/viswhat_stim/land_vehicle-vespa.png,stimulus/viswhat_stim/land_animal-dog.png,stimulus/viswhat_stim/water_animal-jellyfish.png,stimulus/audwhat_stim/match_blank.png,stimulus/audwhat_stim/match_box.png,stimulus/audwhat_stim/match_yes.png,stimulus/audwhat_stim/match_no.png,1.0,Match,Type,Type,1,5.125,0,5.125,0,5.125,0,5.125,0,0.75,0.75,1,0.5,1,2.125,1,0.5,1,2.125,0,0.0,0,0.0,0,0.0,0,0.0,0,,,,,0,30,30,30,,,,,,,,,284.75703620800005,289.87181170799977,285.22311654099985,286.2120518329998,286.85017274999973,287.84558545799973,284.75703620800005,284.75703620800005,284.770477208,284.75703620800005,284.75703620800005,284.75703620800005,284.770477208,284.75703620800005,289.87181170799977,290.670100583,292.769735375,,290.670100583,290.670100583,295.82454341599987,291.1278098749999,292.1661921249997,292.769735375,293.78469099999984,290.670100583,290.670100583,290.65603949999996,290.670100583,290.670100583,290.670100583,290.65603949999996,290.670100583,290.670100583,295.82454341599987,290.670100583,295.82454341599987,295.8709819579999,,290.670100583,1,1,0.6157917909999924,reldom2_s004,001,2025-01-23_11h51.55.578,What-A-Scan_AC,2022.2.5,None,
24,Second_Order,4.0,viswhat,stimulus/viswhat_stim/land_vehicle-tank.png,stimulus/viswhat_stim/water_vehicle-canoe(1).png,stimulus/viswhat_stim/water_animal-orka.png,stimulus/viswhat_stim/water_vehicle-cabincruiser.png,stimulus/audwhat_stim/match_blank.png,stimulus/audwhat_stim/match_box.png,stimulus/audwhat_stim/match_yes.png,stimulus/audwhat_stim/match_no.png,2.0,Match,Type,Location,2,5.125,0,5.125,0,5.125,0,5.125,0,0.625,0.625,1,0.5,1,2.125,1,0.5,1,2.125,0,0.0,0,0.0,0,0.0,0,0.0,0,,,,,0,31,31,31,,,,,,,,,296.6476427909997,301.7655924159999,297.1208830830001,298.11915662499996,298.754146625,299.7448393750001,296.6476427909997,296.6476427909997,296.6554589996668,296.6476427909997,296.6476427909997,296.6476427909997,296.6554589996668,296.6476427909997,301.7655924159999,302.53950183300003,304.6378783750001,,302.53950183300003,302.53950183300003,307.7556722909999,303.0051457499999,304.0935078329999,304.6378783750001,305.73157012499996,302.53950183300003,302.53950183300003,302.4623603743333,302.53950183300003,302.53950183300003,302.53950183300003,302.4623603743333,302.53950183300003,302.53950183300003,307.7556722909999,302.53950183300003,307.7556722909999,307.7556722909999,,302.53950183300003,2,1,0.8037470839999514,reldom2_s004,001,2025-01-23_11h51.55.578,What-A-Scan_AC,2022.2.5,None,
0,0.0,None,fixation,stimulus/audwhat_stim/blank_white.png,stimulus/audwhat_stim/blank_white.png,stimulus/viswhat_stim/blank_white.png,stimulus/viswhat_stim/blank_white.png,stimulus/audwhat_stim/blank_white.png,stimulus/audwhat_stim/blank_white.png,stimulus/audwhat_stim/blank_white.png,stimulus/audwhat_stim/blank_white.png,0.0,0.0,0.0,0.0,0,0.0,0,0.0,0,0.0,0,0.0,0,0.0,0.0,0,0.0,0,0.0,0,0.0,0,0.0,0,0.0,0,0.0,0,0.0,0,0.0,9,,,,,0,32,32,32,,,,,,,,,308.6380738749999,308.6380738749999,308.6380738749999,308.6380738749999,308.6380738749999,308.6380738749999,308.6380738749999,308.6380738749999,308.5368325829997,308.6380738749999,308.6380738749999,308.6380738749999,308.5368325829997,308.6380738749999,308.6380738749999,308.6380738749999,308.6380738749999,308.6380738749999,308.6380738749999,308.6380738749999,308.6380738749999,308.6380738749999,308.6380738749999,308.6380738749999,308.6380738749999,308.6380738749999,308.6380738749999,308.5868325829997,308.6380738749999,308.6380738749999,308.6380738749999,308.5868325829997,308.6380738749999,308.6380738749999,308.6380738749999,308.6380738749999,308.6380738749999,313.8313829159997,313.8313829159997,317.8991660829997,None,0,,reldom2_s004,001,2025-01-23_11h51.55.578,What-A-Scan_AC,2022.2.5,None,
25,First_Order,5.0,audwhat,stimulus/audwhat_stim/dummy.wav,stimulus/audwhat_stim/dummy.wav,stimulus/audwhat_stim/string cello_low-pitch_Dtri_loud.wav,stimulus/audwhat_stim/percussion mallet_low-pitch_Dtri_loud.wav,stimulus/audwhat_stim/blank_white.png,stimulus/audwhat_stim/pitch_box.png,stimulus/audwhat_stim/pitch_yes.png,stimulus/audwhat_stim/pitch_no.png,None,Pitch,None,Pitch,1,0.0,0,5.125,0,5.125,0,5.125,0,0.0,0.625,0,0.0,0,0.0,0,0.0,0,0.0,0,0.0,0,0.0,1,0.5,1,2.125,0,,,,,0,33,33,33,,,,,,,,,317.8991660829997,317.8991660829997,317.8991660829997,317.8991660829997,317.8991660829997,317.8991660829997,317.8991660829997,317.8991660829997,317.82310287466646,317.8991660829997,317.8991660829997,317.8991660829997,317.82310287466646,317.8991660829997,317.8991660829997,317.8991660829997,319.9851731660001,,317.8991660829997,317.8991660829997,323.056312875,317.8991660829997,317.8991660829997,317.8991660829997,317.8991660829997,318.36362466599985,319.43043258299986,318.33380166666643,,319.9851731660001,321.05784512499986,319.95515870766644,,317.8991660829997,323.056312875,317.8991660829997,323.056312875,323.0973262499997,323.74974195799996,317.8991660829997,1,1,0.7236150829999133,reldom2_s004,001,2025-01-23_11h51.55.578,What-A-Scan_AC,2022.2.5,None,
26,First_Order,5.0,audwhat,stimulus/audwhat_stim/dummy.wav,stimulus/audwhat_stim/dummy.wav,stimulus/audwhat_stim/string cello_low-pitch_F_loud.wav,stimulus/audwhat_stim/percussion mallet_low-pitch_F_loud.wav,stimulus/audwhat_stim/blank_white.png,stimulus/audwhat_stim/pitch_box.png,stimulus/audwhat_stim/pitch_yes.png,stimulus/audwhat_stim/pitch_no.png,None,Pitch,None,Pitch,1,0.0,0,5.125,0,5.125,0,5.125,0,0.0,0.625,0,0.0,0,0.0,0,0.0,0,0.0,0,0.0,0,0.0,1,0.5,1,2.125,0,,,,,0,34,34,34,,,,,,,,,324.00729516599995,324.00729516599995,324.00729516599995,324.00729516599995,324.00729516599995,324.00729516599995,324.00729516599995,324.00729516599995,323.923446708333,324.00729516599995,324.00729516599995,324.00729516599995,323.923446708333,324.00729516599995,324.00729516599995,324.00729516599995,326.10351783299984,330.1294022500001,324.00729516599995,324.00729516599995,329.176802166,324.00729516599995,324.00729516599995,324.00729516599995,324.00729516599995,324.47625820799976,325.545518333,324.44667162466635,,326.10351783299984,327.17387762499993,326.0739334166667,,324.00729516599995,329.176802166,324.00729516599995,329.176802166,329.21834362499976,329.87180441600003,324.00729516599995,1,1,1.5148836250000386,reldom2_s004,001,2025-01-23_11h51.55.578,What-A-Scan_AC,2022.2.5,None,
27,First_Order,5.0,audwhat,stimulus/audwhat_stim/dummy.wav,stimulus/audwhat_stim/dummy.wav,stimulus/audwhat_stim/string cello_high-pitch_D_loud.wav,stimulus/audwhat_stim/percussion mallet_high-pitch_D_loud.wav,stimulus/audwhat_stim/blank_white.png,stimulus/audwhat_stim/category_box.png,stimulus/audwhat_stim/category_yes.png,stimulus/audwhat_stim/category_no.png,None,Category,None,Pitch,2,0.0,0,5.125,0,5.125,0,5.125,0,0.0,0.625,0,0.0,0,0.0,0,0.0,0,0.0,0,0.0,0,0.0,1,0.5,1,2.125,0,,,,,0,35,35,35,,,,,,,,,330.1294022500001,330.1294022500001,330.1294022500001,330.1294022500001,330.1294022500001,330.1294022500001,330.1294022500001,330.1294022500001,330.04543574933325,330.1294022500001,330.1294022500001,330.1294022500001,330.04543574933325,330.1294022500001,330.1294022500001,330.1294022500001,332.2377006249999,336.2403025409999,330.1294022500001,330.1294022500001,335.2821064999998,330.1294022500001,330.1294022500001,330.1294022500001,330.1294022500001,330.5981919579999,331.62940170799993,330.56744299966635,,332.2377006249999,333.27252091599985,332.2075975416667,,330.1294022500001,335.2821064999998,330.1294022500001,335.2821064999998,335.3237466659998,335.98250370799997,330.1294022500001,2,1,0.6697629580003195,reldom2_s004,001,2025-01-23_11h51.55.578,What-A-Scan_AC,2022.2.5,None,
28,First_Order,5.0,audwhat,stimulus/audwhat_stim/dummy.wav,stimulus/audwhat_stim/dummy.wav,stimulus/audwhat_stim/percussion mallet_low-pitch_Ftri_loud.wav,stimulus/audwhat_stim/percussion mallet_high-pitch_F_loud.wav,stimulus/audwhat_stim/blank_white.png,stimulus/audwhat_stim/category_box.png,stimulus/audwhat_stim/category_yes.png,stimulus/audwhat_stim/category_no.png,None,Category,None,Category,1,0.0,0,5.125,0,5.125,0,5.125,0,0.0,0.625,0,0.0,0,0.0,0,0.0,0,0.0,0,0.0,0,0.0,1,0.5,1,2.125,0,,,,,0,36,36,36,,,,,,,,,336.2403025409999,336.2403025409999,336.2403025409999,336.2403025409999,336.2403025409999,336.2403025409999,336.2403025409999,336.2403025409999,336.1581512493332,336.2403025409999,336.2403025409999,336.2403025409999,336.1581512493332,336.2403025409999,336.2403025409999,336.2403025409999,338.35047529099984,,336.2403025409999,336.2403025409999,341.39097079099975,336.2403025409999,336.2403025409999,336.2403025409999,336.2403025409999,336.70933158299977,337.7400312079999,336.67861183266655,,338.35047529099984,339.3832842080001,338.3197662496666,,336.2403025409999,341.39097079099975,336.2403025409999,341.39097079099975,341.4319127499998,342.09249995799973,336.2403025409999,1,1,0.8001461670000936,reldom2_s004,001,2025-01-23_11h51.55.578,What-A-Scan_AC,2022.2.5,None,
0,0.0,None,fixation,stimulus/audwhat_stim/blank_white.png,stimulus/audwhat_stim/blank_white.png,stimulus/viswhat_stim/blank_white.png,stimulus/viswhat_stim/blank_white.png,stimulus/audwhat_stim/blank_white.png,stimulus/audwhat_stim/blank_white.png,stimulus/audwhat_stim/blank_white.png,stimulus/audwhat_stim/blank_white.png,0.0,0.0,0.0,0.0,0,0.0,0,0.0,0,0.0,0,0.0,0,0.0,0.0,0,0.0,0,0.0,0,0.0,0,0.0,0,0.0,0,0.0,0,0.0,0,0.0,8,,,,,0,37,37,37,,,,,,,,,342.3728570829999,342.3728570829999,342.3728570829999,342.3728570829999,342.3728570829999,342.3728570829999,342.3728570829999,342.3728570829999,342.26693674933324,342.3728570829999,342.3728570829999,342.3728570829999,342.26693674933324,342.3728570829999,342.3728570829999,342.3728570829999,342.3728570829999,342.3728570829999,342.3728570829999,342.3728570829999,342.3728570829999,342.3728570829999,342.3728570829999,342.3728570829999,342.3728570829999,342.3728570829999,342.3728570829999,342.3336034159999,342.3728570829999,342.3728570829999,342.3728570829999,342.3336034159999,342.3728570829999,342.3728570829999,342.3728570829999,342.3728570829999,342.3728570829999,347.5954606659998,347.5954606659998,350.5371208749998,None,0,,reldom2_s004,001,2025-01-23_11h51.55.578,What-A-Scan_AC,2022.2.5,None,
29,Second_Order,5.0,audwhat,stimulus/audwhat_stim/percussion xylophone_high-pitch_Dtri_loud.wav,stimulus/audwhat_stim/percussion mallet_low-pitch_Ftri_loud.wav,stimulus/audwhat_stim/string viola_high-pitch_Ftri_loud.wav,stimulus/audwhat_stim/string viola_low-pitch_Dtri_loud.wav,stimulus/audwhat_stim/match_blank.png,stimulus/audwhat_stim/match_box.png,stimulus/audwhat_stim/match_yes.png,stimulus/audwhat_stim/match_no.png,1.0,Match,Category,Category,1,5.125,0,5.125,0,5.125,0,5.125,0,0.75,0.75,0,0.0,0,0.0,0,0.0,0,0.0,1,0.5,1,2.125,1,0.5,1,2.125,0,,,,,0,38,38,38,,,,,,,,,350.5371208749998,355.6570891659999,350.5371208749998,350.5371208749998,350.5371208749998,350.5371208749998,350.99545712500003,351.99365766599976,351.00782229166657,352.0015054579999,352.61666645800005,353.61404616599975,352.62816879166644,353.6221264999999,355.6570891659999,356.4892488329997,358.5731352499997,,356.4892488329997,356.4892488329997,361.67886691600006,356.4892488329997,356.4892488329997,356.4892488329997,356.4892488329997,356.9498277079997,358.0143189579999,356.9207737076665,,358.5731352499997,359.64151487499976,358.54348383266665,,356.4892488329997,361.67886691600006,356.4892488329997,361.67886691600006,361.67886691600006,,356.4892488329997,1,1,0.9439875420002863,reldom2_s004,001,2025-01-23_11h51.55.578,What-A-Scan_AC,2022.2.5,None,
30,Second_Order,5.0,audwhat,stimulus/audwhat_stim/percussion mallet_low-pitch_F_loud.wav,stimulus/audwhat_stim/percussion mallet_high-pitch_Ftri_loud.wav,stimulus/audwhat_stim/string viola_low-pitch_F_loud.wav,stimulus/audwhat_stim/string viola_high-pitch_Ftri_loud.wav,stimulus/audwhat_stim/match_blank.png,stimulus/audwhat_stim/match_box.png,stimulus/audwhat_stim/match_yes.png,stimulus/audwhat_stim/match_no.png,1.0,Match,Category,Category,1,5.125,0,5.125,0,5.125,0,5.125,0,0.625,0.625,0,0.0,0,0.0,0,0.0,0,0.0,1,0.5,1,2.125,1,0.5,1,2.125,0,,,,,0,39,39,39,,,,,,,,,362.49472104100005,367.6178867079998,362.49472104100005,362.49472104100005,362.49472104100005,362.49472104100005,362.9522058329999,363.941795791,362.9557397916667,363.9546288329998,364.57750858300005,365.57469358299977,364.5894583326665,365.5835454580001,367.6178867079998,368.32503295800007,370.39591604099996,374.45743483299975,368.32503295800007,368.32503295800007,373.4898439999997,368.32503295800007,368.32503295800007,368.32503295800007,368.32503295800007,368.78306620800004,369.84200329099986,368.7538312076665,,370.39591604099996,371.4600364160001,370.3663841246664,,368.32503295800007,373.4898439999997,368.32503295800007,373.4898439999997,373.53100970800006,374.1826349160001,368.32503295800007,1,1,0.9491930829999546,reldom2_s004,001,2025-01-23_11h51.55.578,What-A-Scan_AC,2022.2.5,None,
0,0.0,None,fixation,stimulus/audwhat_stim/blank_white.png,stimulus/audwhat_stim/blank_white.png,stimulus/viswhat_stim/blank_white.png,stimulus/viswhat_stim/blank_white.png,stimulus/audwhat_stim/blank_white.png,stimulus/audwhat_stim/blank_white.png,stimulus/audwhat_stim/blank_white.png,stimulus/audwhat_stim/blank_white.png,0.0,0.0,0.0,0.0,0,0.0,0,0.0,0,0.0,0,0.0,0,0.0,0.0,0,0.0,0,0.0,0,0.0,0,0.0,0,0.0,0,0.0,0,0.0,0,0.0,9,,,,,0,40,40,40,,,,,,,,,374.45743483299975,374.45743483299975,374.45743483299975,374.45743483299975,374.45743483299975,374.45743483299975,374.45743483299975,374.45743483299975,374.3570219583331,374.45743483299975,374.45743483299975,374.45743483299975,374.3570219583331,374.45743483299975,374.45743483299975,374.45743483299975,374.45743483299975,374.45743483299975,374.45743483299975,374.45743483299975,374.45743483299975,374.45743483299975,374.45743483299975,374.45743483299975,374.45743483299975,374.45743483299975,374.45743483299975,374.40702195833313,374.45743483299975,374.45743483299975,374.45743483299975,374.40702195833313,374.45743483299975,374.45743483299975,374.45743483299975,374.45743483299975,374.45743483299975,379.67390350000005,379.67390350000005,383.7080537500001,None,0,,reldom2_s004,001,2025-01-23_11h51.55.578,What-A-Scan_AC,2022.2.5,None,
31,First_Order,6.0,audwhat,stimulus/audwhat_stim/dummy.wav,stimulus/audwhat_stim/dummy.wav,stimulus/audwhat_stim/string viola_high-pitch_F_loud.wav,stimulus/audwhat_stim/percussion xylophone_high-pitch_F_loud.wav,stimulus/audwhat_stim/blank_white.png,stimulus/audwhat_stim/category_box.png,stimulus/audwhat_stim/category_yes.png,stimulus/audwhat_stim/category_no.png,None,Category,None,Pitch,2,0.0,0,5.125,0,5.125,0,5.125,0,0.0,0.625,0,0.0,0,0.0,0,0.0,0,0.0,0,0.0,0,0.0,1,0.5,1,2.125,0,,,,,0,41,41,41,,,,,,,,,383.7080537500001,383.7080537500001,383.7080537500001,383.7080537500001,383.7080537500001,383.7080537500001,383.7080537500001,383.7080537500001,383.63231266666673,383.7080537500001,383.7080537500001,383.7080537500001,383.63231266666673,383.7080537500001,383.7080537500001,383.7080537500001,385.81202033299996,,383.7080537500001,383.7080537500001,388.8565320829998,383.7080537500001,383.7080537500001,383.7080537500001,383.7080537500001,384.17767808300005,385.25267995800004,384.14736083266666,,385.81202033299996,386.84845162500005,385.7816397916665,386.84845162500005,383.7080537500001,388.8565320829998,383.7080537500001,388.8565320829998,388.89732720799975,389.5525049160001,383.7080537500001,2,1,0.8559650829997736,reldom2_s004,001,2025-01-23_11h51.55.578,What-A-Scan_AC,2022.2.5,None,
32,First_Order,6.0,audwhat,stimulus/audwhat_stim/dummy.wav,stimulus/audwhat_stim/dummy.wav,stimulus/audwhat_stim/percussion mallet_high-pitch_F_loud.wav,stimulus/audwhat_stim/percussion mallet_low-pitch_D_loud.wav,stimulus/audwhat_stim/blank_white.png,stimulus/audwhat_stim/pitch_box.png,stimulus/audwhat_stim/pitch_yes.png,stimulus/audwhat_stim/pitch_no.png,None,Pitch,None,Category,2,0.0,0,5.125,0,5.125,0,5.125,0,0.0,0.625,0,0.0,0,0.0,0,0.0,0,0.0,0,0.0,0,0.0,1,0.5,1,2.125,0,,,,,0,42,42,42,,,,,,,,,389.8077589999998,389.8077589999998,389.8077589999998,389.8077589999998,389.8077589999998,389.8077589999998,389.8077589999998,389.8077589999998,389.7266168743332,389.8077589999998,389.8077589999998,389.8077589999998,389.7266168743332,389.8077589999998,389.8077589999998,389.8077589999998,391.90526199999977,395.9411810829997,389.8077589999998,389.8077589999998,394.98490783299985,389.8077589999998,389.8077589999998,389.8077589999998,389.8077589999998,390.276453125,391.34739875000014,390.2463161666667,,391.90526199999977,392.9349925829997,391.8749574166666,,389.8077589999998,394.98490783299985,389.8077589999998,394.98490783299985,395.02571575,395.6808310000001,389.8077589999998,2,1,0.7870139579999886,reldom2_s004,001,2025-01-23_11h51.55.578,What-A-Scan_AC,2022.2.5,None,
33,First_Order,6.0,audwhat,stimulus/audwhat_stim/dummy.wav,stimulus/audwhat_stim/dummy.wav,stimulus/audwhat_stim/string cello_high-pitch_D_loud.wav,stimulus/audwhat_stim/string cello_low-pitch_Dtri_loud.wav,stimulus/audwhat_stim/blank_white.png,stimulus/audwhat_stim/category_box.png,stimulus/audwhat_stim/category_yes.png,stimulus/audwhat_stim/category_no.png,None,Category,None,Category,1,0.0,0,5.125,0,5.125,0,5.125,0,0.0,0.625,0,0.0,0,0.0,0,0.0,0,0.0,0,0.0,0,0.0,1,0.5,1,2.125,0,,,,,0,43,43,43,,,,,,,,,395.9411810829997,395.9411810829997,395.9411810829997,395.9411810829997,395.9411810829997,395.9411810829997,395.9411810829997,395.9411810829997,395.85539216633344,395.9411810829997,395.9411810829997,395.9411810829997,395.85539216633344,395.9411810829997,395.9411810829997,395.9411810829997,398.0523992909998,,395.9411810829997,395.9411810829997,401.0987520409999,395.9411810829997,395.9411810829997,395.9411810829997,395.9411810829997,396.4096798329997,397.4418355409998,396.37993845766664,,398.0523992909998,399.0832425829999,398.02057799966656,,395.9411810829997,401.0987520409999,395.9411810829997,401.0987520409999,401.1401431250001,401.7961297910001,395.9411810829997,1,1,1.0816273750001528,reldom2_s004,001,2025-01-23_11h51.55.578,What-A-Scan_AC,2022.2.5,None,
34,First_Order,6.0,audwhat,stimulus/audwhat_stim/dummy.wav,stimulus/audwhat_stim/dummy.wav,stimulus/audwhat_stim/string cello_high-pitch_F_loud.wav,stimulus/audwhat_stim/string viola_low-pitch_Ftri_loud.wav,stimulus/audwhat_stim/blank_white.png,stimulus/audwhat_stim/pitch_box.png,stimulus/audwhat_stim/pitch_yes.png,stimulus/audwhat_stim/pitch_no.png,None,Pitch,None,Category,2,0.0,0,5.125,0,5.125,0,5.125,0,0.0,0.625,0,0.0,0,0.0,0,0.0,0,0.0,0,0.0,0,0.0,1,0.5,1,2.125,0,,,,,0,44,44,44,,,,,,,,,402.05526775,402.05526775,402.05526775,402.05526775,402.05526775,402.05526775,402.05526775,402.05526775,401.9705946663331,402.05526775,402.05526775,402.05526775,401.9705946663331,402.05526775,402.05526775,402.05526775,404.15762479099976,,402.05526775,402.05526775,407.2391002909999,402.05526775,402.05526775,402.05526775,402.05526775,402.52379437499985,403.59613175000004,402.49329816666636,,404.15762479099976,405.1874912909998,404.1273344576664,,402.05526775,407.2391002909999,402.05526775,407.2391002909999,407.28076758299994,407.93783458300004,402.05526775,2,1,0.9299033749998671,reldom2_s004,001,2025-01-23_11h51.55.578,What-A-Scan_AC,2022.2.5,None,
0,0.0,None,fixation,stimulus/audwhat_stim/blank_white.png,stimulus/audwhat_stim/blank_white.png,stimulus/viswhat_stim/blank_white.png,stimulus/viswhat_stim/blank_white.png,stimulus/audwhat_stim/blank_white.png,stimulus/audwhat_stim/blank_white.png,stimulus/audwhat_stim/blank_white.png,stimulus/audwhat_stim/blank_white.png,0.0,0.0,0.0,0.0,0,0.0,0,0.0,0,0.0,0,0.0,0,0.0,0.0,0,0.0,0,0.0,0,0.0,0,0.0,0,0.0,0,0.0,0,0.0,0,0.0,10,,,,,0,45,45,45,,,,,,,,,408.1757282079998,408.1757282079998,408.1757282079998,408.1757282079998,408.1757282079998,408.1757282079998,408.1757282079998,408.1757282079998,408.07116791633337,408.1757282079998,408.1757282079998,408.1757282079998,408.07116791633337,408.1757282079998,408.1757282079998,408.1757282079998,408.1757282079998,408.1757282079998,408.1757282079998,408.1757282079998,408.1757282079998,408.1757282079998,408.1757282079998,408.1757282079998,408.1757282079998,408.1757282079998,408.1757282079998,408.1211679163334,408.1757282079998,408.1757282079998,408.1757282079998,408.1211679163334,408.1757282079998,408.1757282079998,408.1757282079998,408.1757282079998,408.1757282079998,413.39106379099985,413.39106379099985,418.308628583,None,0,,reldom2_s004,001,2025-01-23_11h51.55.578,What-A-Scan_AC,2022.2.5,None,
35,Second_Order,6.0,audwhat,stimulus/audwhat_stim/percussion xylophone_high-pitch_D_loud.wav,stimulus/audwhat_stim/string viola_high-pitch_D_loud.wav,stimulus/audwhat_stim/percussion mallet_high-pitch_Dtri_loud.wav,stimulus/audwhat_stim/percussion mallet_low-pitch_D_loud.wav,stimulus/audwhat_stim/match_blank.png,stimulus/audwhat_stim/match_box.png,stimulus/audwhat_stim/match_yes.png,stimulus/audwhat_stim/match_no.png,2.0,Match,Pitch,Category,2,5.125,0,5.125,0,5.125,0,5.125,0,0.75,0.75,0,0.0,0,0.0,0,0.0,0,0.0,1,0.5,1,2.125,1,0.5,1,2.125,0,,,,,0,46,46,46,,,,,,,,,418.308628583,423.43149670799994,418.308628583,418.308628583,418.308628583,418.308628583,418.764348958,419.7533719160001,418.7675863326665,419.76657458299997,420.3898152910001,421.3867492909999,420.40146683266653,,423.43149670799994,424.27010229100006,426.36291329100004,,424.27010229100006,424.27010229100006,429.44577900000013,424.27010229100006,424.27010229100006,424.27010229100006,424.27010229100006,424.733440125,425.80529483300006,424.70375770766645,,426.36291329100004,427.4394614160001,426.33229412466676,,424.27010229100006,429.44577900000013,424.27010229100006,429.44577900000013,429.4873429999998,,424.27010229100006,2,1,1.9121452089998456,reldom2_s004,001,2025-01-23_11h51.55.578,What-A-Scan_AC,2022.2.5,None,
36,Second_Order,6.0,audwhat,stimulus/audwhat_stim/percussion mallet_high-pitch_Dtri_loud.wav,stimulus/audwhat_stim/string viola_high-pitch_Dtri_loud.wav,stimulus/audwhat_stim/string cello_high-pitch_Dtri_loud.wav,stimulus/audwhat_stim/string viola_low-pitch_F_loud.wav,stimulus/audwhat_stim/match_blank.png,stimulus/audwhat_stim/match_box.png,stimulus/audwhat_stim/match_yes.png,stimulus/audwhat_stim/match_no.png,2.0,Match,Pitch,Category,2,5.125,0,5.125,0,5.125,0,5.125,0,0.625,0.625,0,0.0,0,0.0,0,0.0,0,0.0,1,0.5,1,2.125,1,0.5,1,2.125,0,,,,,0,47,47,47,,,,,,,,,430.2621119999999,435.38594512500003,430.2621119999999,430.2621119999999,430.2621119999999,430.2621119999999,430.7130125829999,431.7106602499998,430.7251939166665,431.71829420799986,432.345388708,433.334666708,432.34907941666665,,435.38594512500003,436.103803125,438.1822348749997,,436.103803125,436.103803125,441.28219287499996,436.103803125,436.103803125,436.103803125,436.103803125,436.56411183299997,437.624729916,436.5344088746667,,438.1822348749997,439.24787616599997,438.15208183266645,,436.103803125,441.28219287499996,436.103803125,441.28219287499996,441.28219287499996,441.9328244999997,436.103803125,2,1,1.2363560839999082,reldom2_s004,001,2025-01-23_11h51.55.578,What-A-Scan_AC,2022.2.5,None,
0,0.0,None,fixation,stimulus/audwhat_stim/blank_white.png,stimulus/audwhat_stim/blank_white.png,stimulus/viswhat_stim/blank_white.png,stimulus/viswhat_stim/blank_white.png,stimulus/audwhat_stim/blank_white.png,stimulus/audwhat_stim/blank_white.png,stimulus/audwhat_stim/blank_white.png,stimulus/audwhat_stim/blank_white.png,0.0,0.0,0.0,0.0,0,0.0,0,0.0,0,0.0,0,0.0,0,0.0,0.0,0,0.0,0,0.0,0,0.0,0,0.0,0,0.0,0,0.0,0,0.0,0,0.0,8,,,,,0,48,48,48,,,,,,,,,442.2077933329997,442.2077933329997,442.2077933329997,442.2077933329997,442.2077933329997,442.2077933329997,442.2077933329997,442.2077933329997,442.1063116663332,442.2077933329997,442.2077933329997,442.2077933329997,442.1063116663332,442.2077933329997,442.2077933329997,442.2077933329997,442.2077933329997,442.2077933329997,442.2077933329997,442.2077933329997,442.2077933329997,442.2077933329997,442.2077933329997,442.2077933329997,442.2077933329997,442.2077933329997,442.2077933329997,442.15631166633324,442.2077933329997,442.2077933329997,442.2077933329997,442.15631166633324,442.2077933329997,442.2077933329997,442.2077933329997,442.2077933329997,442.2077933329997,447.3954812910001,447.3954812910001,450.4414231249998,None,0,,reldom2_s004,001,2025-01-23_11h51.55.578,What-A-Scan_AC,2022.2.5,None,
37,First_Order,7.0,viswhat,stimulus/viswhat_stim/blank_white.png,stimulus/viswhat_stim/blank_white.png,stimulus/viswhat_stim/land_animal-zebra.png,stimulus/viswhat_stim/water_animal-squid.png,stimulus/viswhat_stim/blank_white.png,stimulus/viswhat_stim/type_box.png,stimulus/viswhat_stim/type_yes.png,stimulus/viswhat_stim/type_no.png,None,Type,None,Type,1,0.0,0,5.125,0,5.125,0,5.125,0,0.0,0.625,0,0.0,0,0.0,1,0.5,1,2.125,0,0.0,0,0.0,0,0.0,0,0.0,0,,,,,0,49,49,49,,,,,,,,,450.4414231249998,450.4414231249998,450.4414231249998,450.4414231249998,450.4414231249998,450.4414231249998,450.4414231249998,450.4414231249998,450.3924145416664,450.4414231249998,450.4414231249998,450.4414231249998,450.3924145416664,450.4414231249998,450.4414231249998,450.4414231249998,452.52617066599987,456.775734416,450.4414231249998,450.4414231249998,455.58848279099993,450.8973874999997,451.93941858300013,452.52617066599987,453.57106225000007,450.4414231249998,450.4414231249998,450.40908120833313,450.4414231249998,450.4414231249998,450.4414231249998,450.40908120833313,450.4414231249998,450.4414231249998,455.58848279099993,450.4414231249998,455.58848279099993,455.64245920799976,456.2893973330001,450.4414231249998,1,1,1.9345815839997158,reldom2_s004,001,2025-01-23_11h51.55.578,What-A-Scan_AC,2022.2.5,None,
38,First_Order,7.0,viswhat,stimulus/viswhat_stim/blank_white.png,stimulus/viswhat_stim/blank_white.png,stimulus/viswhat_stim/water_vehicle-submarine.png,stimulus/viswhat_stim/water_animal-lobster.png,stimulus/viswhat_stim/blank_white.png,stimulus/viswhat_stim/location_box.png,stimulus/viswhat_stim/location_yes.png,stimulus/viswhat_stim/location_no.png,None,Location,None,Location,1,0.0,0,5.125,0,5.125,0,5.125,0,0.0,0.625,0,0.0,0,0.0,1,0.5,1,2.125,0,0.0,0,0.0,0,0.0,0,0.0,0,,,,,0,50,50,50,,,,,,,,,456.775734416,456.775734416,456.775734416,456.775734416,456.775734416,456.775734416,456.775734416,456.775734416,456.4863580416667,456.775734416,456.775734416,456.775734416,456.4863580416667,456.775734416,456.775734416,456.775734416,458.7663479580001,,456.775734416,456.775734416,462.12498345799986,457.23341679099985,458.4571942909997,458.7663479580001,459.9891675829999,456.775734416,456.775734416,456.63635804166665,456.775734416,456.775734416,456.775734416,456.63635804166665,456.775734416,456.775734416,462.12498345799986,456.775734416,462.12498345799986,461.9756619579998,,456.775734416,1,1,1.2593931670003258,reldom2_s004,001,2025-01-23_11h51.55.578,What-A-Scan_AC,2022.2.5,None,
39,First_Order,7.0,viswhat,stimulus/viswhat_stim/blank_white.png,stimulus/viswhat_stim/blank_white.png,stimulus/viswhat_stim/land_vehicle-vespa.png,stimulus/viswhat_stim/water_vehicle-yacht.png,stimulus/viswhat_stim/blank_white.png,stimulus/viswhat_stim/location_box.png,stimulus/viswhat_stim/location_yes.png,stimulus/viswhat_stim/location_no.png,None,Location,None,Type,2,0.0,0,5.125,0,5.125,0,5.125,0,0.0,0.625,0,0.0,0,0.0,1,0.5,1,2.125,0,0.0,0,0.0,0,0.0,0,0.0,0,,,,,0,51,51,51,,,,,,,,,462.84084054100003,462.84084054100003,462.84084054100003,462.84084054100003,462.84084054100003,462.84084054100003,462.84084054100003,462.84084054100003,462.768507416,462.84084054100003,462.84084054100003,462.84084054100003,462.768507416,462.84084054100003,462.84084054100003,462.84084054100003,464.92350774999977,468.932120083,462.84084054100003,462.84084054100003,468.0235372500001,463.3057779579999,464.370602041,464.92350774999977,465.98751712500007,462.84084054100003,462.84084054100003,462.80184074933334,462.84084054100003,462.84084054100003,462.84084054100003,462.80184074933334,462.84084054100003,462.84084054100003,468.0235372500001,462.84084054100003,468.0235372500001,468.0607652909998,468.72114829099974,462.84084054100003,2,1,1.3465468330000476,reldom2_s004,001,2025-01-23_11h51.55.578,What-A-Scan_AC,2022.2.5,None,
40,First_Order,7.0,viswhat,stimulus/viswhat_stim/blank_white.png,stimulus/viswhat_stim/blank_white.png,stimulus/viswhat_stim/water_vehicle-canoe.png,stimulus/viswhat_stim/water_animal-whale (1).png,stimulus/viswhat_stim/blank_white.png,stimulus/viswhat_stim/location_box.png,stimulus/viswhat_stim/location_yes.png,stimulus/viswhat_stim/location_no.png,None,Location,None,Location,1,0.0,0,5.125,0,5.125,0,5.125,0,0.0,0.625,0,0.0,0,0.0,1,0.5,1,2.125,0,0.0,0,0.0,0,0.0,0,0.0,0,,,,,0,52,52,52,,,,,,,,,468.932120083,468.932120083,468.932120083,468.932120083,468.932120083,468.932120083,468.932120083,468.932120083,468.89080904133345,468.932120083,468.932120083,468.932120083,468.89080904133345,468.932120083,468.932120083,468.932120083,471.0319572909998,475.0782053329999,468.932120083,468.932120083,474.087048333,469.40431220799974,470.44136254099976,471.0319572909998,472.0737764999999,468.932120083,468.932120083,468.9074757080001,468.932120083,468.932120083,468.932120083,468.9074757080001,468.932120083,468.932120083,474.087048333,468.932120083,474.087048333,474.15891829099974,474.8014441659998,468.932120083,1,1,2.309437665999667,reldom2_s004,001,2025-01-23_11h51.55.578,What-A-Scan_AC,2022.2.5,None,
0,0.0,None,fixation,stimulus/audwhat_stim/blank_white.png,stimulus/audwhat_stim/blank_white.png,stimulus/viswhat_stim/blank_white.png,stimulus/viswhat_stim/blank_white.png,stimulus/audwhat_stim/blank_white.png,stimulus/audwhat_stim/blank_white.png,stimulus/audwhat_stim/blank_white.png,stimulus/audwhat_stim/blank_white.png,0.0,0.0,0.0,0.0,0,0.0,0,0.0,0,0.0,0,0.0,0,0.0,0.0,0,0.0,0,0.0,0,0.0,0,0.0,0,0.0,0,0.0,0,0.0,0,0.0,10,,,,,0,53,53,53,,,,,,,,,475.0782053329999,475.0782053329999,475.0782053329999,475.0782053329999,475.0782053329999,475.0782053329999,475.0782053329999,475.0782053329999,474.97274508299967,475.0782053329999,475.0782053329999,475.0782053329999,474.97274508299967,475.0782053329999,475.0782053329999,475.0782053329999,475.0782053329999,475.0782053329999,475.0782053329999,475.0782053329999,475.0782053329999,475.0782053329999,475.0782053329999,475.0782053329999,475.0782053329999,475.0782053329999,475.0782053329999,475.03941174966633,475.0782053329999,475.0782053329999,475.0782053329999,475.03941174966633,475.0782053329999,475.0782053329999,475.0782053329999,475.0782053329999,475.0782053329999,480.2577979580001,480.2577979580001,485.23523324999996,None,0,,reldom2_s004,001,2025-01-23_11h51.55.578,What-A-Scan_AC,2022.2.5,None,
41,Second_Order,7.0,viswhat,stimulus/viswhat_stim/water_vehicle-cruiser.png,stimulus/viswhat_stim/land_vehicle-bus.png,stimulus/viswhat_stim/land_animal-fox.png,stimulus/viswhat_stim/water_animal-dolphin.png,stimulus/audwhat_stim/match_blank.png,stimulus/audwhat_stim/match_box.png,stimulus/audwhat_stim/match_yes.png,stimulus/audwhat_stim/match_no.png,1.0,Match,Type,Type,1,5.125,0,5.125,0,5.125,0,5.125,0,0.75,0.75,1,0.5,1,2.125,1,0.5,1,2.125,0,0.0,0,0.0,0,0.0,0,0.0,0,,,,,0,54,54,54,,,,,,,,,485.23523324999996,490.3511618329999,485.65581875,486.6546558750001,487.28910074999976,488.27814854100006,485.23523324999996,485.23523324999996,485.24447062433313,485.23523324999996,485.23523324999996,485.23523324999996,485.24447062433313,485.23523324999996,490.3511618329999,491.14408483299985,493.2380733330001,497.1387717909997,491.14408483299985,491.14408483299985,496.27448216599987,491.62055970799975,492.6297220829997,493.2380733330001,494.25251687499986,491.14408483299985,491.14408483299985,491.1183443333334,491.14408483299985,491.14408483299985,491.14408483299985,491.1183443333334,491.14408483299985,491.14408483299985,496.27448216599987,491.14408483299985,496.27448216599987,496.3578524999998,,491.14408483299985,1,1,1.8849380829997244,reldom2_s004,001,2025-01-23_11h51.55.578,What-A-Scan_AC,2022.2.5,None,
42,Second_Order,7.0,viswhat,stimulus/viswhat_stim/water_animal-whale.png,stimulus/viswhat_stim/water_vehicle-ferryboat.png,stimulus/viswhat_stim/land_vehicle-tank.png,stimulus/viswhat_stim/land_animal-wolf.png,stimulus/audwhat_stim/match_blank.png,stimulus/audwhat_stim/match_box.png,stimulus/audwhat_stim/match_yes.png,stimulus/audwhat_stim/match_no.png,1.0,Match,Location,Location,1,5.125,0,5.125,0,5.125,0,5.125,0,0.625,0.625,1,0.5,1,2.125,1,0.5,1,2.125,0,0.0,0,0.0,0,0.0,0,0.0,0,,,,,0,55,55,55,,,,,,,,,497.1387717909997,502.2612515830001,497.59972233300005,498.5981407909999,499.22179941600007,500.21851445799985,497.1387717909997,497.1387717909997,497.1515740833332,497.1387717909997,497.1387717909997,497.1387717909997,497.1515740833332,497.1387717909997,502.2612515830001,502.922195958,505.01167829099995,509.06458112500013,502.922195958,502.922195958,508.0507145409997,503.39067054099996,504.3946095829997,505.01167829099995,506.01779258299985,502.922195958,502.922195958,502.9083826663332,502.922195958,502.922195958,502.922195958,502.9083826663332,502.922195958,502.922195958,508.0507145409997,502.922195958,508.0507145409997,508.1296783329999,508.7570941660001,502.922195958,1,1,1.5433876669999336,reldom2_s004,001,2025-01-23_11h51.55.578,What-A-Scan_AC,2022.2.5,None,
0,0.0,None,fixation,stimulus/audwhat_stim/blank_white.png,stimulus/audwhat_stim/blank_white.png,stimulus/viswhat_stim/blank_white.png,stimulus/viswhat_stim/blank_white.png,stimulus/audwhat_stim/blank_white.png,stimulus/audwhat_stim/blank_white.png,stimulus/audwhat_stim/blank_white.png,stimulus/audwhat_stim/blank_white.png,0.0,0.0,0.0,0.0,0,0.0,0,0.0,0,0.0,0,0.0,0,0.0,0.0,0,0.0,0,0.0,0,0.0,0,0.0,0,0.0,0,0.0,0,0.0,0,0.0,9,,,,,0,56,56,56,,,,,,,,,509.06458112500013,509.06458112500013,509.06458112500013,509.06458112500013,509.06458112500013,509.06458112500013,509.06458112500013,509.06458112500013,508.957389458333,509.06458112500013,509.06458112500013,509.06458112500013,508.957389458333,509.06458112500013,509.06458112500013,509.06458112500013,509.06458112500013,509.06458112500013,509.06458112500013,509.06458112500013,509.06458112500013,509.06458112500013,509.06458112500013,509.06458112500013,509.06458112500013,509.06458112500013,509.06458112500013,509.0240561249997,509.06458112500013,509.06458112500013,509.06458112500013,509.0240561249997,509.06458112500013,509.06458112500013,509.06458112500013,509.06458112500013,509.06458112500013,514.254976666,514.254976666,518.284346166,None,0,,reldom2_s004,001,2025-01-23_11h51.55.578,What-A-Scan_AC,2022.2.5,None,
43,First_Order,8.0,viswhat,stimulus/viswhat_stim/blank_white.png,stimulus/viswhat_stim/blank_white.png,stimulus/viswhat_stim/water_vehicle-canoe.png,stimulus/viswhat_stim/water_animal-octopus.png,stimulus/viswhat_stim/blank_white.png,stimulus/viswhat_stim/type_box.png,stimulus/viswhat_stim/type_yes.png,stimulus/viswhat_stim/type_no.png,None,Type,None,Location,2,0.0,0,5.125,0,5.125,0,5.125,0,0.0,0.625,0,0.0,0,0.0,1,0.5,1,2.125,0,0.0,0,0.0,0,0.0,0,0.0,0,,,,,0,57,57,57,,,,,,,,,518.284346166,518.284346166,518.284346166,518.284346166,518.284346166,518.284346166,518.284346166,518.284346166,518.2302843326667,518.284346166,518.284346166,518.284346166,518.2302843326667,518.284346166,518.284346166,518.284346166,520.3896533749999,524.3699687499998,518.284346166,518.284346166,523.4285749159999,518.7667512499997,519.802276375,520.3896533749999,521.4290422079998,518.284346166,518.284346166,518.263617666,518.284346166,518.284346166,518.284346166,518.263617666,518.284346166,518.284346166,523.4285749159999,518.284346166,523.4285749159999,523.4867038329999,524.1511407909998,518.284346166,2,1,0.8736731670001063,reldom2_s004,001,2025-01-23_11h51.55.578,What-A-Scan_AC,2022.2.5,None,
44,First_Order,8.0,viswhat,stimulus/viswhat_stim/blank_white.png,stimulus/viswhat_stim/blank_white.png,stimulus/viswhat_stim/water_animal-octopus.png,stimulus/viswhat_stim/land_animal-snake.png,stimulus/viswhat_stim/blank_white.png,stimulus/viswhat_stim/type_box.png,stimulus/viswhat_stim/type_yes.png,stimulus/viswhat_stim/type_no.png,None,Type,None,Type,1,0.0,0,5.125,0,5.125,0,5.125,0,0.0,0.625,0,0.0,0,0.0,1,0.5,1,2.125,0,0.0,0,0.0,0,0.0,0,0.0,0,,,,,0,58,58,58,,,,,,,,,524.3699687499998,524.3699687499998,524.3699687499998,524.3699687499998,524.3699687499998,524.3699687499998,524.3699687499998,524.3699687499998,524.3253092916665,524.3699687499998,524.3699687499998,524.3699687499998,524.3253092916665,524.3699687499998,524.3699687499998,524.3699687499998,526.4799254159998,530.453064666,524.3699687499998,524.3699687499998,529.5045580000001,524.8416281659997,525.8814272079999,526.4799254159998,527.521468083,524.3699687499998,524.3699687499998,524.3419759583331,524.3699687499998,524.3699687499998,524.3699687499998,524.3419759583331,524.3699687499998,524.3699687499998,529.5045580000001,524.3699687499998,529.5045580000001,529.5820750409998,530.2293736659999,524.3699687499998,1,1,2.6609392089999346,reldom2_s004,001,2025-01-23_11h51.55.578,What-A-Scan_AC,2022.2.5,None,
45,First_Order,8.0,viswhat,stimulus/viswhat_stim/blank_white.png,stimulus/viswhat_stim/blank_white.png,stimulus/viswhat_stim/land_vehicle-schoolbus.png,stimulus/viswhat_stim/land_animal-pig.png,stimulus/viswhat_stim/blank_white.png,stimulus/viswhat_stim/type_box.png,stimulus/viswhat_stim/type_yes.png,stimulus/viswhat_stim/type_no.png,None,Type,None,Location,2,0.0,0,5.125,0,5.125,0,5.125,0,0.0,0.625,0,0.0,0,0.0,1,0.5,1,2.125,0,0.0,0,0.0,0,0.0,0,0.0,0,,,,,0,59,59,59,,,,,,,,,530.453064666,530.453064666,530.453064666,530.453064666,530.453064666,530.453064666,530.453064666,530.453064666,530.4062262499998,530.453064666,530.453064666,530.453064666,530.4062262499998,530.453064666,530.453064666,530.453064666,532.5678349999998,536.5598481249999,530.453064666,530.453064666,535.5937295829999,530.9340618329998,531.951355791,532.5678349999998,533.5887631659998,530.453064666,530.453064666,530.4395595833331,530.453064666,530.453064666,530.453064666,530.4395595833331,530.453064666,530.453064666,535.5937295829999,530.453064666,535.5937295829999,535.677626833,536.309623958,530.453064666,2,1,0.8551494159996764,reldom2_s004,001,2025-01-23_11h51.55.578,What-A-Scan_AC,2022.2.5,None,
46,First_Order,8.0,viswhat,stimulus/viswhat_stim/blank_white.png,stimulus/viswhat_stim/blank_white.png,stimulus/viswhat_stim/land_vehicle-oldcar.png,stimulus/viswhat_stim/water_vehicle-powercruiser.png,stimulus/viswhat_stim/blank_white.png,stimulus/viswhat_stim/location_box.png,stimulus/viswhat_stim/location_yes.png,stimulus/viswhat_stim/location_no.png,None,Location,None,Type,2,0.0,0,5.125,0,5.125,0,5.125,0,0.0,0.625,0,0.0,0,0.0,1,0.5,1,2.125,0,0.0,0,0.0,0,0.0,0,0.0,0,,,,,0,60,60,60,,,,,,,,,536.5598481249999,536.5598481249999,536.5598481249999,536.5598481249999,536.5598481249999,536.5598481249999,536.5598481249999,536.5598481249999,536.4925380000001,536.5598481249999,536.5598481249999,536.5598481249999,536.4925380000001,536.5598481249999,536.5598481249999,536.5598481249999,538.6501481249998,542.698626333,536.5598481249999,536.5598481249999,541.7095262909997,537.0200045409997,538.064768666,538.6501481249998,539.6996349159999,536.5598481249999,536.5598481249999,536.5258713333334,536.5598481249999,536.5598481249999,536.5598481249999,536.5258713333334,536.5598481249999,536.5598481249999,541.7095262909997,536.5598481249999,541.7095262909997,541.7813971249998,542.4333651659999,536.5598481249999,2,1,0.6831805829997393,reldom2_s004,001,2025-01-23_11h51.55.578,What-A-Scan_AC,2022.2.5,None,
0,0.0,None,fixation,stimulus/audwhat_stim/blank_white.png,stimulus/audwhat_stim/blank_white.png,stimulus/viswhat_stim/blank_white.png,stimulus/viswhat_stim/blank_white.png,stimulus/audwhat_stim/blank_white.png,stimulus/audwhat_stim/blank_white.png,stimulus/audwhat_stim/blank_white.png,stimulus/audwhat_stim/blank_white.png,0.0,0.0,0.0,0.0,0,0.0,0,0.0,0,0.0,0,0.0,0,0.0,0.0,0,0.0,0,0.0,0,0.0,0,0.0,0,0.0,0,0.0,0,0.0,0,0.0,9,,,,,0,61,61,61,,,,,,,,,542.698626333,542.698626333,542.698626333,542.698626333,542.698626333,542.698626333,542.698626333,542.698626333,542.6025492083332,542.698626333,542.698626333,542.698626333,542.6025492083332,542.698626333,542.698626333,542.698626333,542.698626333,542.698626333,542.698626333,542.698626333,542.698626333,542.698626333,542.698626333,542.698626333,542.698626333,542.698626333,542.698626333,542.6525492083332,542.698626333,542.698626333,542.698626333,542.6525492083332,542.698626333,542.698626333,542.698626333,542.698626333,542.698626333,547.8935992910001,547.8935992910001,551.8906420409999,None,0,,reldom2_s004,001,2025-01-23_11h51.55.578,What-A-Scan_AC,2022.2.5,None,
47,Second_Order,8.0,viswhat,stimulus/viswhat_stim/water_animal-dolphin.png,stimulus/viswhat_stim/water_vehicle-cruiseship.png,stimulus/viswhat_stim/land_vehicle-oldcar.png,stimulus/viswhat_stim/land_animal-giraffe.png,stimulus/audwhat_stim/match_blank.png,stimulus/audwhat_stim/match_box.png,stimulus/audwhat_stim/match_yes.png,stimulus/audwhat_stim/match_no.png,1.0,Match,Location,Location,1,5.125,0,5.125,0,5.125,0,5.125,0,0.75,0.75,1,0.5,1,2.125,1,0.5,1,2.125,0,0.0,0,0.0,0,0.0,0,0.0,0,,,,,0,62,62,62,,,,,,,,,551.8906420409999,557.0046793749998,552.2881954159998,553.2784080409997,553.9150020409998,554.9116785410001,551.8906420409999,551.8906420409999,551.9009313746665,551.8906420409999,551.8906420409999,551.8906420409999,551.9009313746665,551.8906420409999,557.0046793749998,557.879929791,559.9652834999997,563.8946765830001,557.879929791,557.879929791,563.0624832499998,558.3515151249999,559.426986041,559.9652834999997,561.0464337909998,557.879929791,557.879929791,557.8221335413331,557.879929791,557.879929791,557.879929791,557.8221335413331,557.879929791,557.879929791,563.0624832499998,557.879929791,563.0624832499998,563.0624832499998,,557.879929791,1,1,1.4845102499998575,reldom2_s004,001,2025-01-23_11h51.55.578,What-A-Scan_AC,2022.2.5,None,
48,Second_Order,8.0,viswhat,stimulus/viswhat_stim/land_animal-ostrich.png,stimulus/viswhat_stim/water_animal-shark.png,stimulus/viswhat_stim/water_animal-whale.png,stimulus/viswhat_stim/water_vehicle-cargoboat.png,stimulus/audwhat_stim/match_blank.png,stimulus/audwhat_stim/match_box.png,stimulus/audwhat_stim/match_yes.png,stimulus/audwhat_stim/match_no.png,2.0,Match,Type,Location,2,5.125,0,5.125,0,5.125,0,5.125,0,0.625,0.625,1,0.5,1,2.125,1,0.5,1,2.125,0,0.0,0,0.0,0,0.0,0,0.0,0,,,,,0,63,63,63,,,,,,,,,563.8946765830001,569.0151674159997,564.3520318329997,565.3390854999998,565.9759306249998,566.9726559579999,563.8946765830001,563.8946765830001,563.9058630826668,563.8946765830001,563.8946765830001,563.8946765830001,563.9058630826668,563.8946765830001,569.0151674159997,569.6931038329999,571.7659134999999,,569.6931038329999,569.6931038329999,574.8468332909997,570.151305375,571.175532583,571.7659134999999,572.7981949579998,569.6931038329999,569.6931038329999,569.6791699579996,569.6931038329999,569.6931038329999,569.6931038329999,569.6791699579996,569.6931038329999,569.6931038329999,574.8468332909997,569.6931038329999,574.8468332909997,574.8897434159999,575.5267215409999,569.6931038329999,2,1,0.7028332079999018,reldom2_s004,001,2025-01-23_11h51.55.578,What-A-Scan_AC,2022.2.5,None,
0,0.0,None,fixation,stimulus/audwhat_stim/blank_white.png,stimulus/audwhat_stim/blank_white.png,stimulus/viswhat_stim/blank_white.png,stimulus/viswhat_stim/blank_white.png,stimulus/audwhat_stim/blank_white.png,stimulus/audwhat_stim/blank_white.png,stimulus/audwhat_stim/blank_white.png,stimulus/audwhat_stim/blank_white.png,0.0,0.0,0.0,0.0,0,0.0,0,0.0,0,0.0,0,0.0,0,0.0,0.0,0,0.0,0,0.0,0,0.0,0,0.0,0,0.0,0,0.0,0,0.0,0,0.0,16,,,,,0,64,64,64,,,,,,,,,575.8139988749999,575.8139988749999,575.8139988749999,575.8139988749999,575.8139988749999,575.8139988749999,575.8139988749999,575.8139988749999,575.7110805409999,575.8139988749999,575.8139988749999,575.8139988749999,575.7110805409999,575.8139988749999,575.8139988749999,575.8139988749999,575.8139988749999,575.8139988749999,575.8139988749999,575.8139988749999,575.8139988749999,575.8139988749999,575.8139988749999,575.8139988749999,575.8139988749999,575.8139988749999,575.8139988749999,575.7610805409998,575.8139988749999,575.8139988749999,575.8139988749999,575.7610805409998,575.8139988749999,575.8139988749999,575.8139988749999,575.8139988749999,575.8139988749999,581.0242592499999,581.0242592499999,591.9447988749998,None,0,,reldom2_s004,001,2025-01-23_11h51.55.578,What-A-Scan_AC,2022.2.5,None,
