Trial,Order,Block,Type,Stimuli_File1,Stimuli_File2,Stimuli_File3,Stimuli_File4,Cue_File1,Cue_File2,Response_File_Yes,Response_File_No,Match,Cue_Dimension,Pair1_Dimension,Pair2_Dimension,Key,Cue1_Duration,Cue1_Onset,Cue2_Duration,Cue2_Onset,ResponseYes_Duration,ResponseYes_Onset,ResponseNo_Duration,ResponseNo_Onset,ITI_Within,ITI_Between,Image1_Duration,Image1_Onset,Image2_Duration,Image2_Onset,Image3_Duration,Image3_Onset,Image4_Duration,Image4_Onset,Sound1_Duration,Sound1_Onset,Sound2_Duration,Sound2_Onset,Sound3_Duration,Sound3_Onset,Sound4_Duration,Sound4_Onset,Fixation_Duration,trials_2.thisRepN,trials_2.thisTrialN,trials_2.thisN,trials_2.thisIndex,trials.thisRepN,trials.thisTrialN,trials.thisN,trials.thisIndex,text_start.started,key_resp_start.started,key_resp_start.keys,key_resp_start.rt,text2.started,key_resp_2.started,key_resp_2.keys,key_resp_2.rt,cue_file1.started,cue_file1.stopped,image_1.started,image_1.stopped,image_2.started,image_2.stopped,sound_icon1.started,sound_icon1.stopped,sound_1.started,sound_1.stopped,sound_icon2.started,sound_icon2.stopped,sound_2.started,sound_2.stopped,image_blank_1.started,image_blank_1.stopped,key_press.started,key_press.stopped,fixation_text.started,cue_file2.started,cue_file2.stopped,image_3.started,image_3.stopped,image_4.started,image_4.stopped,sound_icon3.started,sound_icon3.stopped,sound_3.started,sound_3.stopped,sound_icon4.started,sound_icon4.stopped,sound_4.started,sound_4.stopped,response_yes.started,response_yes.stopped,response_no.started,response_no.stopped,iti_blank.started,iti_blank.stopped,fixation_text.stopped,key_press.keys,key_press.corr,key_press.rt,participant,session,date,expName,psychopyVersion,frameRate,
,,,,,,,,,,,,,,,,,,,,,,,,,,,,,,,,,,,,,,,,,,,,,,,,,,,,7.042637209000532,7.042637209000532,2,0.554128957039211,,,,,,,,,,,,,,,,,,,,,,,,,,,,,,,,,,,,,,,,,,,,,,,,reldom2_s026,001,2025-03-06_15h46.07.981,What-A-Scan_AC,2022.2.5,None,
,,,,,,,,,,,,,,,,,,,,,,,,,,,,,,,,,,,,,,,,,,,,0,0,0,0,,,,,,,,,7.626903583994135,7.626903583994135,5,18.49489212501794,,,,,,,,,,,,,,,,,,,,,,,,,,,,,,,,,,,,,,,,,,,,reldom2_s026,001,2025-03-06_15h46.07.981,What-A-Scan_AC,2022.2.5,None,
,,,,,,,,,,,,,,,,,,,,,,,,,,,,,,,,,,,,,,,,,,,,1,0,1,0,,,,,,,,,26.135339833970647,26.135339833970647,5,1.9820218739914708,,,,,,,,,,,,,,,,,,,,,,,,,,,,,,,,,,,,,,,,,,,,reldom2_s026,001,2025-03-06_15h46.07.981,What-A-Scan_AC,2022.2.5,None,
,,,,,,,,,,,,,,,,,,,,,,,,,,,,,,,,,,,,,,,,,,,,2,0,2,0,,,,,,,,,28.136385416961275,28.136385416961275,5,1.9830463330144994,,,,,,,,,,,,,,,,,,,,,,,,,,,,,,,,,,,,,,,,,,,,reldom2_s026,001,2025-03-06_15h46.07.981,What-A-Scan_AC,2022.2.5,None,
,,,,,,,,,,,,,,,,,,,,,,,,,,,,,,,,,,,,,,,,,,,,3,0,3,0,,,,,,,,,30.137241124990396,30.137241124990396,5,1.9830627070041373,,,,,,,,,,,,,,,,,,,,,,,,,,,,,,,,,,,,,,,,,,,,reldom2_s026,001,2025-03-06_15h46.07.981,What-A-Scan_AC,2022.2.5,None,
0,0.0,None,fixation,stimulus/audwhat_stim/blank_white.png,stimulus/audwhat_stim/blank_white.png,stimulus/viswhat_stim/blank_white.png,stimulus/viswhat_stim/blank_white.png,stimulus/audwhat_stim/blank_white.png,stimulus/audwhat_stim/blank_white.png,stimulus/audwhat_stim/blank_white.png,stimulus/audwhat_stim/blank_white.png,0.0,0.0,0.0,0.0,0,0.0,0,0.0,0,0.0,0,0.0,0,0.0,0.0,0,0.0,0,0.0,0,0.0,0,0.0,0,0.0,0,0.0,0,0.0,0,0.0,16,,,,,0,0,0,0,,,,,,,,,32.334169666981325,32.334169666981325,32.334169666981325,32.334169666981325,32.334169666981325,32.334169666981325,32.334169666981325,32.334169666981325,32.23732237567116,32.334169666981325,32.334169666981325,32.334169666981325,32.23732237567116,32.334169666981325,32.334169666981325,32.334169666981325,32.334169666981325,32.334169666981325,32.334169666981325,32.334169666981325,32.334169666981325,32.334169666981325,32.334169666981325,32.334169666981325,32.334169666981325,32.334169666981325,32.334169666981325,32.28732237567116,32.334169666981325,32.334169666981325,32.334169666981325,32.28732237567116,32.334169666981325,32.334169666981325,32.334169666981325,32.334169666981325,32.334169666981325,37.50898041698383,37.50898041698383,48.568047792010475,None,0,,reldom2_s026,001,2025-03-06_15h46.07.981,What-A-Scan_AC,2022.2.5,None,
1,First_Order,1.0,audwhat,stimulus/audwhat_stim/dummy.wav,stimulus/audwhat_stim/dummy.wav,stimulus/audwhat_stim/percussion mallet_low-pitch_Dtri_loud.wav,stimulus/audwhat_stim/percussion xylophone_high-pitch_F_loud.wav,stimulus/audwhat_stim/blank_white.png,stimulus/audwhat_stim/pitch_box.png,stimulus/audwhat_stim/pitch_yes.png,stimulus/audwhat_stim/pitch_no.png,None,Pitch,None,Category,2,0.0,0,5.125,0,5.125,0,5.125,0,0.0,0.625,0,0.0,0,0.0,0,0.0,0,0.0,0,0.0,0,0.0,1,0.5,1,2.125,0,,,,,0,1,1,1,,,,,,,,,48.568047792010475,48.568047792010475,48.568047792010475,48.568047792010475,48.568047792010475,48.568047792010475,48.568047792010475,48.568047792010475,48.501071166980545,48.568047792010475,48.568047792010475,48.568047792010475,48.501071166980545,48.568047792010475,48.568047792010475,48.568047792010475,50.65877283399459,54.677723291970324,48.568047792010475,48.568047792010475,53.72909887495916,48.568047792010475,48.568047792010475,48.568047792010475,48.568047792010475,49.05817279196344,50.125728374987375,49.03001745866301,,50.65877283399459,51.68772024998907,50.629902083663424,51.68772024998907,48.568047792010475,53.72909887495916,48.568047792010475,53.72909887495916,53.768676374980714,54.43479829200078,48.568047792010475,2,1,2.107786957989447,reldom2_s026,001,2025-03-06_15h46.07.981,What-A-Scan_AC,2022.2.5,None,
2,First_Order,1.0,audwhat,stimulus/audwhat_stim/dummy.wav,stimulus/audwhat_stim/dummy.wav,stimulus/audwhat_stim/percussion xylophone_high-pitch_Dtri_loud.wav,stimulus/audwhat_stim/percussion mallet_low-pitch_D_loud.wav,stimulus/audwhat_stim/blank_white.png,stimulus/audwhat_stim/pitch_box.png,stimulus/audwhat_stim/pitch_yes.png,stimulus/audwhat_stim/pitch_no.png,None,Pitch,None,Category,2,0.0,0,5.125,0,5.125,0,5.125,0,0.0,0.625,0,0.0,0,0.0,0,0.0,0,0.0,0,0.0,0,0.0,1,0.5,1,2.125,0,,,,,0,2,2,2,,,,,,,,,54.677723291970324,54.677723291970324,54.677723291970324,54.677723291970324,54.677723291970324,54.677723291970324,54.677723291970324,54.677723291970324,54.60716858334684,54.677723291970324,54.677723291970324,54.677723291970324,54.60716858334684,54.677723291970324,54.677723291970324,54.677723291970324,56.77740866696695,,54.677723291970324,54.677723291970324,59.86667162500089,54.677723291970324,54.677723291970324,54.677723291970324,54.677723291970324,55.168826000008266,56.19731854199199,55.140753750635,56.19731854199199,56.77740866696695,57.80858862499008,56.74899858364758,,54.677723291970324,59.86667162500089,54.677723291970324,59.86667162500089,59.90630437497748,60.57733441697201,54.677723291970324,2,1,0.9254544579889625,reldom2_s026,001,2025-03-06_15h46.07.981,What-A-Scan_AC,2022.2.5,None,
3,First_Order,1.0,audwhat,stimulus/audwhat_stim/dummy.wav,stimulus/audwhat_stim/dummy.wav,stimulus/audwhat_stim/percussion mallet_low-pitch_F_loud.wav,stimulus/audwhat_stim/percussion xylophone_high-pitch_Ftri_loud.wav,stimulus/audwhat_stim/blank_white.png,stimulus/audwhat_stim/category_box.png,stimulus/audwhat_stim/category_yes.png,stimulus/audwhat_stim/category_no.png,None,Category,None,Category,1,0.0,0,5.125,0,5.125,0,5.125,0,0.0,0.625,0,0.0,0,0.0,0,0.0,0,0.0,0,0.0,0,0.0,1,0.5,1,2.125,0,,,,,0,3,3,3,,,,,,,,,60.78519141697325,60.78519141697325,60.78519141697325,60.78519141697325,60.78519141697325,60.78519141697325,60.78519141697325,60.78519141697325,60.71066775030534,60.78519141697325,60.78519141697325,60.78519141697325,60.71066775030534,60.78519141697325,60.78519141697325,60.78519141697325,62.863801583996974,66.90362916700542,60.78519141697325,60.78519141697325,65.94176554196747,60.78519141697325,60.78519141697325,60.78519141697325,60.78519141697325,61.238361625000834,62.27804083400406,61.20946679165742,,62.863801583996974,63.90740162500879,62.8356212506808,63.90740162500879,60.78519141697325,65.94176554196747,60.78519141697325,65.94176554196747,65.98175429197727,66.65766633400926,60.78519141697325,1,1,0.9893402080051601,reldom2_s026,001,2025-03-06_15h46.07.981,What-A-Scan_AC,2022.2.5,None,
4,First_Order,1.0,audwhat,stimulus/audwhat_stim/dummy.wav,stimulus/audwhat_stim/dummy.wav,stimulus/audwhat_stim/percussion mallet_low-pitch_Dtri_loud.wav,stimulus/audwhat_stim/percussion mallet_high-pitch_F_loud.wav,stimulus/audwhat_stim/blank_white.png,stimulus/audwhat_stim/category_box.png,stimulus/audwhat_stim/category_yes.png,stimulus/audwhat_stim/category_no.png,None,Category,None,Category,1,0.0,0,5.125,0,5.125,0,5.125,0,0.0,0.625,0,0.0,0,0.0,0,0.0,0,0.0,0,0.0,0,0.0,1,0.5,1,2.125,0,,,,,0,4,4,4,,,,,,,,,66.90362916700542,66.90362916700542,66.90362916700542,66.90362916700542,66.90362916700542,66.90362916700542,66.90362916700542,66.90362916700542,66.83067962530379,66.90362916700542,66.90362916700542,66.90362916700542,66.83067962530379,66.90362916700542,66.90362916700542,66.90362916700542,68.99076920899097,73.03441754198866,66.90362916700542,66.90362916700542,72.08553820900852,66.90362916700542,66.90362916700542,66.90362916700542,66.90362916700542,67.35661675001029,68.40084337501321,67.32789637567863,,68.99076920899097,70.0385219999589,68.96240783366763,,66.90362916700542,72.08553820900852,66.90362916700542,72.08553820900852,72.12634449999314,72.80763599998318,66.90362916700542,1,1,0.8754557499778457,reldom2_s026,001,2025-03-06_15h46.07.981,What-A-Scan_AC,2022.2.5,None,
0,0.0,None,fixation,stimulus/audwhat_stim/blank_white.png,stimulus/audwhat_stim/blank_white.png,stimulus/viswhat_stim/blank_white.png,stimulus/viswhat_stim/blank_white.png,stimulus/audwhat_stim/blank_white.png,stimulus/audwhat_stim/blank_white.png,stimulus/audwhat_stim/blank_white.png,stimulus/audwhat_stim/blank_white.png,0.0,0.0,0.0,0.0,0,0.0,0,0.0,0,0.0,0,0.0,0,0.0,0.0,0,0.0,0,0.0,0,0.0,0,0.0,0,0.0,0,0.0,0,0.0,0,0.0,10,,,,,0,5,5,5,,,,,,,,,73.03441754198866,73.03441754198866,73.03441754198866,73.03441754198866,73.03441754198866,73.03441754198866,73.03441754198866,73.03441754198866,72.9409693333165,73.03441754198866,73.03441754198866,73.03441754198866,72.9409693333165,73.03441754198866,73.03441754198866,73.03441754198866,73.03441754198866,73.03441754198866,73.03441754198866,73.03441754198866,73.03441754198866,73.03441754198866,73.03441754198866,73.03441754198866,73.03441754198866,73.03441754198866,73.03441754198866,72.99096933331651,73.03441754198866,73.03441754198866,73.03441754198866,72.99096933331651,73.03441754198866,73.03441754198866,73.03441754198866,73.03441754198866,73.03441754198866,78.26179779198719,78.26179779198719,83.17564366699662,None,0,,reldom2_s026,001,2025-03-06_15h46.07.981,What-A-Scan_AC,2022.2.5,None,
5,Second_Order,1.0,audwhat,stimulus/audwhat_stim/string cello_low-pitch_D_loud.wav,stimulus/audwhat_stim/string viola_high-pitch_Dtri_loud.wav,stimulus/audwhat_stim/percussion mallet_low-pitch_D_loud.wav,stimulus/audwhat_stim/string viola_low-pitch_D_loud.wav,stimulus/audwhat_stim/match_blank.png,stimulus/audwhat_stim/match_box.png,stimulus/audwhat_stim/match_yes.png,stimulus/audwhat_stim/match_no.png,2.0,Match,Category,Pitch,2,5.125,0,5.125,0,5.125,0,5.125,0,0.75,0.75,0,0.0,0,0.0,0,0.0,0,0.0,1,0.5,1,2.125,1,0.5,1,2.125,0,,,,,0,6,6,6,,,,,,,,,83.17564366699662,88.29631462501129,83.17564366699662,83.17564366699662,83.17564366699662,83.17564366699662,83.6348514999845,84.62441020901315,83.63741016667724,,85.25969370896928,86.2582037919783,85.27228683367527,,88.29631462501129,89.1490802919725,91.22787479200633,,89.1490802919725,89.1490802919725,94.31761654198635,89.1490802919725,89.1490802919725,89.1490802919725,89.1490802919725,89.59908087499207,90.64009274996351,89.57007187564547,,91.22787479200633,92.27519970899448,91.19924783363628,,89.1490802919725,94.31761654198635,89.1490802919725,94.31761654198635,94.31761654198635,,89.1490802919725,2,1,0.8562035409850068,reldom2_s026,001,2025-03-06_15h46.07.981,What-A-Scan_AC,2022.2.5,None,
6,Second_Order,1.0,audwhat,stimulus/audwhat_stim/string cello_high-pitch_Dtri_loud.wav,stimulus/audwhat_stim/percussion mallet_high-pitch_Dtri_loud.wav,stimulus/audwhat_stim/percussion mallet_low-pitch_Ftri_loud.wav,stimulus/audwhat_stim/string cello_low-pitch_Ftri_loud.wav,stimulus/audwhat_stim/match_blank.png,stimulus/audwhat_stim/match_box.png,stimulus/audwhat_stim/match_yes.png,stimulus/audwhat_stim/match_no.png,1.0,Match,Pitch,Pitch,1,5.125,0,5.125,0,5.125,0,5.125,0,0.625,0.625,0,0.0,0,0.0,0,0.0,0,0.0,1,0.5,1,2.125,1,0.5,1,2.125,0,,,,,0,7,7,7,,,,,,,,,95.11141820898047,100.22884699999122,95.11141820898047,95.11141820898047,95.11141820898047,95.11141820898047,95.56562541698804,96.55272666696692,95.57930750062611,,97.18832399998792,98.18530029198155,97.20006354165186,,100.22884699999122,100.95633024995914,103.02687462500762,,100.95633024995914,100.95633024995914,106.10446029197192,100.95633024995914,100.95633024995914,100.95633024995914,100.95633024995914,101.40463512501447,102.4406468750094,101.37639416667322,,103.02687462500762,104.06620591698447,102.99810370867296,,100.95633024995914,106.10446029197192,100.95633024995914,106.10446029197192,106.1454915839713,106.82353987498209,100.95633024995914,1,1,1.0430953319882974,reldom2_s026,001,2025-03-06_15h46.07.981,What-A-Scan_AC,2022.2.5,None,
0,0.0,None,fixation,stimulus/audwhat_stim/blank_white.png,stimulus/audwhat_stim/blank_white.png,stimulus/viswhat_stim/blank_white.png,stimulus/viswhat_stim/blank_white.png,stimulus/audwhat_stim/blank_white.png,stimulus/audwhat_stim/blank_white.png,stimulus/audwhat_stim/blank_white.png,stimulus/audwhat_stim/blank_white.png,0.0,0.0,0.0,0.0,0,0.0,0,0.0,0,0.0,0,0.0,0,0.0,0.0,0,0.0,0,0.0,0,0.0,0,0.0,0,0.0,0,0.0,0,0.0,0,0.0,9,,,,,0,8,8,8,,,,,,,,,107.05152283399366,107.05152283399366,107.05152283399366,107.05152283399366,107.05152283399366,107.05152283399366,107.05152283399366,107.05152283399366,106.95687320831541,107.05152283399366,107.05152283399366,107.05152283399366,106.95687320831541,107.05152283399366,107.05152283399366,107.05152283399366,107.05152283399366,107.05152283399366,107.05152283399366,107.05152283399366,107.05152283399366,107.05152283399366,107.05152283399366,107.05152283399366,107.05152283399366,107.05152283399366,107.05152283399366,107.00687320831543,107.05152283399366,107.05152283399366,107.05152283399366,107.00687320831543,107.05152283399366,107.05152283399366,107.05152283399366,107.05152283399366,107.05152283399366,112.26604087499436,112.26604087499436,116.27215049997903,None,0,,reldom2_s026,001,2025-03-06_15h46.07.981,What-A-Scan_AC,2022.2.5,None,
7,First_Order,2.0,audwhat,stimulus/audwhat_stim/dummy.wav,stimulus/audwhat_stim/dummy.wav,stimulus/audwhat_stim/string cello_low-pitch_F_loud.wav,stimulus/audwhat_stim/percussion mallet_low-pitch_F_loud.wav,stimulus/audwhat_stim/blank_white.png,stimulus/audwhat_stim/pitch_box.png,stimulus/audwhat_stim/pitch_yes.png,stimulus/audwhat_stim/pitch_no.png,None,Pitch,None,Pitch,1,0.0,0,5.125,0,5.125,0,5.125,0,0.0,0.625,0,0.0,0,0.0,0,0.0,0,0.0,0,0.0,0,0.0,1,0.5,1,2.125,0,,,,,0,9,9,9,,,,,,,,,116.27215049997903,116.27215049997903,116.27215049997903,116.27215049997903,116.27215049997903,116.27215049997903,116.27215049997903,116.27215049997903,116.2029419586567,116.27215049997903,116.27215049997903,116.27215049997903,116.2029419586567,116.27215049997903,116.27215049997903,116.27215049997903,118.37877937499434,,116.27215049997903,116.27215049997903,121.44083874998614,116.27215049997903,116.27215049997903,116.27215049997903,116.27215049997903,116.72778774995822,117.78140470897779,116.69827025063957,,118.37877937499434,119.43010891700396,118.3496936666818,,116.27215049997903,121.44083874998614,116.27215049997903,121.44083874998614,121.48189516697312,122.16919033398153,116.27215049997903,1,1,1.395606082980521,reldom2_s026,001,2025-03-06_15h46.07.981,What-A-Scan_AC,2022.2.5,None,
8,First_Order,2.0,audwhat,stimulus/audwhat_stim/dummy.wav,stimulus/audwhat_stim/dummy.wav,stimulus/audwhat_stim/string cello_low-pitch_Dtri_loud.wav,stimulus/audwhat_stim/percussion mallet_low-pitch_Dtri_loud.wav,stimulus/audwhat_stim/blank_white.png,stimulus/audwhat_stim/category_box.png,stimulus/audwhat_stim/category_yes.png,stimulus/audwhat_stim/category_no.png,None,Category,None,Pitch,2,0.0,0,5.125,0,5.125,0,5.125,0,0.0,0.625,0,0.0,0,0.0,0,0.0,0,0.0,0,0.0,0,0.0,1,0.5,1,2.125,0,,,,,0,10,10,10,,,,,,,,,122.37958091701148,122.37958091701148,122.37958091701148,122.37958091701148,122.37958091701148,122.37958091701148,122.37958091701148,122.37958091701148,122.30252366731486,122.37958091701148,122.37958091701148,122.37958091701148,122.30252366731486,122.37958091701148,122.37958091701148,122.37958091701148,124.45593554200605,128.4937918339856,122.37958091701148,122.37958091701148,127.55155937495874,122.37958091701148,122.37958091701148,122.37958091701148,122.37958091701148,122.84106733399676,123.90371337498073,122.81168966665088,,124.45593554200605,125.51988508400973,124.42567441665257,,122.37958091701148,127.55155937495874,122.37958091701148,127.55155937495874,127.59249691700097,128.24251912499312,122.37958091701148,2,1,1.0161075409851037,reldom2_s026,001,2025-03-06_15h46.07.981,What-A-Scan_AC,2022.2.5,None,
9,First_Order,2.0,audwhat,stimulus/audwhat_stim/dummy.wav,stimulus/audwhat_stim/dummy.wav,stimulus/audwhat_stim/string cello_high-pitch_F_loud.wav,stimulus/audwhat_stim/percussion mallet_high-pitch_F_loud.wav,stimulus/audwhat_stim/blank_white.png,stimulus/audwhat_stim/pitch_box.png,stimulus/audwhat_stim/pitch_yes.png,stimulus/audwhat_stim/pitch_no.png,None,Pitch,None,Pitch,1,0.0,0,5.125,0,5.125,0,5.125,0,0.0,0.625,0,0.0,0,0.0,0,0.0,0,0.0,0,0.0,0,0.0,1,0.5,1,2.125,0,,,,,0,11,11,11,,,,,,,,,128.4937918339856,128.4937918339856,128.4937918339856,128.4937918339856,128.4937918339856,128.4937918339856,128.4937918339856,128.4937918339856,128.4157641253279,128.4937918339856,128.4937918339856,128.4937918339856,128.4157641253279,128.4937918339856,128.4937918339856,128.4937918339856,130.56869483395712,134.60625775001245,128.4937918339856,128.4937918339856,133.6601373750018,128.4937918339856,128.4937918339856,128.4937918339856,128.4937918339856,128.95515808399068,130.0157804999617,128.92579325067734,,130.56869483395712,131.63575245899847,130.53926745866582,,128.4937918339856,133.6601373750018,128.4937918339856,133.6601373750018,133.7008039589855,134.35292462498182,128.4937918339856,1,1,0.6859807910514064,reldom2_s026,001,2025-03-06_15h46.07.981,What-A-Scan_AC,2022.2.5,None,
10,First_Order,2.0,audwhat,stimulus/audwhat_stim/dummy.wav,stimulus/audwhat_stim/dummy.wav,stimulus/audwhat_stim/percussion xylophone_high-pitch_D_loud.wav,stimulus/audwhat_stim/string cello_high-pitch_D_loud.wav,stimulus/audwhat_stim/blank_white.png,stimulus/audwhat_stim/category_box.png,stimulus/audwhat_stim/category_yes.png,stimulus/audwhat_stim/category_no.png,None,Category,None,Pitch,2,0.0,0,5.125,0,5.125,0,5.125,0,0.0,0.625,0,0.0,0,0.0,0,0.0,0,0.0,0,0.0,0,0.0,1,0.5,1,2.125,0,,,,,0,12,12,12,,,,,,,,,134.60625775001245,134.60625775001245,134.60625775001245,134.60625775001245,134.60625775001245,134.60625775001245,134.60625775001245,134.60625775001245,134.52693133332846,134.60625775001245,134.60625775001245,134.60625775001245,134.52693133332846,134.60625775001245,134.60625775001245,134.60625775001245,136.69681404199218,,134.60625775001245,134.60625775001245,139.7639313749969,134.60625775001245,134.60625775001245,134.60625775001245,134.60625775001245,135.0725333750015,136.13902216695715,135.04244466667686,136.0915091249626,136.69681404199218,137.7674064169987,136.66675537563086,,134.60625775001245,139.7639313749969,134.60625775001245,139.7639313749969,139.8052910839906,140.45955475000665,134.60625775001245,2,1,0.6243467499734834,reldom2_s026,001,2025-03-06_15h46.07.981,What-A-Scan_AC,2022.2.5,None,
0,0.0,None,fixation,stimulus/audwhat_stim/blank_white.png,stimulus/audwhat_stim/blank_white.png,stimulus/viswhat_stim/blank_white.png,stimulus/viswhat_stim/blank_white.png,stimulus/audwhat_stim/blank_white.png,stimulus/audwhat_stim/blank_white.png,stimulus/audwhat_stim/blank_white.png,stimulus/audwhat_stim/blank_white.png,0.0,0.0,0.0,0.0,0,0.0,0,0.0,0,0.0,0,0.0,0,0.0,0.0,0,0.0,0,0.0,0,0.0,0,0.0,0,0.0,0,0.0,0,0.0,0,0.0,10,,,,,0,13,13,13,,,,,,,,,140.73189941700548,140.73189941700548,140.73189941700548,140.73189941700548,140.73189941700548,140.73189941700548,140.73189941700548,140.73189941700548,140.63299983329685,140.73189941700548,140.73189941700548,140.73189941700548,140.63299983329685,140.73189941700548,140.73189941700548,140.73189941700548,140.73189941700548,140.73189941700548,140.73189941700548,140.73189941700548,140.73189941700548,140.73189941700548,140.73189941700548,140.73189941700548,140.73189941700548,140.73189941700548,140.73189941700548,140.68299983329683,140.73189941700548,140.73189941700548,140.73189941700548,140.68299983329683,140.73189941700548,140.73189941700548,140.73189941700548,140.73189941700548,140.73189941700548,145.95992049999768,145.95992049999768,150.90687858400634,None,0,,reldom2_s026,001,2025-03-06_15h46.07.981,What-A-Scan_AC,2022.2.5,None,
11,Second_Order,2.0,audwhat,stimulus/audwhat_stim/string viola_high-pitch_D_loud.wav,stimulus/audwhat_stim/percussion xylophone_high-pitch_D_loud.wav,stimulus/audwhat_stim/percussion mallet_low-pitch_F_loud.wav,stimulus/audwhat_stim/string viola_low-pitch_F_loud.wav,stimulus/audwhat_stim/match_blank.png,stimulus/audwhat_stim/match_box.png,stimulus/audwhat_stim/match_yes.png,stimulus/audwhat_stim/match_no.png,1.0,Match,Pitch,Pitch,1,5.125,0,5.125,0,5.125,0,5.125,0,0.75,0.75,0,0.0,0,0.0,0,0.0,0,0.0,1,0.5,1,2.125,1,0.5,1,2.125,0,,,,,0,14,14,14,,,,,,,,,150.90687858400634,156.02318099996774,150.90687858400634,150.90687858400634,150.90687858400634,150.90687858400634,151.36279554199427,152.36070466699312,151.3754407086565,,152.9834477090044,153.981103374972,152.9956805006407,153.98489983397303,156.02318099996774,156.86935158399865,158.93889779195888,162.86950829200214,156.86935158399865,156.86935158399865,162.0217257500044,156.86935158399865,156.86935158399865,156.86935158399865,156.86935158399865,157.32838962500682,158.38661845901515,157.29896712565485,,158.93889779195888,159.9955565839773,158.90916995867545,,156.86935158399865,162.0217257500044,156.86935158399865,162.0217257500044,162.06249337497866,,156.86935158399865,1,1,1.128039915987756,reldom2_s026,001,2025-03-06_15h46.07.981,What-A-Scan_AC,2022.2.5,None,
12,Second_Order,2.0,audwhat,stimulus/audwhat_stim/percussion mallet_high-pitch_Dtri_loud.wav,stimulus/audwhat_stim/string viola_high-pitch_Dtri_loud.wav,stimulus/audwhat_stim/string viola_low-pitch_Dtri_loud.wav,stimulus/audwhat_stim/percussion mallet_low-pitch_Dtri_loud.wav,stimulus/audwhat_stim/match_blank.png,stimulus/audwhat_stim/match_box.png,stimulus/audwhat_stim/match_yes.png,stimulus/audwhat_stim/match_no.png,1.0,Match,Pitch,Pitch,1,5.125,0,5.125,0,5.125,0,5.125,0,0.625,0.625,0,0.0,0,0.0,0,0.0,0,0.0,1,0.5,1,2.125,1,0.5,1,2.125,0,,,,,0,15,15,15,,,,,,,,,162.86950829200214,167.98553912498755,162.86950829200214,162.86950829200214,162.86950829200214,162.86950829200214,163.32150129199727,164.308637042006,163.335623666648,,164.94402266701218,165.9424650419969,164.95633733366074,,167.98553912498755,168.71611308399588,170.7721980419592,,168.71611308399588,168.71611308399588,173.8905057089869,168.71611308399588,168.71611308399588,168.71611308399588,168.71611308399588,169.1724602089962,170.2234269999899,169.1431917916673,,170.7721980419592,171.82761187496362,170.74270579166867,,168.71611308399588,173.8905057089869,168.71611308399588,173.8905057089869,173.8905057089869,174.57787437498337,168.71611308399588,1,1,1.0769346660235897,reldom2_s026,001,2025-03-06_15h46.07.981,What-A-Scan_AC,2022.2.5,None,
0,0.0,None,fixation,stimulus/audwhat_stim/blank_white.png,stimulus/audwhat_stim/blank_white.png,stimulus/viswhat_stim/blank_white.png,stimulus/viswhat_stim/blank_white.png,stimulus/audwhat_stim/blank_white.png,stimulus/audwhat_stim/blank_white.png,stimulus/audwhat_stim/blank_white.png,stimulus/audwhat_stim/blank_white.png,0.0,0.0,0.0,0.0,0,0.0,0,0.0,0,0.0,0,0.0,0,0.0,0.0,0,0.0,0,0.0,0,0.0,0,0.0,0,0.0,0,0.0,0,0.0,0,0.0,8,,,,,0,16,16,16,,,,,,,,,174.80950254196068,174.80950254196068,174.80950254196068,174.80950254196068,174.80950254196068,174.80950254196068,174.80950254196068,174.80950254196068,174.71120770831672,174.80950254196068,174.80950254196068,174.80950254196068,174.71120770831672,174.80950254196068,174.80950254196068,174.80950254196068,174.80950254196068,174.80950254196068,174.80950254196068,174.80950254196068,174.80950254196068,174.80950254196068,174.80950254196068,174.80950254196068,174.80950254196068,174.80950254196068,174.80950254196068,174.7612077083167,174.80950254196068,174.80950254196068,174.80950254196068,174.7612077083167,174.80950254196068,174.80950254196068,174.80950254196068,174.80950254196068,174.80950254196068,180.03856166696642,180.03856166696642,183.16188766696723,None,0,,reldom2_s026,001,2025-03-06_15h46.07.981,What-A-Scan_AC,2022.2.5,None,
13,First_Order,3.0,viswhat,stimulus/viswhat_stim/blank_white.png,stimulus/viswhat_stim/blank_white.png,stimulus/viswhat_stim/water_vehicle-cruiseship.png,stimulus/viswhat_stim/land_vehicle-pickuptruck.png,stimulus/viswhat_stim/blank_white.png,stimulus/viswhat_stim/type_box.png,stimulus/viswhat_stim/type_yes.png,stimulus/viswhat_stim/type_no.png,None,Type,None,Type,1,0.0,0,5.125,0,5.125,0,5.125,0,0.0,0.625,0,0.0,0,0.0,1,0.5,1,2.125,0,0.0,0,0.0,0,0.0,0,0.0,0,,,,,0,17,17,17,,,,,,,,,183.16188766696723,183.16188766696723,183.16188766696723,183.16188766696723,183.16188766696723,183.16188766696723,183.16188766696723,183.16188766696723,182.9673834166412,183.16188766696723,183.16188766696723,183.16188766696723,182.9673834166412,183.16188766696723,183.16188766696723,183.16188766696723,185.188742792001,,183.16188766696723,183.16188766696723,188.37153837498045,183.5478684589616,184.70657529198797,185.188742792001,186.3466112089809,183.16188766696723,183.16188766696723,183.0673834166412,183.16188766696723,183.16188766696723,183.16188766696723,183.0673834166412,183.16188766696723,183.16188766696723,188.37153837498045,183.16188766696723,188.37153837498045,188.37153837498045,,183.16188766696723,1,1,2.1598606660263613,reldom2_s026,001,2025-03-06_15h46.07.981,What-A-Scan_AC,2022.2.5,None,
14,First_Order,3.0,viswhat,stimulus/viswhat_stim/blank_white.png,stimulus/viswhat_stim/blank_white.png,stimulus/viswhat_stim/water_animal-lobster.png,stimulus/viswhat_stim/water_vehicle-cruiseship.png,stimulus/viswhat_stim/blank_white.png,stimulus/viswhat_stim/location_box.png,stimulus/viswhat_stim/location_yes.png,stimulus/viswhat_stim/location_no.png,None,Location,None,Location,1,0.0,0,5.125,0,5.125,0,5.125,0,0.0,0.625,0,0.0,0,0.0,1,0.5,1,2.125,0,0.0,0,0.0,0,0.0,0,0.0,0,,,,,0,18,18,18,,,,,,,,,189.59151933400426,189.59151933400426,189.59151933400426,189.59151933400426,189.59151933400426,189.59151933400426,189.59151933400426,189.59151933400426,189.14879241730864,189.59151933400426,189.59151933400426,189.59151933400426,189.14879241730864,189.59151933400426,189.59151933400426,189.59151933400426,191.57946062501287,,189.59151933400426,189.59151933400426,195.10663870896678,190.03458350000437,191.35856466699624,191.57946062501287,192.90663270896766,189.59151933400426,189.59151933400426,189.3654590839753,189.59151933400426,189.59151933400426,189.59151933400426,189.3654590839753,189.59151933400426,189.59151933400426,195.10663870896678,189.59151933400426,195.10663870896678,194.67141433397774,,189.59151933400426,1,1,1.0442947910050862,reldom2_s026,001,2025-03-06_15h46.07.981,What-A-Scan_AC,2022.2.5,None,
15,First_Order,3.0,viswhat,stimulus/viswhat_stim/blank_white.png,stimulus/viswhat_stim/blank_white.png,stimulus/viswhat_stim/water_vehicle-cruiseship.png,stimulus/viswhat_stim/land_vehicle-bus.png,stimulus/viswhat_stim/blank_white.png,stimulus/viswhat_stim/location_box.png,stimulus/viswhat_stim/location_yes.png,stimulus/viswhat_stim/location_no.png,None,Location,None,Type,2,0.0,0,5.125,0,5.125,0,5.125,0,0.0,0.625,0,0.0,0,0.0,1,0.5,1,2.125,0,0.0,0,0.0,0,0.0,0,0.0,0,,,,,0,19,19,19,,,,,,,,,195.7842974999803,195.7842974999803,195.7842974999803,195.7842974999803,195.7842974999803,195.7842974999803,195.7842974999803,195.7842974999803,195.58997204230013,195.7842974999803,195.7842974999803,195.7842974999803,195.58997204230013,195.7842974999803,195.7842974999803,195.7842974999803,197.80320679198485,,195.7842974999803,195.7842974999803,201.03043724998133,196.18935883400263,197.29915712500224,197.80320679198485,198.91635924996808,195.7842974999803,195.7842974999803,195.68997204230013,195.7842974999803,195.7842974999803,195.7842974999803,195.68997204230013,195.7842974999803,195.7842974999803,201.03043724998133,195.7842974999803,201.03043724998133,200.93534991698107,,195.7842974999803,2,1,0.7865309159969911,reldom2_s026,001,2025-03-06_15h46.07.981,What-A-Scan_AC,2022.2.5,None,
16,First_Order,3.0,viswhat,stimulus/viswhat_stim/blank_white.png,stimulus/viswhat_stim/blank_white.png,stimulus/viswhat_stim/land_vehicle-oldcar.png,stimulus/viswhat_stim/water_vehicle-pirateship.png,stimulus/viswhat_stim/blank_white.png,stimulus/viswhat_stim/type_box.png,stimulus/viswhat_stim/type_yes.png,stimulus/viswhat_stim/type_no.png,None,Type,None,Type,1,0.0,0,5.125,0,5.125,0,5.125,0,0.0,0.625,0,0.0,0,0.0,1,0.5,1,2.125,0,0.0,0,0.0,0,0.0,0,0.0,0,,,,,0,20,20,20,,,,,,,,,201.82248320896178,201.82248320896178,201.82248320896178,201.82248320896178,201.82248320896178,201.82248320896178,201.82248320896178,201.82248320896178,201.75547712499974,201.82248320896178,201.82248320896178,201.82248320896178,201.75547712499974,201.82248320896178,201.82248320896178,201.82248320896178,203.92240404197946,,201.82248320896178,201.82248320896178,207.0096993749612,202.2938725000131,203.32378024997888,203.92240404197946,204.9542664589826,201.82248320896178,201.82248320896178,201.7888104583331,201.82248320896178,201.82248320896178,201.82248320896178,201.7888104583331,201.82248320896178,201.82248320896178,207.0096993749612,201.82248320896178,207.0096993749612,207.04728983400855,207.7177612920059,201.82248320896178,1,1,1.1482054160442203,reldom2_s026,001,2025-03-06_15h46.07.981,What-A-Scan_AC,2022.2.5,None,
0,0.0,None,fixation,stimulus/audwhat_stim/blank_white.png,stimulus/audwhat_stim/blank_white.png,stimulus/viswhat_stim/blank_white.png,stimulus/viswhat_stim/blank_white.png,stimulus/audwhat_stim/blank_white.png,stimulus/audwhat_stim/blank_white.png,stimulus/audwhat_stim/blank_white.png,stimulus/audwhat_stim/blank_white.png,0.0,0.0,0.0,0.0,0,0.0,0,0.0,0,0.0,0,0.0,0,0.0,0.0,0,0.0,0,0.0,0,0.0,0,0.0,0,0.0,0,0.0,0,0.0,0,0.0,9,,,,,0,21,21,21,,,,,,,,,207.94788150000386,207.94788150000386,207.94788150000386,207.94788150000386,207.94788150000386,207.94788150000386,207.94788150000386,207.94788150000386,207.85109462533924,207.94788150000386,207.94788150000386,207.94788150000386,207.85109462533924,207.94788150000386,207.94788150000386,207.94788150000386,207.94788150000386,207.94788150000386,207.94788150000386,207.94788150000386,207.94788150000386,207.94788150000386,207.94788150000386,207.94788150000386,207.94788150000386,207.94788150000386,207.94788150000386,207.90109462533923,207.94788150000386,207.94788150000386,207.94788150000386,207.90109462533923,207.94788150000386,207.94788150000386,207.94788150000386,207.94788150000386,207.94788150000386,213.13569370895857,213.13569370895857,217.07260549999774,None,0,,reldom2_s026,001,2025-03-06_15h46.07.981,What-A-Scan_AC,2022.2.5,None,
17,Second_Order,3.0,viswhat,stimulus/viswhat_stim/water_animal-shark.png,stimulus/viswhat_stim/water_vehicle-pirateship.png,stimulus/viswhat_stim/water_animal-squid.png,stimulus/viswhat_stim/land_animal-elephant.png,stimulus/audwhat_stim/match_blank.png,stimulus/audwhat_stim/match_box.png,stimulus/audwhat_stim/match_yes.png,stimulus/audwhat_stim/match_no.png,2.0,Match,Location,Type,2,5.125,0,5.125,0,5.125,0,5.125,0,0.75,0.75,1,0.5,1,2.125,1,0.5,1,2.125,0,0.0,0,0.0,0,0.0,0,0.0,0,,,,,0,22,22,22,,,,,,,,,217.07260549999774,222.19322333397577,217.5306274589966,218.51827979198424,219.1531592499814,220.1514534589951,217.07260549999774,217.07260549999774,217.08483987497166,217.07260549999774,217.07260549999774,217.07260549999774,217.08483987497166,217.07260549999774,222.19322333397577,223.08403891697526,225.15129741700366,,223.08403891697526,223.08403891697526,228.29261424997821,223.4823976669577,224.5517311670119,225.15129741700366,226.2221715420019,223.08403891697526,223.08403891697526,223.02794241697995,223.08403891697526,223.08403891697526,223.08403891697526,223.02794241697995,223.08403891697526,223.08403891697526,228.29261424997821,223.08403891697526,228.29261424997821,228.2312812919845,,223.08403891697526,2,1,1.0154337079729885,reldom2_s026,001,2025-03-06_15h46.07.981,What-A-Scan_AC,2022.2.5,None,
18,Second_Order,3.0,viswhat,stimulus/viswhat_stim/land_vehicle-pickuptruck.png,stimulus/viswhat_stim/water_vehicle-pirateship.png,stimulus/viswhat_stim/water_animal-jellyfish.png,stimulus/viswhat_stim/land_animal-snake.png,stimulus/audwhat_stim/match_blank.png,stimulus/audwhat_stim/match_box.png,stimulus/audwhat_stim/match_yes.png,stimulus/audwhat_stim/match_no.png,1.0,Match,Type,Type,1,5.125,0,5.125,0,5.125,0,5.125,0,0.625,0.625,1,0.5,1,2.125,1,0.5,1,2.125,0,0.0,0,0.0,0,0.0,0,0.0,0,,,,,0,23,23,23,,,,,,,,,229.04136079200543,234.15518474997953,229.5218478749739,230.51179675001185,231.1472217499977,232.14555558399297,229.04136079200543,229.04136079200543,229.05367974998663,229.04136079200543,229.04136079200543,229.04136079200543,229.05367974998663,229.04136079200543,234.15518474997953,234.8475091669825,236.91524779197061,240.95285270898603,234.8475091669825,234.8475091669825,239.98257237498183,235.28833825001493,236.31018374999985,236.91524779197061,237.9420695839799,234.8475091669825,234.8475091669825,234.81797995896778,234.8475091669825,234.8475091669825,234.8475091669825,234.81797995896778,234.8475091669825,234.8475091669825,239.98257237498183,234.8475091669825,239.98257237498183,240.02673587499885,240.66469125001458,234.8475091669825,1,1,0.672728083038237,reldom2_s026,001,2025-03-06_15h46.07.981,What-A-Scan_AC,2022.2.5,None,
0,0.0,None,fixation,stimulus/audwhat_stim/blank_white.png,stimulus/audwhat_stim/blank_white.png,stimulus/viswhat_stim/blank_white.png,stimulus/viswhat_stim/blank_white.png,stimulus/audwhat_stim/blank_white.png,stimulus/audwhat_stim/blank_white.png,stimulus/audwhat_stim/blank_white.png,stimulus/audwhat_stim/blank_white.png,0.0,0.0,0.0,0.0,0,0.0,0,0.0,0,0.0,0,0.0,0,0.0,0.0,0,0.0,0,0.0,0,0.0,0,0.0,0,0.0,0,0.0,0,0.0,0,0.0,8,,,,,0,24,24,24,,,,,,,,,240.95285270898603,240.95285270898603,240.95285270898603,240.95285270898603,240.95285270898603,240.95285270898603,240.95285270898603,240.95285270898603,240.85233058398592,240.95285270898603,240.95285270898603,240.95285270898603,240.85233058398592,240.95285270898603,240.95285270898603,240.95285270898603,240.95285270898603,240.95285270898603,240.95285270898603,240.95285270898603,240.95285270898603,240.95285270898603,240.95285270898603,240.95285270898603,240.95285270898603,240.95285270898603,240.95285270898603,240.9023305839859,240.95285270898603,240.95285270898603,240.95285270898603,240.9023305839859,240.95285270898603,240.95285270898603,240.95285270898603,240.95285270898603,240.95285270898603,246.17317837500013,246.17317837500013,249.15305437496863,None,0,,reldom2_s026,001,2025-03-06_15h46.07.981,What-A-Scan_AC,2022.2.5,None,
19,First_Order,4.0,viswhat,stimulus/viswhat_stim/blank_white.png,stimulus/viswhat_stim/blank_white.png,stimulus/viswhat_stim/land_animal-wolf.png,stimulus/viswhat_stim/water_animal-squid.png,stimulus/viswhat_stim/blank_white.png,stimulus/viswhat_stim/location_box.png,stimulus/viswhat_stim/location_yes.png,stimulus/viswhat_stim/location_no.png,None,Location,None,Type,2,0.0,0,5.125,0,5.125,0,5.125,0,0.0,0.625,0,0.0,0,0.0,1,0.5,1,2.125,0,0.0,0,0.0,0,0.0,0,0.0,0,,,,,0,25,25,25,,,,,,,,,249.15305437496863,249.15305437496863,249.15305437496863,249.15305437496863,249.15305437496863,249.15305437496863,249.15305437496863,249.15305437496863,249.10880825067096,249.15305437496863,249.15305437496863,249.15305437496863,249.10880825067096,249.15305437496863,249.15305437496863,249.15305437496863,251.25935712497449,,249.15305437496863,249.15305437496863,254.28602499997942,249.6403449169593,250.6795353749767,251.25935712497449,252.27269204199547,249.15305437496863,249.15305437496863,249.1254749173376,249.15305437496863,249.15305437496863,249.15305437496863,249.1254749173376,249.15305437496863,249.15305437496863,254.28602499997942,249.15305437496863,254.28602499997942,254.35983745899284,255.00280037499033,249.15305437496863,2,1,0.9037260410259478,reldom2_s026,001,2025-03-06_15h46.07.981,What-A-Scan_AC,2022.2.5,None,
20,First_Order,4.0,viswhat,stimulus/viswhat_stim/blank_white.png,stimulus/viswhat_stim/blank_white.png,stimulus/viswhat_stim/water_animal-jellyfish.png,stimulus/viswhat_stim/water_vehicle-motorboatraft.png,stimulus/viswhat_stim/blank_white.png,stimulus/viswhat_stim/location_box.png,stimulus/viswhat_stim/location_yes.png,stimulus/viswhat_stim/location_no.png,None,Location,None,Location,1,0.0,0,5.125,0,5.125,0,5.125,0,0.0,0.625,0,0.0,0,0.0,1,0.5,1,2.125,0,0.0,0,0.0,0,0.0,0,0.0,0,,,,,0,26,26,26,,,,,,,,,255.2196420839755,255.2196420839755,255.2196420839755,255.2196420839755,255.2196420839755,255.2196420839755,255.2196420839755,255.2196420839755,255.17646229199602,255.2196420839755,255.2196420839755,255.2196420839755,255.17646229199602,255.2196420839755,255.2196420839755,255.2196420839755,257.3270030840067,261.3937135419692,255.2196420839755,255.2196420839755,260.3708644169965,255.68473341700155,256.7000267090043,257.3270030840067,258.34477570897434,255.2196420839755,255.2196420839755,255.19312895866267,255.2196420839755,255.2196420839755,255.2196420839755,255.19312895866267,255.2196420839755,255.2196420839755,260.3708644169965,255.2196420839755,260.3708644169965,260.43589479196817,261.08392733399523,255.2196420839755,1,1,1.4259796250262298,reldom2_s026,001,2025-03-06_15h46.07.981,What-A-Scan_AC,2022.2.5,None,
21,First_Order,4.0,viswhat,stimulus/viswhat_stim/blank_white.png,stimulus/viswhat_stim/blank_white.png,stimulus/viswhat_stim/land_animal-elephant.png,stimulus/viswhat_stim/land_vehicle-buldozer.png,stimulus/viswhat_stim/blank_white.png,stimulus/viswhat_stim/type_box.png,stimulus/viswhat_stim/type_yes.png,stimulus/viswhat_stim/type_no.png,None,Type,None,Location,2,0.0,0,5.125,0,5.125,0,5.125,0,0.0,0.625,0,0.0,0,0.0,1,0.5,1,2.125,0,0.0,0,0.0,0,0.0,0,0.0,0,,,,,0,27,27,27,,,,,,,,,261.3937135419692,261.3937135419692,261.3937135419692,261.3937135419692,261.3937135419692,261.3937135419692,261.3937135419692,261.3937135419692,261.27010975000445,261.3937135419692,261.3937135419692,261.3937135419692,261.27010975000445,261.3937135419692,261.3937135419692,261.3937135419692,263.48688662500354,,261.3937135419692,261.3937135419692,266.6222883340088,261.88156583398813,262.99973774998216,263.48688662500354,264.60807516699424,261.3937135419692,261.3937135419692,261.3367764166711,261.3937135419692,261.3937135419692,261.3937135419692,261.3367764166711,261.3937135419692,261.3937135419692,266.6222883340088,261.3937135419692,266.6222883340088,266.6222883340088,,261.3937135419692,2,1,0.7010170830180869,reldom2_s026,001,2025-03-06_15h46.07.981,What-A-Scan_AC,2022.2.5,None,
22,First_Order,4.0,viswhat,stimulus/viswhat_stim/blank_white.png,stimulus/viswhat_stim/blank_white.png,stimulus/viswhat_stim/water_animal-shark.png,stimulus/viswhat_stim/water_vehicle-cabincruiser.png,stimulus/viswhat_stim/blank_white.png,stimulus/viswhat_stim/type_box.png,stimulus/viswhat_stim/type_yes.png,stimulus/viswhat_stim/type_no.png,None,Type,None,Location,2,0.0,0,5.125,0,5.125,0,5.125,0,0.0,0.625,0,0.0,0,0.0,1,0.5,1,2.125,0,0.0,0,0.0,0,0.0,0,0.0,0,,,,,0,28,28,28,,,,,,,,,267.466205041972,267.466205041972,267.466205041972,267.466205041972,267.466205041972,267.466205041972,267.466205041972,267.466205041972,267.3828665423052,267.466205041972,267.466205041972,267.466205041972,267.3828665423052,267.466205041972,267.466205041972,267.466205041972,269.56614516698755,,267.466205041972,267.466205041972,272.62325858400436,267.94213183398824,268.99553491699044,269.56614516698755,270.6230209589703,267.466205041972,267.466205041972,267.43286654230513,267.466205041972,267.466205041972,267.466205041972,267.43286654230513,267.466205041972,267.466205041972,272.62325858400436,267.466205041972,272.62325858400436,272.6655885420041,273.33864962495863,267.466205041972,2,1,0.6356003740220331,reldom2_s026,001,2025-03-06_15h46.07.981,What-A-Scan_AC,2022.2.5,None,
0,0.0,None,fixation,stimulus/audwhat_stim/blank_white.png,stimulus/audwhat_stim/blank_white.png,stimulus/viswhat_stim/blank_white.png,stimulus/viswhat_stim/blank_white.png,stimulus/audwhat_stim/blank_white.png,stimulus/audwhat_stim/blank_white.png,stimulus/audwhat_stim/blank_white.png,stimulus/audwhat_stim/blank_white.png,0.0,0.0,0.0,0.0,0,0.0,0,0.0,0,0.0,0,0.0,0,0.0,0.0,0,0.0,0,0.0,0,0.0,0,0.0,0,0.0,0,0.0,0,0.0,0,0.0,9,,,,,0,29,29,29,,,,,,,,,273.5797467089724,273.5797467089724,273.5797467089724,273.5797467089724,273.5797467089724,273.5797467089724,273.5797467089724,273.5797467089724,273.47198295829196,273.5797467089724,273.5797467089724,273.5797467089724,273.47198295829196,273.5797467089724,273.5797467089724,273.5797467089724,273.5797467089724,273.5797467089724,273.5797467089724,273.5797467089724,273.5797467089724,273.5797467089724,273.5797467089724,273.5797467089724,273.5797467089724,273.5797467089724,273.5797467089724,273.5386496249586,273.5797467089724,273.5797467089724,273.5797467089724,273.5386496249586,273.5797467089724,273.5797467089724,273.5797467089724,273.5797467089724,273.5797467089724,278.7785075419815,278.7785075419815,282.71526416699635,None,0,,reldom2_s026,001,2025-03-06_15h46.07.981,What-A-Scan_AC,2022.2.5,None,
23,Second_Order,4.0,viswhat,stimulus/viswhat_stim/water_vehicle-canoe(1).png,stimulus/viswhat_stim/land_vehicle-vespa.png,stimulus/viswhat_stim/land_animal-dog.png,stimulus/viswhat_stim/water_animal-jellyfish.png,stimulus/audwhat_stim/match_blank.png,stimulus/audwhat_stim/match_box.png,stimulus/audwhat_stim/match_yes.png,stimulus/audwhat_stim/match_no.png,1.0,Match,Type,Type,1,5.125,0,5.125,0,5.125,0,5.125,0,0.75,0.75,1,0.5,1,2.125,1,0.5,1,2.125,0,0.0,0,0.0,0,0.0,0,0.0,0,,,,,0,30,30,30,,,,,,,,,282.71526416699635,287.82856141700177,283.1838009589701,284.1823430839577,284.8048306669807,285.8022530419985,282.71526416699635,282.71526416699635,282.7154186253048,282.71526416699635,282.71526416699635,282.71526416699635,282.7154186253048,282.71526416699635,287.82856141700177,288.64371433400083,290.70294637500774,294.617654541973,288.64371433400083,288.64371433400083,293.8014407499577,289.1000540420064,290.13029116700636,290.70294637500774,291.7402566669625,288.64371433400083,288.64371433400083,288.61247616698967,288.64371433400083,288.64371433400083,288.64371433400083,288.61247616698967,288.64371433400083,288.64371433400083,293.8014407499577,288.64371433400083,293.8014407499577,293.824746667,294.617654541973,288.64371433400083,1,1,0.7461870410479605,reldom2_s026,001,2025-03-06_15h46.07.981,What-A-Scan_AC,2022.2.5,None,
24,Second_Order,4.0,viswhat,stimulus/viswhat_stim/land_vehicle-tank.png,stimulus/viswhat_stim/water_vehicle-canoe(1).png,stimulus/viswhat_stim/water_animal-orka.png,stimulus/viswhat_stim/water_vehicle-cabincruiser.png,stimulus/audwhat_stim/match_blank.png,stimulus/audwhat_stim/match_box.png,stimulus/audwhat_stim/match_yes.png,stimulus/audwhat_stim/match_no.png,2.0,Match,Type,Location,2,5.125,0,5.125,0,5.125,0,5.125,0,0.625,0.625,1,0.5,1,2.125,1,0.5,1,2.125,0,0.0,0,0.0,0,0.0,0,0.0,0,,,,,0,31,31,31,,,,,,,,,294.617654541973,299.7399107919773,295.0944256669609,296.09280883398606,296.727436458983,297.7165675839642,294.617654541973,294.617654541973,294.62766187563926,294.617654541973,294.617654541973,294.617654541973,294.62766187563926,294.617654541973,299.7399107919773,300.533539749973,302.55081683397293,,300.533539749973,300.533539749973,305.7292922500055,300.9204329169588,302.00415404199157,302.55081683397293,303.6406892919913,300.533539749973,300.533539749973,300.4696660416356,300.533539749973,300.533539749973,300.533539749973,300.4696660416356,300.533539749973,300.533539749973,305.7292922500055,300.533539749973,305.7292922500055,305.7292922500055,,300.533539749973,2,1,0.6853358740336262,reldom2_s026,001,2025-03-06_15h46.07.981,What-A-Scan_AC,2022.2.5,None,
0,0.0,None,fixation,stimulus/audwhat_stim/blank_white.png,stimulus/audwhat_stim/blank_white.png,stimulus/viswhat_stim/blank_white.png,stimulus/viswhat_stim/blank_white.png,stimulus/audwhat_stim/blank_white.png,stimulus/audwhat_stim/blank_white.png,stimulus/audwhat_stim/blank_white.png,stimulus/audwhat_stim/blank_white.png,0.0,0.0,0.0,0.0,0,0.0,0,0.0,0,0.0,0,0.0,0,0.0,0.0,0,0.0,0,0.0,0,0.0,0,0.0,0,0.0,0,0.0,0,0.0,0,0.0,9,,,,,0,32,32,32,,,,,,,,,306.6099377089995,306.6099377089995,306.6099377089995,306.6099377089995,306.6099377089995,306.6099377089995,306.6099377089995,306.6099377089995,306.5086749999784,306.6099377089995,306.6099377089995,306.6099377089995,306.5086749999784,306.6099377089995,306.6099377089995,306.6099377089995,306.6099377089995,306.6099377089995,306.6099377089995,306.6099377089995,306.6099377089995,306.6099377089995,306.6099377089995,306.6099377089995,306.6099377089995,306.6099377089995,306.6099377089995,306.5586749999784,306.6099377089995,306.6099377089995,306.6099377089995,306.5586749999784,306.6099377089995,306.6099377089995,306.6099377089995,306.6099377089995,306.6099377089995,311.83400741696823,311.83400741696823,315.8693400839693,None,0,,reldom2_s026,001,2025-03-06_15h46.07.981,What-A-Scan_AC,2022.2.5,None,
25,First_Order,5.0,audwhat,stimulus/audwhat_stim/dummy.wav,stimulus/audwhat_stim/dummy.wav,stimulus/audwhat_stim/string cello_low-pitch_Dtri_loud.wav,stimulus/audwhat_stim/percussion mallet_low-pitch_Dtri_loud.wav,stimulus/audwhat_stim/blank_white.png,stimulus/audwhat_stim/pitch_box.png,stimulus/audwhat_stim/pitch_yes.png,stimulus/audwhat_stim/pitch_no.png,None,Pitch,None,Pitch,1,0.0,0,5.125,0,5.125,0,5.125,0,0.0,0.625,0,0.0,0,0.0,0,0.0,0,0.0,0,0.0,0,0.0,1,0.5,1,2.125,0,,,,,0,33,33,33,,,,,,,,,315.8693400839693,315.8693400839693,315.8693400839693,315.8693400839693,315.8693400839693,315.8693400839693,315.8693400839693,315.8693400839693,315.7961264166321,315.8693400839693,315.8693400839693,315.8693400839693,315.7961264166321,315.8693400839693,315.8693400839693,315.8693400839693,317.9600000419887,321.9837299589999,315.8693400839693,315.8693400839693,321.031293292006,315.8693400839693,315.8693400839693,315.8693400839693,315.8693400839693,316.33535741700325,317.4033921249793,316.3052746666401,,317.9600000419887,319.03511058399454,317.92979487567595,,315.8693400839693,321.031293292006,315.8693400839693,321.031293292006,321.0724568339647,321.7295777089894,315.8693400839693,1,1,0.8711013750289567,reldom2_s026,001,2025-03-06_15h46.07.981,What-A-Scan_AC,2022.2.5,None,
26,First_Order,5.0,audwhat,stimulus/audwhat_stim/dummy.wav,stimulus/audwhat_stim/dummy.wav,stimulus/audwhat_stim/string cello_low-pitch_F_loud.wav,stimulus/audwhat_stim/percussion mallet_low-pitch_F_loud.wav,stimulus/audwhat_stim/blank_white.png,stimulus/audwhat_stim/pitch_box.png,stimulus/audwhat_stim/pitch_yes.png,stimulus/audwhat_stim/pitch_no.png,None,Pitch,None,Pitch,1,0.0,0,5.125,0,5.125,0,5.125,0,0.0,0.625,0,0.0,0,0.0,0,0.0,0,0.0,0,0.0,0,0.0,1,0.5,1,2.125,0,,,,,0,34,34,34,,,,,,,,,321.9837299589999,321.9837299589999,321.9837299589999,321.9837299589999,321.9837299589999,321.9837299589999,321.9837299589999,321.9837299589999,321.9038205833368,321.9837299589999,321.9837299589999,321.9837299589999,321.9038205833368,321.9837299589999,321.9837299589999,321.9837299589999,324.0756690839771,328.09916641697055,321.9837299589999,321.9837299589999,327.14737687498564,321.9837299589999,321.9837299589999,321.9837299589999,321.9837299589999,322.4512629999663,323.5191517919884,322.42122904165103,,324.0756690839771,325.1487363339984,324.04599329166035,,321.9837299589999,327.14737687498564,321.9837299589999,327.14737687498564,327.18922920897603,327.8430633749813,321.9837299589999,1,1,0.92537304101279,reldom2_s026,001,2025-03-06_15h46.07.981,What-A-Scan_AC,2022.2.5,None,
27,First_Order,5.0,audwhat,stimulus/audwhat_stim/dummy.wav,stimulus/audwhat_stim/dummy.wav,stimulus/audwhat_stim/string cello_high-pitch_D_loud.wav,stimulus/audwhat_stim/percussion mallet_high-pitch_D_loud.wav,stimulus/audwhat_stim/blank_white.png,stimulus/audwhat_stim/category_box.png,stimulus/audwhat_stim/category_yes.png,stimulus/audwhat_stim/category_no.png,None,Category,None,Pitch,2,0.0,0,5.125,0,5.125,0,5.125,0,0.0,0.625,0,0.0,0,0.0,0,0.0,0,0.0,0,0.0,0,0.0,1,0.5,1,2.125,0,,,,,0,35,35,35,,,,,,,,,328.09916641697055,328.09916641697055,328.09916641697055,328.09916641697055,328.09916641697055,328.09916641697055,328.09916641697055,328.09916641697055,328.01704245832127,328.09916641697055,328.09916641697055,328.09916641697055,328.01704245832127,328.09916641697055,328.09916641697055,328.09916641697055,330.2019385420135,,328.09916641697055,328.09916641697055,333.28671529196436,328.09916641697055,328.09916641697055,328.09916641697055,328.09916641697055,328.5685741669731,329.6413785420009,328.5384787506812,,330.2019385420135,331.23263824998867,330.17151354166367,,328.09916641697055,333.28671529196436,328.09916641697055,333.28671529196436,333.32773141696816,333.98719591699773,328.09916641697055,2,1,1.3844992080121301,reldom2_s026,001,2025-03-06_15h46.07.981,What-A-Scan_AC,2022.2.5,None,
28,First_Order,5.0,audwhat,stimulus/audwhat_stim/dummy.wav,stimulus/audwhat_stim/dummy.wav,stimulus/audwhat_stim/percussion mallet_low-pitch_Ftri_loud.wav,stimulus/audwhat_stim/percussion mallet_high-pitch_F_loud.wav,stimulus/audwhat_stim/blank_white.png,stimulus/audwhat_stim/category_box.png,stimulus/audwhat_stim/category_yes.png,stimulus/audwhat_stim/category_no.png,None,Category,None,Category,1,0.0,0,5.125,0,5.125,0,5.125,0,0.0,0.625,0,0.0,0,0.0,0,0.0,0,0.0,0,0.0,0,0.0,1,0.5,1,2.125,0,,,,,0,36,36,36,,,,,,,,,334.20332612498896,334.20332612498896,334.20332612498896,334.20332612498896,334.20332612498896,334.20332612498896,334.20332612498896,334.20332612498896,334.12052925033106,334.20332612498896,334.20332612498896,334.20332612498896,334.12052925033106,334.20332612498896,334.20332612498896,334.20332612498896,336.3083900840138,,334.20332612498896,334.20332612498896,339.3955566670047,334.20332612498896,334.20332612498896,334.20332612498896,334.20332612498896,334.67110333399614,335.74610954197124,334.6410398756309,,336.3083900840138,337.34079933399335,336.2779088336431,,334.20332612498896,339.3955566670047,334.20332612498896,339.3955566670047,339.3955566670047,340.0523866249714,334.20332612498896,1,1,0.7994903750368394,reldom2_s026,001,2025-03-06_15h46.07.981,What-A-Scan_AC,2022.2.5,None,
0,0.0,None,fixation,stimulus/audwhat_stim/blank_white.png,stimulus/audwhat_stim/blank_white.png,stimulus/viswhat_stim/blank_white.png,stimulus/viswhat_stim/blank_white.png,stimulus/audwhat_stim/blank_white.png,stimulus/audwhat_stim/blank_white.png,stimulus/audwhat_stim/blank_white.png,stimulus/audwhat_stim/blank_white.png,0.0,0.0,0.0,0.0,0,0.0,0,0.0,0,0.0,0,0.0,0,0.0,0.0,0,0.0,0,0.0,0,0.0,0,0.0,0,0.0,0,0.0,0,0.0,0,0.0,8,,,,,0,37,37,37,,,,,,,,,340.3289982919814,340.3289982919814,340.3289982919814,340.3289982919814,340.3289982919814,340.3289982919814,340.3289982919814,340.3289982919814,340.22646958331654,340.3289982919814,340.3289982919814,340.3289982919814,340.22646958331654,340.3289982919814,340.3289982919814,340.3289982919814,340.3289982919814,340.3289982919814,340.3289982919814,340.3289982919814,340.3289982919814,340.3289982919814,340.3289982919814,340.3289982919814,340.3289982919814,340.3289982919814,340.3289982919814,340.27646958331655,340.3289982919814,340.3289982919814,340.3289982919814,340.27646958331655,340.3289982919814,340.3289982919814,340.3289982919814,340.3289982919814,340.3289982919814,345.5385033749626,345.5385033749626,348.47404329199344,None,0,,reldom2_s026,001,2025-03-06_15h46.07.981,What-A-Scan_AC,2022.2.5,None,
29,Second_Order,5.0,audwhat,stimulus/audwhat_stim/percussion xylophone_high-pitch_Dtri_loud.wav,stimulus/audwhat_stim/percussion mallet_low-pitch_Ftri_loud.wav,stimulus/audwhat_stim/string viola_high-pitch_Ftri_loud.wav,stimulus/audwhat_stim/string viola_low-pitch_Dtri_loud.wav,stimulus/audwhat_stim/match_blank.png,stimulus/audwhat_stim/match_box.png,stimulus/audwhat_stim/match_yes.png,stimulus/audwhat_stim/match_no.png,1.0,Match,Category,Category,1,5.125,0,5.125,0,5.125,0,5.125,0,0.75,0.75,0,0.0,0,0.0,0,0.0,0,0.0,1,0.5,1,2.125,1,0.5,1,2.125,0,,,,,0,38,38,38,,,,,,,,,348.47404329199344,353.5970467919833,348.47404329199344,348.47404329199344,348.47404329199344,348.47404329199344,348.9317811669898,349.92046441696584,348.9333919586536,349.92046441696584,350.55678275000537,351.55429029196966,350.56887762563224,,353.5970467919833,354.4489151670132,356.4931330420077,,354.4489151670132,354.4489151670132,359.60965474997647,354.4489151670132,354.4489151670132,354.4489151670132,354.4489151670132,354.8648918750114,355.9351006249781,354.8350950836359,,356.4931330420077,357.5662632089807,356.4632697086238,,354.4489151670132,359.60965474997647,354.4489151670132,359.60965474997647,359.60965474997647,,354.4489151670132,1,1,0.6729675820097327,reldom2_s026,001,2025-03-06_15h46.07.981,What-A-Scan_AC,2022.2.5,None,
30,Second_Order,5.0,audwhat,stimulus/audwhat_stim/percussion mallet_low-pitch_F_loud.wav,stimulus/audwhat_stim/percussion mallet_high-pitch_Ftri_loud.wav,stimulus/audwhat_stim/string viola_low-pitch_F_loud.wav,stimulus/audwhat_stim/string viola_high-pitch_Ftri_loud.wav,stimulus/audwhat_stim/match_blank.png,stimulus/audwhat_stim/match_box.png,stimulus/audwhat_stim/match_yes.png,stimulus/audwhat_stim/match_no.png,1.0,Match,Category,Category,1,5.125,0,5.125,0,5.125,0,5.125,0,0.625,0.625,0,0.0,0,0.0,0,0.0,0,0.0,1,0.5,1,2.125,1,0.5,1,2.125,0,,,,,0,39,39,39,,,,,,,,,360.4277747920132,365.54269462497905,360.4277747920132,360.4277747920132,360.4277747920132,360.4277747920132,360.8792343749665,361.86622308398364,360.89215320867174,,362.5009652499575,363.4988241249812,362.5128263336412,,365.54269462497905,366.2709062919603,368.3490074169822,372.3837689170032,366.2709062919603,366.2709062919603,371.45646516699344,366.2709062919603,366.2709062919603,366.2709062919603,366.2709062919603,366.68488433398306,367.74641891696956,366.65506187564847,,368.3490074169822,369.4206278749625,368.3191096256526,,366.2709062919603,371.45646516699344,366.2709062919603,371.45646516699344,371.45646516699344,372.1070610419847,366.2709062919603,1,1,0.8381609990028664,reldom2_s026,001,2025-03-06_15h46.07.981,What-A-Scan_AC,2022.2.5,None,
0,0.0,None,fixation,stimulus/audwhat_stim/blank_white.png,stimulus/audwhat_stim/blank_white.png,stimulus/viswhat_stim/blank_white.png,stimulus/viswhat_stim/blank_white.png,stimulus/audwhat_stim/blank_white.png,stimulus/audwhat_stim/blank_white.png,stimulus/audwhat_stim/blank_white.png,stimulus/audwhat_stim/blank_white.png,0.0,0.0,0.0,0.0,0,0.0,0,0.0,0,0.0,0,0.0,0,0.0,0.0,0,0.0,0,0.0,0,0.0,0,0.0,0,0.0,0,0.0,0,0.0,0,0.0,9,,,,,0,40,40,40,,,,,,,,,372.3837689170032,372.3837689170032,372.3837689170032,372.3837689170032,372.3837689170032,372.3837689170032,372.3837689170032,372.3837689170032,372.2823270003156,372.3837689170032,372.3837689170032,372.3837689170032,372.2823270003156,372.3837689170032,372.3837689170032,372.3837689170032,372.3837689170032,372.3837689170032,372.3837689170032,372.3837689170032,372.3837689170032,372.3837689170032,372.3837689170032,372.3837689170032,372.3837689170032,372.3837689170032,372.3837689170032,372.3323270003156,372.3837689170032,372.3837689170032,372.3837689170032,372.3323270003156,372.3837689170032,372.3837689170032,372.3837689170032,372.3837689170032,372.3837689170032,377.61502866697265,377.61502866697265,381.6502817089786,None,0,,reldom2_s026,001,2025-03-06_15h46.07.981,What-A-Scan_AC,2022.2.5,None,
31,First_Order,6.0,audwhat,stimulus/audwhat_stim/dummy.wav,stimulus/audwhat_stim/dummy.wav,stimulus/audwhat_stim/string viola_high-pitch_F_loud.wav,stimulus/audwhat_stim/percussion xylophone_high-pitch_F_loud.wav,stimulus/audwhat_stim/blank_white.png,stimulus/audwhat_stim/category_box.png,stimulus/audwhat_stim/category_yes.png,stimulus/audwhat_stim/category_no.png,None,Category,None,Pitch,2,0.0,0,5.125,0,5.125,0,5.125,0,0.0,0.625,0,0.0,0,0.0,0,0.0,0,0.0,0,0.0,0,0.0,1,0.5,1,2.125,0,,,,,0,41,41,41,,,,,,,,,381.6502817089786,381.6502817089786,381.6502817089786,381.6502817089786,381.6502817089786,381.6502817089786,381.6502817089786,381.6502817089786,381.5764850416259,381.6502817089786,381.6502817089786,381.6502817089786,381.5764850416259,381.6502817089786,381.6502817089786,381.6502817089786,383.75235254201107,,381.6502817089786,381.6502817089786,386.8346854170086,381.6502817089786,381.6502817089786,381.6502817089786,381.6502817089786,382.11712524999166,383.1919158339733,382.08702000067956,,383.75235254201107,384.7834703339613,383.72202087566643,384.7834703339613,381.6502817089786,386.8346854170086,381.6502817089786,386.8346854170086,386.87608162499964,387.5329683749587,381.6502817089786,2,1,1.8540450820000842,reldom2_s026,001,2025-03-06_15h46.07.981,What-A-Scan_AC,2022.2.5,None,
32,First_Order,6.0,audwhat,stimulus/audwhat_stim/dummy.wav,stimulus/audwhat_stim/dummy.wav,stimulus/audwhat_stim/percussion mallet_high-pitch_F_loud.wav,stimulus/audwhat_stim/percussion mallet_low-pitch_D_loud.wav,stimulus/audwhat_stim/blank_white.png,stimulus/audwhat_stim/pitch_box.png,stimulus/audwhat_stim/pitch_yes.png,stimulus/audwhat_stim/pitch_no.png,None,Pitch,None,Category,2,0.0,0,5.125,0,5.125,0,5.125,0,0.0,0.625,0,0.0,0,0.0,0,0.0,0,0.0,0,0.0,0,0.0,1,0.5,1,2.125,0,,,,,0,42,42,42,,,,,,,,,387.74612766696373,387.74612766696373,387.74612766696373,387.74612766696373,387.74612766696373,387.74612766696373,387.74612766696373,387.74612766696373,387.66630170829205,387.74612766696373,387.74612766696373,387.74612766696373,387.66630170829205,387.74612766696373,387.74612766696373,387.74612766696373,389.8422341250116,393.86817695898935,387.74612766696373,387.74612766696373,392.91694366699085,387.74612766696373,387.74612766696373,387.74612766696373,387.74612766696373,388.21375020896085,389.2831953339628,388.1838870006652,,389.8422341250116,390.91863999998895,389.8119840006732,,387.74612766696373,392.91694366699085,387.74612766696373,392.91694366699085,392.95807954197517,393.6127909590141,387.74612766696373,2,1,1.0254241660004482,reldom2_s026,001,2025-03-06_15h46.07.981,What-A-Scan_AC,2022.2.5,None,
33,First_Order,6.0,audwhat,stimulus/audwhat_stim/dummy.wav,stimulus/audwhat_stim/dummy.wav,stimulus/audwhat_stim/string cello_high-pitch_D_loud.wav,stimulus/audwhat_stim/string cello_low-pitch_Dtri_loud.wav,stimulus/audwhat_stim/blank_white.png,stimulus/audwhat_stim/category_box.png,stimulus/audwhat_stim/category_yes.png,stimulus/audwhat_stim/category_no.png,None,Category,None,Category,1,0.0,0,5.125,0,5.125,0,5.125,0,0.0,0.625,0,0.0,0,0.0,0,0.0,0,0.0,0,0.0,0,0.0,1,0.5,1,2.125,0,,,,,0,43,43,43,,,,,,,,,393.86817695898935,393.86817695898935,393.86817695898935,393.86817695898935,393.86817695898935,393.86817695898935,393.86817695898935,393.86817695898935,393.78690258329345,393.86817695898935,393.86817695898935,393.86817695898935,393.78690258329345,393.86817695898935,393.86817695898935,393.86817695898935,395.971787958988,,393.86817695898935,393.86817695898935,399.0605403750087,393.86817695898935,393.86817695898935,393.86817695898935,393.86817695898935,394.338324500015,395.41071641701274,394.3084302086538,,395.971787958988,397.0049077089643,395.9416513756771,,393.86817695898935,399.0605403750087,393.86817695898935,399.0605403750087,399.0605403750087,399.71693049999885,393.86817695898935,1,1,0.9645404160255566,reldom2_s026,001,2025-03-06_15h46.07.981,What-A-Scan_AC,2022.2.5,None,
34,First_Order,6.0,audwhat,stimulus/audwhat_stim/dummy.wav,stimulus/audwhat_stim/dummy.wav,stimulus/audwhat_stim/string cello_high-pitch_F_loud.wav,stimulus/audwhat_stim/string viola_low-pitch_Ftri_loud.wav,stimulus/audwhat_stim/blank_white.png,stimulus/audwhat_stim/pitch_box.png,stimulus/audwhat_stim/pitch_yes.png,stimulus/audwhat_stim/pitch_no.png,None,Pitch,None,Category,2,0.0,0,5.125,0,5.125,0,5.125,0,0.0,0.625,0,0.0,0,0.0,0,0.0,0,0.0,0,0.0,0,0.0,1,0.5,1,2.125,0,,,,,0,44,44,44,,,,,,,,,399.9741571669583,399.9741571669583,399.9741571669583,399.9741571669583,399.9741571669583,399.9741571669583,399.9741571669583,399.9741571669583,399.8913450833371,399.9741571669583,399.9741571669583,399.9741571669583,399.8913450833371,399.9741571669583,399.9741571669583,399.9741571669583,402.07240887498483,,399.9741571669583,399.9741571669583,405.1547870839713,399.9741571669583,399.9741571669583,399.9741571669583,399.9741571669583,400.4425126250135,401.51330950000556,400.41248162562647,,402.07240887498483,403.1487189590116,402.0420890416756,,399.9741571669583,405.1547870839713,399.9741571669583,405.1547870839713,405.19631766696693,405.85145133396145,399.9741571669583,2,1,1.1576479999930598,reldom2_s026,001,2025-03-06_15h46.07.981,What-A-Scan_AC,2022.2.5,None,
0,0.0,None,fixation,stimulus/audwhat_stim/blank_white.png,stimulus/audwhat_stim/blank_white.png,stimulus/viswhat_stim/blank_white.png,stimulus/viswhat_stim/blank_white.png,stimulus/audwhat_stim/blank_white.png,stimulus/audwhat_stim/blank_white.png,stimulus/audwhat_stim/blank_white.png,stimulus/audwhat_stim/blank_white.png,0.0,0.0,0.0,0.0,0,0.0,0,0.0,0,0.0,0,0.0,0,0.0,0.0,0,0.0,0,0.0,0,0.0,0,0.0,0,0.0,0,0.0,0,0.0,0,0.0,10,,,,,0,45,45,45,,,,,,,,,406.085232249985,406.085232249985,406.085232249985,406.085232249985,406.085232249985,406.085232249985,406.085232249985,406.085232249985,405.9847846672948,406.085232249985,406.085232249985,406.085232249985,405.9847846672948,406.085232249985,406.085232249985,406.085232249985,406.085232249985,406.085232249985,406.085232249985,406.085232249985,406.085232249985,406.085232249985,406.085232249985,406.085232249985,406.085232249985,406.085232249985,406.085232249985,406.0347846672948,406.085232249985,406.085232249985,406.085232249985,406.0347846672948,406.085232249985,406.085232249985,406.085232249985,406.085232249985,406.085232249985,411.2893215419608,411.2893215419608,416.2653822500142,None,0,,reldom2_s026,001,2025-03-06_15h46.07.981,What-A-Scan_AC,2022.2.5,None,
35,Second_Order,6.0,audwhat,stimulus/audwhat_stim/percussion xylophone_high-pitch_D_loud.wav,stimulus/audwhat_stim/string viola_high-pitch_D_loud.wav,stimulus/audwhat_stim/percussion mallet_high-pitch_Dtri_loud.wav,stimulus/audwhat_stim/percussion mallet_low-pitch_D_loud.wav,stimulus/audwhat_stim/match_blank.png,stimulus/audwhat_stim/match_box.png,stimulus/audwhat_stim/match_yes.png,stimulus/audwhat_stim/match_no.png,2.0,Match,Pitch,Category,2,5.125,0,5.125,0,5.125,0,5.125,0,0.75,0.75,0,0.0,0,0.0,0,0.0,0,0.0,1,0.5,1,2.125,1,0.5,1,2.125,0,,,,,0,46,46,46,,,,,,,,,416.2653822500142,421.38778487499803,416.2653822500142,416.2653822500142,416.2653822500142,416.2653822500142,416.72170270897914,417.7112213340006,416.72338175063874,417.7112213340006,418.34718304197304,419.344548583962,418.358775083678,,421.38778487499803,422.23781870899256,424.2852546249633,,422.23781870899256,422.23781870899256,427.4038547920063,422.23781870899256,422.23781870899256,422.23781870899256,422.23781870899256,422.65590741700726,423.7252920420142,422.6254555006783,,424.2852546249633,425.35889283398865,424.2554067916392,,422.23781870899256,427.4038547920063,422.23781870899256,427.4038547920063,427.4038547920063,,422.23781870899256,2,1,0.6576876239851117,reldom2_s026,001,2025-03-06_15h46.07.981,What-A-Scan_AC,2022.2.5,None,
36,Second_Order,6.0,audwhat,stimulus/audwhat_stim/percussion mallet_high-pitch_Dtri_loud.wav,stimulus/audwhat_stim/string viola_high-pitch_Dtri_loud.wav,stimulus/audwhat_stim/string cello_high-pitch_Dtri_loud.wav,stimulus/audwhat_stim/string viola_low-pitch_F_loud.wav,stimulus/audwhat_stim/match_blank.png,stimulus/audwhat_stim/match_box.png,stimulus/audwhat_stim/match_yes.png,stimulus/audwhat_stim/match_no.png,2.0,Match,Pitch,Category,2,5.125,0,5.125,0,5.125,0,5.125,0,0.625,0.625,0,0.0,0,0.0,0,0.0,0,0.0,1,0.5,1,2.125,1,0.5,1,2.125,0,,,,,0,47,47,47,,,,,,,,,428.21885333396494,433.3318278339575,428.21885333396494,428.21885333396494,428.21885333396494,428.21885333396494,428.66819787496934,429.65518041700125,428.6822381256536,,430.29126070899656,431.2890006249654,430.303091000653,,433.3318278339575,434.0631730000023,436.10048370901495,,434.0631730000023,434.0631730000023,439.2175753340125,434.0631730000023,434.0631730000023,434.0631730000023,434.0631730000023,434.48082970897667,435.5448156669736,434.45175975066763,,436.10048370901495,437.17340724996757,436.070846333638,,434.0631730000023,439.2175753340125,434.0631730000023,439.2175753340125,439.2585112499655,439.9105373339844,434.0631730000023,2,1,0.8048298319918104,reldom2_s026,001,2025-03-06_15h46.07.981,What-A-Scan_AC,2022.2.5,None,
0,0.0,None,fixation,stimulus/audwhat_stim/blank_white.png,stimulus/audwhat_stim/blank_white.png,stimulus/viswhat_stim/blank_white.png,stimulus/viswhat_stim/blank_white.png,stimulus/audwhat_stim/blank_white.png,stimulus/audwhat_stim/blank_white.png,stimulus/audwhat_stim/blank_white.png,stimulus/audwhat_stim/blank_white.png,0.0,0.0,0.0,0.0,0,0.0,0,0.0,0,0.0,0,0.0,0,0.0,0.0,0,0.0,0,0.0,0,0.0,0,0.0,0,0.0,0,0.0,0,0.0,0,0.0,8,,,,,0,48,48,48,,,,,,,,,440.14623704197584,440.14623704197584,440.14623704197584,440.14623704197584,440.14623704197584,440.14623704197584,440.14623704197584,440.14623704197584,440.0438706673177,440.14623704197584,440.14623704197584,440.14623704197584,440.0438706673177,440.14623704197584,440.14623704197584,440.14623704197584,440.14623704197584,440.14623704197584,440.14623704197584,440.14623704197584,440.14623704197584,440.14623704197584,440.14623704197584,440.14623704197584,440.14623704197584,440.14623704197584,440.14623704197584,440.09387066731773,440.14623704197584,440.14623704197584,440.14623704197584,440.09387066731773,440.14623704197584,440.14623704197584,440.14623704197584,440.14623704197584,440.14623704197584,445.3377912089927,445.3377912089927,448.38996687496547,None,0,,reldom2_s026,001,2025-03-06_15h46.07.981,What-A-Scan_AC,2022.2.5,None,
37,First_Order,7.0,viswhat,stimulus/viswhat_stim/blank_white.png,stimulus/viswhat_stim/blank_white.png,stimulus/viswhat_stim/land_animal-zebra.png,stimulus/viswhat_stim/water_animal-squid.png,stimulus/viswhat_stim/blank_white.png,stimulus/viswhat_stim/type_box.png,stimulus/viswhat_stim/type_yes.png,stimulus/viswhat_stim/type_no.png,None,Type,None,Type,1,0.0,0,5.125,0,5.125,0,5.125,0,0.0,0.625,0,0.0,0,0.0,1,0.5,1,2.125,0,0.0,0,0.0,0,0.0,0,0.0,0,,,,,0,49,49,49,,,,,,,,,448.38996687496547,448.38996687496547,448.38996687496547,448.38996687496547,448.38996687496547,448.38996687496547,448.38996687496547,448.38996687496547,448.34340975064936,448.38996687496547,448.38996687496547,448.38996687496547,448.34340975064936,448.38996687496547,448.38996687496547,448.38996687496547,450.4889611249673,454.72610404196894,448.38996687496547,448.38996687496547,453.5283809999819,448.8736918339855,449.90685995901003,450.4889611249673,451.5242809999618,448.38996687496547,448.38996687496547,448.36007641731607,448.38996687496547,448.38996687496547,448.38996687496547,448.36007641731607,448.38996687496547,448.38996687496547,453.5283809999819,448.38996687496547,453.5283809999819,453.6084615419968,454.249323208991,448.38996687496547,1,1,2.185822208004538,reldom2_s026,001,2025-03-06_15h46.07.981,What-A-Scan_AC,2022.2.5,None,
38,First_Order,7.0,viswhat,stimulus/viswhat_stim/blank_white.png,stimulus/viswhat_stim/blank_white.png,stimulus/viswhat_stim/water_vehicle-submarine.png,stimulus/viswhat_stim/water_animal-lobster.png,stimulus/viswhat_stim/blank_white.png,stimulus/viswhat_stim/location_box.png,stimulus/viswhat_stim/location_yes.png,stimulus/viswhat_stim/location_no.png,None,Location,None,Location,1,0.0,0,5.125,0,5.125,0,5.125,0,0.0,0.625,0,0.0,0,0.0,1,0.5,1,2.125,0,0.0,0,0.0,0,0.0,0,0.0,0,,,,,0,50,50,50,,,,,,,,,454.72610404196894,454.72610404196894,454.72610404196894,454.72610404196894,454.72610404196894,454.72610404196894,454.72610404196894,454.72610404196894,454.44563954163266,454.72610404196894,454.72610404196894,454.72610404196894,454.44563954163266,454.72610404196894,454.72610404196894,454.72610404196894,456.83635549998144,460.84643916698406,454.72610404196894,454.72610404196894,459.9951913749683,455.17832537495997,456.38502424996113,456.83635549998144,458.0414144169772,454.72610404196894,454.72610404196894,454.578972874966,454.72610404196894,454.72610404196894,454.72610404196894,454.578972874966,454.72610404196894,454.72610404196894,459.9951913749683,454.72610404196894,459.9951913749683,459.8503260000143,,454.72610404196894,1,1,1.3496965820086189,reldom2_s026,001,2025-03-06_15h46.07.981,What-A-Scan_AC,2022.2.5,None,
39,First_Order,7.0,viswhat,stimulus/viswhat_stim/blank_white.png,stimulus/viswhat_stim/blank_white.png,stimulus/viswhat_stim/land_vehicle-vespa.png,stimulus/viswhat_stim/water_vehicle-yacht.png,stimulus/viswhat_stim/blank_white.png,stimulus/viswhat_stim/location_box.png,stimulus/viswhat_stim/location_yes.png,stimulus/viswhat_stim/location_no.png,None,Location,None,Type,2,0.0,0,5.125,0,5.125,0,5.125,0,0.0,0.625,0,0.0,0,0.0,1,0.5,1,2.125,0,0.0,0,0.0,0,0.0,0,0.0,0,,,,,0,51,51,51,,,,,,,,,460.84643916698406,460.84643916698406,460.84643916698406,460.84643916698406,460.84643916698406,460.84643916698406,460.84643916698406,460.84643916698406,460.78089374998814,460.84643916698406,460.84643916698406,460.84643916698406,460.78089374998814,460.84643916698406,460.84643916698406,460.84643916698406,462.95143999997526,,460.84643916698406,460.84643916698406,466.02270362497075,461.308799749997,462.363651541993,462.95143999997526,464.00590250000823,460.84643916698406,460.84643916698406,460.8142270833215,460.84643916698406,460.84643916698406,460.84643916698406,460.8142270833215,460.84643916698406,460.84643916698406,466.02270362497075,460.84643916698406,466.02270362497075,466.05941591697047,466.71452166698873,460.84643916698406,2,1,0.7618017910281196,reldom2_s026,001,2025-03-06_15h46.07.981,What-A-Scan_AC,2022.2.5,None,
40,First_Order,7.0,viswhat,stimulus/viswhat_stim/blank_white.png,stimulus/viswhat_stim/blank_white.png,stimulus/viswhat_stim/water_vehicle-canoe.png,stimulus/viswhat_stim/water_animal-whale (1).png,stimulus/viswhat_stim/blank_white.png,stimulus/viswhat_stim/location_box.png,stimulus/viswhat_stim/location_yes.png,stimulus/viswhat_stim/location_no.png,None,Location,None,Location,1,0.0,0,5.125,0,5.125,0,5.125,0,0.0,0.625,0,0.0,0,0.0,1,0.5,1,2.125,0,0.0,0,0.0,0,0.0,0,0.0,0,,,,,0,52,52,52,,,,,,,,,466.9231316249934,466.9231316249934,466.9231316249934,466.9231316249934,466.9231316249934,466.9231316249934,466.9231316249934,466.9231316249934,466.8839044583457,466.9231316249934,466.9231316249934,466.9231316249934,466.8839044583457,466.9231316249934,466.9231316249934,466.9231316249934,469.01164095901186,473.0699502089992,466.9231316249934,466.9231316249934,472.057638667,467.39311558398185,468.4259812919772,469.01164095901186,470.0524854589603,466.9231316249934,466.9231316249934,466.90057112501233,466.9231316249934,466.9231316249934,466.9231316249934,466.90057112501233,466.9231316249934,466.9231316249934,472.057638667,466.9231316249934,472.057638667,472.12997775000986,472.7726386249997,466.9231316249934,1,1,1.2951390410307795,reldom2_s026,001,2025-03-06_15h46.07.981,What-A-Scan_AC,2022.2.5,None,
0,0.0,None,fixation,stimulus/audwhat_stim/blank_white.png,stimulus/audwhat_stim/blank_white.png,stimulus/viswhat_stim/blank_white.png,stimulus/viswhat_stim/blank_white.png,stimulus/audwhat_stim/blank_white.png,stimulus/audwhat_stim/blank_white.png,stimulus/audwhat_stim/blank_white.png,stimulus/audwhat_stim/blank_white.png,0.0,0.0,0.0,0.0,0,0.0,0,0.0,0,0.0,0,0.0,0,0.0,0.0,0,0.0,0,0.0,0,0.0,0,0.0,0,0.0,0,0.0,0,0.0,0,0.0,10,,,,,0,53,53,53,,,,,,,,,473.0699502089992,473.0699502089992,473.0699502089992,473.0699502089992,473.0699502089992,473.0699502089992,473.0699502089992,473.0699502089992,472.96766804195937,473.0699502089992,473.0699502089992,473.0699502089992,472.96766804195937,473.0699502089992,473.0699502089992,473.0699502089992,473.0699502089992,473.0699502089992,473.0699502089992,473.0699502089992,473.0699502089992,473.0699502089992,473.0699502089992,473.0699502089992,473.0699502089992,473.0699502089992,473.0699502089992,473.0176680419594,473.0699502089992,473.0699502089992,473.0699502089992,473.0176680419594,473.0699502089992,473.0699502089992,473.0699502089992,473.0699502089992,473.0699502089992,478.2916129590012,478.2916129590012,483.2458220839617,None,0,,reldom2_s026,001,2025-03-06_15h46.07.981,What-A-Scan_AC,2022.2.5,None,
41,Second_Order,7.0,viswhat,stimulus/viswhat_stim/water_vehicle-cruiser.png,stimulus/viswhat_stim/land_vehicle-bus.png,stimulus/viswhat_stim/land_animal-fox.png,stimulus/viswhat_stim/water_animal-dolphin.png,stimulus/audwhat_stim/match_blank.png,stimulus/audwhat_stim/match_box.png,stimulus/audwhat_stim/match_yes.png,stimulus/audwhat_stim/match_no.png,1.0,Match,Type,Type,1,5.125,0,5.125,0,5.125,0,5.125,0,0.75,0.75,1,0.5,1,2.125,1,0.5,1,2.125,0,0.0,0,0.0,0,0.0,0,0.0,0,,,,,0,54,54,54,,,,,,,,,483.2458220839617,488.35858262499096,483.6781336250133,484.6647476250073,485.3010622090078,486.299159459013,483.2458220839617,483.2458220839617,483.2581868753031,483.2458220839617,483.2458220839617,483.2458220839617,483.2581868753031,483.2458220839617,488.35858262499096,489.16947337496094,491.25179650000064,495.14497416699305,489.16947337496094,489.16947337496094,494.31258395896293,489.6174157919595,490.6480691249599,491.25179650000064,492.28497641696595,489.16947337496094,489.16947337496094,489.14277591697174,489.16947337496094,489.16947337496094,489.16947337496094,489.14277591697174,489.16947337496094,489.16947337496094,494.31258395896293,489.16947337496094,494.31258395896293,494.35431550000794,,489.16947337496094,1,1,0.6860799160203896,reldom2_s026,001,2025-03-06_15h46.07.981,What-A-Scan_AC,2022.2.5,None,
42,Second_Order,7.0,viswhat,stimulus/viswhat_stim/water_animal-whale.png,stimulus/viswhat_stim/water_vehicle-ferryboat.png,stimulus/viswhat_stim/land_vehicle-tank.png,stimulus/viswhat_stim/land_animal-wolf.png,stimulus/audwhat_stim/match_blank.png,stimulus/audwhat_stim/match_box.png,stimulus/audwhat_stim/match_yes.png,stimulus/audwhat_stim/match_no.png,1.0,Match,Location,Location,1,5.125,0,5.125,0,5.125,0,5.125,0,0.625,0.625,1,0.5,1,2.125,1,0.5,1,2.125,0,0.0,0,0.0,0,0.0,0,0.0,0,,,,,0,55,55,55,,,,,,,,,495.14497416699305,500.26989875000436,495.6075933749671,496.6060989999678,497.22867529198993,498.2264062920003,495.14497416699305,495.14497416699305,495.14482504165886,495.14497416699305,495.14497416699305,495.14497416699305,495.14482504165886,495.14497416699305,500.26989875000436,500.945825208968,503.0303025839967,507.0723001669976,500.945825208968,500.945825208968,506.07269599998835,501.3941147089936,502.4157537500141,503.0303025839967,504.03481045900844,500.945825208968,500.945825208968,500.9327234999626,500.945825208968,500.945825208968,500.945825208968,500.9327234999626,500.945825208968,500.945825208968,506.07269599998835,500.945825208968,506.07269599998835,506.1367425839999,506.76457133400254,500.945825208968,1,1,0.8443942909943871,reldom2_s026,001,2025-03-06_15h46.07.981,What-A-Scan_AC,2022.2.5,None,
0,0.0,None,fixation,stimulus/audwhat_stim/blank_white.png,stimulus/audwhat_stim/blank_white.png,stimulus/viswhat_stim/blank_white.png,stimulus/viswhat_stim/blank_white.png,stimulus/audwhat_stim/blank_white.png,stimulus/audwhat_stim/blank_white.png,stimulus/audwhat_stim/blank_white.png,stimulus/audwhat_stim/blank_white.png,0.0,0.0,0.0,0.0,0,0.0,0,0.0,0,0.0,0,0.0,0,0.0,0.0,0,0.0,0,0.0,0,0.0,0,0.0,0,0.0,0,0.0,0,0.0,0,0.0,9,,,,,0,56,56,56,,,,,,,,,507.0723001669976,507.0723001669976,507.0723001669976,507.0723001669976,507.0723001669976,507.0723001669976,507.0723001669976,507.0723001669976,506.9646250833369,507.0723001669976,507.0723001669976,507.0723001669976,506.9646250833369,507.0723001669976,507.0723001669976,507.0723001669976,507.0723001669976,507.0723001669976,507.0723001669976,507.0723001669976,507.0723001669976,507.0723001669976,507.0723001669976,507.0723001669976,507.0723001669976,507.0723001669976,507.0723001669976,507.03129175000356,507.0723001669976,507.0723001669976,507.0723001669976,507.03129175000356,507.0723001669976,507.0723001669976,507.0723001669976,507.0723001669976,507.0723001669976,512.2694394999999,512.2694394999999,516.2906856249901,None,0,,reldom2_s026,001,2025-03-06_15h46.07.981,What-A-Scan_AC,2022.2.5,None,
43,First_Order,8.0,viswhat,stimulus/viswhat_stim/blank_white.png,stimulus/viswhat_stim/blank_white.png,stimulus/viswhat_stim/water_vehicle-canoe.png,stimulus/viswhat_stim/water_animal-octopus.png,stimulus/viswhat_stim/blank_white.png,stimulus/viswhat_stim/type_box.png,stimulus/viswhat_stim/type_yes.png,stimulus/viswhat_stim/type_no.png,None,Type,None,Location,2,0.0,0,5.125,0,5.125,0,5.125,0,0.0,0.625,0,0.0,0,0.0,1,0.5,1,2.125,0,0.0,0,0.0,0,0.0,0,0.0,0,,,,,0,57,57,57,,,,,,,,,516.2906856249901,516.2906856249901,516.2906856249901,516.2906856249901,516.2906856249901,516.2906856249901,516.2906856249901,516.2906856249901,516.2390771256565,516.2906856249901,516.2906856249901,516.2906856249901,516.2390771256565,516.2906856249901,516.2906856249901,516.2906856249901,518.3804085839656,,516.2906856249901,516.2906856249901,521.4321862919605,516.7705051669618,517.7964960839599,518.3804085839656,519.4119615840027,516.2906856249901,516.2906856249901,516.2557437923232,516.2906856249901,516.2906856249901,516.2906856249901,516.2557437923232,516.2906856249901,516.2906856249901,521.4321862919605,516.2906856249901,521.4321862919605,521.4898139999714,522.1489547499805,516.2906856249901,2,1,0.9655763740302064,reldom2_s026,001,2025-03-06_15h46.07.981,What-A-Scan_AC,2022.2.5,None,
44,First_Order,8.0,viswhat,stimulus/viswhat_stim/blank_white.png,stimulus/viswhat_stim/blank_white.png,stimulus/viswhat_stim/water_animal-octopus.png,stimulus/viswhat_stim/land_animal-snake.png,stimulus/viswhat_stim/blank_white.png,stimulus/viswhat_stim/type_box.png,stimulus/viswhat_stim/type_yes.png,stimulus/viswhat_stim/type_no.png,None,Type,None,Type,1,0.0,0,5.125,0,5.125,0,5.125,0,0.0,0.625,0,0.0,0,0.0,1,0.5,1,2.125,0,0.0,0,0.0,0,0.0,0,0.0,0,,,,,0,58,58,58,,,,,,,,,522.3664583750069,522.3664583750069,522.3664583750069,522.3664583750069,522.3664583750069,522.3664583750069,522.3664583750069,522.3664583750069,522.3230939586336,522.3664583750069,522.3664583750069,522.3664583750069,522.3230939586336,522.3664583750069,522.3664583750069,522.3664583750069,524.456926208979,528.4543389169849,522.3664583750069,522.3664583750069,527.5191867089598,522.8342202499625,523.8630760419765,524.456926208979,525.4926262499648,522.3664583750069,522.3664583750069,522.3397606253003,522.3664583750069,522.3664583750069,522.3664583750069,522.3397606253003,522.3664583750069,522.3664583750069,527.5191867089598,522.3664583750069,527.5191867089598,527.595772708999,528.2347518340102,522.3664583750069,1,1,0.628789916052483,reldom2_s026,001,2025-03-06_15h46.07.981,What-A-Scan_AC,2022.2.5,None,
45,First_Order,8.0,viswhat,stimulus/viswhat_stim/blank_white.png,stimulus/viswhat_stim/blank_white.png,stimulus/viswhat_stim/land_vehicle-schoolbus.png,stimulus/viswhat_stim/land_animal-pig.png,stimulus/viswhat_stim/blank_white.png,stimulus/viswhat_stim/type_box.png,stimulus/viswhat_stim/type_yes.png,stimulus/viswhat_stim/type_no.png,None,Type,None,Location,2,0.0,0,5.125,0,5.125,0,5.125,0,0.0,0.625,0,0.0,0,0.0,1,0.5,1,2.125,0,0.0,0,0.0,0,0.0,0,0.0,0,,,,,0,59,59,59,,,,,,,,,528.4543389169849,528.4543389169849,528.4543389169849,528.4543389169849,528.4543389169849,528.4543389169849,528.4543389169849,528.4543389169849,528.4110247919685,528.4543389169849,528.4543389169849,528.4543389169849,528.4110247919685,528.4543389169849,528.4543389169849,528.4543389169849,530.5490348339663,534.5647914590081,528.4543389169849,528.4543389169849,533.5832939170068,528.9305368749774,529.9649349589599,530.5490348339663,531.5629970000009,528.4543389169849,528.4543389169849,528.4276914586352,528.4543389169849,528.4543389169849,528.4543389169849,528.4276914586352,528.4543389169849,528.4543389169849,533.5832939170068,528.4543389169849,533.5832939170068,533.6668651669752,534.2963949589757,528.4543389169849,2,1,1.056580665986985,reldom2_s026,001,2025-03-06_15h46.07.981,What-A-Scan_AC,2022.2.5,None,
46,First_Order,8.0,viswhat,stimulus/viswhat_stim/blank_white.png,stimulus/viswhat_stim/blank_white.png,stimulus/viswhat_stim/land_vehicle-oldcar.png,stimulus/viswhat_stim/water_vehicle-powercruiser.png,stimulus/viswhat_stim/blank_white.png,stimulus/viswhat_stim/location_box.png,stimulus/viswhat_stim/location_yes.png,stimulus/viswhat_stim/location_no.png,None,Location,None,Type,2,0.0,0,5.125,0,5.125,0,5.125,0,0.0,0.625,0,0.0,0,0.0,1,0.5,1,2.125,0,0.0,0,0.0,0,0.0,0,0.0,0,,,,,0,60,60,60,,,,,,,,,534.5647914590081,534.5647914590081,534.5647914590081,534.5647914590081,534.5647914590081,534.5647914590081,534.5647914590081,534.5647914590081,534.5008329169592,534.5647914590081,534.5647914590081,534.5647914590081,534.5008329169592,534.5647914590081,534.5647914590081,534.5647914590081,536.6714856249746,540.7049864589935,534.5647914590081,534.5647914590081,539.7321608749917,535.0191899999627,536.051599917002,536.6714856249746,537.7112056670012,534.5647914590081,534.5647914590081,534.5341662502925,534.5647914590081,534.5647914590081,534.5647914590081,534.5341662502925,534.5647914590081,534.5647914590081,539.7321608749917,534.5647914590081,539.7321608749917,539.7677387919975,540.4442211249843,534.5647914590081,2,1,0.7078432079870254,reldom2_s026,001,2025-03-06_15h46.07.981,What-A-Scan_AC,2022.2.5,None,
0,0.0,None,fixation,stimulus/audwhat_stim/blank_white.png,stimulus/audwhat_stim/blank_white.png,stimulus/viswhat_stim/blank_white.png,stimulus/viswhat_stim/blank_white.png,stimulus/audwhat_stim/blank_white.png,stimulus/audwhat_stim/blank_white.png,stimulus/audwhat_stim/blank_white.png,stimulus/audwhat_stim/blank_white.png,0.0,0.0,0.0,0.0,0,0.0,0,0.0,0,0.0,0,0.0,0,0.0,0.0,0,0.0,0,0.0,0,0.0,0,0.0,0,0.0,0,0.0,0,0.0,0,0.0,9,,,,,0,61,61,61,,,,,,,,,540.7049864589935,540.7049864589935,540.7049864589935,540.7049864589935,540.7049864589935,540.7049864589935,540.7049864589935,540.7049864589935,540.6130405832974,540.7049864589935,540.7049864589935,540.7049864589935,540.6130405832974,540.7049864589935,540.7049864589935,540.7049864589935,540.7049864589935,540.7049864589935,540.7049864589935,540.7049864589935,540.7049864589935,540.7049864589935,540.7049864589935,540.7049864589935,540.7049864589935,540.7049864589935,540.7049864589935,540.6630405832974,540.7049864589935,540.7049864589935,540.7049864589935,540.6630405832974,540.7049864589935,540.7049864589935,540.7049864589935,540.7049864589935,540.7049864589935,545.9277373749646,545.9277373749646,549.8950284589664,None,0,,reldom2_s026,001,2025-03-06_15h46.07.981,What-A-Scan_AC,2022.2.5,None,
47,Second_Order,8.0,viswhat,stimulus/viswhat_stim/water_animal-dolphin.png,stimulus/viswhat_stim/water_vehicle-cruiseship.png,stimulus/viswhat_stim/land_vehicle-oldcar.png,stimulus/viswhat_stim/land_animal-giraffe.png,stimulus/audwhat_stim/match_blank.png,stimulus/audwhat_stim/match_box.png,stimulus/audwhat_stim/match_yes.png,stimulus/audwhat_stim/match_no.png,1.0,Match,Location,Location,1,5.125,0,5.125,0,5.125,0,5.125,0,0.75,0.75,1,0.5,1,2.125,1,0.5,1,2.125,0,0.0,0,0.0,0,0.0,0,0.0,0,,,,,0,62,62,62,,,,,,,,,549.8950284589664,555.0128290419816,550.2962872919743,551.2863950000028,551.9225540419575,552.9201127499691,549.8950284589664,549.8950284589664,549.9097219586761,549.8950284589664,549.8950284589664,549.8950284589664,549.9097219586761,549.8950284589664,555.0128290419816,555.9066381249577,557.9713682499714,,555.9066381249577,555.9066381249577,561.1014950840035,556.307316209015,557.3739324169583,557.9713682499714,559.0407433749642,555.9066381249577,555.9066381249577,555.8469999589958,555.9066381249577,555.9066381249577,555.9066381249577,555.8469999589958,555.9066381249577,555.9066381249577,561.1014950840035,555.9066381249577,561.1014950840035,561.1014950840035,,555.9066381249577,1,1,0.6767244579968974,reldom2_s026,001,2025-03-06_15h46.07.981,What-A-Scan_AC,2022.2.5,None,
48,Second_Order,8.0,viswhat,stimulus/viswhat_stim/land_animal-ostrich.png,stimulus/viswhat_stim/water_animal-shark.png,stimulus/viswhat_stim/water_animal-whale.png,stimulus/viswhat_stim/water_vehicle-cargoboat.png,stimulus/audwhat_stim/match_blank.png,stimulus/audwhat_stim/match_box.png,stimulus/audwhat_stim/match_yes.png,stimulus/audwhat_stim/match_no.png,2.0,Match,Type,Location,2,5.125,0,5.125,0,5.125,0,5.125,0,0.625,0.625,1,0.5,1,2.125,1,0.5,1,2.125,0,0.0,0,0.0,0,0.0,0,0.0,0,,,,,0,63,63,63,,,,,,,,,561.8617794589954,566.9739372499753,562.3269325000001,563.3143636249588,563.9500302500091,564.9471933749737,561.8617794589954,561.8617794589954,561.8759620416482,561.8617794589954,561.8617794589954,561.8617794589954,561.8759620416482,561.8617794589954,566.9739372499753,567.6653473749757,569.7324122919817,573.7802337919711,567.6653473749757,567.6653473749757,572.7955827499973,568.1238547089742,569.1454612499801,569.7324122919817,570.7595700419624,567.6653473749757,567.6653473749757,567.6368940000073,567.6653473749757,567.6653473749757,567.6653473749757,567.6368940000073,567.6653473749757,567.6653473749757,572.7955827499973,567.6653473749757,572.7955827499973,572.859163791989,573.494350583991,567.6653473749757,2,1,0.8307990829925984,reldom2_s026,001,2025-03-06_15h46.07.981,What-A-Scan_AC,2022.2.5,None,
0,0.0,None,fixation,stimulus/audwhat_stim/blank_white.png,stimulus/audwhat_stim/blank_white.png,stimulus/viswhat_stim/blank_white.png,stimulus/viswhat_stim/blank_white.png,stimulus/audwhat_stim/blank_white.png,stimulus/audwhat_stim/blank_white.png,stimulus/audwhat_stim/blank_white.png,stimulus/audwhat_stim/blank_white.png,0.0,0.0,0.0,0.0,0,0.0,0,0.0,0,0.0,0,0.0,0,0.0,0.0,0,0.0,0,0.0,0,0.0,0,0.0,0,0.0,0,0.0,0,0.0,0,0.0,16,,,,,0,64,64,64,,,,,,,,,573.7802337919711,573.7802337919711,573.7802337919711,573.7802337919711,573.7802337919711,573.7802337919711,573.7802337919711,573.7802337919711,573.6785615419736,573.7802337919711,573.7802337919711,573.7802337919711,573.6785615419736,573.7802337919711,573.7802337919711,573.7802337919711,573.7802337919711,573.7802337919711,573.7802337919711,573.7802337919711,573.7802337919711,573.7802337919711,573.7802337919711,573.7802337919711,573.7802337919711,573.7802337919711,573.7802337919711,573.7285615419736,573.7802337919711,573.7802337919711,573.7802337919711,573.7285615419736,573.7802337919711,573.7802337919711,573.7802337919711,573.7802337919711,573.7802337919711,578.982765208988,578.982765208988,589.9091469169944,None,0,,reldom2_s026,001,2025-03-06_15h46.07.981,What-A-Scan_AC,2022.2.5,None,
