Trial,Order,Block,Type,Stimuli_File1,Stimuli_File2,Stimuli_File3,Stimuli_File4,Cue_File1,Cue_File2,Response_File_Yes,Response_File_No,Match,Cue_Dimension,Pair1_Dimension,Pair2_Dimension,Key,Cue1_Duration,Cue1_Onset,Cue2_Duration,Cue2_Onset,ResponseYes_Duration,ResponseYes_Onset,ResponseNo_Duration,ResponseNo_Onset,ITI_Within,ITI_Between,Image1_Duration,Image1_Onset,Image2_Duration,Image2_Onset,Image3_Duration,Image3_Onset,Image4_Duration,Image4_Onset,Sound1_Duration,Sound1_Onset,Sound2_Duration,Sound2_Onset,Sound3_Duration,Sound3_Onset,Sound4_Duration,Sound4_Onset,Fixation_Duration,trials_2.thisRepN,trials_2.thisTrialN,trials_2.thisN,trials_2.thisIndex,trials.thisRepN,trials.thisTrialN,trials.thisN,trials.thisIndex,text_start.started,key_resp_start.started,key_resp_start.keys,key_resp_start.rt,text2.started,key_resp_2.started,key_resp_2.keys,key_resp_2.rt,cue_file1.started,cue_file1.stopped,image_1.started,image_1.stopped,image_2.started,image_2.stopped,sound_icon1.started,sound_icon1.stopped,sound_1.started,sound_1.stopped,sound_icon2.started,sound_icon2.stopped,sound_2.started,sound_2.stopped,image_blank_1.started,image_blank_1.stopped,key_press.started,key_press.stopped,fixation_text.started,cue_file2.started,cue_file2.stopped,image_3.started,image_3.stopped,image_4.started,image_4.stopped,sound_icon3.started,sound_icon3.stopped,sound_3.started,sound_3.stopped,sound_icon4.started,sound_icon4.stopped,sound_4.started,sound_4.stopped,response_yes.started,response_yes.stopped,response_no.started,response_no.stopped,iti_blank.started,iti_blank.stopped,fixation_text.stopped,key_press.keys,key_press.corr,key_press.rt,participant,session,date,expName,psychopyVersion,frameRate,
,,,,,,,,,,,,,,,,,,,,,,,,,,,,,,,,,,,,,,,,,,,,,,,,,,,,7.493532833002973,7.493532833002973,2,0.6451382089871913,,,,,,,,,,,,,,,,,,,,,,,,,,,,,,,,,,,,,,,,,,,,,,,,reldom2_s026,001,2025-03-06_16h20.14.964,Vis-A-Scan_AC,2022.2.5,None,
,,,,,,,,,,,,,,,,,,,,,,,,,,,,,,,,,,,,,,,,,,,,0,0,0,0,,,,,,,,,8.171891624981072,8.171891624981072,5,15.58292687498033,,,,,,,,,,,,,,,,,,,,,,,,,,,,,,,,,,,,,,,,,,,,reldom2_s026,001,2025-03-06_16h20.14.964,Vis-A-Scan_AC,2022.2.5,None,
,,,,,,,,,,,,,,,,,,,,,,,,,,,,,,,,,,,,,,,,,,,,1,0,1,0,,,,,,,,,23.774563500017393,23.774563500017393,5,1.9834130829549395,,,,,,,,,,,,,,,,,,,,,,,,,,,,,,,,,,,,,,,,,,,,reldom2_s026,001,2025-03-06_16h20.14.964,Vis-A-Scan_AC,2022.2.5,None,
,,,,,,,,,,,,,,,,,,,,,,,,,,,,,,,,,,,,,,,,,,,,2,0,2,0,,,,,,,,,25.774036707996856,25.774036707996856,5,1.9806100410060026,,,,,,,,,,,,,,,,,,,,,,,,,,,,,,,,,,,,,,,,,,,,reldom2_s026,001,2025-03-06_16h20.14.964,Vis-A-Scan_AC,2022.2.5,None,
,,,,,,,,,,,,,,,,,,,,,,,,,,,,,,,,,,,,,,,,,,,,3,0,3,0,,,,,,,,,27.768669666023925,27.768669666023925,5,1.9857301249867305,,,,,,,,,,,,,,,,,,,,,,,,,,,,,,,,,,,,,,,,,,,,reldom2_s026,001,2025-03-06_16h20.14.964,Vis-A-Scan_AC,2022.2.5,None,
0,0.0,None,fixation,stimulus/viswhat_stim/blank_white.png,stimulus/viswhat_stim/blank_white.png,stimulus/viswhere_stim/blank_white.png,stimulus/viswhere_stim/blank_white.png,stimulus/viswhat_stim/blank_white.png,stimulus/viswhat_stim/blank_white.png,stimulus/viswhat_stim/blank_white.png,stimulus/viswhat_stim/blank_white.png,0.0,0.0,0.0,0.0,0,0.0,0,0.0,0,0.0,0,0.0,0,0.0,0.0,0,0.0,0,0.0,0,0.0,0,0.0,0,0,0,0,0,0,0,0,16,,,,,0,0,0,0,,,,,,,,,29.96882245800225,29.96882245800225,29.96882245800225,29.96882245800225,29.96882245800225,29.96882245800225,29.96882245800225,29.96882245800225,29.880559916693407,29.96882245800225,29.96882245800225,29.96882245800225,29.880559916693407,29.96882245800225,29.96882245800225,29.96882245800225,29.96882245800225,29.96882245800225,29.96882245800225,29.96882245800225,29.96882245800225,29.96882245800225,29.96882245800225,29.96882245800225,29.96882245800225,29.96882245800225,29.96882245800225,29.930559916693404,29.96882245800225,29.96882245800225,29.96882245800225,29.930559916693404,29.96882245800225,29.96882245800225,29.96882245800225,29.96882245800225,29.96882245800225,35.1584106250084,35.1584106250084,46.21265508298529,None,0,,reldom2_s026,001,2025-03-06_16h20.14.964,Vis-A-Scan_AC,2022.2.5,None,
1,First_Order,1.0,viswhat,stimulus/viswhat_stim/blank_white.png,stimulus/viswhat_stim/blank_white.png,stimulus/viswhat_stim/land_animal-moose.png,stimulus/viswhat_stim/water_animal-seaturtle.png,stimulus/viswhat_stim/blank_white.png,stimulus/viswhat_stim/type_box.png,stimulus/viswhat_stim/type_yes.png,stimulus/viswhat_stim/type_no.png,None,Type,None,Type,1,0.0,0,5.125,0,5.125,0,5.125,0,0.0,0.625,0,0.0,0,0.0,1,0.5,1,2.125,0,0,0,0,0,0,0,0,0,,,,,0,1,1,1,,,,,,,,,46.21265508298529,46.21265508298529,46.21265508298529,46.21265508298529,46.21265508298529,46.21265508298529,46.21265508298529,46.21265508298529,46.114501707989255,46.21265508298529,46.21265508298529,46.21265508298529,46.114501707989255,46.21265508298529,46.21265508298529,46.21265508298529,48.32761204103008,,46.21265508298529,46.21265508298529,51.43003400001908,46.68846079101786,47.744387625018135,48.32761204103008,49.38342533301329,46.21265508298529,46.21265508298529,46.16450170798925,46.21265508298529,46.21265508298529,46.21265508298529,46.16450170798925,46.21265508298529,46.21265508298529,51.43003400001908,46.21265508298529,51.43003400001908,51.43003400001908,52.24836066598073,46.21265508298529,1,1,0.5381881250068545,reldom2_s026,001,2025-03-06_16h20.14.964,Vis-A-Scan_AC,2022.2.5,None,
2,First_Order,1.0,viswhat,stimulus/viswhat_stim/blank_white.png,stimulus/viswhat_stim/blank_white.png,stimulus/viswhat_stim/water_vehicle-submarine.png,stimulus/viswhat_stim/land_vehicle-firetruck.png,stimulus/viswhat_stim/blank_white.png,stimulus/viswhat_stim/type_box.png,stimulus/viswhat_stim/type_yes.png,stimulus/viswhat_stim/type_no.png,None,Type,None,Type,1,0.0,0,5.125,0,5.125,0,5.125,0,0.0,0.625,0,0.0,0,0.0,1,0.5,1,2.125,0,0,0,0,0,0,0,0,0,,,,,0,2,2,2,,,,,,,,,52.24836066598073,52.24836066598073,52.24836066598073,52.24836066598073,52.24836066598073,52.24836066598073,52.24836066598073,52.24836066598073,52.220492332688686,52.24836066598073,52.24836066598073,52.24836066598073,52.220492332688686,52.24836066598073,52.24836066598073,52.24836066598073,54.359636416018475,58.34275437501492,52.24836066598073,52.24836066598073,57.381885958020575,52.73729129100684,53.76855229103239,54.359636416018475,55.37058158300351,52.24836066598073,52.24836066598073,52.23715899935535,52.24836066598073,52.24836066598073,52.24836066598073,52.23715899935535,52.24836066598073,52.24836066598073,57.381885958020575,52.24836066598073,57.381885958020575,57.462842000008095,58.091931125032715,52.24836066598073,1,1,0.5136144160060212,reldom2_s026,001,2025-03-06_16h20.14.964,Vis-A-Scan_AC,2022.2.5,None,
3,First_Order,1.0,viswhat,stimulus/viswhat_stim/blank_white.png,stimulus/viswhat_stim/blank_white.png,stimulus/viswhat_stim/water_vehicle-kayak.png,stimulus/viswhat_stim/land_vehicle-vespa.png,stimulus/viswhat_stim/blank_white.png,stimulus/viswhat_stim/location_box.png,stimulus/viswhat_stim/location_yes.png,stimulus/viswhat_stim/location_no.png,None,Location,None,Type,2,0.0,0,5.125,0,5.125,0,5.125,0,0.0,0.625,0,0.0,0,0.0,1,0.5,1,2.125,0,0,0,0,0,0,0,0,0,,,,,0,3,3,3,,,,,,,,,58.34275437501492,58.34275437501492,58.34275437501492,58.34275437501492,58.34275437501492,58.34275437501492,58.34275437501492,58.34275437501492,58.29165024999529,58.34275437501492,58.34275437501492,58.34275437501492,58.29165024999529,58.34275437501492,58.34275437501492,58.34275437501492,60.441967333026696,,58.34275437501492,58.34275437501492,63.50568395800656,58.821089749981184,59.852543833025265,60.441967333026696,61.47658070799662,58.34275437501492,58.34275437501492,58.30831691666196,58.34275437501492,58.34275437501492,58.34275437501492,58.30831691666196,58.34275437501492,58.34275437501492,63.50568395800656,58.34275437501492,63.50568395800656,63.56819579098374,64.22538274998078,58.34275437501492,2,1,1.744648459018208,reldom2_s026,001,2025-03-06_16h20.14.964,Vis-A-Scan_AC,2022.2.5,None,
4,First_Order,1.0,viswhat,stimulus/viswhat_stim/blank_white.png,stimulus/viswhat_stim/blank_white.png,stimulus/viswhat_stim/water_vehicle-pirateship.png,stimulus/viswhat_stim/land_vehicle-buldozer.png,stimulus/viswhat_stim/blank_white.png,stimulus/viswhat_stim/location_box.png,stimulus/viswhat_stim/location_yes.png,stimulus/viswhat_stim/location_no.png,None,Location,None,Type,2,0.0,0,5.125,0,5.125,0,5.125,0,0.0,0.625,0,0.0,0,0.0,1,0.5,1,2.125,0,0,0,0,0,0,0,0,0,,,,,0,4,4,4,,,,,,,,,64.42524254100863,64.42524254100863,64.42524254100863,64.42524254100863,64.42524254100863,64.42524254100863,64.42524254100863,64.42524254100863,64.37301933267541,64.42524254100863,64.42524254100863,64.42524254100863,64.37301933267541,64.42524254100863,64.42524254100863,64.42524254100863,66.52837291598553,,64.42524254100863,64.42524254100863,69.56799650000175,64.90776237501996,65.94325404101983,66.52837291598553,67.56829312501941,64.42524254100863,64.42524254100863,64.40635266600876,64.42524254100863,64.42524254100863,64.42524254100863,64.40635266600876,64.42524254100863,64.42524254100863,69.56799650000175,64.42524254100863,69.56799650000175,69.65411587501876,70.3174957910087,64.42524254100863,2,1,1.0289361670147628,reldom2_s026,001,2025-03-06_16h20.14.964,Vis-A-Scan_AC,2022.2.5,None,
0,0.0,None,fixation,stimulus/viswhat_stim/blank_white.png,stimulus/viswhat_stim/blank_white.png,stimulus/viswhere_stim/blank_white.png,stimulus/viswhere_stim/blank_white.png,stimulus/viswhat_stim/blank_white.png,stimulus/viswhat_stim/blank_white.png,stimulus/viswhat_stim/blank_white.png,stimulus/viswhat_stim/blank_white.png,0.0,0.0,0.0,0.0,0,0.0,0,0.0,0,0.0,0,0.0,0,0.0,0.0,0,0.0,0,0.0,0,0.0,0,0.0,0,0,0,0,0,0,0,0,9,,,,,0,5,5,5,,,,,,,,,70.55785762501182,70.55785762501182,70.55785762501182,70.55785762501182,70.55785762501182,70.55785762501182,70.55785762501182,70.55785762501182,70.46268158269037,70.55785762501182,70.55785762501182,70.55785762501182,70.46268158269037,70.55785762501182,70.55785762501182,70.55785762501182,70.55785762501182,70.55785762501182,70.55785762501182,70.55785762501182,70.55785762501182,70.55785762501182,70.55785762501182,70.55785762501182,70.55785762501182,70.55785762501182,70.55785762501182,70.51268158269038,70.55785762501182,70.55785762501182,70.55785762501182,70.51268158269038,70.55785762501182,70.55785762501182,70.55785762501182,70.55785762501182,70.55785762501182,75.77897137502441,75.77897137502441,79.73070041602477,None,0,,reldom2_s026,001,2025-03-06_16h20.14.964,Vis-A-Scan_AC,2022.2.5,None,
5,Second_Order,1.0,viswhat,stimulus/viswhat_stim/water_vehicle-cruiser.png,stimulus/viswhat_stim/land_vehicle-pickuptruck.png,stimulus/viswhat_stim/land_animal-snake.png,stimulus/viswhat_stim/land_vehicle-trolley.png,stimulus/viswhat_stim/match_blank.png,stimulus/viswhat_stim/match_box.png,stimulus/viswhat_stim/match_yes.png,stimulus/viswhat_stim/match_no.png,2.0,Match,Type,Location,2,5.125,0,5.125,0,5.125,0,5.125,0,0.75,0.75,1,0.5,1,2.125,1,0.5,1,2.125,0,0,0,0,0,0,0,0,0,,,,,0,6,6,6,,,,,,,,,79.73070041602477,84.8459887910285,80.1631549160229,81.15264579100767,81.78893233300187,82.7858682500082,79.73070041602477,79.73070041602477,79.74345045832064,79.73070041602477,79.73070041602477,79.73070041602477,79.74345045832064,79.73070041602477,84.8459887910285,85.64770587498788,87.71420429099817,91.62171491602203,85.64770587498788,85.64770587498788,90.80399641598342,86.1052784579806,87.12520325003425,87.71420429099817,88.71996291598771,85.64770587498788,85.64770587498788,85.63018416602863,85.64770587498788,85.64770587498788,85.64770587498788,85.63018416602863,85.64770587498788,85.64770587498788,90.80399641598342,85.64770587498788,90.80399641598342,90.8408764579799,,85.64770587498788,2,1,0.5925799999968149,reldom2_s026,001,2025-03-06_16h20.14.964,Vis-A-Scan_AC,2022.2.5,None,
6,Second_Order,1.0,viswhat,stimulus/viswhat_stim/land_vehicle-firetruck.png,stimulus/viswhat_stim/land_animal-dog.png,stimulus/viswhat_stim/water_animal-seaturtle.png,stimulus/viswhat_stim/water_vehicle-sailboat.png,stimulus/viswhat_stim/match_blank.png,stimulus/viswhat_stim/match_box.png,stimulus/viswhat_stim/match_yes.png,stimulus/viswhat_stim/match_no.png,1.0,Match,Location,Location,1,5.125,0,5.125,0,5.125,0,5.125,0,0.625,0.625,1,0.5,1,2.125,1,0.5,1,2.125,0,0,0,0,0,0,0,0,0,,,,,0,7,7,7,,,,,,,,,91.62171491602203,96.73944645799929,92.0950767500326,93.0935313749942,93.71710608300054,94.71382770797936,91.62171491602203,91.62171491602203,91.62247983303386,91.62171491602203,91.62171491602203,91.62171491602203,91.62247983303386,91.62171491602203,96.73944645799929,97.48415187501814,99.54247733298689,,97.48415187501814,97.48415187501814,102.66220087499823,97.9076193330111,98.96275537501788,99.54247733298689,100.60417474998394,97.48415187501814,97.48415187501814,97.43677312434495,97.48415187501814,97.48415187501814,97.48415187501814,97.43677312434495,97.48415187501814,97.48415187501814,102.66220087499823,97.48415187501814,102.66220087499823,102.66220087499823,103.3231771250139,97.48415187501814,1,1,0.6997863340075128,reldom2_s026,001,2025-03-06_16h20.14.964,Vis-A-Scan_AC,2022.2.5,None,
0,0.0,None,fixation,stimulus/viswhat_stim/blank_white.png,stimulus/viswhat_stim/blank_white.png,stimulus/viswhere_stim/blank_white.png,stimulus/viswhere_stim/blank_white.png,stimulus/viswhat_stim/blank_white.png,stimulus/viswhat_stim/blank_white.png,stimulus/viswhat_stim/blank_white.png,stimulus/viswhat_stim/blank_white.png,0.0,0.0,0.0,0.0,0,0.0,0,0.0,0,0.0,0,0.0,0,0.0,0.0,0,0.0,0,0.0,0,0.0,0,0.0,0,0,0,0,0,0,0,0,9,,,,,0,8,8,8,,,,,,,,,103.57485233299667,103.57485233299667,103.57485233299667,103.57485233299667,103.57485233299667,103.57485233299667,103.57485233299667,103.57485233299667,103.4731771250139,103.57485233299667,103.57485233299667,103.57485233299667,103.4731771250139,103.57485233299667,103.57485233299667,103.57485233299667,103.57485233299667,103.57485233299667,103.57485233299667,103.57485233299667,103.57485233299667,103.57485233299667,103.57485233299667,103.57485233299667,103.57485233299667,103.57485233299667,103.57485233299667,103.5231771250139,103.57485233299667,103.57485233299667,103.57485233299667,103.5231771250139,103.57485233299667,103.57485233299667,103.57485233299667,103.57485233299667,103.57485233299667,108.79147254099371,108.79147254099371,112.83983004098991,None,0,,reldom2_s026,001,2025-03-06_16h20.14.964,Vis-A-Scan_AC,2022.2.5,None,
7,First_Order,2.0,viswhat,stimulus/viswhat_stim/blank_white.png,stimulus/viswhat_stim/blank_white.png,stimulus/viswhat_stim/water_vehicle-ship.png,stimulus/viswhat_stim/water_animal-stingray.png,stimulus/viswhat_stim/blank_white.png,stimulus/viswhat_stim/type_box.png,stimulus/viswhat_stim/type_yes.png,stimulus/viswhat_stim/type_no.png,None,Type,None,Location,2,0.0,0,5.125,0,5.125,0,5.125,0,0.0,0.625,0,0.0,0,0.0,1,0.5,1,2.125,0,0,0,0,0,0,0,0,0,,,,,0,9,9,9,,,,,,,,,112.83983004098991,112.83983004098991,112.83983004098991,112.83983004098991,112.83983004098991,112.83983004098991,112.83983004098991,112.83983004098991,112.74795224969664,112.83983004098991,112.83983004098991,112.83983004098991,112.74795224969664,112.83983004098991,112.83983004098991,112.83983004098991,114.94269404100487,,112.83983004098991,112.83983004098991,118.04320304101566,113.28285020799376,114.33650475001195,114.94269404100487,115.99697174999164,112.83983004098991,112.83983004098991,112.79795224969664,112.83983004098991,112.83983004098991,112.83983004098991,112.79795224969664,112.83983004098991,112.83983004098991,118.04320304101566,112.83983004098991,118.04320304101566,118.04320304101566,118.8721520830295,112.83983004098991,2,1,1.2774236249970272,reldom2_s026,001,2025-03-06_16h20.14.964,Vis-A-Scan_AC,2022.2.5,None,
8,First_Order,2.0,viswhat,stimulus/viswhat_stim/blank_white.png,stimulus/viswhat_stim/blank_white.png,stimulus/viswhat_stim/land_vehicle-train.png,stimulus/viswhat_stim/land_animal-fox.png,stimulus/viswhat_stim/blank_white.png,stimulus/viswhat_stim/type_box.png,stimulus/viswhat_stim/type_yes.png,stimulus/viswhat_stim/type_no.png,None,Type,None,Location,2,0.0,0,5.125,0,5.125,0,5.125,0,0.0,0.625,0,0.0,0,0.0,1,0.5,1,2.125,0,0,0,0,0,0,0,0,0,,,,,0,10,10,10,,,,,,,,,118.8721520830295,118.8721520830295,118.8721520830295,118.8721520830295,118.8721520830295,118.8721520830295,118.8721520830295,118.8721520830295,118.83990545801353,118.8721520830295,118.8721520830295,118.8721520830295,118.83990545801353,118.8721520830295,118.8721520830295,118.8721520830295,120.97664900001837,124.98346125002718,118.8721520830295,118.8721520830295,124.00826579099521,119.34985191602027,120.37204395799199,120.97664900001837,121.98354637500597,118.8721520830295,118.8721520830295,118.8565721246802,118.8721520830295,118.8721520830295,118.8721520830295,118.8565721246802,118.8721520830295,118.8721520830295,124.00826579099521,118.8721520830295,124.00826579099521,124.08844266599044,124.71776658302406,118.8721520830295,2,1,0.520024583034683,reldom2_s026,001,2025-03-06_16h20.14.964,Vis-A-Scan_AC,2022.2.5,None,
9,First_Order,2.0,viswhat,stimulus/viswhat_stim/blank_white.png,stimulus/viswhat_stim/blank_white.png,stimulus/viswhat_stim/land_animal-lion.png,stimulus/viswhat_stim/land_vehicle-bus.png,stimulus/viswhat_stim/blank_white.png,stimulus/viswhat_stim/location_box.png,stimulus/viswhat_stim/location_yes.png,stimulus/viswhat_stim/location_no.png,None,Location,None,Location,1,0.0,0,5.125,0,5.125,0,5.125,0,0.0,0.625,0,0.0,0,0.0,1,0.5,1,2.125,0,0,0,0,0,0,0,0,0,,,,,0,11,11,11,,,,,,,,,124.98346125002718,124.98346125002718,124.98346125002718,124.98346125002718,124.98346125002718,124.98346125002718,124.98346125002718,124.98346125002718,124.91880491633977,124.98346125002718,124.98346125002718,124.98346125002718,124.91880491633977,124.98346125002718,124.98346125002718,124.98346125002718,127.09859433298698,,124.98346125002718,124.98346125002718,130.1359543330036,125.44560095801717,126.48529691598378,127.09859433298698,128.14060195803177,124.98346125002718,124.98346125002718,124.9521382496731,124.98346125002718,124.98346125002718,124.98346125002718,124.9521382496731,124.98346125002718,124.98346125002718,130.1359543330036,124.98346125002718,130.1359543330036,130.20159474998945,130.85435066599166,124.98346125002718,1,1,0.6459484589868225,reldom2_s026,001,2025-03-06_16h20.14.964,Vis-A-Scan_AC,2022.2.5,None,
10,First_Order,2.0,viswhat,stimulus/viswhat_stim/blank_white.png,stimulus/viswhat_stim/blank_white.png,stimulus/viswhat_stim/land_animal-elephant.png,stimulus/viswhat_stim/land_vehicle-motorcycle.png,stimulus/viswhat_stim/blank_white.png,stimulus/viswhat_stim/location_box.png,stimulus/viswhat_stim/location_yes.png,stimulus/viswhat_stim/location_no.png,None,Location,None,Location,1,0.0,0,5.125,0,5.125,0,5.125,0,0.0,0.625,0,0.0,0,0.0,1,0.5,1,2.125,0,0,0,0,0,0,0,0,0,,,,,0,12,12,12,,,,,,,,,131.126439707994,131.126439707994,131.126439707994,131.126439707994,131.126439707994,131.126439707994,131.126439707994,131.126439707994,131.00377879166433,131.126439707994,131.126439707994,131.126439707994,131.00377879166433,131.126439707994,131.126439707994,131.126439707994,133.2125348750269,137.26393391599413,131.126439707994,131.126439707994,136.30952791601885,131.596414166037,132.6756078330218,133.2125348750269,134.2915007910342,131.126439707994,131.126439707994,131.070445458331,131.126439707994,131.126439707994,131.126439707994,131.070445458331,131.126439707994,131.126439707994,136.30952791601885,131.126439707994,136.30952791601885,136.30952791601885,136.98578287498094,131.126439707994,1,1,1.3950517919729464,reldom2_s026,001,2025-03-06_16h20.14.964,Vis-A-Scan_AC,2022.2.5,None,
0,0.0,None,fixation,stimulus/viswhat_stim/blank_white.png,stimulus/viswhat_stim/blank_white.png,stimulus/viswhere_stim/blank_white.png,stimulus/viswhere_stim/blank_white.png,stimulus/viswhat_stim/blank_white.png,stimulus/viswhat_stim/blank_white.png,stimulus/viswhat_stim/blank_white.png,stimulus/viswhat_stim/blank_white.png,0.0,0.0,0.0,0.0,0,0.0,0,0.0,0,0.0,0,0.0,0,0.0,0.0,0,0.0,0,0.0,0,0.0,0,0.0,0,0,0,0,0,0,0,0,10,,,,,0,13,13,13,,,,,,,,,137.26393391599413,137.26393391599413,137.26393391599413,137.26393391599413,137.26393391599413,137.26393391599413,137.26393391599413,137.26393391599413,137.16911620831428,137.26393391599413,137.26393391599413,137.26393391599413,137.16911620831428,137.26393391599413,137.26393391599413,137.26393391599413,137.26393391599413,137.26393391599413,137.26393391599413,137.26393391599413,137.26393391599413,137.26393391599413,137.26393391599413,137.26393391599413,137.26393391599413,137.26393391599413,137.26393391599413,137.2191162083143,137.26393391599413,137.26393391599413,137.26393391599413,137.2191162083143,137.26393391599413,137.26393391599413,137.26393391599413,137.26393391599413,137.26393391599413,142.48008825001307,142.48008825001307,147.40047429100377,None,0,,reldom2_s026,001,2025-03-06_16h20.14.964,Vis-A-Scan_AC,2022.2.5,None,
11,Second_Order,2.0,viswhat,stimulus/viswhat_stim/water_vehicle-cabincruiser.png,stimulus/viswhat_stim/land_vehicle-scooter.png,stimulus/viswhat_stim/land_animal-giraffe.png,stimulus/viswhat_stim/water_animal-squid.png,stimulus/viswhat_stim/match_blank.png,stimulus/viswhat_stim/match_box.png,stimulus/viswhat_stim/match_yes.png,stimulus/viswhat_stim/match_no.png,1.0,Match,Type,Type,1,5.125,0,5.125,0,5.125,0,5.125,0,0.75,0.75,1,0.5,1,2.125,1,0.5,1,2.125,0,0,0,0,0,0,0,0,0,,,,,0,14,14,14,,,,,,,,,147.40047429100377,152.519994125003,147.86924504098715,148.86053808301222,149.49546191602712,150.49215733300662,147.40047429100377,147.40047429100377,147.3994989993245,147.40047429100377,147.40047429100377,147.40047429100377,147.3994989993245,147.40047429100377,152.519994125003,153.40176608302863,155.44186562503455,,153.40176608302863,153.40176608302863,158.58675220800797,153.84350058302516,154.89271766599268,155.44186562503455,156.49499420798384,153.40176608302863,153.40176608302863,153.34906049936157,153.40176608302863,153.40176608302863,153.40176608302863,153.34906049936157,153.40176608302863,153.40176608302863,158.58675220800797,153.40176608302863,158.58675220800797,158.58675220800797,,153.40176608302863,1,1,0.6675729580456391,reldom2_s026,001,2025-03-06_16h20.14.964,Vis-A-Scan_AC,2022.2.5,None,
12,Second_Order,2.0,viswhat,stimulus/viswhat_stim/land_animal-bunny.png,stimulus/viswhat_stim/land_vehicle-shortbus.png,stimulus/viswhat_stim/water_vehicle-sailboat.png,stimulus/viswhat_stim/water_animal-whale.png,stimulus/viswhat_stim/match_blank.png,stimulus/viswhat_stim/match_box.png,stimulus/viswhat_stim/match_yes.png,stimulus/viswhat_stim/match_no.png,1.0,Match,Location,Location,1,5.125,0,5.125,0,5.125,0,5.125,0,0.625,0.625,1,0.5,1,2.125,1,0.5,1,2.125,0,0,0,0,0,0,0,0,0,,,,,0,15,15,15,,,,,,,,,159.37174858298386,164.4918402080075,159.8161661250051,160.80400633299723,161.43971283303108,162.43662666599266,159.37174858298386,159.37174858298386,159.3785942080198,159.37174858298386,159.37174858298386,159.37174858298386,159.3785942080198,159.37174858298386,164.4918402080075,165.2422066660365,167.27833758300403,171.36312841600738,165.2422066660365,165.2422066660365,170.4135135000106,165.66021658299724,166.70676320802886,167.27833758300403,168.32813895802246,165.2422066660365,165.2422066660365,165.1930489583368,165.2422066660365,165.2422066660365,165.2422066660365,165.1930489583368,165.2422066660365,165.2422066660365,170.4135135000106,165.2422066660365,170.4135135000106,170.4135135000106,171.1113994580228,165.2422066660365,1,1,0.542985541978851,reldom2_s026,001,2025-03-06_16h20.14.964,Vis-A-Scan_AC,2022.2.5,None,
0,0.0,None,fixation,stimulus/viswhat_stim/blank_white.png,stimulus/viswhat_stim/blank_white.png,stimulus/viswhere_stim/blank_white.png,stimulus/viswhere_stim/blank_white.png,stimulus/viswhat_stim/blank_white.png,stimulus/viswhat_stim/blank_white.png,stimulus/viswhat_stim/blank_white.png,stimulus/viswhat_stim/blank_white.png,0.0,0.0,0.0,0.0,0,0.0,0,0.0,0,0.0,0,0.0,0,0.0,0.0,0,0.0,0,0.0,0,0.0,0,0.0,0,0,0,0,0,0,0,0,9,,,,,0,16,16,16,,,,,,,,,171.36312841600738,171.36312841600738,171.36312841600738,171.36312841600738,171.36312841600738,171.36312841600738,171.36312841600738,171.36312841600738,171.2613994580228,171.36312841600738,171.36312841600738,171.36312841600738,171.2613994580228,171.36312841600738,171.36312841600738,171.36312841600738,171.36312841600738,171.36312841600738,171.36312841600738,171.36312841600738,171.36312841600738,171.36312841600738,171.36312841600738,171.36312841600738,171.36312841600738,171.36312841600738,171.36312841600738,171.3113994580228,171.36312841600738,171.36312841600738,171.36312841600738,171.3113994580228,171.36312841600738,171.36312841600738,171.36312841600738,171.36312841600738,171.36312841600738,176.55126099998597,176.55126099998597,180.54231454100227,None,0,,reldom2_s026,001,2025-03-06_16h20.14.964,Vis-A-Scan_AC,2022.2.5,None,
13,First_Order,3.0,viswhere,stimulus/viswhere_stim/blank_white.png,stimulus/viswhere_stim/blank_white.png,stimulus/viswhere_stim/90-deg_dot-left_slateblue.png,stimulus/viswhere_stim/120-deg_dot-left_slateblue.png,stimulus/viswhere_stim/blank_white.png,stimulus/viswhere_stim/dot_box.png,stimulus/viswhere_stim/dot_yes.png,stimulus/viswhere_stim/dot_no.png,None,Dot,None,Dot,1,0.0,0,5.125,0,5.125,0,5.125,0,0.0,0.625,0,0.0,0,0.0,1,0.5,1,2.125,0,0,0,0,0,0,0,0,0,,,,,0,17,17,17,,,,,,,,,180.54231454100227,180.54231454100227,180.54231454100227,180.54231454100227,180.54231454100227,180.54231454100227,180.54231454100227,180.54231454100227,180.52304366665584,180.54231454100227,180.54231454100227,180.54231454100227,180.52304366665584,180.54231454100227,180.54231454100227,180.54231454100227,182.65296775003662,186.59735141601413,180.54231454100227,180.54231454100227,185.67305854102597,181.02280879102182,182.04114391602343,182.65296775003662,183.65522304101614,180.54231454100227,180.54231454100227,180.52304366665584,180.54231454100227,180.54231454100227,180.54231454100227,180.52304366665584,180.54231454100227,180.54231454100227,185.67305854102597,180.54231454100227,185.67305854102597,185.77154791599605,186.39552287501283,180.54231454100227,1,1,1.1293002080055885,reldom2_s026,001,2025-03-06_16h20.14.964,Vis-A-Scan_AC,2022.2.5,None,
14,First_Order,3.0,viswhere,stimulus/viswhere_stim/blank_white.png,stimulus/viswhere_stim/blank_white.png,stimulus/viswhere_stim/30-deg_dot-left_royalblue.png,stimulus/viswhere_stim/30-deg_dot-right_peru.png,stimulus/viswhere_stim/blank_white.png,stimulus/viswhere_stim/dot_box.png,stimulus/viswhere_stim/dot_yes.png,stimulus/viswhere_stim/dot_no.png,None,Dot,None,Line,2,0.0,0,5.125,0,5.125,0,5.125,0,0.0,0.625,0,0.0,0,0.0,1,0.5,1,2.125,0,0,0,0,0,0,0,0,0,,,,,0,18,18,18,,,,,,,,,186.59735141601413,186.59735141601413,186.59735141601413,186.59735141601413,186.59735141601413,186.59735141601413,186.59735141601413,186.59735141601413,186.577441749357,186.59735141601413,186.59735141601413,186.59735141601413,186.577441749357,186.59735141601413,186.59735141601413,186.59735141601413,188.70546645799186,192.66399004100822,186.59735141601413,186.59735141601413,191.72532125003636,187.07560658303555,188.0937050000066,188.70546645799186,189.7258694160264,186.59735141601413,186.59735141601413,186.5941084160237,186.59735141601413,186.59735141601413,186.59735141601413,186.5941084160237,186.59735141601413,186.59735141601413,191.72532125003636,186.59735141601413,191.72532125003636,191.82341449998785,192.44911337498343,186.59735141601413,2,1,1.2016708339797333,reldom2_s026,001,2025-03-06_16h20.14.964,Vis-A-Scan_AC,2022.2.5,None,
15,First_Order,3.0,viswhere,stimulus/viswhere_stim/blank_white.png,stimulus/viswhere_stim/blank_white.png,stimulus/viswhere_stim/150-deg_dot-right_turquoise.png,stimulus/viswhere_stim/150-deg_dot-left_cyan.png,stimulus/viswhere_stim/blank_white.png,stimulus/viswhere_stim/line_box.png,stimulus/viswhere_stim/line_yes.png,stimulus/viswhere_stim/line_no.png,None,Line,None,Line,1,0.0,0,5.125,0,5.125,0,5.125,0,0.0,0.625,0,0.0,0,0.0,1,0.5,1,2.125,0,0,0,0,0,0,0,0,0,,,,,0,19,19,19,,,,,,,,,192.66399004100822,192.66399004100822,192.66399004100822,192.66399004100822,192.66399004100822,192.66399004100822,192.66399004100822,192.66399004100822,192.64320824931687,192.66399004100822,192.66399004100822,192.66399004100822,192.64320824931687,192.66399004100822,192.66399004100822,192.66399004100822,194.7663005409995,198.72669091599528,192.66399004100822,192.66399004100822,197.78693208302138,193.1506646660273,194.16548983298708,194.7663005409995,195.7843378750258,192.66399004100822,192.66399004100822,192.65987491598355,192.66399004100822,192.66399004100822,192.66399004100822,192.65987491598355,192.66399004100822,192.66399004100822,197.78693208302138,192.66399004100822,197.78693208302138,197.88447970798006,198.51084316603374,192.66399004100822,1,1,0.7622688749688677,reldom2_s026,001,2025-03-06_16h20.14.964,Vis-A-Scan_AC,2022.2.5,None,
16,First_Order,3.0,viswhere,stimulus/viswhere_stim/blank_white.png,stimulus/viswhere_stim/blank_white.png,stimulus/viswhere_stim/120-deg_dot-right_mediumslateblue.png,stimulus/viswhere_stim/150-deg_dot-right_royalblue.png,stimulus/viswhere_stim/blank_white.png,stimulus/viswhere_stim/line_box.png,stimulus/viswhere_stim/line_yes.png,stimulus/viswhere_stim/line_no.png,None,Line,None,Dot,2,0.0,0,5.125,0,5.125,0,5.125,0,0.0,0.625,0,0.0,0,0.0,1,0.5,1,2.125,0,0,0,0,0,0,0,0,0,,,,,0,20,20,20,,,,,,,,,198.72669091599528,198.72669091599528,198.72669091599528,198.72669091599528,198.72669091599528,198.72669091599528,198.72669091599528,198.72669091599528,198.70547487431517,198.72669091599528,198.72669091599528,198.72669091599528,198.70547487431517,198.72669091599528,198.72669091599528,198.72669091599528,200.83543395798188,204.87409658299293,198.72669091599528,198.72669091599528,203.86521387501853,199.20986045798054,200.21760475001065,200.83543395798188,201.84749366599135,198.72669091599528,198.72669091599528,198.72214154098185,198.72669091599528,198.72669091599528,198.72669091599528,198.72214154098185,198.72669091599528,198.72669091599528,203.86521387501853,198.72669091599528,203.86521387501853,203.94854125002166,204.58033337502275,198.72669091599528,2,1,1.3401984170195647,reldom2_s026,001,2025-03-06_16h20.14.964,Vis-A-Scan_AC,2022.2.5,None,
0,0.0,None,fixation,stimulus/viswhat_stim/blank_white.png,stimulus/viswhat_stim/blank_white.png,stimulus/viswhere_stim/blank_white.png,stimulus/viswhere_stim/blank_white.png,stimulus/viswhat_stim/blank_white.png,stimulus/viswhat_stim/blank_white.png,stimulus/viswhat_stim/blank_white.png,stimulus/viswhat_stim/blank_white.png,0.0,0.0,0.0,0.0,0,0.0,0,0.0,0,0.0,0,0.0,0,0.0,0.0,0,0.0,0,0.0,0,0.0,0,0.0,0,0,0,0,0,0,0,0,8,,,,,0,21,21,21,,,,,,,,,204.87409658299293,204.87409658299293,204.87409658299293,204.87409658299293,204.87409658299293,204.87409658299293,204.87409658299293,204.87409658299293,204.7747114163552,204.87409658299293,204.87409658299293,204.87409658299293,204.7747114163552,204.87409658299293,204.87409658299293,204.87409658299293,204.87409658299293,204.87409658299293,204.87409658299293,204.87409658299293,204.87409658299293,204.87409658299293,204.87409658299293,204.87409658299293,204.87409658299293,204.87409658299293,204.87409658299293,204.8247114163552,204.87409658299293,204.87409658299293,204.87409658299293,204.8247114163552,204.87409658299293,204.87409658299293,204.87409658299293,204.87409658299293,204.87409658299293,210.09303475002525,210.09303475002525,213.00811595801497,None,0,,reldom2_s026,001,2025-03-06_16h20.14.964,Vis-A-Scan_AC,2022.2.5,None,
17,Second_Order,3.0,viswhere,stimulus/viswhere_stim/60-deg_dot-right_seagreen.png,stimulus/viswhere_stim/150-deg_dot-right_seagreen.png,stimulus/viswhere_stim/90-deg_dot-right_salmon.png,stimulus/viswhere_stim/90-deg_dot-left_seagreen.png,stimulus/viswhat_stim/match_blank.png,stimulus/viswhat_stim/match_box.png,stimulus/viswhat_stim/match_yes.png,stimulus/viswhat_stim/match_no.png,2.0,Match,Dot,Line,2,5.125,0,5.125,0,5.125,0,5.125,0,0.75,0.75,1,0.5,1,2.125,1,0.5,1,2.125,0,0,0,0,0,0,0,0,0,,,,,0,22,22,22,,,,,,,,,213.00811595801497,218.1320311659947,213.49064558302052,214.47744070802582,215.1128810000373,216.11067075002939,213.00811595801497,213.00811595801497,213.02231149931518,213.00811595801497,213.00811595801497,213.00811595801497,213.02231149931518,213.00811595801497,218.1320311659947,218.92463970801327,221.00462833303027,224.91671104100533,218.92463970801327,218.92463970801327,224.05616912501864,219.37491083302302,220.38518316601403,221.00462833303027,222.0198906250298,218.92463970801327,218.92463970801327,218.90076466633087,218.92463970801327,218.92463970801327,218.92463970801327,218.90076466633087,218.92463970801327,218.92463970801327,224.05616912501864,218.92463970801327,224.05616912501864,224.1259978750022,224.91671104100533,218.92463970801327,2,1,0.738142375019379,reldom2_s026,001,2025-03-06_16h20.14.964,Vis-A-Scan_AC,2022.2.5,None,
18,Second_Order,3.0,viswhere,stimulus/viswhere_stim/150-deg_dot-right_goldenrod.png,stimulus/viswhere_stim/150-deg_dot-left_cyan.png,stimulus/viswhere_stim/120-deg_dot-left_royalblue.png,stimulus/viswhere_stim/60-deg_dot-left_royalblue.png,stimulus/viswhat_stim/match_blank.png,stimulus/viswhat_stim/match_box.png,stimulus/viswhat_stim/match_yes.png,stimulus/viswhat_stim/match_no.png,2.0,Match,Line,Dot,2,5.125,0,5.125,0,5.125,0,5.125,0,0.625,0.625,1,0.5,1,2.125,1,0.5,1,2.125,0,0,0,0,0,0,0,0,0,,,,,0,23,23,23,,,,,,,,,224.91671104100533,230.03088133299025,225.40230091603007,226.40116362500703,227.0234924160177,228.0218940830091,224.91671104100533,224.91671104100533,224.93041604100728,224.91671104100533,224.91671104100533,224.91671104100533,224.93041604100728,224.91671104100533,230.03088133299025,230.70118187501794,232.7834317079978,236.81570595799712,230.70118187501794,230.70118187501794,235.83479879098013,231.14877766603604,232.15084841602948,232.7834317079978,233.7922202500049,230.70118187501794,230.70118187501794,230.6779232493214,230.70118187501794,230.70118187501794,230.70118187501794,230.6779232493214,230.70118187501794,230.70118187501794,235.83479879098013,230.70118187501794,235.83479879098013,235.92258087499067,236.54779045801843,230.70118187501794,2,1,0.8953856250154786,reldom2_s026,001,2025-03-06_16h20.14.964,Vis-A-Scan_AC,2022.2.5,None,
0,0.0,None,fixation,stimulus/viswhat_stim/blank_white.png,stimulus/viswhat_stim/blank_white.png,stimulus/viswhere_stim/blank_white.png,stimulus/viswhere_stim/blank_white.png,stimulus/viswhat_stim/blank_white.png,stimulus/viswhat_stim/blank_white.png,stimulus/viswhat_stim/blank_white.png,stimulus/viswhat_stim/blank_white.png,0.0,0.0,0.0,0.0,0,0.0,0,0.0,0,0.0,0,0.0,0,0.0,0.0,0,0.0,0,0.0,0,0.0,0,0.0,0,0,0,0,0,0,0,0,10,,,,,0,24,24,24,,,,,,,,,236.81570595799712,236.81570595799712,236.81570595799712,236.81570595799712,236.81570595799712,236.81570595799712,236.81570595799712,236.81570595799712,236.71463104135668,236.81570595799712,236.81570595799712,236.81570595799712,236.71463104135668,236.81570595799712,236.81570595799712,236.81570595799712,236.81570595799712,236.81570595799712,236.81570595799712,236.81570595799712,236.81570595799712,236.81570595799712,236.81570595799712,236.81570595799712,236.81570595799712,236.81570595799712,236.81570595799712,236.7646310413567,236.81570595799712,236.81570595799712,236.81570595799712,236.7646310413567,236.81570595799712,236.81570595799712,236.81570595799712,236.81570595799712,236.81570595799712,242.02830175001873,242.02830175001873,247.00813870801358,None,0,,reldom2_s026,001,2025-03-06_16h20.14.964,Vis-A-Scan_AC,2022.2.5,None,
19,First_Order,4.0,viswhere,stimulus/viswhere_stim/blank_white.png,stimulus/viswhere_stim/blank_white.png,stimulus/viswhere_stim/90-deg_dot-right_royalblue.png,stimulus/viswhere_stim/120-deg_dot-right_goldenrod.png,stimulus/viswhere_stim/blank_white.png,stimulus/viswhere_stim/dot_box.png,stimulus/viswhere_stim/dot_yes.png,stimulus/viswhere_stim/dot_no.png,None,Dot,None,Dot,1,0.0,0,5.125,0,5.125,0,5.125,0,0.0,0.625,0,0.0,0,0.0,1,0.5,1,2.125,0,0,0,0,0,0,0,0,0,,,,,0,25,25,25,,,,,,,,,247.00813870801358,247.00813870801358,247.00813870801358,247.00813870801358,247.00813870801358,247.00813870801358,247.00813870801358,247.00813870801358,246.98836899965926,247.00813870801358,247.00813870801358,247.00813870801358,246.98836899965926,247.00813870801358,247.00813870801358,247.00813870801358,249.10452983301366,253.07304591598222,247.00813870801358,247.00813870801358,252.14675875002285,247.48932891600998,248.50970895797946,249.10452983301366,250.1123603330343,247.00813870801358,247.00813870801358,246.98836899965926,247.00813870801358,247.00813870801358,247.00813870801358,246.98836899965926,247.00813870801358,247.00813870801358,252.14675875002285,247.00813870801358,252.14675875002285,252.231285958027,252.85845950001385,247.00813870801358,1,1,0.4881578329950571,reldom2_s026,001,2025-03-06_16h20.14.964,Vis-A-Scan_AC,2022.2.5,None,
20,First_Order,4.0,viswhere,stimulus/viswhere_stim/blank_white.png,stimulus/viswhere_stim/blank_white.png,stimulus/viswhere_stim/90-deg_dot-left_peru.png,stimulus/viswhere_stim/90-deg_dot-right_royalblue.png,stimulus/viswhere_stim/blank_white.png,stimulus/viswhere_stim/dot_box.png,stimulus/viswhere_stim/dot_yes.png,stimulus/viswhere_stim/dot_no.png,None,Dot,None,Line,2,0.0,0,5.125,0,5.125,0,5.125,0,0.0,0.625,0,0.0,0,0.0,1,0.5,1,2.125,0,0,0,0,0,0,0,0,0,,,,,0,26,26,26,,,,,,,,,253.07304591598222,253.07304591598222,253.07304591598222,253.07304591598222,253.07304591598222,253.07304591598222,253.07304591598222,253.07304591598222,253.05235724933058,253.07304591598222,253.07304591598222,253.07304591598222,253.05235724933058,253.07304591598222,253.07304591598222,253.07304591598222,255.1722667500144,259.13439045799896,253.07304591598222,253.07304591598222,258.2074138750322,253.5546207500156,254.55765508301556,255.1722667500144,256.1819395000348,253.07304591598222,253.07304591598222,253.06902391599726,253.07304591598222,253.07304591598222,253.07304591598222,253.06902391599726,253.07304591598222,253.07304591598222,258.2074138750322,253.07304591598222,258.2074138750322,258.30489995802054,258.9331035829964,253.07304591598222,2,1,0.6846122080460191,reldom2_s026,001,2025-03-06_16h20.14.964,Vis-A-Scan_AC,2022.2.5,None,
21,First_Order,4.0,viswhere,stimulus/viswhere_stim/blank_white.png,stimulus/viswhere_stim/blank_white.png,stimulus/viswhere_stim/120-deg_dot-left_cyan.png,stimulus/viswhere_stim/150-deg_dot-left_seagreen.png,stimulus/viswhere_stim/blank_white.png,stimulus/viswhere_stim/line_box.png,stimulus/viswhere_stim/line_yes.png,stimulus/viswhere_stim/line_no.png,None,Line,None,Dot,2,0.0,0,5.125,0,5.125,0,5.125,0,0.0,0.625,0,0.0,0,0.0,1,0.5,1,2.125,0,0,0,0,0,0,0,0,0,,,,,0,27,27,27,,,,,,,,,259.13439045799896,259.13439045799896,259.13439045799896,259.13439045799896,259.13439045799896,259.13439045799896,259.13439045799896,259.13439045799896,259.1136437083672,259.13439045799896,259.13439045799896,259.13439045799896,259.1136437083672,259.13439045799896,259.13439045799896,259.13439045799896,261.24783008301165,265.2016224580002,259.13439045799896,259.13439045799896,264.2624283329933,259.6197992080124,260.62883479101583,261.24783008301165,262.26290170801803,259.13439045799896,259.13439045799896,259.13031037503384,259.13439045799896,259.13439045799896,259.13439045799896,259.13031037503384,259.13439045799896,259.13439045799896,264.2624283329933,259.13439045799896,264.2624283329933,264.3600740410038,264.9865265410044,259.13439045799896,2,1,1.0992006250307895,reldom2_s026,001,2025-03-06_16h20.14.964,Vis-A-Scan_AC,2022.2.5,None,
22,First_Order,4.0,viswhere,stimulus/viswhere_stim/blank_white.png,stimulus/viswhere_stim/blank_white.png,stimulus/viswhere_stim/150-deg_dot-right_seagreen.png,stimulus/viswhere_stim/150-deg_dot-left_slateblue.png,stimulus/viswhere_stim/blank_white.png,stimulus/viswhere_stim/line_box.png,stimulus/viswhere_stim/line_yes.png,stimulus/viswhere_stim/line_no.png,None,Line,None,Line,1,0.0,0,5.125,0,5.125,0,5.125,0,0.0,0.625,0,0.0,0,0.0,1,0.5,1,2.125,0,0,0,0,0,0,0,0,0,,,,,0,28,28,28,,,,,,,,,265.2016224580002,265.2016224580002,265.2016224580002,265.2016224580002,265.2016224580002,265.2016224580002,265.2016224580002,265.2016224580002,265.1809174993153,265.2016224580002,265.2016224580002,265.2016224580002,265.1809174993153,265.2016224580002,265.2016224580002,265.2016224580002,267.3084390410222,271.3384587080218,265.2016224580002,265.2016224580002,270.3390962079866,265.6888371660025,266.7051281660097,267.3084390410222,268.3298430829891,265.2016224580002,265.2016224580002,265.19758416598194,265.2016224580002,265.2016224580002,265.2016224580002,265.19758416598194,265.2016224580002,265.2016224580002,270.3390962079866,265.2016224580002,270.3390962079866,270.42470258299727,271.05881975003285,265.2016224580002,1,1,0.9920569590176456,reldom2_s026,001,2025-03-06_16h20.14.964,Vis-A-Scan_AC,2022.2.5,None,
0,0.0,None,fixation,stimulus/viswhat_stim/blank_white.png,stimulus/viswhat_stim/blank_white.png,stimulus/viswhere_stim/blank_white.png,stimulus/viswhere_stim/blank_white.png,stimulus/viswhat_stim/blank_white.png,stimulus/viswhat_stim/blank_white.png,stimulus/viswhat_stim/blank_white.png,stimulus/viswhat_stim/blank_white.png,0.0,0.0,0.0,0.0,0,0.0,0,0.0,0,0.0,0,0.0,0,0.0,0.0,0,0.0,0,0.0,0,0.0,0,0.0,0,0,0,0,0,0,0,0,9,,,,,0,29,29,29,,,,,,,,,271.3384587080218,271.3384587080218,271.3384587080218,271.3384587080218,271.3384587080218,271.3384587080218,271.3384587080218,271.3384587080218,271.23980345835054,271.3384587080218,271.3384587080218,271.3384587080218,271.23980345835054,271.3384587080218,271.3384587080218,271.3384587080218,271.3384587080218,271.3384587080218,271.3384587080218,271.3384587080218,271.3384587080218,271.3384587080218,271.3384587080218,271.3384587080218,271.3384587080218,271.3384587080218,271.3384587080218,271.28980345835055,271.3384587080218,271.3384587080218,271.3384587080218,271.28980345835055,271.3384587080218,271.3384587080218,271.3384587080218,271.3384587080218,271.3384587080218,276.55619845801266,276.55619845801266,280.44456854101736,None,0,,reldom2_s026,001,2025-03-06_16h20.14.964,Vis-A-Scan_AC,2022.2.5,None,
23,Second_Order,4.0,viswhere,stimulus/viswhere_stim/90-deg_dot-right_salmon.png,stimulus/viswhere_stim/150-deg_dot-right_seagreen.png,stimulus/viswhere_stim/150-deg_dot-right_mediumslateblue.png,stimulus/viswhere_stim/150-deg_dot-left_lightsseagreen.png,stimulus/viswhat_stim/match_blank.png,stimulus/viswhat_stim/match_box.png,stimulus/viswhat_stim/match_yes.png,stimulus/viswhat_stim/match_no.png,2.0,Match,Dot,Line,2,5.125,0,5.125,0,5.125,0,5.125,0,0.75,0.75,1,0.5,1,2.125,1,0.5,1,2.125,0,0,0,0,0,0,0,0,0,,,,,0,30,30,30,,,,,,,,,280.44456854101736,285.5597449159832,280.92910216603195,281.9167119580088,282.5520282500074,283.5501171250362,280.44456854101736,280.44456854101736,280.4589745413706,280.44456854101736,280.44456854101736,280.44456854101736,280.4589745413706,280.44456854101736,285.5597449159832,286.3538429160253,288.4302659580135,292.3197270000237,286.3538429160253,286.3538429160253,291.4921671249904,286.80846429098165,287.8262090830249,288.4302659580135,289.4352814159938,286.3538429160253,286.3538429160253,286.3269434163308,286.3538429160253,286.3538429160253,286.3538429160253,286.3269434163308,286.3538429160253,286.3538429160253,291.4921671249904,286.3538429160253,291.4921671249904,291.5483993330272,292.3197270000237,286.3538429160253,2,1,0.6351363750291057,reldom2_s026,001,2025-03-06_16h20.14.964,Vis-A-Scan_AC,2022.2.5,None,
24,Second_Order,4.0,viswhere,stimulus/viswhere_stim/90-deg_dot-left_cyan.png,stimulus/viswhere_stim/60-deg_dot-left_slateblue.png,stimulus/viswhere_stim/120-deg_dot-right_goldenrod.png,stimulus/viswhere_stim/90-deg_dot-right_seagreen.png,stimulus/viswhat_stim/match_blank.png,stimulus/viswhat_stim/match_box.png,stimulus/viswhat_stim/match_yes.png,stimulus/viswhat_stim/match_no.png,1.0,Match,Dot,Dot,1,5.125,0,5.125,0,5.125,0,5.125,0,0.625,0.625,1,0.5,1,2.125,1,0.5,1,2.125,0,0,0,0,0,0,0,0,0,,,,,0,31,31,31,,,,,,,,,292.3197270000237,297.43714674998773,292.80943424999714,293.80697645799955,294.4299450829858,295.42731858300976,292.3197270000237,292.3197270000237,292.33315199998907,292.3197270000237,292.3197270000237,292.3197270000237,292.33315199998907,292.3197270000237,297.43714674998773,298.1055797500303,300.1973292499897,304.2248735409812,298.1055797500303,298.1055797500303,303.2390992080327,298.55394858302316,299.5596733330167,300.1973292499897,301.20864249998704,298.1055797500303,298.1055797500303,298.08373883332433,298.1055797500303,298.1055797500303,298.1055797500303,298.08373883332433,298.1055797500303,298.1055797500303,303.2390992080327,298.1055797500303,303.2390992080327,303.30882799997926,303.94323591602733,298.1055797500303,1,1,0.9798936659935862,reldom2_s026,001,2025-03-06_16h20.14.964,Vis-A-Scan_AC,2022.2.5,None,
0,0.0,None,fixation,stimulus/viswhat_stim/blank_white.png,stimulus/viswhat_stim/blank_white.png,stimulus/viswhere_stim/blank_white.png,stimulus/viswhere_stim/blank_white.png,stimulus/viswhat_stim/blank_white.png,stimulus/viswhat_stim/blank_white.png,stimulus/viswhat_stim/blank_white.png,stimulus/viswhat_stim/blank_white.png,0.0,0.0,0.0,0.0,0,0.0,0,0.0,0,0.0,0,0.0,0,0.0,0.0,0,0.0,0,0.0,0,0.0,0,0.0,0,0,0,0,0,0,0,0,10,,,,,0,32,32,32,,,,,,,,,304.2248735409812,304.2248735409812,304.2248735409812,304.2248735409812,304.2248735409812,304.2248735409812,304.2248735409812,304.2248735409812,304.1238408743132,304.2248735409812,304.2248735409812,304.2248735409812,304.1238408743132,304.2248735409812,304.2248735409812,304.2248735409812,304.2248735409812,304.2248735409812,304.2248735409812,304.2248735409812,304.2248735409812,304.2248735409812,304.2248735409812,304.2248735409812,304.2248735409812,304.2248735409812,304.2248735409812,304.1738408743132,304.2248735409812,304.2248735409812,304.2248735409812,304.1738408743132,304.2248735409812,304.2248735409812,304.2248735409812,304.2248735409812,304.2248735409812,309.44067387498217,309.44067387498217,314.4380710829864,None,0,,reldom2_s026,001,2025-03-06_16h20.14.964,Vis-A-Scan_AC,2022.2.5,None,
25,First_Order,5.0,viswhat,stimulus/viswhat_stim/blank_white.png,stimulus/viswhat_stim/blank_white.png,stimulus/viswhat_stim/land_vehicle-shortbus.png,stimulus/viswhat_stim/land_animal-pig.png,stimulus/viswhat_stim/blank_white.png,stimulus/viswhat_stim/location_box.png,stimulus/viswhat_stim/location_yes.png,stimulus/viswhat_stim/location_no.png,None,Location,None,Location,1,0.0,0,5.125,0,5.125,0,5.125,0,0.0,0.625,0,0.0,0,0.0,1,0.5,1,2.125,0,0,0,0,0,0,0,0,0,,,,,0,33,33,33,,,,,,,,,314.4380710829864,314.4380710829864,314.4380710829864,314.4380710829864,314.4380710829864,314.4380710829864,314.4380710829864,314.4380710829864,314.39841316667537,314.4380710829864,314.4380710829864,314.4380710829864,314.39841316667537,314.4380710829864,314.4380710829864,314.4380710829864,316.5489522499847,320.5582174999872,314.4380710829864,314.4380710829864,319.57297608302906,314.9058345410158,315.93452225002693,316.5489522499847,317.5792375410092,314.4380710829864,314.4380710829864,314.4150798333421,314.4380710829864,314.4380710829864,314.4380710829864,314.4150798333421,314.4380710829864,314.4380710829864,319.57297608302906,314.4380710829864,319.57297608302906,319.64383850002196,320.2821635410073,314.4380710829864,1,1,0.67986995796673,reldom2_s026,001,2025-03-06_16h20.14.964,Vis-A-Scan_AC,2022.2.5,None,
26,First_Order,5.0,viswhat,stimulus/viswhat_stim/blank_white.png,stimulus/viswhat_stim/blank_white.png,stimulus/viswhat_stim/land_vehicle-rv.png,stimulus/viswhat_stim/land_animal-bunny.png,stimulus/viswhat_stim/blank_white.png,stimulus/viswhat_stim/type_box.png,stimulus/viswhat_stim/type_yes.png,stimulus/viswhat_stim/type_no.png,None,Type,None,Location,2,0.0,0,5.125,0,5.125,0,5.125,0,0.0,0.625,0,0.0,0,0.0,1,0.5,1,2.125,0,0,0,0,0,0,0,0,0,,,,,0,34,34,34,,,,,,,,,320.5582174999872,320.5582174999872,320.5582174999872,320.5582174999872,320.5582174999872,320.5582174999872,320.5582174999872,320.5582174999872,320.4757546250126,320.5582174999872,320.5582174999872,320.5582174999872,320.4757546250126,320.5582174999872,320.5582174999872,320.5582174999872,322.66284495801665,,320.5582174999872,320.5582174999872,325.7233767500147,321.03546037501656,322.0899515830097,322.66284495801665,323.71668549999595,320.5582174999872,320.5582174999872,320.5257546250126,320.5582174999872,320.5582174999872,320.5582174999872,320.5257546250126,320.5582174999872,320.5582174999872,325.7233767500147,320.5582174999872,325.7233767500147,325.7666902500205,326.4401687500067,320.5582174999872,2,1,1.0877271249773912,reldom2_s026,001,2025-03-06_16h20.14.964,Vis-A-Scan_AC,2022.2.5,None,
27,First_Order,5.0,viswhat,stimulus/viswhat_stim/blank_white.png,stimulus/viswhat_stim/blank_white.png,stimulus/viswhat_stim/land_animal-zebra.png,stimulus/viswhat_stim/land_vehicle-oldcar.png,stimulus/viswhat_stim/blank_white.png,stimulus/viswhat_stim/location_box.png,stimulus/viswhat_stim/location_yes.png,stimulus/viswhat_stim/location_no.png,None,Location,None,Location,1,0.0,0,5.125,0,5.125,0,5.125,0,0.0,0.625,0,0.0,0,0.0,1,0.5,1,2.125,0,0,0,0,0,0,0,0,0,,,,,0,35,35,35,,,,,,,,,326.6515505000134,326.6515505000134,326.6515505000134,326.6515505000134,326.6515505000134,326.6515505000134,326.6515505000134,326.6515505000134,326.57350208334003,326.6515505000134,326.6515505000134,326.6515505000134,326.57350208334003,326.6515505000134,326.6515505000134,326.6515505000134,328.72740283299936,,326.6515505000134,326.6515505000134,331.8227986660204,327.1374315409921,328.1972909999895,328.72740283299936,329.79295895801624,326.6515505000134,326.6515505000134,326.62350208334004,326.6515505000134,326.6515505000134,326.6515505000134,326.62350208334004,326.6515505000134,326.6515505000134,331.8227986660204,326.6515505000134,331.8227986660204,331.86147187498864,332.51486570801353,326.6515505000134,1,1,0.7442370829521678,reldom2_s026,001,2025-03-06_16h20.14.964,Vis-A-Scan_AC,2022.2.5,None,
28,First_Order,5.0,viswhat,stimulus/viswhat_stim/blank_white.png,stimulus/viswhat_stim/blank_white.png,stimulus/viswhat_stim/water_vehicle-canoe.png,stimulus/viswhat_stim/land_vehicle-trolley.png,stimulus/viswhat_stim/blank_white.png,stimulus/viswhat_stim/type_box.png,stimulus/viswhat_stim/type_yes.png,stimulus/viswhat_stim/type_no.png,None,Type,None,Type,1,0.0,0,5.125,0,5.125,0,5.125,0,0.0,0.625,0,0.0,0,0.0,1,0.5,1,2.125,0,0,0,0,0,0,0,0,0,,,,,0,36,36,36,,,,,,,,,332.7212134160218,332.7212134160218,332.7212134160218,332.7212134160218,332.7212134160218,332.7212134160218,332.7212134160218,332.7212134160218,332.68657320834075,332.7212134160218,332.7212134160218,332.7212134160218,332.68657320834075,332.7212134160218,332.7212134160218,332.7212134160218,334.8199933330179,338.8651983750169,332.7212134160218,332.7212134160218,337.86096000002,333.1873410830158,334.20100929099135,334.8199933330179,335.83872591599356,332.7212134160218,332.7212134160218,332.7032398750074,332.7212134160218,332.7212134160218,332.7212134160218,332.7032398750074,332.7212134160218,332.7212134160218,337.86096000002,332.7212134160218,337.86096000002,337.9421324580326,338.5896043329849,332.7212134160218,1,1,0.3743761249934323,reldom2_s026,001,2025-03-06_16h20.14.964,Vis-A-Scan_AC,2022.2.5,None,
0,0.0,None,fixation,stimulus/viswhat_stim/blank_white.png,stimulus/viswhat_stim/blank_white.png,stimulus/viswhere_stim/blank_white.png,stimulus/viswhere_stim/blank_white.png,stimulus/viswhat_stim/blank_white.png,stimulus/viswhat_stim/blank_white.png,stimulus/viswhat_stim/blank_white.png,stimulus/viswhat_stim/blank_white.png,0.0,0.0,0.0,0.0,0,0.0,0,0.0,0,0.0,0,0.0,0,0.0,0.0,0,0.0,0,0.0,0,0.0,0,0.0,0,0,0,0,0,0,0,0,9,,,,,0,37,37,37,,,,,,,,,338.8651983750169,338.8651983750169,338.8651983750169,338.8651983750169,338.8651983750169,338.8651983750169,338.8651983750169,338.8651983750169,338.7701773329987,338.8651983750169,338.8651983750169,338.8651983750169,338.7701773329987,338.8651983750169,338.8651983750169,338.8651983750169,338.8651983750169,338.8651983750169,338.8651983750169,338.8651983750169,338.8651983750169,338.8651983750169,338.8651983750169,338.8651983750169,338.8651983750169,338.8651983750169,338.8651983750169,338.8201773329987,338.8651983750169,338.8651983750169,338.8651983750169,338.8201773329987,338.8651983750169,338.8651983750169,338.8651983750169,338.8651983750169,338.8651983750169,344.0853766659857,344.0853766659857,347.9798146249959,None,0,,reldom2_s026,001,2025-03-06_16h20.14.964,Vis-A-Scan_AC,2022.2.5,None,
29,Second_Order,5.0,viswhat,stimulus/viswhat_stim/land_vehicle-schoolbus.png,stimulus/viswhat_stim/land_animal-snake.png,stimulus/viswhat_stim/water_vehicle-cruiser.png,stimulus/viswhat_stim/water_animal-whale.png,stimulus/viswhat_stim/match_blank.png,stimulus/viswhat_stim/match_box.png,stimulus/viswhat_stim/match_yes.png,stimulus/viswhat_stim/match_no.png,1.0,Match,Location,Location,1,5.125,0,5.125,0,5.125,0,5.125,0,0.75,0.75,1,0.5,1,2.125,1,0.5,1,2.125,0,0,0,0,0,0,0,0,0,,,,,0,38,38,38,,,,,,,,,347.9798146249959,353.0990262909909,348.45408141601365,349.4521656660363,350.0760190410074,351.072803499992,347.9798146249959,347.9798146249959,347.9875952083695,347.9798146249959,347.9798146249959,347.9798146249959,347.9875952083695,347.9798146249959,353.0990262909909,353.99710912501905,356.0777160410071,359.9845651250216,353.99710912501905,353.99710912501905,359.1965237080003,354.41311995801516,355.52262583299307,356.0777160410071,357.18938045803225,353.99710912501905,353.99710912501905,353.9338094159844,353.99710912501905,353.99710912501905,353.99710912501905,353.9338094159844,353.99710912501905,353.99710912501905,359.1965237080003,353.99710912501905,359.1965237080003,359.1965237080003,,353.99710912501905,1,1,0.6315192920155823,reldom2_s026,001,2025-03-06_16h20.14.964,Vis-A-Scan_AC,2022.2.5,None,
30,Second_Order,5.0,viswhat,stimulus/viswhat_stim/land_vehicle-tank.png,stimulus/viswhat_stim/water_vehicle-cabincruiser.png,stimulus/viswhat_stim/land_animal-pig.png,stimulus/viswhat_stim/water_animal-stingray.png,stimulus/viswhat_stim/match_blank.png,stimulus/viswhat_stim/match_box.png,stimulus/viswhat_stim/match_yes.png,stimulus/viswhat_stim/match_no.png,1.0,Match,Type,Type,1,5.125,0,5.125,0,5.125,0,5.125,0,0.625,0.625,1,0.5,1,2.125,1,0.5,1,2.125,0,0,0,0,0,0,0,0,0,,,,,0,39,39,39,,,,,,,,,359.9845651250216,365.1049782499904,360.4479075000272,361.4464505829965,362.0812932080007,363.0711270830361,359.9845651250216,359.9845651250216,359.98348070801,359.9845651250216,359.9845651250216,359.9845651250216,359.98348070801,359.9845651250216,365.1049782499904,365.79130241600797,367.86222499998985,371.91418629098916,365.79130241600797,365.79130241600797,370.9343562910217,366.2334934999817,367.24638358299853,367.86222499998985,368.8813336250023,365.79130241600797,365.79130241600797,365.7730004160083,365.79130241600797,365.79130241600797,365.79130241600797,365.7730004160083,365.79130241600797,365.79130241600797,370.9343562910217,365.79130241600797,370.9343562910217,370.98366120801074,371.62166175001767,365.79130241600797,1,1,0.9734818749711849,reldom2_s026,001,2025-03-06_16h20.14.964,Vis-A-Scan_AC,2022.2.5,None,
0,0.0,None,fixation,stimulus/viswhat_stim/blank_white.png,stimulus/viswhat_stim/blank_white.png,stimulus/viswhere_stim/blank_white.png,stimulus/viswhere_stim/blank_white.png,stimulus/viswhat_stim/blank_white.png,stimulus/viswhat_stim/blank_white.png,stimulus/viswhat_stim/blank_white.png,stimulus/viswhat_stim/blank_white.png,0.0,0.0,0.0,0.0,0,0.0,0,0.0,0,0.0,0,0.0,0,0.0,0.0,0,0.0,0,0.0,0,0.0,0,0.0,0,0,0,0,0,0,0,0,10,,,,,0,40,40,40,,,,,,,,,371.91418629098916,371.91418629098916,371.91418629098916,371.91418629098916,371.91418629098916,371.91418629098916,371.91418629098916,371.91418629098916,371.82201700002184,371.91418629098916,371.91418629098916,371.91418629098916,371.82201700002184,371.91418629098916,371.91418629098916,371.91418629098916,371.91418629098916,371.91418629098916,371.91418629098916,371.91418629098916,371.91418629098916,371.91418629098916,371.91418629098916,371.91418629098916,371.91418629098916,371.91418629098916,371.91418629098916,371.87201700002186,371.91418629098916,371.91418629098916,371.91418629098916,371.87201700002186,371.91418629098916,371.91418629098916,371.91418629098916,371.91418629098916,371.91418629098916,377.1341010830365,377.1341010830365,382.1224715409917,None,0,,reldom2_s026,001,2025-03-06_16h20.14.964,Vis-A-Scan_AC,2022.2.5,None,
31,First_Order,6.0,viswhat,stimulus/viswhat_stim/blank_white.png,stimulus/viswhat_stim/blank_white.png,stimulus/viswhat_stim/land_vehicle-rv.png,stimulus/viswhat_stim/land_animal-ostrich.png,stimulus/viswhat_stim/blank_white.png,stimulus/viswhat_stim/type_box.png,stimulus/viswhat_stim/type_yes.png,stimulus/viswhat_stim/type_no.png,None,Type,None,Location,2,0.0,0,5.125,0,5.125,0,5.125,0,0.0,0.625,0,0.0,0,0.0,1,0.5,1,2.125,0,0,0,0,0,0,0,0,0,,,,,0,41,41,41,,,,,,,,,382.1224715409917,382.1224715409917,382.1224715409917,382.1224715409917,382.1224715409917,382.1224715409917,382.1224715409917,382.1224715409917,382.0922761246717,382.1224715409917,382.1224715409917,382.1224715409917,382.0922761246717,382.1224715409917,382.1224715409917,382.1224715409917,384.2226497500087,388.26329616602743,382.1224715409917,382.1224715409917,387.26913600001717,382.6059826249839,383.6180540000205,384.2226497500087,385.239294665982,382.1224715409917,382.1224715409917,382.1089427913384,382.1224715409917,382.1224715409917,382.1224715409917,382.1089427913384,382.1224715409917,382.1224715409917,387.26913600001717,382.1224715409917,387.26913600001717,387.3435783330351,387.97626587498235,382.1224715409917,2,1,1.4231630410067737,reldom2_s026,001,2025-03-06_16h20.14.964,Vis-A-Scan_AC,2022.2.5,None,
32,First_Order,6.0,viswhat,stimulus/viswhat_stim/blank_white.png,stimulus/viswhat_stim/blank_white.png,stimulus/viswhat_stim/land_animal-moose.png,stimulus/viswhat_stim/water_animal-dolphin.png,stimulus/viswhat_stim/blank_white.png,stimulus/viswhat_stim/type_box.png,stimulus/viswhat_stim/type_yes.png,stimulus/viswhat_stim/type_no.png,None,Type,None,Type,1,0.0,0,5.125,0,5.125,0,5.125,0,0.0,0.625,0,0.0,0,0.0,1,0.5,1,2.125,0,0,0,0,0,0,0,0,0,,,,,0,42,42,42,,,,,,,,,388.26329616602743,388.26329616602743,388.26329616602743,388.26329616602743,388.26329616602743,388.26329616602743,388.26329616602743,388.26329616602743,388.1689324160339,388.26329616602743,388.26329616602743,388.26329616602743,388.1689324160339,388.26329616602743,388.26329616602743,388.26329616602743,390.3206823330256,,388.26329616602743,388.26329616602743,393.4291439160006,388.73338479100494,389.7932408750057,390.3206823330256,391.37913033302175,388.26329616602743,388.26329616602743,388.2189324160339,388.26329616602743,388.26329616602743,388.26329616602743,388.2189324160339,388.26329616602743,388.26329616602743,393.4291439160006,388.26329616602743,393.4291439160006,393.48243025003467,394.3373996249866,388.26329616602743,1,1,0.6991071659722365,reldom2_s026,001,2025-03-06_16h20.14.964,Vis-A-Scan_AC,2022.2.5,None,
33,First_Order,6.0,viswhat,stimulus/viswhat_stim/blank_white.png,stimulus/viswhat_stim/blank_white.png,stimulus/viswhat_stim/land_vehicle-buldozer.png,stimulus/viswhat_stim/water_vehicle-canoe.png,stimulus/viswhat_stim/blank_white.png,stimulus/viswhat_stim/location_box.png,stimulus/viswhat_stim/location_yes.png,stimulus/viswhat_stim/location_no.png,None,Location,None,Type,2,0.0,0,5.125,0,5.125,0,5.125,0,0.0,0.625,0,0.0,0,0.0,1,0.5,1,2.125,0,0,0,0,0,0,0,0,0,,,,,0,43,43,43,,,,,,,,,394.3373996249866,394.3373996249866,394.3373996249866,394.3373996249866,394.3373996249866,394.3373996249866,394.3373996249866,394.3373996249866,394.2861000826621,394.3373996249866,394.3373996249866,394.3373996249866,394.2861000826621,394.3373996249866,394.3373996249866,394.3373996249866,396.44803604099434,400.41579304100014,394.3373996249866,394.3373996249866,399.5077730829944,394.810830375005,395.83091912500095,396.44803604099434,397.4708682500059,394.3373996249866,394.3373996249866,394.3027667493288,394.3373996249866,394.3373996249866,394.3373996249866,394.3027667493288,394.3373996249866,394.3373996249866,399.5077730829944,394.3373996249866,399.5077730829944,399.5384175410145,400.18273270799546,394.3373996249866,2,1,1.1717724169720896,reldom2_s026,001,2025-03-06_16h20.14.964,Vis-A-Scan_AC,2022.2.5,None,
34,First_Order,6.0,viswhat,stimulus/viswhat_stim/blank_white.png,stimulus/viswhat_stim/blank_white.png,stimulus/viswhat_stim/land_vehicle-scooter.png,stimulus/viswhat_stim/water_vehicle-motorboatraft.png,stimulus/viswhat_stim/blank_white.png,stimulus/viswhat_stim/location_box.png,stimulus/viswhat_stim/location_yes.png,stimulus/viswhat_stim/location_no.png,None,Location,None,Type,2,0.0,0,5.125,0,5.125,0,5.125,0,0.0,0.625,0,0.0,0,0.0,1,0.5,1,2.125,0,0,0,0,0,0,0,0,0,,,,,0,44,44,44,,,,,,,,,400.41579304100014,400.41579304100014,400.41579304100014,400.41579304100014,400.41579304100014,400.41579304100014,400.41579304100014,400.41579304100014,400.3905224576864,400.41579304100014,400.41579304100014,400.41579304100014,400.3905224576864,400.41579304100014,400.41579304100014,400.41579304100014,402.5120135000325,406.55410266603576,400.41579304100014,400.41579304100014,405.55131075001555,400.89853050000966,401.9056092079845,402.5120135000325,403.52069420798216,400.41579304100014,400.41579304100014,400.40718912435307,400.41579304100014,400.41579304100014,400.41579304100014,400.40718912435307,400.41579304100014,400.41579304100014,405.55131075001555,400.41579304100014,405.55131075001555,405.6335534580285,406.26889195799595,400.41579304100014,2,1,0.775867875025142,reldom2_s026,001,2025-03-06_16h20.14.964,Vis-A-Scan_AC,2022.2.5,None,
0,0.0,None,fixation,stimulus/viswhat_stim/blank_white.png,stimulus/viswhat_stim/blank_white.png,stimulus/viswhere_stim/blank_white.png,stimulus/viswhere_stim/blank_white.png,stimulus/viswhat_stim/blank_white.png,stimulus/viswhat_stim/blank_white.png,stimulus/viswhat_stim/blank_white.png,stimulus/viswhat_stim/blank_white.png,0.0,0.0,0.0,0.0,0,0.0,0,0.0,0,0.0,0,0.0,0,0.0,0.0,0,0.0,0,0.0,0,0.0,0,0.0,0,0,0,0,0,0,0,0,8,,,,,0,45,45,45,,,,,,,,,406.55410266603576,406.55410266603576,406.55410266603576,406.55410266603576,406.55410266603576,406.55410266603576,406.55410266603576,406.55410266603576,406.45218437434715,406.55410266603576,406.55410266603576,406.55410266603576,406.45218437434715,406.55410266603576,406.55410266603576,406.55410266603576,406.55410266603576,406.55410266603576,406.55410266603576,406.55410266603576,406.55410266603576,406.55410266603576,406.55410266603576,406.55410266603576,406.55410266603576,406.55410266603576,406.55410266603576,406.50218437434717,406.55410266603576,406.55410266603576,406.55410266603576,406.50218437434717,406.55410266603576,406.55410266603576,406.55410266603576,406.55410266603576,406.55410266603576,411.7817320000031,411.7817320000031,414.74061995802913,None,0,,reldom2_s026,001,2025-03-06_16h20.14.964,Vis-A-Scan_AC,2022.2.5,None,
35,Second_Order,6.0,viswhat,stimulus/viswhat_stim/land_vehicle-train.png,stimulus/viswhat_stim/land_animal-moose.png,stimulus/viswhat_stim/land_vehicle-schoolbus.png,stimulus/viswhat_stim/water_vehicle-sailboat.png,stimulus/viswhat_stim/match_blank.png,stimulus/viswhat_stim/match_box.png,stimulus/viswhat_stim/match_yes.png,stimulus/viswhat_stim/match_no.png,2.0,Match,Location,Type,2,5.125,0,5.125,0,5.125,0,5.125,0,0.75,0.75,1,0.5,1,2.125,1,0.5,1,2.125,0,0,0,0,0,0,0,0,0,,,,,0,46,46,46,,,,,,,,,414.74061995802913,419.8647407499957,415.1897581660305,416.17681137501495,416.8130855410127,417.8100281250081,414.74061995802913,414.74061995802913,414.7520495826999,414.74061995802913,414.74061995802913,414.74061995802913,414.7520495826999,414.74061995802913,419.8647407499957,420.7289510410046,422.7955668750219,426.7341730410117,420.7289510410046,420.7289510410046,425.90253374999156,421.14280458301073,422.227878457983,422.7955668750219,423.8360378750367,420.7289510410046,420.7289510410046,420.6835688743352,420.7289510410046,420.7289510410046,420.7289510410046,420.6835688743352,420.7289510410046,420.7289510410046,425.90253374999156,420.7289510410046,425.90253374999156,425.90253374999156,,420.7289510410046,2,1,0.6159014159929939,reldom2_s026,001,2025-03-06_16h20.14.964,Vis-A-Scan_AC,2022.2.5,None,
36,Second_Order,6.0,viswhat,stimulus/viswhat_stim/land_animal-moose.png,stimulus/viswhat_stim/land_vehicle-schoolbus.png,stimulus/viswhat_stim/land_vehicle-pickuptruck.png,stimulus/viswhat_stim/water_vehicle-canoe(1).png,stimulus/viswhat_stim/match_blank.png,stimulus/viswhat_stim/match_box.png,stimulus/viswhat_stim/match_yes.png,stimulus/viswhat_stim/match_no.png,2.0,Match,Location,Type,2,5.125,0,5.125,0,5.125,0,5.125,0,0.625,0.625,1,0.5,1,2.125,1,0.5,1,2.125,0,0,0,0,0,0,0,0,0,,,,,0,47,47,47,,,,,,,,,426.7341730410117,431.8478855830035,427.18121370801236,428.1706908750348,428.8021600830252,429.7920163330273,426.7341730410117,426.7341730410117,426.74292291599556,426.7341730410117,426.7341730410117,426.7341730410117,426.74292291599556,426.7341730410117,431.8478855830035,432.52498016599566,434.5940721250372,438.65020891599124,432.52498016599566,432.52498016599566,437.6651323750266,432.98458475002553,434.0081847080146,434.5940721250372,435.60093312500976,432.52498016599566,432.52498016599566,432.51078695799225,432.52498016599566,432.52498016599566,432.52498016599566,432.51078695799225,432.52498016599566,432.52498016599566,437.6651323750266,432.52498016599566,437.6651323750266,437.7134618330165,438.3426573330071,432.52498016599566,2,1,0.6178207920165733,reldom2_s026,001,2025-03-06_16h20.14.964,Vis-A-Scan_AC,2022.2.5,None,
0,0.0,None,fixation,stimulus/viswhat_stim/blank_white.png,stimulus/viswhat_stim/blank_white.png,stimulus/viswhere_stim/blank_white.png,stimulus/viswhere_stim/blank_white.png,stimulus/viswhat_stim/blank_white.png,stimulus/viswhat_stim/blank_white.png,stimulus/viswhat_stim/blank_white.png,stimulus/viswhat_stim/blank_white.png,0.0,0.0,0.0,0.0,0,0.0,0,0.0,0,0.0,0,0.0,0,0.0,0.0,0,0.0,0,0.0,0,0.0,0,0.0,0,0,0,0,0,0,0,0,8,,,,,0,48,48,48,,,,,,,,,438.65020891599124,438.65020891599124,438.65020891599124,438.65020891599124,438.65020891599124,438.65020891599124,438.65020891599124,438.65020891599124,438.55965570799304,438.65020891599124,438.65020891599124,438.65020891599124,438.55965570799304,438.65020891599124,438.65020891599124,438.65020891599124,438.65020891599124,438.65020891599124,438.65020891599124,438.65020891599124,438.65020891599124,438.65020891599124,438.65020891599124,438.65020891599124,438.65020891599124,438.65020891599124,438.65020891599124,438.60965570799306,438.65020891599124,438.65020891599124,438.65020891599124,438.60965570799306,438.65020891599124,438.65020891599124,438.65020891599124,438.65020891599124,438.65020891599124,443.87281825003447,443.87281825003447,446.8589866660186,None,0,,reldom2_s026,001,2025-03-06_16h20.14.964,Vis-A-Scan_AC,2022.2.5,None,
37,First_Order,7.0,viswhere,stimulus/viswhere_stim/blank_white.png,stimulus/viswhere_stim/blank_white.png,stimulus/viswhere_stim/120-deg_dot-right_turquoise.png,stimulus/viswhere_stim/120-deg_dot-left_slateblue.png,stimulus/viswhere_stim/blank_white.png,stimulus/viswhere_stim/line_box.png,stimulus/viswhere_stim/line_yes.png,stimulus/viswhere_stim/line_no.png,None,Line,None,Line,1,0.0,0,5.125,0,5.125,0,5.125,0,0.0,0.625,0,0.0,0,0.0,1,0.5,1,2.125,0,0,0,0,0,0,0,0,0,,,,,0,49,49,49,,,,,,,,,446.8589866660186,446.8589866660186,446.8589866660186,446.8589866660186,446.8589866660186,446.8589866660186,446.8589866660186,446.8589866660186,446.83861508265056,446.8589866660186,446.8589866660186,446.8589866660186,446.83861508265056,446.8589866660186,446.8589866660186,446.8589866660186,448.97289099998306,452.9277150830021,446.8589866660186,446.8589866660186,451.9980795410229,447.3385559580056,448.3585523330257,448.97289099998306,449.9799601660343,446.8589866660186,446.8589866660186,446.85528174931727,446.8589866660186,446.8589866660186,446.8589866660186,446.85528174931727,446.8589866660186,446.8589866660186,451.9980795410229,446.8589866660186,451.9980795410229,452.0856313750264,452.71070908301044,446.8589866660186,1,1,0.7429231250425801,reldom2_s026,001,2025-03-06_16h20.14.964,Vis-A-Scan_AC,2022.2.5,None,
38,First_Order,7.0,viswhere,stimulus/viswhere_stim/blank_white.png,stimulus/viswhere_stim/blank_white.png,stimulus/viswhere_stim/30-deg_dot-right_royalblue.png,stimulus/viswhere_stim/30-deg_dot-left_royalblue.png,stimulus/viswhere_stim/blank_white.png,stimulus/viswhere_stim/dot_box.png,stimulus/viswhere_stim/dot_yes.png,stimulus/viswhere_stim/dot_no.png,None,Dot,None,Line,2,0.0,0,5.125,0,5.125,0,5.125,0,0.0,0.625,0,0.0,0,0.0,1,0.5,1,2.125,0,0,0,0,0,0,0,0,0,,,,,0,50,50,50,,,,,,,,,452.9277150830021,452.9277150830021,452.9277150830021,452.9277150830021,452.9277150830021,452.9277150830021,452.9277150830021,452.9277150830021,452.90693958332605,452.9277150830021,452.9277150830021,452.9277150830021,452.90693958332605,452.9277150830021,452.9277150830021,452.9277150830021,455.044627291034,458.99150687502697,452.9277150830021,452.9277150830021,458.05569470801856,453.4089518330293,454.4104869160219,455.044627291034,456.0530512910336,452.9277150830021,452.9277150830021,452.9236062499927,452.9277150830021,452.9277150830021,452.9277150830021,452.9236062499927,452.9277150830021,452.9277150830021,458.05569470801856,452.9277150830021,458.05569470801856,458.15725941600977,458.78420933301095,452.9277150830021,2,1,0.8971497910097241,reldom2_s026,001,2025-03-06_16h20.14.964,Vis-A-Scan_AC,2022.2.5,None,
39,First_Order,7.0,viswhere,stimulus/viswhere_stim/blank_white.png,stimulus/viswhere_stim/blank_white.png,stimulus/viswhere_stim/150-deg_dot-left_peru.png,stimulus/viswhere_stim/30-deg_dot-left_goldenrod.png,stimulus/viswhere_stim/blank_white.png,stimulus/viswhere_stim/line_box.png,stimulus/viswhere_stim/line_yes.png,stimulus/viswhere_stim/line_no.png,None,Line,None,Dot,2,0.0,0,5.125,0,5.125,0,5.125,0,0.0,0.625,0,0.0,0,0.0,1,0.5,1,2.125,0,0,0,0,0,0,0,0,0,,,,,0,51,51,51,,,,,,,,,458.99150687502697,458.99150687502697,458.99150687502697,458.99150687502697,458.99150687502697,458.99150687502697,458.99150687502697,458.99150687502697,458.97080654134817,458.99150687502697,458.99150687502697,458.99150687502697,458.97080654134817,458.99150687502697,458.99150687502697,458.99150687502697,461.1041461660061,465.05824637500336,458.99150687502697,458.99150687502697,464.1192661250243,459.4772070830222,460.4861948330072,461.1041461660061,462.11824108299334,458.99150687502697,458.99150687502697,458.9874732080148,458.99150687502697,458.99150687502697,458.99150687502697,458.9874732080148,458.99150687502697,458.99150687502697,464.1192661250243,458.99150687502697,464.1192661250243,464.21644562500296,464.8424592500087,458.99150687502697,2,1,1.3198264579987153,reldom2_s026,001,2025-03-06_16h20.14.964,Vis-A-Scan_AC,2022.2.5,None,
40,First_Order,7.0,viswhere,stimulus/viswhere_stim/blank_white.png,stimulus/viswhere_stim/blank_white.png,stimulus/viswhere_stim/120-deg_dot-left_royalblue.png,stimulus/viswhere_stim/120-deg_dot-right_slateblue.png,stimulus/viswhere_stim/blank_white.png,stimulus/viswhere_stim/dot_box.png,stimulus/viswhere_stim/dot_yes.png,stimulus/viswhere_stim/dot_no.png,None,Dot,None,Line,2,0.0,0,5.125,0,5.125,0,5.125,0,0.0,0.625,0,0.0,0,0.0,1,0.5,1,2.125,0,0,0,0,0,0,0,0,0,,,,,0,52,52,52,,,,,,,,,465.05824637500336,465.05824637500336,465.05824637500336,465.05824637500336,465.05824637500336,465.05824637500336,465.05824637500336,465.05824637500336,465.037392624324,465.05824637500336,465.05824637500336,465.05824637500336,465.037392624324,465.05824637500336,465.05824637500336,465.05824637500336,467.1706602909835,471.20510154101066,465.05824637500336,465.05824637500336,470.21383587497985,465.53725458303234,466.5569285409874,467.1706602909835,468.1771450830274,465.05824637500336,465.05824637500336,465.05405929099066,465.05824637500336,465.05824637500336,465.05824637500336,465.05405929099066,465.05824637500336,465.05824637500336,470.21383587497985,465.05824637500336,470.21383587497985,470.28540937503567,470.91219995799474,465.05824637500336,2,1,0.9038020829902962,reldom2_s026,001,2025-03-06_16h20.14.964,Vis-A-Scan_AC,2022.2.5,None,
0,0.0,None,fixation,stimulus/viswhat_stim/blank_white.png,stimulus/viswhat_stim/blank_white.png,stimulus/viswhere_stim/blank_white.png,stimulus/viswhere_stim/blank_white.png,stimulus/viswhat_stim/blank_white.png,stimulus/viswhat_stim/blank_white.png,stimulus/viswhat_stim/blank_white.png,stimulus/viswhat_stim/blank_white.png,0.0,0.0,0.0,0.0,0,0.0,0,0.0,0,0.0,0,0.0,0,0.0,0.0,0,0.0,0,0.0,0,0.0,0,0.0,0,0,0,0,0,0,0,0,9,,,,,0,53,53,53,,,,,,,,,471.20510154101066,471.20510154101066,471.20510154101066,471.20510154101066,471.20510154101066,471.20510154101066,471.20510154101066,471.20510154101066,471.1062470413356,471.20510154101066,471.20510154101066,471.20510154101066,471.1062470413356,471.20510154101066,471.20510154101066,471.20510154101066,471.20510154101066,471.20510154101066,471.20510154101066,471.20510154101066,471.20510154101066,471.20510154101066,471.20510154101066,471.20510154101066,471.20510154101066,471.20510154101066,471.20510154101066,471.15624704133563,471.20510154101066,471.20510154101066,471.20510154101066,471.15624704133563,471.20510154101066,471.20510154101066,471.20510154101066,471.20510154101066,471.20510154101066,476.43080741603626,476.43080741603626,480.3412969579804,None,0,,reldom2_s026,001,2025-03-06_16h20.14.964,Vis-A-Scan_AC,2022.2.5,None,
41,Second_Order,7.0,viswhere,stimulus/viswhere_stim/90-deg_dot-right_seagreen.png,stimulus/viswhere_stim/90-deg_dot-left_salmon.png,stimulus/viswhere_stim/60-deg_dot-left_slateblue.png,stimulus/viswhere_stim/60-deg_dot-right_lightsseagreen.png,stimulus/viswhat_stim/match_blank.png,stimulus/viswhat_stim/match_box.png,stimulus/viswhat_stim/match_yes.png,stimulus/viswhat_stim/match_no.png,1.0,Match,Line,Line,1,5.125,0,5.125,0,5.125,0,5.125,0,0.75,0.75,1,0.5,1,2.125,1,0.5,1,2.125,0,0,0,0,0,0,0,0,0,,,,,0,54,54,54,,,,,,,,,480.3412969579804,485.45514766598353,480.8224600410322,481.81172524997965,482.44758570799604,483.445330416027,480.3412969579804,480.3412969579804,480.3493269993652,480.3412969579804,480.3412969579804,480.3412969579804,480.3493269993652,480.3412969579804,485.45514766598353,486.24984220799524,488.3229851659853,492.2089254159946,486.24984220799524,486.24984220799524,491.38110937498277,486.6989023750066,487.7036038750084,488.3229851659853,489.3355874160188,486.24984220799524,486.24984220799524,486.23941287498457,486.24984220799524,486.24984220799524,486.24984220799524,486.23941287498457,486.24984220799524,486.24984220799524,491.38110937498277,486.24984220799524,491.38110937498277,491.4396374580101,492.2089254159946,486.24984220799524,1,1,0.8538875830126926,reldom2_s026,001,2025-03-06_16h20.14.964,Vis-A-Scan_AC,2022.2.5,None,
42,Second_Order,7.0,viswhere,stimulus/viswhere_stim/150-deg_dot-left_cyan.png,stimulus/viswhere_stim/60-deg_dot-left_royalblue.png,stimulus/viswhere_stim/30-deg_dot-right_mediumslateblue.png,stimulus/viswhere_stim/90-deg_dot-right_peru.png,stimulus/viswhat_stim/match_blank.png,stimulus/viswhat_stim/match_box.png,stimulus/viswhat_stim/match_yes.png,stimulus/viswhat_stim/match_no.png,1.0,Match,Dot,Dot,1,5.125,0,5.125,0,5.125,0,5.125,0,0.625,0.625,1,0.5,1,2.125,1,0.5,1,2.125,0,0,0,0,0,0,0,0,0,,,,,0,55,55,55,,,,,,,,,492.2089254159946,497.3319882079959,492.6854390410008,493.6722832910018,494.3206293749972,495.3088177500176,492.2089254159946,492.2089254159946,492.22258683301044,492.2089254159946,492.2089254159946,492.2089254159946,492.22258683301044,492.2089254159946,497.3319882079959,497.99372841598233,500.0742673330242,504.1241465000203,497.99372841598233,497.99372841598233,503.12721275002696,498.46252800000366,499.4725520830252,500.0742673330242,501.0884275829885,497.99372841598233,497.99372841598233,497.9785653743388,497.99372841598233,497.99372841598233,497.99372841598233,497.9785653743388,497.99372841598233,497.99372841598233,503.12721275002696,497.99372841598233,503.12721275002696,503.198170165997,503.8274395830231,497.99372841598233,1,1,0.7685037080082111,reldom2_s026,001,2025-03-06_16h20.14.964,Vis-A-Scan_AC,2022.2.5,None,
0,0.0,None,fixation,stimulus/viswhat_stim/blank_white.png,stimulus/viswhat_stim/blank_white.png,stimulus/viswhere_stim/blank_white.png,stimulus/viswhere_stim/blank_white.png,stimulus/viswhat_stim/blank_white.png,stimulus/viswhat_stim/blank_white.png,stimulus/viswhat_stim/blank_white.png,stimulus/viswhat_stim/blank_white.png,0.0,0.0,0.0,0.0,0,0.0,0,0.0,0,0.0,0,0.0,0,0.0,0.0,0,0.0,0,0.0,0,0.0,0,0.0,0,0,0,0,0,0,0,0,8,,,,,0,56,56,56,,,,,,,,,504.1241465000203,504.1241465000203,504.1241465000203,504.1241465000203,504.1241465000203,504.1241465000203,504.1241465000203,504.1241465000203,504.0220529993142,504.1241465000203,504.1241465000203,504.1241465000203,504.0220529993142,504.1241465000203,504.1241465000203,504.1241465000203,504.1241465000203,504.1241465000203,504.1241465000203,504.1241465000203,504.1241465000203,504.1241465000203,504.1241465000203,504.1241465000203,504.1241465000203,504.1241465000203,504.1241465000203,504.0720529993142,504.1241465000203,504.1241465000203,504.1241465000203,504.0720529993142,504.1241465000203,504.1241465000203,504.1241465000203,504.1241465000203,504.1241465000203,509.34989025001414,509.34989025001414,512.3403875409858,None,0,,reldom2_s026,001,2025-03-06_16h20.14.964,Vis-A-Scan_AC,2022.2.5,None,
43,First_Order,8.0,viswhere,stimulus/viswhere_stim/blank_white.png,stimulus/viswhere_stim/blank_white.png,stimulus/viswhere_stim/150-deg_dot-left_lightsseagreen.png,stimulus/viswhere_stim/30-deg_dot-left_salmon.png,stimulus/viswhere_stim/blank_white.png,stimulus/viswhere_stim/dot_box.png,stimulus/viswhere_stim/dot_yes.png,stimulus/viswhere_stim/dot_no.png,None,Dot,None,Dot,1,0.0,0,5.125,0,5.125,0,5.125,0,0.0,0.625,0,0.0,0,0.0,1,0.5,1,2.125,0,0,0,0,0,0,0,0,0,,,,,0,57,57,57,,,,,,,,,512.3403875409858,512.3403875409858,512.3403875409858,512.3403875409858,512.3403875409858,512.3403875409858,512.3403875409858,512.3403875409858,512.3197667076989,512.3403875409858,512.3403875409858,512.3403875409858,512.3197667076989,512.3403875409858,512.3403875409858,512.3403875409858,514.4509745829855,518.3994591250084,512.3403875409858,512.3403875409858,517.4787156250095,512.8243641250301,513.8333104579942,514.4509745829855,515.4619109160267,512.3403875409858,512.3403875409858,512.3364333743656,512.3403875409858,512.3403875409858,512.3403875409858,512.3364333743656,512.3403875409858,512.3403875409858,517.4787156250095,512.3403875409858,517.4787156250095,517.561702499981,518.1962221250287,512.3403875409858,1,1,1.417932500015013,reldom2_s026,001,2025-03-06_16h20.14.964,Vis-A-Scan_AC,2022.2.5,None,
44,First_Order,8.0,viswhere,stimulus/viswhere_stim/blank_white.png,stimulus/viswhere_stim/blank_white.png,stimulus/viswhere_stim/150-deg_dot-right_seagreen.png,stimulus/viswhere_stim/150-deg_dot-left_goldenrod.png,stimulus/viswhere_stim/blank_white.png,stimulus/viswhere_stim/line_box.png,stimulus/viswhere_stim/line_yes.png,stimulus/viswhere_stim/line_no.png,None,Line,None,Line,1,0.0,0,5.125,0,5.125,0,5.125,0,0.0,0.625,0,0.0,0,0.0,1,0.5,1,2.125,0,0,0,0,0,0,0,0,0,,,,,0,58,58,58,,,,,,,,,518.3994591250084,518.3994591250084,518.3994591250084,518.3994591250084,518.3994591250084,518.3994591250084,518.3994591250084,518.3994591250084,518.3773932493253,518.3994591250084,518.3994591250084,518.3994591250084,518.3773932493253,518.3994591250084,518.3994591250084,518.3994591250084,520.5086180000217,524.4628150829813,518.3994591250084,518.3994591250084,523.5401402080315,518.8880086250138,519.9049759160262,520.5086180000217,521.5273712080088,518.3994591250084,518.3994591250084,518.394059915992,518.3994591250084,518.3994591250084,518.3994591250084,518.394059915992,518.3994591250084,518.3994591250084,523.5401402080315,518.3994591250084,523.5401402080315,523.6287500000326,524.2605894579901,518.3994591250084,1,1,2.0956261249957606,reldom2_s026,001,2025-03-06_16h20.14.964,Vis-A-Scan_AC,2022.2.5,None,
45,First_Order,8.0,viswhere,stimulus/viswhere_stim/blank_white.png,stimulus/viswhere_stim/blank_white.png,stimulus/viswhere_stim/150-deg_dot-left_seagreen.png,stimulus/viswhere_stim/60-deg_dot-left_turquoise.png,stimulus/viswhere_stim/blank_white.png,stimulus/viswhere_stim/dot_box.png,stimulus/viswhere_stim/dot_yes.png,stimulus/viswhere_stim/dot_no.png,None,Dot,None,Dot,1,0.0,0,5.125,0,5.125,0,5.125,0,0.0,0.625,0,0.0,0,0.0,1,0.5,1,2.125,0,0,0,0,0,0,0,0,0,,,,,0,59,59,59,,,,,,,,,524.4628150829813,524.4628150829813,524.4628150829813,524.4628150829813,524.4628150829813,524.4628150829813,524.4628150829813,524.4628150829813,524.4412807493549,524.4628150829813,524.4628150829813,524.4628150829813,524.4412807493549,524.4628150829813,524.4628150829813,524.4628150829813,526.5759419160313,530.5288270000019,524.4628150829813,524.4628150829813,529.6035009580082,524.947699833021,525.9572946249973,526.5759419160313,527.5875852910103,524.4628150829813,524.4628150829813,524.4579474160215,524.4628150829813,524.4628150829813,524.4628150829813,524.4579474160215,524.4628150829813,524.4628150829813,529.6035009580082,524.4628150829813,529.6035009580082,529.6868423750275,530.3224587080185,524.4628150829813,1,1,1.2465509999892674,reldom2_s026,001,2025-03-06_16h20.14.964,Vis-A-Scan_AC,2022.2.5,None,
46,First_Order,8.0,viswhere,stimulus/viswhere_stim/blank_white.png,stimulus/viswhere_stim/blank_white.png,stimulus/viswhere_stim/150-deg_dot-left_lightsseagreen.png,stimulus/viswhere_stim/60-deg_dot-left_royalblue.png,stimulus/viswhere_stim/blank_white.png,stimulus/viswhere_stim/line_box.png,stimulus/viswhere_stim/line_yes.png,stimulus/viswhere_stim/line_no.png,None,Line,None,Dot,2,0.0,0,5.125,0,5.125,0,5.125,0,0.0,0.625,0,0.0,0,0.0,1,0.5,1,2.125,0,0,0,0,0,0,0,0,0,,,,,0,60,60,60,,,,,,,,,530.5288270000019,530.5288270000019,530.5288270000019,530.5288270000019,530.5288270000019,530.5288270000019,530.5288270000019,530.5288270000019,530.5078354993215,530.5288270000019,530.5288270000019,530.5288270000019,530.5078354993215,530.5288270000019,530.5288270000019,530.5288270000019,532.6460948750027,536.6770168329822,530.5288270000019,530.5288270000019,535.6650384159875,531.0132270830218,532.026234458026,532.6460948750027,533.6616498330259,530.5288270000019,530.5288270000019,530.5245021659881,530.5288270000019,530.5288270000019,530.5288270000019,530.5245021659881,530.5288270000019,530.5288270000019,535.6650384159875,530.5288270000019,535.6650384159875,535.7483337500016,536.3832045000163,530.5288270000019,2,1,0.7663057500030845,reldom2_s026,001,2025-03-06_16h20.14.964,Vis-A-Scan_AC,2022.2.5,None,
0,0.0,None,fixation,stimulus/viswhat_stim/blank_white.png,stimulus/viswhat_stim/blank_white.png,stimulus/viswhere_stim/blank_white.png,stimulus/viswhere_stim/blank_white.png,stimulus/viswhat_stim/blank_white.png,stimulus/viswhat_stim/blank_white.png,stimulus/viswhat_stim/blank_white.png,stimulus/viswhat_stim/blank_white.png,0.0,0.0,0.0,0.0,0,0.0,0,0.0,0,0.0,0,0.0,0,0.0,0.0,0,0.0,0,0.0,0,0.0,0,0.0,0,0,0,0,0,0,0,0,9,,,,,0,61,61,61,,,,,,,,,536.6770168329822,536.6770168329822,536.6770168329822,536.6770168329822,536.6770168329822,536.6770168329822,536.6770168329822,536.6770168329822,536.5775573743352,536.6770168329822,536.6770168329822,536.6770168329822,536.5775573743352,536.6770168329822,536.6770168329822,536.6770168329822,536.6770168329822,536.6770168329822,536.6770168329822,536.6770168329822,536.6770168329822,536.6770168329822,536.6770168329822,536.6770168329822,536.6770168329822,536.6770168329822,536.6770168329822,536.6275573743352,536.6770168329822,536.6770168329822,536.6770168329822,536.6275573743352,536.6770168329822,536.6770168329822,536.6770168329822,536.6770168329822,536.6770168329822,541.9016835000366,541.9016835000366,545.7970959999948,None,0,,reldom2_s026,001,2025-03-06_16h20.14.964,Vis-A-Scan_AC,2022.2.5,None,
47,Second_Order,8.0,viswhere,stimulus/viswhere_stim/120-deg_dot-left_goldenrod.png,stimulus/viswhere_stim/120-deg_dot-right_seagreen.png,stimulus/viswhere_stim/90-deg_dot-left_peru.png,stimulus/viswhere_stim/90-deg_dot-right_turquoise.png,stimulus/viswhat_stim/match_blank.png,stimulus/viswhat_stim/match_box.png,stimulus/viswhat_stim/match_yes.png,stimulus/viswhat_stim/match_no.png,1.0,Match,Line,Line,1,5.125,0,5.125,0,5.125,0,5.125,0,0.75,0.75,1,0.5,1,2.125,1,0.5,1,2.125,0,0,0,0,0,0,0,0,0,,,,,0,62,62,62,,,,,,,,,545.7970959999948,550.9174958750373,546.2909977079835,547.2792555409833,547.8985352080199,548.8963840000215,545.7970959999948,545.7970959999948,545.8096590833467,545.7970959999948,545.7970959999948,545.7970959999948,545.8096590833467,545.7970959999948,550.9174958750373,551.713358958019,553.799105291022,557.7023951250012,551.713358958019,551.713358958019,556.838358915993,552.1671222079895,553.1771928329836,553.799105291022,554.8153994160239,551.713358958019,551.713358958019,551.6863099993284,551.713358958019,551.713358958019,551.713358958019,551.6863099993284,551.713358958019,551.713358958019,556.838358915993,551.713358958019,556.838358915993,556.9115186660201,557.7023951250012,551.713358958019,1,1,0.7527888750191778,reldom2_s026,001,2025-03-06_16h20.14.964,Vis-A-Scan_AC,2022.2.5,None,
48,Second_Order,8.0,viswhere,stimulus/viswhere_stim/150-deg_dot-right_salmon.png,stimulus/viswhere_stim/90-deg_dot-right_cyan.png,stimulus/viswhere_stim/60-deg_dot-left_mediumslateblue.png,stimulus/viswhere_stim/30-deg_dot-left_turquoise.png,stimulus/viswhat_stim/match_blank.png,stimulus/viswhat_stim/match_box.png,stimulus/viswhat_stim/match_yes.png,stimulus/viswhat_stim/match_no.png,1.0,Match,Dot,Dot,1,5.125,0,5.125,0,5.125,0,5.125,0,0.625,0.625,1,0.5,1,2.125,1,0.5,1,2.125,0,0,0,0,0,0,0,0,0,,,,,0,63,63,63,,,,,,,,,557.7023951250012,562.816307000001,558.1881606660318,559.1870417080354,559.8090752080316,560.8072017910308,557.7023951250012,557.7023951250012,557.7159147909958,557.7023951250012,557.7023951250012,557.7023951250012,557.7159147909958,557.7023951250012,562.816307000001,563.4881052499986,565.5605575829977,569.5990158329951,563.4881052499986,563.4881052499986,568.641233500035,563.9384415830136,564.9432270000107,565.5605575829977,566.5739664580324,563.4881052499986,563.4881052499986,563.4630962493325,563.4881052499986,563.4881052499986,563.4881052499986,563.4630962493325,563.4881052499986,563.4881052499986,568.641233500035,563.4881052499986,568.641233500035,568.6856460830313,569.3169291660306,563.4881052499986,1,1,0.6330278750392608,reldom2_s026,001,2025-03-06_16h20.14.964,Vis-A-Scan_AC,2022.2.5,None,
0,0.0,None,fixation,stimulus/viswhat_stim/blank_white.png,stimulus/viswhat_stim/blank_white.png,stimulus/viswhere_stim/blank_white.png,stimulus/viswhere_stim/blank_white.png,stimulus/viswhat_stim/blank_white.png,stimulus/viswhat_stim/blank_white.png,stimulus/viswhat_stim/blank_white.png,stimulus/viswhat_stim/blank_white.png,0.0,0.0,0.0,0.0,0,0.0,0,0.0,0,0.0,0,0.0,0,0.0,0.0,0,0.0,0,0.0,0,0.0,0,0.0,0,0,0,0,0,0,0,0,16,,,,,0,64,64,64,,,,,,,,,569.5990158329951,569.5990158329951,569.5990158329951,569.5990158329951,569.5990158329951,569.5990158329951,569.5990158329951,569.5990158329951,569.4974422493445,569.5990158329951,569.5990158329951,569.5990158329951,569.4974422493445,569.5990158329951,569.5990158329951,569.5990158329951,569.5990158329951,569.5990158329951,569.5990158329951,569.5990158329951,569.5990158329951,569.5990158329951,569.5990158329951,569.5990158329951,569.5990158329951,569.5990158329951,569.5990158329951,569.5474422493445,569.5990158329951,569.5990158329951,569.5990158329951,569.5474422493445,569.5990158329951,569.5990158329951,569.5990158329951,569.5990158329951,569.5990158329951,574.8176873329794,574.8176873329794,585.7737916660262,None,0,,reldom2_s026,001,2025-03-06_16h20.14.964,Vis-A-Scan_AC,2022.2.5,None,
