Trial,Order,Block,Type,Stimuli_File1,Stimuli_File2,Stimuli_File3,Stimuli_File4,Cue_File1,Cue_File2,Response_File_Yes,Response_File_No,Match,Cue_Dimension,Pair1_Dimension,Pair2_Dimension,Key,Cue1_Duration,Cue1_Onset,Cue2_Duration,Cue2_Onset,ResponseYes_Duration,ResponseYes_Onset,ResponseNo_Duration,ResponseNo_Onset,ITI_Within,ITI_Between,Image1_Duration,Image1_Onset,Image2_Duration,Image2_Onset,Image3_Duration,Image3_Onset,Image4_Duration,Image4_Onset,Sound1_Duration,Sound1_Onset,Sound2_Duration,Sound2_Onset,Sound3_Duration,Sound3_Onset,Sound4_Duration,Sound4_Onset,Fixation_Duration,trials_2.thisRepN,trials_2.thisTrialN,trials_2.thisN,trials_2.thisIndex,trials.thisRepN,trials.thisTrialN,trials.thisN,trials.thisIndex,text_start.started,key_resp_start.started,key_resp_start.keys,key_resp_start.rt,text2.started,key_resp_2.started,key_resp_2.keys,key_resp_2.rt,cue_file1.started,cue_file1.stopped,image_1.started,image_1.stopped,image_2.started,image_2.stopped,sound_icon1.started,sound_icon1.stopped,sound_1.started,sound_1.stopped,sound_icon2.started,sound_icon2.stopped,sound_2.started,sound_2.stopped,image_blank_1.started,image_blank_1.stopped,key_press.started,key_press.stopped,fixation_text.started,cue_file2.started,cue_file2.stopped,image_3.started,image_3.stopped,image_4.started,image_4.stopped,sound_icon3.started,sound_icon3.stopped,sound_3.started,sound_3.stopped,sound_icon4.started,sound_icon4.stopped,sound_4.started,sound_4.stopped,response_yes.started,response_yes.stopped,response_no.started,response_no.stopped,iti_blank.started,iti_blank.stopped,fixation_text.stopped,key_press.keys,key_press.corr,key_press.rt,participant,session,date,expName,psychopyVersion,frameRate,
,,,,,,,,,,,,,,,,,,,,,,,,,,,,,,,,,,,,,,,,,,,,,,,,,,,,7.036314666969702,7.036314666969702,2,0.4656077080289833,,,,,,,,,,,,,,,,,,,,,,,,,,,,,,,,,,,,,,,,,,,,,,,,reldom2_s026,001,2025-03-06_15h57.06.791,Where-A-Scan_AC,2022.2.5,None,
,,,,,,,,,,,,,,,,,,,,,,,,,,,,,,,,,,,,,,,,,,,,0,0,0,0,,,,,,,,,7.530770000012126,7.530770000012126,5,17.533898124995176,,,,,,,,,,,,,,,,,,,,,,,,,,,,,,,,,,,,,,,,,,,,reldom2_s026,001,2025-03-06_15h57.06.791,Where-A-Scan_AC,2022.2.5,None,
,,,,,,,,,,,,,,,,,,,,,,,,,,,,,,,,,,,,,,,,,,,,1,0,1,0,,,,,,,,,25.078291833982803,25.078291833982803,5,1.9879235820262693,,,,,,,,,,,,,,,,,,,,,,,,,,,,,,,,,,,,,,,,,,,,reldom2_s026,001,2025-03-06_15h57.06.791,Where-A-Scan_AC,2022.2.5,None,
,,,,,,,,,,,,,,,,,,,,,,,,,,,,,,,,,,,,,,,,,,,,2,0,2,0,,,,,,,,,27.081790249969345,27.081790249969345,5,1.982966748997569,,,,,,,,,,,,,,,,,,,,,,,,,,,,,,,,,,,,,,,,,,,,reldom2_s026,001,2025-03-06_15h57.06.791,Where-A-Scan_AC,2022.2.5,None,
,,,,,,,,,,,,,,,,,,,,,,,,,,,,,,,,,,,,,,,,,,,,3,0,3,0,,,,,,,,,29.07701933401404,29.07701933401404,5,1.9874708740389906,,,,,,,,,,,,,,,,,,,,,,,,,,,,,,,,,,,,,,,,,,,,reldom2_s026,001,2025-03-06_15h57.06.791,Where-A-Scan_AC,2022.2.5,None,
0,0.0,None,fixation,stimulus/viswhere_stim/blank_white.png,stimulus/viswhere_stim/blank_white.png,stimulus/audwhere_stim/blank_white.png,stimulus/audwhere_stim/blank_white.png,stimulus/viswhere_stim/blank_white.png,stimulus/viswhere_stim/blank_white.png,stimulus/viswhere_stim/blank_white.png,stimulus/viswhere_stim/blank_white.png,0.0,0.0,0.0,0.0,0,0.0,0,0.0,0,0.0,0,0.0,0,0.0,0.0,0,0.0,0,0.0,0,0.0,0,0.0,0,0.0,0,0.0,0,0.0,0,0.0,16,,,,,0,0,0,0,,,,,,,,,31.285169292008504,31.285169292008504,31.285169292008504,31.285169292008504,31.285169292008504,31.285169292008504,31.285169292008504,31.285169292008504,31.192199125680297,31.285169292008504,31.285169292008504,31.285169292008504,31.192199125680297,31.285169292008504,31.285169292008504,31.285169292008504,31.285169292008504,31.285169292008504,31.285169292008504,31.285169292008504,31.285169292008504,31.285169292008504,31.285169292008504,31.285169292008504,31.285169292008504,31.285169292008504,31.285169292008504,31.242199125680294,31.285169292008504,31.285169292008504,31.285169292008504,31.242199125680294,31.285169292008504,31.285169292008504,31.285169292008504,31.285169292008504,31.285169292008504,36.494216249964666,36.494216249964666,47.46392825001385,None,0,,reldom2_s026,001,2025-03-06_15h57.06.791,Where-A-Scan_AC,2022.2.5,None,
1,First_Order,1.0,viswhere,stimulus/viswhere_stim/blank_white.png,stimulus/viswhere_stim/blank_white.png,stimulus/viswhere_stim/60-deg_dot-left_peru.png,stimulus/viswhere_stim/60-deg_dot-right_turquoise.png,stimulus/viswhere_stim/blank_white.png,stimulus/viswhere_stim/dot_box.png,stimulus/viswhere_stim/dot_yes.png,stimulus/viswhere_stim/dot_no.png,None,Dot,None,Line,2,0.0,0,5.125,0,5.125,0,5.125,0,0.0,0.625,0,0.0,0,0.0,1,0.5,1,2.125,0,0.0,0,0.0,0,0.0,0,0.0,0,,,,,0,1,1,1,,,,,,,,,47.46392825001385,47.46392825001385,47.46392825001385,47.46392825001385,47.46392825001385,47.46392825001385,47.46392825001385,47.46392825001385,47.44007491696393,47.46392825001385,47.46392825001385,47.46392825001385,47.44007491696393,47.46392825001385,47.46392825001385,47.46392825001385,49.57127929199487,53.52575854200404,47.46392825001385,47.46392825001385,52.60006595897721,47.939631542016286,48.944514208997134,49.57127929199487,50.58291670901235,47.46392825001385,47.46392825001385,47.456741583630595,47.46392825001385,47.46392825001385,47.46392825001385,47.456741583630595,47.46392825001385,47.46392825001385,52.60006595897721,47.46392825001385,52.60006595897721,52.68172679201234,53.3090406669653,47.46392825001385,2,1,0.8808989160461351,reldom2_s026,001,2025-03-06_15h57.06.791,Where-A-Scan_AC,2022.2.5,None,
2,First_Order,1.0,viswhere,stimulus/viswhere_stim/blank_white.png,stimulus/viswhere_stim/blank_white.png,stimulus/viswhere_stim/60-deg_dot-right_turquoise.png,stimulus/viswhere_stim/60-deg_dot-left_turquoise.png,stimulus/viswhere_stim/blank_white.png,stimulus/viswhere_stim/line_box.png,stimulus/viswhere_stim/line_yes.png,stimulus/viswhere_stim/line_no.png,None,Line,None,Line,1,0.0,0,5.125,0,5.125,0,5.125,0,0.0,0.625,0,0.0,0,0.0,1,0.5,1,2.125,0,0.0,0,0.0,0,0.0,0,0.0,0,,,,,0,2,2,2,,,,,,,,,53.52575854200404,53.52575854200404,53.52575854200404,53.52575854200404,53.52575854200404,53.52575854200404,53.52575854200404,53.52575854200404,53.50601704234335,53.52575854200404,53.52575854200404,53.52575854200404,53.50601704234335,53.52575854200404,53.52575854200404,53.52575854200404,55.62509766698349,59.58368845900986,53.52575854200404,53.52575854200404,58.66000212501967,54.00373233400751,55.01552991697099,55.62509766698349,56.63966837502085,53.52575854200404,53.52575854200404,53.52268370901002,53.52575854200404,53.52575854200404,53.52575854200404,53.52268370901002,53.52575854200404,53.52575854200404,58.66000212501967,53.52575854200404,58.66000212501967,58.75744829198811,59.37999508401845,53.52575854200404,1,1,0.8296233330620453,reldom2_s026,001,2025-03-06_15h57.06.791,Where-A-Scan_AC,2022.2.5,None,
3,First_Order,1.0,viswhere,stimulus/viswhere_stim/blank_white.png,stimulus/viswhere_stim/blank_white.png,stimulus/viswhere_stim/30-deg_dot-left_salmon.png,stimulus/viswhere_stim/120-deg_dot-left_royalblue.png,stimulus/viswhere_stim/blank_white.png,stimulus/viswhere_stim/line_box.png,stimulus/viswhere_stim/line_yes.png,stimulus/viswhere_stim/line_no.png,None,Line,None,Dot,2,0.0,0,5.125,0,5.125,0,5.125,0,0.0,0.625,0,0.0,0,0.0,1,0.5,1,2.125,0,0.0,0,0.0,0,0.0,0,0.0,0,,,,,0,3,3,3,,,,,,,,,59.58368845900986,59.58368845900986,59.58368845900986,59.58368845900986,59.58368845900986,59.58368845900986,59.58368845900986,59.58368845900986,59.563457375353515,59.58368845900986,59.58368845900986,59.58368845900986,59.563457375353515,59.58368845900986,59.58368845900986,59.58368845900986,61.68269654200412,65.64047654200112,59.58368845900986,59.58368845900986,64.73550641699694,60.060784208995756,61.07191966701066,61.68269654200412,62.69587087497348,59.58368845900986,59.58368845900986,59.58012404202018,59.58368845900986,59.58368845900986,59.58368845900986,59.58012404202018,59.58368845900986,59.58368845900986,64.73550641699694,59.58368845900986,64.73550641699694,64.80666358396411,65.43977850000374,59.58368845900986,2,1,1.018145208072383,reldom2_s026,001,2025-03-06_15h57.06.791,Where-A-Scan_AC,2022.2.5,None,
4,First_Order,1.0,viswhere,stimulus/viswhere_stim/blank_white.png,stimulus/viswhere_stim/blank_white.png,stimulus/viswhere_stim/150-deg_dot-right_salmon.png,stimulus/viswhere_stim/90-deg_dot-right_goldenrod.png,stimulus/viswhere_stim/blank_white.png,stimulus/viswhere_stim/line_box.png,stimulus/viswhere_stim/line_yes.png,stimulus/viswhere_stim/line_no.png,None,Line,None,Dot,2,0.0,0,5.125,0,5.125,0,5.125,0,0.0,0.625,0,0.0,0,0.0,1,0.5,1,2.125,0,0.0,0,0.0,0,0.0,0,0.0,0,,,,,0,4,4,4,,,,,,,,,65.64047654200112,65.64047654200112,65.64047654200112,65.64047654200112,65.64047654200112,65.64047654200112,65.64047654200112,65.64047654200112,65.62073441730656,65.64047654200112,65.64047654200112,65.64047654200112,65.62073441730656,65.64047654200112,65.64047654200112,65.64047654200112,67.75445274997037,71.78093520901166,65.64047654200112,65.64047654200112,70.76193183398573,66.12004283396527,67.12196199997561,67.75445274997037,68.75936720898608,65.64047654200112,65.64047654200112,65.63740108397323,65.64047654200112,65.64047654200112,65.64047654200112,65.63740108397323,65.64047654200112,65.64047654200112,70.76193183398573,65.64047654200112,70.76193183398573,70.86358725000173,71.49524416698841,65.64047654200112,2,1,1.0633612080710009,reldom2_s026,001,2025-03-06_15h57.06.791,Where-A-Scan_AC,2022.2.5,None,
0,0.0,None,fixation,stimulus/viswhere_stim/blank_white.png,stimulus/viswhere_stim/blank_white.png,stimulus/audwhere_stim/blank_white.png,stimulus/audwhere_stim/blank_white.png,stimulus/viswhere_stim/blank_white.png,stimulus/viswhere_stim/blank_white.png,stimulus/viswhere_stim/blank_white.png,stimulus/viswhere_stim/blank_white.png,0.0,0.0,0.0,0.0,0,0.0,0,0.0,0,0.0,0,0.0,0,0.0,0.0,0,0.0,0,0.0,0,0.0,0,0.0,0,0.0,0,0.0,0,0.0,0,0.0,9,,,,,0,5,5,5,,,,,,,,,71.78093520901166,71.78093520901166,71.78093520901166,71.78093520901166,71.78093520901166,71.78093520901166,71.78093520901166,71.78093520901166,71.68160516729888,71.78093520901166,71.78093520901166,71.78093520901166,71.68160516729888,71.78093520901166,71.78093520901166,71.78093520901166,71.78093520901166,71.78093520901166,71.78093520901166,71.78093520901166,71.78093520901166,71.78093520901166,71.78093520901166,71.78093520901166,71.78093520901166,71.78093520901166,71.78093520901166,71.73160516729888,71.78093520901166,71.78093520901166,71.78093520901166,71.73160516729888,71.78093520901166,71.78093520901166,71.78093520901166,71.78093520901166,71.78093520901166,76.99185183399823,76.99185183399823,80.92459295899607,None,0,,reldom2_s026,001,2025-03-06_15h57.06.791,Where-A-Scan_AC,2022.2.5,None,
5,Second_Order,1.0,viswhere,stimulus/viswhere_stim/90-deg_dot-right_mediumslateblue.png,stimulus/viswhere_stim/90-deg_dot-left_peru.png,stimulus/viswhere_stim/150-deg_dot-left_seagreen.png,stimulus/viswhere_stim/120-deg_dot-left_mediumslateblue.png,stimulus/viswhere_stim/match_blank.png,stimulus/viswhere_stim/match_box.png,stimulus/viswhere_stim/match_yes.png,stimulus/viswhere_stim/match_no.png,2.0,Match,Line,Dot,2,5.125,0,5.125,0,5.125,0,5.125,0,0.75,0.75,1,0.5,1,2.125,1,0.5,1,2.125,0,0.0,0,0.0,0,0.0,0,0.0,0,,,,,0,6,6,6,,,,,,,,,80.92459295899607,86.04015899996739,81.40777158399578,82.39740650000749,83.03391958400607,84.0306221669889,80.92459295899607,80.92459295899607,80.93889450034669,80.92459295899607,80.92459295899607,80.92459295899607,80.93889450034669,80.92459295899607,86.04015899996739,86.83266274997732,88.9042465420207,92.77480779198231,86.83266274997732,86.83266274997732,91.95822529197903,87.28102150000632,88.28861487499671,88.9042465420207,89.91202908399282,86.83266274997732,86.83266274997732,86.80731404230076,86.83266274997732,86.83266274997732,86.83266274997732,86.80731404230076,86.83266274997732,86.83266274997732,91.95822529197903,86.83266274997732,91.95822529197903,92.03197654196993,92.81098170898622,86.83266274997732,2,1,1.3017443739809096,reldom2_s026,001,2025-03-06_15h57.06.791,Where-A-Scan_AC,2022.2.5,None,
6,Second_Order,1.0,viswhere,stimulus/viswhere_stim/60-deg_dot-right_salmon.png,stimulus/viswhere_stim/150-deg_dot-right_cyan.png,stimulus/viswhere_stim/120-deg_dot-left_lightsseagreen.png,stimulus/viswhere_stim/90-deg_dot-left_goldenrod.png,stimulus/viswhere_stim/match_blank.png,stimulus/viswhere_stim/match_box.png,stimulus/viswhere_stim/match_yes.png,stimulus/viswhere_stim/match_no.png,1.0,Match,Dot,Dot,1,5.125,0,5.125,0,5.125,0,5.125,0,0.625,0.625,1,0.5,1,2.125,1,0.5,1,2.125,0,0.0,0,0.0,0,0.0,0,0.0,0,,,,,0,7,7,7,,,,,,,,,92.81098170898622,97.93449454201618,93.2891957089887,94.2879807499703,94.92253683396848,95.91222520900192,92.81098170898622,92.81098170898622,92.82480779198231,92.81098170898622,92.81098170898622,92.81098170898622,92.82480779198231,92.81098170898622,97.93449454201618,98.60340845899191,100.67811854201136,104.72508354199817,98.60340845899191,98.60340845899191,103.73475670901826,99.06634899997152,100.08451904199319,100.67811854201136,101.6832872920204,98.60340845899191,98.60340845899191,98.58088775032277,98.60340845899191,98.60340845899191,98.60340845899191,98.58088775032277,98.60340845899191,98.60340845899191,103.73475670901826,98.60340845899191,103.73475670901826,103.8031128749717,104.4298746669665,98.60340845899191,1,1,0.5745096240425482,reldom2_s026,001,2025-03-06_15h57.06.791,Where-A-Scan_AC,2022.2.5,None,
0,0.0,None,fixation,stimulus/viswhere_stim/blank_white.png,stimulus/viswhere_stim/blank_white.png,stimulus/audwhere_stim/blank_white.png,stimulus/audwhere_stim/blank_white.png,stimulus/viswhere_stim/blank_white.png,stimulus/viswhere_stim/blank_white.png,stimulus/viswhere_stim/blank_white.png,stimulus/viswhere_stim/blank_white.png,0.0,0.0,0.0,0.0,0,0.0,0,0.0,0,0.0,0,0.0,0,0.0,0.0,0,0.0,0,0.0,0,0.0,0,0.0,0,0.0,0,0.0,0,0.0,0,0.0,8,,,,,0,8,8,8,,,,,,,,,104.72508354199817,104.72508354199817,104.72508354199817,104.72508354199817,104.72508354199817,104.72508354199817,104.72508354199817,104.72508354199817,104.62437058335247,104.72508354199817,104.72508354199817,104.72508354199817,104.62437058335247,104.72508354199817,104.72508354199817,104.72508354199817,104.72508354199817,104.72508354199817,104.72508354199817,104.72508354199817,104.72508354199817,104.72508354199817,104.72508354199817,104.72508354199817,104.72508354199817,104.72508354199817,104.72508354199817,104.67437058335247,104.72508354199817,104.72508354199817,104.72508354199817,104.67437058335247,104.72508354199817,104.72508354199817,104.72508354199817,104.72508354199817,104.72508354199817,109.92371645901585,109.92371645901585,112.8968364589964,None,0,,reldom2_s026,001,2025-03-06_15h57.06.791,Where-A-Scan_AC,2022.2.5,None,
7,First_Order,2.0,viswhere,stimulus/viswhere_stim/blank_white.png,stimulus/viswhere_stim/blank_white.png,stimulus/viswhere_stim/30-deg_dot-right_cyan.png,stimulus/viswhere_stim/30-deg_dot-left_cyan.png,stimulus/viswhere_stim/blank_white.png,stimulus/viswhere_stim/line_box.png,stimulus/viswhere_stim/line_yes.png,stimulus/viswhere_stim/line_no.png,None,Line,None,Line,1,0.0,0,5.125,0,5.125,0,5.125,0,0.0,0.625,0,0.0,0,0.0,1,0.5,1,2.125,0,0.0,0,0.0,0,0.0,0,0.0,0,,,,,0,9,9,9,,,,,,,,,112.8968364589964,112.8968364589964,112.8968364589964,112.8968364589964,112.8968364589964,112.8968364589964,112.8968364589964,112.8968364589964,112.87553629166602,112.8968364589964,112.8968364589964,112.8968364589964,112.87553629166602,112.8968364589964,112.8968364589964,112.8968364589964,114.99959462496918,118.95821629196871,112.8968364589964,112.8968364589964,118.02780645899475,113.37695374997566,114.39127612498123,114.99959462496918,116.01704712497303,112.8968364589964,112.8968364589964,112.89220295833269,112.8968364589964,112.8968364589964,112.8968364589964,112.89220295833269,112.8968364589964,112.8968364589964,118.02780645899475,112.8968364589964,118.02780645899475,118.12526241701562,118.75684012501733,112.8968364589964,1,1,1.5192219580058008,reldom2_s026,001,2025-03-06_15h57.06.791,Where-A-Scan_AC,2022.2.5,None,
8,First_Order,2.0,viswhere,stimulus/viswhere_stim/blank_white.png,stimulus/viswhere_stim/blank_white.png,stimulus/viswhere_stim/60-deg_dot-right_slateblue.png,stimulus/viswhere_stim/60-deg_dot-left_goldenrod.png,stimulus/viswhere_stim/blank_white.png,stimulus/viswhere_stim/dot_box.png,stimulus/viswhere_stim/dot_yes.png,stimulus/viswhere_stim/dot_no.png,None,Dot,None,Line,2,0.0,0,5.125,0,5.125,0,5.125,0,0.0,0.625,0,0.0,0,0.0,1,0.5,1,2.125,0,0.0,0,0.0,0,0.0,0,0.0,0,,,,,0,10,10,10,,,,,,,,,118.95821629196871,118.95821629196871,118.95821629196871,118.95821629196871,118.95821629196871,118.95821629196871,118.95821629196871,118.95821629196871,118.93729345834193,118.95821629196871,118.95821629196871,118.95821629196871,118.93729345834193,118.95821629196871,118.95821629196871,118.95821629196871,121.05724416696467,125.02452104201075,118.95821629196871,118.95821629196871,124.09613112499937,119.43659554200713,120.44737095898017,121.05724416696467,122.07459041697439,118.95821629196871,118.95821629196871,118.95396012500859,118.95821629196871,118.95821629196871,118.95821629196871,118.95396012500859,118.95821629196871,118.95821629196871,124.09613112499937,118.95821629196871,124.09613112499937,124.18034262501169,124.81168370897649,118.95821629196871,2,1,1.3083188320160843,reldom2_s026,001,2025-03-06_15h57.06.791,Where-A-Scan_AC,2022.2.5,None,
9,First_Order,2.0,viswhere,stimulus/viswhere_stim/blank_white.png,stimulus/viswhere_stim/blank_white.png,stimulus/viswhere_stim/90-deg_dot-right_cyan.png,stimulus/viswhere_stim/60-deg_dot-right_slateblue.png,stimulus/viswhere_stim/blank_white.png,stimulus/viswhere_stim/dot_box.png,stimulus/viswhere_stim/dot_yes.png,stimulus/viswhere_stim/dot_no.png,None,Dot,None,Dot,1,0.0,0,5.125,0,5.125,0,5.125,0,0.0,0.625,0,0.0,0,0.0,1,0.5,1,2.125,0,0.0,0,0.0,0,0.0,0,0.0,0,,,,,0,11,11,11,,,,,,,,,125.02452104201075,125.02452104201075,125.02452104201075,125.02452104201075,125.02452104201075,125.02452104201075,125.02452104201075,125.02452104201075,125.00430083334989,125.02452104201075,125.02452104201075,125.02452104201075,125.00430083334989,125.02452104201075,125.02452104201075,125.02452104201075,127.12587066699052,131.11082908400567,125.02452104201075,125.02452104201075,130.1535340839764,125.50349741696846,126.51462879200699,127.12587066699052,128.14342687500175,125.02452104201075,125.02452104201075,125.02096750001655,125.02452104201075,125.02452104201075,125.02452104201075,125.02096750001655,125.02452104201075,125.02452104201075,130.1535340839764,125.02452104201075,130.1535340839764,130.25059891701676,130.87876191700343,125.02452104201075,1,1,0.8439174570376053,reldom2_s026,001,2025-03-06_15h57.06.791,Where-A-Scan_AC,2022.2.5,None,
10,First_Order,2.0,viswhere,stimulus/viswhere_stim/blank_white.png,stimulus/viswhere_stim/blank_white.png,stimulus/viswhere_stim/60-deg_dot-left_mediumslateblue.png,stimulus/viswhere_stim/150-deg_dot-left_peru.png,stimulus/viswhere_stim/blank_white.png,stimulus/viswhere_stim/dot_box.png,stimulus/viswhere_stim/dot_yes.png,stimulus/viswhere_stim/dot_no.png,None,Dot,None,Dot,1,0.0,0,5.125,0,5.125,0,5.125,0,0.0,0.625,0,0.0,0,0.0,1,0.5,1,2.125,0,0.0,0,0.0,0,0.0,0,0.0,0,,,,,0,12,12,12,,,,,,,,,131.11082908400567,131.11082908400567,131.11082908400567,131.11082908400567,131.11082908400567,131.11082908400567,131.11082908400567,131.11082908400567,131.08851270833597,131.11082908400567,131.11082908400567,131.11082908400567,131.08851270833597,131.11082908400567,131.11082908400567,131.11082908400567,133.22368095896672,137.2544581249822,131.11082908400567,131.11082908400567,136.2408452499658,131.59094829199603,132.60921941697598,133.22368095896672,134.2265895419987,131.11082908400567,131.11082908400567,131.10517937500265,131.11082908400567,131.11082908400567,131.11082908400567,131.10517937500265,131.11082908400567,131.11082908400567,136.2408452499658,131.11082908400567,136.2408452499658,136.33887670899276,136.9711669589742,131.11082908400567,1,1,0.8158733330783434,reldom2_s026,001,2025-03-06_15h57.06.791,Where-A-Scan_AC,2022.2.5,None,
0,0.0,None,fixation,stimulus/viswhere_stim/blank_white.png,stimulus/viswhere_stim/blank_white.png,stimulus/audwhere_stim/blank_white.png,stimulus/audwhere_stim/blank_white.png,stimulus/viswhere_stim/blank_white.png,stimulus/viswhere_stim/blank_white.png,stimulus/viswhere_stim/blank_white.png,stimulus/viswhere_stim/blank_white.png,0.0,0.0,0.0,0.0,0,0.0,0,0.0,0,0.0,0,0.0,0,0.0,0.0,0,0.0,0,0.0,0,0.0,0,0.0,0,0.0,0,0.0,0,0.0,0,0.0,10,,,,,0,13,13,13,,,,,,,,,137.2544581249822,137.2544581249822,137.2544581249822,137.2544581249822,137.2544581249822,137.2544581249822,137.2544581249822,137.2544581249822,137.15517820833097,137.2544581249822,137.2544581249822,137.2544581249822,137.15517820833097,137.2544581249822,137.2544581249822,137.2544581249822,137.2544581249822,137.2544581249822,137.2544581249822,137.2544581249822,137.2544581249822,137.2544581249822,137.2544581249822,137.2544581249822,137.2544581249822,137.2544581249822,137.2544581249822,137.20517820833098,137.2544581249822,137.2544581249822,137.2544581249822,137.20517820833098,137.2544581249822,137.2544581249822,137.2544581249822,137.2544581249822,137.2544581249822,142.46493404201465,142.46493404201465,147.3648902089917,None,0,,reldom2_s026,001,2025-03-06_15h57.06.791,Where-A-Scan_AC,2022.2.5,None,
11,Second_Order,2.0,viswhere,stimulus/viswhere_stim/120-deg_dot-right_turquoise.png,stimulus/viswhere_stim/120-deg_dot-left_goldenrod.png,stimulus/viswhere_stim/60-deg_dot-left_turquoise.png,stimulus/viswhere_stim/150-deg_dot-left_seagreen.png,stimulus/viswhere_stim/match_blank.png,stimulus/viswhere_stim/match_box.png,stimulus/viswhere_stim/match_yes.png,stimulus/viswhere_stim/match_no.png,2.0,Match,Line,Dot,2,5.125,0,5.125,0,5.125,0,5.125,0,0.75,0.75,1,0.5,1,2.125,1,0.5,1,2.125,0,0.0,0,0.0,0,0.0,0,0.0,0,,,,,0,14,14,14,,,,,,,,,147.3648902089917,152.47760091698729,147.8472034590086,148.83459804201266,149.4703724589781,150.4675037090201,147.3648902089917,147.3648902089917,147.37884320834033,147.3648902089917,147.3648902089917,147.3648902089917,147.37884320834033,147.3648902089917,152.47760091698729,153.26199679198908,155.34631570900092,159.24226312496467,153.26199679198908,153.26199679198908,158.40199583396316,153.72749979200307,154.72979999997187,155.34631570900092,156.35499462496955,153.26199679198908,153.26199679198908,153.24418304232728,153.26199679198908,153.26199679198908,153.26199679198908,153.24418304232728,153.26199679198908,153.26199679198908,158.40199583396316,153.26199679198908,158.40199583396316,158.47122358396882,159.24226312496467,153.26199679198908,2,1,0.8693802080815658,reldom2_s026,001,2025-03-06_15h57.06.791,Where-A-Scan_AC,2022.2.5,None,
12,Second_Order,2.0,viswhere,stimulus/viswhere_stim/30-deg_dot-right_mediumslateblue.png,stimulus/viswhere_stim/30-deg_dot-left_seagreen.png,stimulus/viswhere_stim/120-deg_dot-right_goldenrod.png,stimulus/viswhere_stim/120-deg_dot-left_salmon.png,stimulus/viswhere_stim/match_blank.png,stimulus/viswhere_stim/match_box.png,stimulus/viswhere_stim/match_yes.png,stimulus/viswhere_stim/match_no.png,1.0,Match,Line,Line,1,5.125,0,5.125,0,5.125,0,5.125,0,0.625,0.625,1,0.5,1,2.125,1,0.5,1,2.125,0,0.0,0,0.0,0,0.0,0,0.0,0,,,,,0,15,15,15,,,,,,,,,159.24226312496467,164.35565233399393,159.7249493339914,160.71381504199235,161.34782070899382,162.34556862496538,159.24226312496467,159.24226312496467,159.25631554198918,159.24226312496467,159.24226312496467,159.24226312496467,159.25631554198918,159.24226312496467,164.35565233399393,165.0237593339989,167.09931783401407,171.14424745901488,165.0237593339989,165.0237593339989,170.1509847919806,165.47047879197635,166.48563199996715,167.09931783401407,168.10163162497338,165.0237593339989,165.0237593339989,165.00078429230103,165.0237593339989,165.0237593339989,165.0237593339989,165.00078429230103,165.0237593339989,165.0237593339989,170.1509847919806,165.0237593339989,170.1509847919806,170.22000570897944,170.8471568339737,165.0237593339989,1,1,0.8531206659972668,reldom2_s026,001,2025-03-06_15h57.06.791,Where-A-Scan_AC,2022.2.5,None,
0,0.0,None,fixation,stimulus/viswhere_stim/blank_white.png,stimulus/viswhere_stim/blank_white.png,stimulus/audwhere_stim/blank_white.png,stimulus/audwhere_stim/blank_white.png,stimulus/viswhere_stim/blank_white.png,stimulus/viswhere_stim/blank_white.png,stimulus/viswhere_stim/blank_white.png,stimulus/viswhere_stim/blank_white.png,0.0,0.0,0.0,0.0,0,0.0,0,0.0,0,0.0,0,0.0,0,0.0,0.0,0,0.0,0,0.0,0,0.0,0,0.0,0,0.0,0,0.0,0,0.0,0,0.0,8,,,,,0,16,16,16,,,,,,,,,171.14424745901488,171.14424745901488,171.14424745901488,171.14424745901488,171.14424745901488,171.14424745901488,171.14424745901488,171.14424745901488,171.0411746252988,171.14424745901488,171.14424745901488,171.14424745901488,171.0411746252988,171.14424745901488,171.14424745901488,171.14424745901488,171.14424745901488,171.14424745901488,171.14424745901488,171.14424745901488,171.14424745901488,171.14424745901488,171.14424745901488,171.14424745901488,171.14424745901488,171.14424745901488,171.14424745901488,171.0911746252988,171.14424745901488,171.14424745901488,171.14424745901488,171.0911746252988,171.14424745901488,171.14424745901488,171.14424745901488,171.14424745901488,171.14424745901488,176.35991441697115,176.35991441697115,179.3874757089652,None,0,,reldom2_s026,001,2025-03-06_15h57.06.791,Where-A-Scan_AC,2022.2.5,None,
13,First_Order,3.0,audwhere,stimulus/audwhere_stim/dummy.wav,stimulus/audwhere_stim/dummy.wav,stimulus/audwhere_stim/right_away_290h.wav,stimulus/audwhere_stim/right_toward_280h.wav,stimulus/audwhere_stim/blank_white.png,stimulus/audwhere_stim/side_box.png,stimulus/audwhere_stim/side_yes.png,stimulus/audwhere_stim/side_no.png,None,Side,None,Side,1,0.0,0,5.125,0,5.125,0,5.125,0,0.0,0.625,0,0.0,0,0.0,0,0.0,0,0.0,0,0.0,0,0.0,1,0.5,1,2.125,0,,,,,0,17,17,17,,,,,,,,,179.3874757089652,179.3874757089652,179.3874757089652,179.3874757089652,179.3874757089652,179.3874757089652,179.3874757089652,179.3874757089652,179.31407712566823,179.3874757089652,179.3874757089652,179.3874757089652,179.31407712566823,179.3874757089652,179.3874757089652,179.3874757089652,181.47916987497592,185.50522920896765,179.3874757089652,179.3874757089652,184.5495419590152,179.3874757089652,179.3874757089652,179.3874757089652,179.3874757089652,179.85167262499453,180.92031787498854,179.8217505836549,,181.47916987497592,182.5523043749854,181.44889820868073,,179.3874757089652,184.5495419590152,179.3874757089652,184.5495419590152,184.5914384169737,185.25010383396875,179.3874757089652,1,1,0.8571141240536235,reldom2_s026,001,2025-03-06_15h57.06.791,Where-A-Scan_AC,2022.2.5,None,
14,First_Order,3.0,audwhere,stimulus/audwhere_stim/dummy.wav,stimulus/audwhere_stim/dummy.wav,stimulus/audwhere_stim/right_away_300h.wav,stimulus/audwhere_stim/left_away_300h.wav,stimulus/audwhere_stim/blank_white.png,stimulus/audwhere_stim/side_box.png,stimulus/audwhere_stim/side_yes.png,stimulus/audwhere_stim/side_no.png,None,Side,None,Direction,2,0.0,0,5.125,0,5.125,0,5.125,0,0.0,0.625,0,0.0,0,0.0,0,0.0,0,0.0,0,0.0,0,0.0,1,0.5,1,2.125,0,,,,,0,18,18,18,,,,,,,,,185.50522920896765,185.50522920896765,185.50522920896765,185.50522920896765,185.50522920896765,185.50522920896765,185.50522920896765,185.50522920896765,185.42439508330622,185.50522920896765,185.50522920896765,185.50522920896765,185.42439508330622,185.50522920896765,185.50522920896765,185.50522920896765,187.59709258400835,191.62302499997895,185.50522920896765,185.50522920896765,190.67059483396588,185.50522920896765,185.50522920896765,185.50522920896765,185.50522920896765,185.97064441698603,187.03864341700682,185.9407042506539,,187.59709258400835,188.66990720899776,187.5672897916559,,185.50522920896765,190.67059483396588,185.50522920896765,190.67059483396588,190.71193187497556,191.36901670898078,185.50522920896765,2,1,0.6481652490328997,reldom2_s026,001,2025-03-06_15h57.06.791,Where-A-Scan_AC,2022.2.5,None,
15,First_Order,3.0,audwhere,stimulus/audwhere_stim/dummy.wav,stimulus/audwhere_stim/dummy.wav,stimulus/audwhere_stim/left_away_290h.wav,stimulus/audwhere_stim/right_away_280h.wav,stimulus/audwhere_stim/blank_white.png,stimulus/audwhere_stim/direction_box.png,stimulus/audwhere_stim/direction_yes.png,stimulus/audwhere_stim/direction_no.png,None,Direction,None,Direction,1,0.0,0,5.125,0,5.125,0,5.125,0,0.0,0.625,0,0.0,0,0.0,0,0.0,0,0.0,0,0.0,0,0.0,1,0.5,1,2.125,0,,,,,0,19,19,19,,,,,,,,,191.62302499997895,191.62302499997895,191.62302499997895,191.62302499997895,191.62302499997895,191.62302499997895,191.62302499997895,191.62302499997895,191.543405250328,191.62302499997895,191.62302499997895,191.62302499997895,191.543405250328,191.62302499997895,191.62302499997895,191.62302499997895,193.7322247090051,,191.62302499997895,191.62302499997895,196.7715510840062,191.62302499997895,191.62302499997895,191.62302499997895,191.62302499997895,192.09293325000908,193.12392487499164,192.06254783366265,,193.7322247090051,194.76182629197137,193.70175312564632,,191.62302499997895,196.7715510840062,191.62302499997895,196.7715510840062,196.85414237499936,197.51395933399908,191.62302499997895,1,1,1.155336874013301,reldom2_s026,001,2025-03-06_15h57.06.791,Where-A-Scan_AC,2022.2.5,None,
16,First_Order,3.0,audwhere,stimulus/audwhere_stim/dummy.wav,stimulus/audwhere_stim/dummy.wav,stimulus/audwhere_stim/right_toward_270h.wav,stimulus/audwhere_stim/right_away_300h.wav,stimulus/audwhere_stim/blank_white.png,stimulus/audwhere_stim/direction_box.png,stimulus/audwhere_stim/direction_yes.png,stimulus/audwhere_stim/direction_no.png,None,Direction,None,Side,2,0.0,0,5.125,0,5.125,0,5.125,0,0.0,0.625,0,0.0,0,0.0,0,0.0,0,0.0,0,0.0,0,0.0,1,0.5,1,2.125,0,,,,,0,20,20,20,,,,,,,,,197.72740475001046,197.72740475001046,197.72740475001046,197.72740475001046,197.72740475001046,197.72740475001046,197.72740475001046,197.72740475001046,197.64729266733244,197.72740475001046,197.72740475001046,197.72740475001046,197.64729266733244,197.72740475001046,197.72740475001046,197.72740475001046,199.83597316697706,,197.72740475001046,197.72740475001046,202.87729091697838,197.72740475001046,197.72740475001046,197.72740475001046,197.72740475001046,198.1947202499723,199.22705854201922,198.16443691664998,,199.83597316697706,200.8673388339812,199.80557312566478,,197.72740475001046,202.87729091697838,197.72740475001046,202.87729091697838,202.91856554197147,203.58068979199743,197.72740475001046,2,1,1.2196493740193546,reldom2_s026,001,2025-03-06_15h57.06.791,Where-A-Scan_AC,2022.2.5,None,
0,0.0,None,fixation,stimulus/viswhere_stim/blank_white.png,stimulus/viswhere_stim/blank_white.png,stimulus/audwhere_stim/blank_white.png,stimulus/audwhere_stim/blank_white.png,stimulus/viswhere_stim/blank_white.png,stimulus/viswhere_stim/blank_white.png,stimulus/viswhere_stim/blank_white.png,stimulus/viswhere_stim/blank_white.png,0.0,0.0,0.0,0.0,0,0.0,0,0.0,0,0.0,0,0.0,0,0.0,0.0,0,0.0,0,0.0,0,0.0,0,0.0,0,0.0,0,0.0,0,0.0,0,0.0,9,,,,,0,21,21,21,,,,,,,,,203.85610291699413,203.85610291699413,203.85610291699413,203.85610291699413,203.85610291699413,203.85610291699413,203.85610291699413,203.85610291699413,203.7552040003085,203.85610291699413,203.85610291699413,203.85610291699413,203.7552040003085,203.85610291699413,203.85610291699413,203.85610291699413,203.85610291699413,203.85610291699413,203.85610291699413,203.85610291699413,203.85610291699413,203.85610291699413,203.85610291699413,203.85610291699413,203.85610291699413,203.85610291699413,203.85610291699413,203.8052040003085,203.85610291699413,203.85610291699413,203.85610291699413,203.8052040003085,203.85610291699413,203.85610291699413,203.85610291699413,203.85610291699413,203.85610291699413,209.0760057499865,209.0760057499865,212.99078150000423,None,0,,reldom2_s026,001,2025-03-06_15h57.06.791,Where-A-Scan_AC,2022.2.5,None,
17,Second_Order,3.0,audwhere,stimulus/audwhere_stim/right_away_270h.wav,stimulus/audwhere_stim/left_away_270h.wav,stimulus/audwhere_stim/right_toward_280h.wav,stimulus/audwhere_stim/left_toward_280h.wav,stimulus/viswhere_stim/match_blank.png,stimulus/audwhere_stim/match_box.png,stimulus/viswhere_stim/match_yes.png,stimulus/viswhere_stim/match_no.png,1.0,Match,Direction,Direction,1,5.125,0,5.125,0,5.125,0,5.125,0,0.75,0.75,0,0.0,0,0.0,0,0.0,0,0.0,1,0.5,1,2.125,1,0.5,1,2.125,0,,,,,0,22,22,22,,,,,,,,,212.99078150000423,218.11150387499947,212.99078150000423,212.99078150000423,212.99078150000423,212.99078150000423,213.4484489170136,214.43640495900763,213.46252608363673,,215.07201733399415,216.06935916701332,215.08400320867466,,218.11150387499947,218.96230108401505,221.01399712497368,224.9603067499702,218.96230108401505,218.96230108401505,224.14373441698262,218.96230108401505,218.96230108401505,218.96230108401505,218.96230108401505,219.38320358400233,220.4555303750094,219.352995791651,,221.01399712497368,222.04401262500323,220.98412950063747,,218.96230108401505,224.14373441698262,218.96230108401505,224.14373441698262,224.14373441698262,,218.96230108401505,1,1,1.180023332068231,reldom2_s026,001,2025-03-06_15h57.06.791,Where-A-Scan_AC,2022.2.5,None,
18,Second_Order,3.0,audwhere,stimulus/audwhere_stim/left_away_300h.wav,stimulus/audwhere_stim/right_away_290h.wav,stimulus/audwhere_stim/left_toward_300h.wav,stimulus/audwhere_stim/left_away_290h.wav,stimulus/viswhere_stim/match_blank.png,stimulus/audwhere_stim/match_box.png,stimulus/viswhere_stim/match_yes.png,stimulus/viswhere_stim/match_no.png,2.0,Match,Direction,Side,2,5.125,0,5.125,0,5.125,0,5.125,0,0.625,0.625,0,0.0,0,0.0,0,0.0,0,0.0,1,0.5,1,2.125,1,0.5,1,2.125,0,,,,,0,23,23,23,,,,,,,,,224.9603067499702,230.07270516699646,224.9603067499702,224.9603067499702,224.9603067499702,224.9603067499702,225.40981695899973,226.39774279197445,225.42378908367053,,227.04478491697228,228.0342345419922,227.04906787566532,,230.07270516699646,230.79839554202044,232.84450608398765,,230.79839554202044,230.79839554202044,235.9597260839655,230.79839554202044,230.79839554202044,230.79839554202044,230.79839554202044,231.21760154201183,232.28726879198803,231.18783366663072,,232.84450608398765,233.91705975000514,232.8145695416645,,230.79839554202044,235.9597260839655,230.79839554202044,235.9597260839655,236.00095074996352,236.65721224999288,230.79839554202044,2,1,0.9747644580202177,reldom2_s026,001,2025-03-06_15h57.06.791,Where-A-Scan_AC,2022.2.5,None,
0,0.0,None,fixation,stimulus/viswhere_stim/blank_white.png,stimulus/viswhere_stim/blank_white.png,stimulus/audwhere_stim/blank_white.png,stimulus/audwhere_stim/blank_white.png,stimulus/viswhere_stim/blank_white.png,stimulus/viswhere_stim/blank_white.png,stimulus/viswhere_stim/blank_white.png,stimulus/viswhere_stim/blank_white.png,0.0,0.0,0.0,0.0,0,0.0,0,0.0,0,0.0,0,0.0,0,0.0,0.0,0,0.0,0,0.0,0,0.0,0,0.0,0,0.0,0,0.0,0,0.0,0,0.0,9,,,,,0,24,24,24,,,,,,,,,236.8920015419717,236.8920015419717,236.8920015419717,236.8920015419717,236.8920015419717,236.8920015419717,236.8920015419717,236.8920015419717,236.79054558332624,236.8920015419717,236.8920015419717,236.8920015419717,236.79054558332624,236.8920015419717,236.8920015419717,236.8920015419717,236.8920015419717,236.8920015419717,236.8920015419717,236.8920015419717,236.8920015419717,236.8920015419717,236.8920015419717,236.8920015419717,236.8920015419717,236.8920015419717,236.8920015419717,236.84054558332622,236.8920015419717,236.8920015419717,236.8920015419717,236.84054558332622,236.8920015419717,236.8920015419717,236.8920015419717,236.8920015419717,236.8920015419717,242.10919858398847,242.10919858398847,246.15957683400484,None,0,,reldom2_s026,001,2025-03-06_15h57.06.791,Where-A-Scan_AC,2022.2.5,None,
19,First_Order,4.0,audwhere,stimulus/audwhere_stim/dummy.wav,stimulus/audwhere_stim/dummy.wav,stimulus/audwhere_stim/right_away_300h.wav,stimulus/audwhere_stim/left_away_280h.wav,stimulus/audwhere_stim/blank_white.png,stimulus/audwhere_stim/direction_box.png,stimulus/audwhere_stim/direction_yes.png,stimulus/audwhere_stim/direction_no.png,None,Direction,None,Direction,1,0.0,0,5.125,0,5.125,0,5.125,0,0.0,0.625,0,0.0,0,0.0,0,0.0,0,0.0,0,0.0,0,0.0,1,0.5,1,2.125,0,,,,,0,25,25,25,,,,,,,,,246.15957683400484,246.15957683400484,246.15957683400484,246.15957683400484,246.15957683400484,246.15957683400484,246.15957683400484,246.15957683400484,246.08541404168744,246.15957683400484,246.15957683400484,246.15957683400484,246.08541404168744,246.15957683400484,246.15957683400484,246.15957683400484,248.26726533396868,,246.15957683400484,246.15957683400484,251.31175904197153,246.15957683400484,246.15957683400484,246.15957683400484,246.15957683400484,246.62859658396337,247.65977441699943,246.59817591665004,,248.26726533396868,249.30119516700506,248.23696995864546,,246.15957683400484,251.31175904197153,246.15957683400484,251.31175904197153,251.35323912499007,252.0118959589745,246.15957683400484,1,1,1.7567404580768198,reldom2_s026,001,2025-03-06_15h57.06.791,Where-A-Scan_AC,2022.2.5,None,
20,First_Order,4.0,audwhere,stimulus/audwhere_stim/dummy.wav,stimulus/audwhere_stim/dummy.wav,stimulus/audwhere_stim/right_toward_270h.wav,stimulus/audwhere_stim/right_away_280h.wav,stimulus/audwhere_stim/blank_white.png,stimulus/audwhere_stim/direction_box.png,stimulus/audwhere_stim/direction_yes.png,stimulus/audwhere_stim/direction_no.png,None,Direction,None,Side,2,0.0,0,5.125,0,5.125,0,5.125,0,0.0,0.625,0,0.0,0,0.0,0,0.0,0,0.0,0,0.0,0,0.0,1,0.5,1,2.125,0,,,,,0,26,26,26,,,,,,,,,252.26619583397405,252.26619583397405,252.26619583397405,252.26619583397405,252.26619583397405,252.26619583397405,252.26619583397405,252.26619583397405,252.1866382923055,252.26619583397405,252.26619583397405,252.26619583397405,252.1866382923055,252.26619583397405,252.26619583397405,252.26619583397405,254.36838912498206,,252.26619583397405,252.26619583397405,257.46168345899787,252.26619583397405,252.26619583397405,252.26619583397405,252.26619583397405,252.73265949997585,253.76242774998536,252.7023857916395,,254.36838912498206,255.401829083974,254.33854212565737,,252.26619583397405,257.46168345899787,252.26619583397405,257.46168345899787,257.46168345899787,258.1191077089752,252.26619583397405,2,1,1.2899560410296544,reldom2_s026,001,2025-03-06_15h57.06.791,Where-A-Scan_AC,2022.2.5,None,
21,First_Order,4.0,audwhere,stimulus/audwhere_stim/dummy.wav,stimulus/audwhere_stim/dummy.wav,stimulus/audwhere_stim/left_toward_300h.wav,stimulus/audwhere_stim/left_away_300h.wav,stimulus/audwhere_stim/blank_white.png,stimulus/audwhere_stim/side_box.png,stimulus/audwhere_stim/side_yes.png,stimulus/audwhere_stim/side_no.png,None,Side,None,Side,1,0.0,0,5.125,0,5.125,0,5.125,0,0.0,0.625,0,0.0,0,0.0,0,0.0,0,0.0,0,0.0,0,0.0,1,0.5,1,2.125,0,,,,,0,27,27,27,,,,,,,,,258.3741425839835,258.3741425839835,258.3741425839835,258.3741425839835,258.3741425839835,258.3741425839835,258.3741425839835,258.3741425839835,258.2936493333274,258.3741425839835,258.3741425839835,258.3741425839835,258.2936493333274,258.3741425839835,258.3741425839835,258.3741425839835,260.4696053339867,264.50290195900016,258.3741425839835,258.3741425839835,263.5484945420176,258.3741425839835,258.3741425839835,258.3741425839835,258.3741425839835,258.8409199590096,259.9126314999885,258.81076508365027,,260.4696053339867,261.54440895898733,260.43962145864884,,258.3741425839835,263.5484945420176,258.3741425839835,263.5484945420176,263.58992754196515,264.24694145901594,258.3741425839835,1,1,0.941134958062321,reldom2_s026,001,2025-03-06_15h57.06.791,Where-A-Scan_AC,2022.2.5,None,
22,First_Order,4.0,audwhere,stimulus/audwhere_stim/dummy.wav,stimulus/audwhere_stim/dummy.wav,stimulus/audwhere_stim/right_away_270h.wav,stimulus/audwhere_stim/left_away_300h.wav,stimulus/audwhere_stim/blank_white.png,stimulus/audwhere_stim/side_box.png,stimulus/audwhere_stim/side_yes.png,stimulus/audwhere_stim/side_no.png,None,Side,None,Direction,2,0.0,0,5.125,0,5.125,0,5.125,0,0.0,0.625,0,0.0,0,0.0,0,0.0,0,0.0,0,0.0,0,0.0,1,0.5,1,2.125,0,,,,,0,28,28,28,,,,,,,,,264.50290195900016,264.50290195900016,264.50290195900016,264.50290195900016,264.50290195900016,264.50290195900016,264.50290195900016,264.50290195900016,264.421320500349,264.50290195900016,264.50290195900016,264.50290195900016,264.421320500349,264.50290195900016,264.50290195900016,264.50290195900016,266.59812849998707,270.6450163749978,264.50290195900016,264.50290195900016,269.67151595896576,264.50290195900016,264.50290195900016,264.50290195900016,264.50290195900016,264.9679824169725,266.0413580419845,264.9380282916866,,266.59812849998707,267.6735086669796,266.5683285836751,,264.50290195900016,269.67151595896576,264.50290195900016,269.67151595896576,269.7129930839874,270.3704673749744,264.50290195900016,2,1,0.6262457080301829,reldom2_s026,001,2025-03-06_15h57.06.791,Where-A-Scan_AC,2022.2.5,None,
0,0.0,None,fixation,stimulus/viswhere_stim/blank_white.png,stimulus/viswhere_stim/blank_white.png,stimulus/audwhere_stim/blank_white.png,stimulus/audwhere_stim/blank_white.png,stimulus/viswhere_stim/blank_white.png,stimulus/viswhere_stim/blank_white.png,stimulus/viswhere_stim/blank_white.png,stimulus/viswhere_stim/blank_white.png,0.0,0.0,0.0,0.0,0,0.0,0,0.0,0,0.0,0,0.0,0,0.0,0.0,0,0.0,0,0.0,0,0.0,0,0.0,0,0.0,0,0.0,0,0.0,0,0.0,9,,,,,0,29,29,29,,,,,,,,,270.6450163749978,270.6450163749978,270.6450163749978,270.6450163749978,270.6450163749978,270.6450163749978,270.6450163749978,270.6450163749978,270.54455537532533,270.6450163749978,270.6450163749978,270.6450163749978,270.54455537532533,270.6450163749978,270.6450163749978,270.6450163749978,270.6450163749978,270.6450163749978,270.6450163749978,270.6450163749978,270.6450163749978,270.6450163749978,270.6450163749978,270.6450163749978,270.6450163749978,270.6450163749978,270.6450163749978,270.59455537532534,270.6450163749978,270.6450163749978,270.6450163749978,270.59455537532534,270.6450163749978,270.6450163749978,270.6450163749978,270.6450163749978,270.6450163749978,275.8688327500131,275.8688327500131,279.77594133396633,None,0,,reldom2_s026,001,2025-03-06_15h57.06.791,Where-A-Scan_AC,2022.2.5,None,
23,Second_Order,4.0,audwhere,stimulus/audwhere_stim/left_away_270h.wav,stimulus/audwhere_stim/left_toward_290h.wav,stimulus/audwhere_stim/left_toward_300h.wav,stimulus/audwhere_stim/right_toward_280h.wav,stimulus/viswhere_stim/match_blank.png,stimulus/audwhere_stim/match_box.png,stimulus/viswhere_stim/match_yes.png,stimulus/viswhere_stim/match_no.png,2.0,Match,Side,Direction,2,5.125,0,5.125,0,5.125,0,5.125,0,0.75,0.75,0,0.0,0,0.0,0,0.0,0,0.0,1,0.5,1,2.125,1,0.5,1,2.125,0,,,,,0,30,30,30,,,,,,,,,279.77594133396633,284.900201499986,279.77594133396633,279.77594133396633,279.77594133396633,279.77594133396633,280.2335788339842,281.2235155419912,280.23610716668577,,281.8587449169718,282.8568749590195,281.87112787564206,,284.900201499986,285.75092224997934,287.8005350420135,,285.75092224997934,285.75092224997934,290.91654270899016,285.75092224997934,285.75092224997934,285.75092224997934,285.75092224997934,286.1702940000105,287.2414723340189,286.13999887567866,,287.8005350420135,288.87095962499734,287.7701818756798,,285.75092224997934,290.91654270899016,285.75092224997934,290.91654270899016,290.91654270899016,,285.75092224997934,2,1,1.1761172910337336,reldom2_s026,001,2025-03-06_15h57.06.791,Where-A-Scan_AC,2022.2.5,None,
24,Second_Order,4.0,audwhere,stimulus/audwhere_stim/right_toward_290h.wav,stimulus/audwhere_stim/right_away_290h.wav,stimulus/audwhere_stim/left_away_300h.wav,stimulus/audwhere_stim/left_toward_270h.wav,stimulus/viswhere_stim/match_blank.png,stimulus/audwhere_stim/match_box.png,stimulus/viswhere_stim/match_yes.png,stimulus/viswhere_stim/match_no.png,1.0,Match,Side,Side,1,5.125,0,5.125,0,5.125,0,5.125,0,0.625,0.625,0,0.0,0,0.0,0,0.0,0,0.0,1,0.5,1,2.125,1,0.5,1,2.125,0,,,,,0,31,31,31,,,,,,,,,291.73406166699715,296.85582100000465,291.73406166699715,291.73406166699715,291.73406166699715,291.73406166699715,292.18073958397144,293.167331249977,292.1949505836858,,293.8195745840203,294.81788925,293.8322319166657,,296.85582100000465,297.58913645899156,299.63297587499255,,297.58913645899156,297.58913645899156,302.74730645900127,297.58913645899156,297.58913645899156,297.58913645899156,297.58913645899156,298.0081394169829,299.0764729999937,297.9781542506573,,299.63297587499255,300.70283562497934,299.6028311256707,,297.58913645899156,302.74730645900127,297.58913645899156,302.74730645900127,302.78856704197824,303.44676099997014,297.58913645899156,1,1,1.1059196660644375,reldom2_s026,001,2025-03-06_15h57.06.791,Where-A-Scan_AC,2022.2.5,None,
0,0.0,None,fixation,stimulus/viswhere_stim/blank_white.png,stimulus/viswhere_stim/blank_white.png,stimulus/audwhere_stim/blank_white.png,stimulus/audwhere_stim/blank_white.png,stimulus/viswhere_stim/blank_white.png,stimulus/viswhere_stim/blank_white.png,stimulus/viswhere_stim/blank_white.png,stimulus/viswhere_stim/blank_white.png,0.0,0.0,0.0,0.0,0,0.0,0,0.0,0,0.0,0,0.0,0,0.0,0.0,0,0.0,0,0.0,0,0.0,0,0.0,0,0.0,0,0.0,0,0.0,0,0.0,10,,,,,0,32,32,32,,,,,,,,,303.68100729200523,303.68100729200523,303.68100729200523,303.68100729200523,303.68100729200523,303.68100729200523,303.68100729200523,303.68100729200523,303.58009433330346,303.68100729200523,303.68100729200523,303.68100729200523,303.58009433330346,303.68100729200523,303.68100729200523,303.68100729200523,303.68100729200523,303.68100729200523,303.68100729200523,303.68100729200523,303.68100729200523,303.68100729200523,303.68100729200523,303.68100729200523,303.68100729200523,303.68100729200523,303.68100729200523,303.6300943333035,303.68100729200523,303.68100729200523,303.68100729200523,303.6300943333035,303.68100729200523,303.68100729200523,303.68100729200523,303.68100729200523,303.68100729200523,308.8896449590102,308.8896449590102,313.8572071249946,None,0,,reldom2_s026,001,2025-03-06_15h57.06.791,Where-A-Scan_AC,2022.2.5,None,
25,First_Order,5.0,viswhere,stimulus/viswhere_stim/blank_white.png,stimulus/viswhere_stim/blank_white.png,stimulus/viswhere_stim/120-deg_dot-right_goldenrod.png,stimulus/viswhere_stim/150-deg_dot-right_turquoise.png,stimulus/viswhere_stim/blank_white.png,stimulus/viswhere_stim/dot_box.png,stimulus/viswhere_stim/dot_yes.png,stimulus/viswhere_stim/dot_no.png,None,Dot,None,Dot,1,0.0,0,5.125,0,5.125,0,5.125,0,0.0,0.625,0,0.0,0,0.0,1,0.5,1,2.125,0,0.0,0,0.0,0,0.0,0,0.0,0,,,,,0,33,33,33,,,,,,,,,313.8572071249946,313.8572071249946,313.8572071249946,313.8572071249946,313.8572071249946,313.8572071249946,313.8572071249946,313.8572071249946,313.8369905836686,313.8572071249946,313.8572071249946,313.8572071249946,313.8369905836686,313.8572071249946,313.8572071249946,313.8572071249946,315.965284542006,319.91459591698367,313.8572071249946,313.8572071249946,318.9849302090006,314.33665591699537,315.3532000000123,315.965284542006,316.967308124993,313.8572071249946,313.8572071249946,313.8536572503353,313.8572071249946,313.8572071249946,313.8572071249946,313.8536572503353,313.8572071249946,313.8572071249946,318.9849302090006,313.8572071249946,318.9849302090006,319.0821142499917,319.71238724997966,313.8572071249946,1,1,1.0117766660405323,reldom2_s026,001,2025-03-06_15h57.06.791,Where-A-Scan_AC,2022.2.5,None,
26,First_Order,5.0,viswhere,stimulus/viswhere_stim/blank_white.png,stimulus/viswhere_stim/blank_white.png,stimulus/viswhere_stim/90-deg_dot-right_royalblue.png,stimulus/viswhere_stim/120-deg_dot-right_seagreen.png,stimulus/viswhere_stim/blank_white.png,stimulus/viswhere_stim/line_box.png,stimulus/viswhere_stim/line_yes.png,stimulus/viswhere_stim/line_no.png,None,Line,None,Dot,2,0.0,0,5.125,0,5.125,0,5.125,0,0.0,0.625,0,0.0,0,0.0,1,0.5,1,2.125,0,0.0,0,0.0,0,0.0,0,0.0,0,,,,,0,34,34,34,,,,,,,,,319.91459591698367,319.91459591698367,319.91459591698367,319.91459591698367,319.91459591698367,319.91459591698367,319.91459591698367,319.91459591698367,319.8939766253073,319.91459591698367,319.91459591698367,319.91459591698367,319.8939766253073,319.91459591698367,319.91459591698367,319.91459591698367,322.02723141701426,325.98300825001206,319.91459591698367,319.91459591698367,325.0470996670192,320.39465270901565,321.4132556669647,322.02723141701426,323.03266349999467,319.91459591698367,319.91459591698367,319.91064329197394,319.91459591698367,319.91459591698367,319.91459591698367,319.91064329197394,319.91459591698367,319.91459591698367,325.0470996670192,319.91459591698367,325.0470996670192,325.1449858340202,325.7688037920161,319.91459591698367,2,1,0.661470374034252,reldom2_s026,001,2025-03-06_15h57.06.791,Where-A-Scan_AC,2022.2.5,None,
27,First_Order,5.0,viswhere,stimulus/viswhere_stim/blank_white.png,stimulus/viswhere_stim/blank_white.png,stimulus/viswhere_stim/60-deg_dot-left_lightsseagreen.png,stimulus/viswhere_stim/60-deg_dot-right_slateblue.png,stimulus/viswhere_stim/blank_white.png,stimulus/viswhere_stim/line_box.png,stimulus/viswhere_stim/line_yes.png,stimulus/viswhere_stim/line_no.png,None,Line,None,Line,1,0.0,0,5.125,0,5.125,0,5.125,0,0.0,0.625,0,0.0,0,0.0,1,0.5,1,2.125,0,0.0,0,0.0,0,0.0,0,0.0,0,,,,,0,35,35,35,,,,,,,,,325.98300825001206,325.98300825001206,325.98300825001206,325.98300825001206,325.98300825001206,325.98300825001206,325.98300825001206,325.98300825001206,325.96277579230565,325.98300825001206,325.98300825001206,325.98300825001206,325.96277579230565,325.98300825001206,325.98300825001206,325.98300825001206,328.08828662498854,332.0502078749705,325.98300825001206,325.98300825001206,331.1224033340113,326.46068604197353,327.47606562497094,328.08828662498854,329.0910047920188,325.98300825001206,325.98300825001206,325.9794424589723,325.98300825001206,325.98300825001206,325.98300825001206,325.9794424589723,325.98300825001206,325.98300825001206,331.1224033340113,325.98300825001206,331.1224033340113,331.2053163750097,331.8358093340066,325.98300825001206,1,1,1.0874659160035662,reldom2_s026,001,2025-03-06_15h57.06.791,Where-A-Scan_AC,2022.2.5,None,
28,First_Order,5.0,viswhere,stimulus/viswhere_stim/blank_white.png,stimulus/viswhere_stim/blank_white.png,stimulus/viswhere_stim/120-deg_dot-right_slateblue.png,stimulus/viswhere_stim/90-deg_dot-right_cyan.png,stimulus/viswhere_stim/blank_white.png,stimulus/viswhere_stim/dot_box.png,stimulus/viswhere_stim/dot_yes.png,stimulus/viswhere_stim/dot_no.png,None,Dot,None,Dot,1,0.0,0,5.125,0,5.125,0,5.125,0,0.0,0.625,0,0.0,0,0.0,1,0.5,1,2.125,0,0.0,0,0.0,0,0.0,0,0.0,0,,,,,0,36,36,36,,,,,,,,,332.0502078749705,332.0502078749705,332.0502078749705,332.0502078749705,332.0502078749705,332.0502078749705,332.0502078749705,332.0502078749705,332.0297592503096,332.0502078749705,332.0502078749705,332.0502078749705,332.0297592503096,332.0502078749705,332.0502078749705,332.0502078749705,334.1600701250136,338.1933497089776,332.0502078749705,332.0502078749705,337.1766672920203,332.53052337496774,333.54854283400346,334.1600701250136,335.16230174998054,332.0502078749705,332.0502078749705,332.04642591697626,332.0502078749705,332.0502078749705,332.0502078749705,332.04642591697626,332.0502078749705,332.0502078749705,337.1766672920203,332.0502078749705,337.1766672920203,337.2727844589972,337.899862374994,332.0502078749705,1,1,1.8591921660699882,reldom2_s026,001,2025-03-06_15h57.06.791,Where-A-Scan_AC,2022.2.5,None,
0,0.0,None,fixation,stimulus/viswhere_stim/blank_white.png,stimulus/viswhere_stim/blank_white.png,stimulus/audwhere_stim/blank_white.png,stimulus/audwhere_stim/blank_white.png,stimulus/viswhere_stim/blank_white.png,stimulus/viswhere_stim/blank_white.png,stimulus/viswhere_stim/blank_white.png,stimulus/viswhere_stim/blank_white.png,0.0,0.0,0.0,0.0,0,0.0,0,0.0,0,0.0,0,0.0,0,0.0,0.0,0,0.0,0,0.0,0,0.0,0,0.0,0,0.0,0,0.0,0,0.0,0,0.0,9,,,,,0,37,37,37,,,,,,,,,338.1933497089776,338.1933497089776,338.1933497089776,338.1933497089776,338.1933497089776,338.1933497089776,338.1933497089776,338.1933497089776,338.09355445830926,338.1933497089776,338.1933497089776,338.1933497089776,338.09355445830926,338.1933497089776,338.1933497089776,338.1933497089776,338.1933497089776,338.1933497089776,338.1933497089776,338.1933497089776,338.1933497089776,338.1933497089776,338.1933497089776,338.1933497089776,338.1933497089776,338.1933497089776,338.1933497089776,338.14355445830927,338.1933497089776,338.1933497089776,338.1933497089776,338.14355445830927,338.1933497089776,338.1933497089776,338.1933497089776,338.1933497089776,338.1933497089776,343.40307370899245,343.40307370899245,347.33426837500883,None,0,,reldom2_s026,001,2025-03-06_15h57.06.791,Where-A-Scan_AC,2022.2.5,None,
29,Second_Order,5.0,viswhere,stimulus/viswhere_stim/150-deg_dot-right_cyan.png,stimulus/viswhere_stim/150-deg_dot-left_peru.png,stimulus/viswhere_stim/90-deg_dot-left_goldenrod.png,stimulus/viswhere_stim/90-deg_dot-right_mediumslateblue.png,stimulus/viswhere_stim/match_blank.png,stimulus/viswhere_stim/match_box.png,stimulus/viswhere_stim/match_yes.png,stimulus/viswhere_stim/match_no.png,1.0,Match,Line,Line,1,5.125,0,5.125,0,5.125,0,5.125,0,0.75,0.75,1,0.5,1,2.125,1,0.5,1,2.125,0,0.0,0,0.0,0,0.0,0,0.0,0,,,,,0,38,38,38,,,,,,,,,347.33426837500883,352.45564054197166,347.8094646249665,348.7956484169699,349.43196504196385,350.4301459590206,347.33426837500883,347.33426837500883,347.34876820832335,347.33426837500883,347.33426837500883,347.33426837500883,347.34876820832335,347.33426837500883,352.45564054197166,353.2446383750066,355.32911641697865,359.21559041697765,353.2446383750066,353.2446383750066,358.3831224589958,353.71100116701564,354.71277020900743,355.32911641697865,356.3365585419815,353.2446383750066,353.2446383750066,353.2232323753492,353.2446383750066,353.2446383750066,353.2446383750066,353.2232323753492,353.2446383750066,353.2446383750066,358.3831224589958,353.2446383750066,358.3831224589958,358.4385128339636,359.21559041697765,353.2446383750066,1,1,0.8954586240579374,reldom2_s026,001,2025-03-06_15h57.06.791,Where-A-Scan_AC,2022.2.5,None,
30,Second_Order,5.0,viswhere,stimulus/viswhere_stim/90-deg_dot-right_royalblue.png,stimulus/viswhere_stim/60-deg_dot-right_peru.png,stimulus/viswhere_stim/30-deg_dot-left_slateblue.png,stimulus/viswhere_stim/90-deg_dot-left_seagreen.png,stimulus/viswhere_stim/match_blank.png,stimulus/viswhere_stim/match_box.png,stimulus/viswhere_stim/match_yes.png,stimulus/viswhere_stim/match_no.png,1.0,Match,Dot,Dot,1,5.125,0,5.125,0,5.125,0,5.125,0,0.625,0.625,1,0.5,1,2.125,1,0.5,1,2.125,0,0.0,0,0.0,0,0.0,0,0.0,0,,,,,0,39,39,39,,,,,,,,,359.21559041697765,364.332542499993,359.7007004999905,360.69046512496425,361.32578116701916,362.3239165840205,359.21559041697765,359.21559041697765,359.229660166963,359.21559041697765,359.21559041697765,359.21559041697765,359.229660166963,359.21559041697765,364.332542499993,365.00341762497555,367.08401787496405,371.12888579198625,365.00341762497555,365.00341762497555,370.12759383401135,365.4514400420012,366.4698343339842,367.08401787496405,368.08938775002025,365.00341762497555,365.00341762497555,364.97970691731507,365.00341762497555,365.00341762497555,365.00341762497555,364.97970691731507,365.00341762497555,365.00341762497555,370.12759383401135,365.00341762497555,370.12759383401135,370.2016794590163,370.83067166700494,365.00341762497555,1,1,0.6542283740709536,reldom2_s026,001,2025-03-06_15h57.06.791,Where-A-Scan_AC,2022.2.5,None,
0,0.0,None,fixation,stimulus/viswhere_stim/blank_white.png,stimulus/viswhere_stim/blank_white.png,stimulus/audwhere_stim/blank_white.png,stimulus/audwhere_stim/blank_white.png,stimulus/viswhere_stim/blank_white.png,stimulus/viswhere_stim/blank_white.png,stimulus/viswhere_stim/blank_white.png,stimulus/viswhere_stim/blank_white.png,0.0,0.0,0.0,0.0,0,0.0,0,0.0,0,0.0,0,0.0,0,0.0,0.0,0,0.0,0,0.0,0,0.0,0,0.0,0,0.0,0,0.0,0,0.0,0,0.0,8,,,,,0,40,40,40,,,,,,,,,371.12888579198625,371.12888579198625,371.12888579198625,371.12888579198625,371.12888579198625,371.12888579198625,371.12888579198625,371.12888579198625,371.02619270830957,371.12888579198625,371.12888579198625,371.12888579198625,371.02619270830957,371.12888579198625,371.12888579198625,371.12888579198625,371.12888579198625,371.12888579198625,371.12888579198625,371.12888579198625,371.12888579198625,371.12888579198625,371.12888579198625,371.12888579198625,371.12888579198625,371.12888579198625,371.12888579198625,371.0761927083096,371.12888579198625,371.12888579198625,371.12888579198625,371.0761927083096,371.12888579198625,371.12888579198625,371.12888579198625,371.12888579198625,371.12888579198625,376.33184804196935,376.33184804196935,379.30962408398045,None,0,,reldom2_s026,001,2025-03-06_15h57.06.791,Where-A-Scan_AC,2022.2.5,None,
31,First_Order,6.0,viswhere,stimulus/viswhere_stim/blank_white.png,stimulus/viswhere_stim/blank_white.png,stimulus/viswhere_stim/90-deg_dot-right_lightsseagreen.png,stimulus/viswhere_stim/90-deg_dot-left_turquoise.png,stimulus/viswhere_stim/blank_white.png,stimulus/viswhere_stim/line_box.png,stimulus/viswhere_stim/line_yes.png,stimulus/viswhere_stim/line_no.png,None,Line,None,Line,1,0.0,0,5.125,0,5.125,0,5.125,0,0.0,0.625,0,0.0,0,0.0,1,0.5,1,2.125,0,0.0,0,0.0,0,0.0,0,0.0,0,,,,,0,41,41,41,,,,,,,,,379.30962408398045,379.30962408398045,379.30962408398045,379.30962408398045,379.30962408398045,379.30962408398045,379.30962408398045,379.30962408398045,379.2898554586378,379.30962408398045,379.30962408398045,379.30962408398045,379.2898554586378,379.30962408398045,379.30962408398045,379.30962408398045,381.4059764589765,385.37635737500386,379.30962408398045,379.30962408398045,384.4492414169945,379.7911902089836,380.81016049999744,381.4059764589765,382.4123122089659,379.30962408398045,379.30962408398045,379.2898554586378,379.30962408398045,379.30962408398045,379.30962408398045,379.2898554586378,379.30962408398045,379.30962408398045,384.4492414169945,379.30962408398045,384.4492414169945,384.53228762501385,385.16147995897336,379.30962408398045,1,1,0.644936332013458,reldom2_s026,001,2025-03-06_15h57.06.791,Where-A-Scan_AC,2022.2.5,None,
32,First_Order,6.0,viswhere,stimulus/viswhere_stim/blank_white.png,stimulus/viswhere_stim/blank_white.png,stimulus/viswhere_stim/30-deg_dot-right_goldenrod.png,stimulus/viswhere_stim/30-deg_dot-left_seagreen.png,stimulus/viswhere_stim/blank_white.png,stimulus/viswhere_stim/dot_box.png,stimulus/viswhere_stim/dot_yes.png,stimulus/viswhere_stim/dot_no.png,None,Dot,None,Line,2,0.0,0,5.125,0,5.125,0,5.125,0,0.0,0.625,0,0.0,0,0.0,1,0.5,1,2.125,0,0.0,0,0.0,0,0.0,0,0.0,0,,,,,0,42,42,42,,,,,,,,,385.37635737500386,385.37635737500386,385.37635737500386,385.37635737500386,385.37635737500386,385.37635737500386,385.37635737500386,385.37635737500386,385.35608795834315,385.37635737500386,385.37635737500386,385.37635737500386,385.35608795834315,385.37635737500386,385.37635737500386,385.37635737500386,387.48306645901175,391.44441687501967,385.37635737500386,385.37635737500386,390.514791124966,385.8552438339684,386.87093400000595,387.48306645901175,388.5025074169971,385.37635737500386,385.37635737500386,385.3727546250098,385.37635737500386,385.37635737500386,385.37635737500386,385.3727546250098,385.37635737500386,385.37635737500386,390.514791124966,385.37635737500386,390.514791124966,390.5988142089918,391.22745187499095,385.37635737500386,2,1,0.9922936660586856,reldom2_s026,001,2025-03-06_15h57.06.791,Where-A-Scan_AC,2022.2.5,None,
33,First_Order,6.0,viswhere,stimulus/viswhere_stim/blank_white.png,stimulus/viswhere_stim/blank_white.png,stimulus/viswhere_stim/150-deg_dot-left_lightsseagreen.png,stimulus/viswhere_stim/150-deg_dot-right_royalblue.png,stimulus/viswhere_stim/blank_white.png,stimulus/viswhere_stim/dot_box.png,stimulus/viswhere_stim/dot_yes.png,stimulus/viswhere_stim/dot_no.png,None,Dot,None,Line,2,0.0,0,5.125,0,5.125,0,5.125,0,0.0,0.625,0,0.0,0,0.0,1,0.5,1,2.125,0,0.0,0,0.0,0,0.0,0,0.0,0,,,,,0,43,43,43,,,,,,,,,391.44441687501967,391.44441687501967,391.44441687501967,391.44441687501967,391.44441687501967,391.44441687501967,391.44441687501967,391.44441687501967,391.4233258333018,391.44441687501967,391.44441687501967,391.44441687501967,391.4233258333018,391.44441687501967,391.44441687501967,391.44441687501967,393.55541095900116,397.5047770839883,391.44441687501967,391.44441687501967,396.58095350000076,391.9281032499857,392.93529545899946,393.55541095900116,394.5652067089686,391.44441687501967,391.44441687501967,391.43999249996847,391.44441687501967,391.44441687501967,391.44441687501967,391.43999249996847,391.44441687501967,391.44441687501967,396.58095350000076,391.44441687501967,396.58095350000076,396.66906516696326,397.3038627919741,391.44441687501967,2,1,1.014926000032574,reldom2_s026,001,2025-03-06_15h57.06.791,Where-A-Scan_AC,2022.2.5,None,
34,First_Order,6.0,viswhere,stimulus/viswhere_stim/blank_white.png,stimulus/viswhere_stim/blank_white.png,stimulus/viswhere_stim/120-deg_dot-left_peru.png,stimulus/viswhere_stim/90-deg_dot-left_royalblue.png,stimulus/viswhere_stim/blank_white.png,stimulus/viswhere_stim/line_box.png,stimulus/viswhere_stim/line_yes.png,stimulus/viswhere_stim/line_no.png,None,Line,None,Dot,2,0.0,0,5.125,0,5.125,0,5.125,0,0.0,0.625,0,0.0,0,0.0,1,0.5,1,2.125,0,0.0,0,0.0,0,0.0,0,0.0,0,,,,,0,44,44,44,,,,,,,,,397.5047770839883,397.5047770839883,397.5047770839883,397.5047770839883,397.5047770839883,397.5047770839883,397.5047770839883,397.5047770839883,397.48435154233204,397.5047770839883,397.5047770839883,397.5047770839883,397.48435154233204,397.5047770839883,397.5047770839883,397.5047770839883,399.61735424998915,403.643762208987,397.5047770839883,397.5047770839883,402.6368384590023,397.9851554170018,399.0030140840099,399.61735424998915,400.6192564590019,397.5047770839883,397.5047770839883,397.5010182089987,397.5047770839883,397.5047770839883,397.5047770839883,397.5010182089987,397.5047770839883,397.5047770839883,402.6368384590023,397.5047770839883,402.6368384590023,402.73550524999155,403.3647644169978,397.5047770839883,2,1,1.6499474990414456,reldom2_s026,001,2025-03-06_15h57.06.791,Where-A-Scan_AC,2022.2.5,None,
0,0.0,None,fixation,stimulus/viswhere_stim/blank_white.png,stimulus/viswhere_stim/blank_white.png,stimulus/audwhere_stim/blank_white.png,stimulus/audwhere_stim/blank_white.png,stimulus/viswhere_stim/blank_white.png,stimulus/viswhere_stim/blank_white.png,stimulus/viswhere_stim/blank_white.png,stimulus/viswhere_stim/blank_white.png,0.0,0.0,0.0,0.0,0,0.0,0,0.0,0,0.0,0,0.0,0,0.0,0.0,0,0.0,0,0.0,0,0.0,0,0.0,0,0.0,0,0.0,0,0.0,0,0.0,10,,,,,0,45,45,45,,,,,,,,,403.643762208987,403.643762208987,403.643762208987,403.643762208987,403.643762208987,403.643762208987,403.643762208987,403.643762208987,403.5451148753248,403.643762208987,403.643762208987,403.643762208987,403.5451148753248,403.643762208987,403.643762208987,403.643762208987,403.643762208987,403.643762208987,403.643762208987,403.643762208987,403.643762208987,403.643762208987,403.643762208987,403.643762208987,403.643762208987,403.643762208987,403.643762208987,403.59511487532484,403.643762208987,403.643762208987,403.643762208987,403.59511487532484,403.643762208987,403.643762208987,403.643762208987,403.643762208987,403.643762208987,408.8610939590144,408.8610939590144,413.7624628340127,None,0,,reldom2_s026,001,2025-03-06_15h57.06.791,Where-A-Scan_AC,2022.2.5,None,
35,Second_Order,6.0,viswhere,stimulus/viswhere_stim/60-deg_dot-right_mediumslateblue.png,stimulus/viswhere_stim/150-deg_dot-right_turquoise.png,stimulus/viswhere_stim/90-deg_dot-right_slateblue.png,stimulus/viswhere_stim/90-deg_dot-left_seagreen.png,stimulus/viswhere_stim/match_blank.png,stimulus/viswhere_stim/match_box.png,stimulus/viswhere_stim/match_yes.png,stimulus/viswhere_stim/match_no.png,2.0,Match,Dot,Line,2,5.125,0,5.125,0,5.125,0,5.125,0,0.75,0.75,1,0.5,1,2.125,1,0.5,1,2.125,0,0.0,0,0.0,0,0.0,0,0.0,0,,,,,0,46,46,46,,,,,,,,,413.7624628340127,418.875736624992,414.24338499997975,415.23270687501645,415.86986158398213,416.8664479170111,413.7624628340127,413.7624628340127,413.7766335423531,413.7624628340127,413.7624628340127,413.7624628340127,413.7766335423531,413.7624628340127,418.875736624992,419.67077525000786,421.7573033749941,425.61005299998214,419.67077525000786,419.67077525000786,424.79382908396656,420.11830145900603,421.12208245898364,421.7573033749941,422.76737124996725,419.67077525000786,419.67077525000786,419.6605421250104,419.67077525000786,419.67077525000786,419.67077525000786,419.6605421250104,419.67077525000786,419.67077525000786,424.79382908396656,419.67077525000786,424.79382908396656,424.8646962500061,425.6460609170026,419.67077525000786,2,1,0.8138514160527848,reldom2_s026,001,2025-03-06_15h57.06.791,Where-A-Scan_AC,2022.2.5,None,
36,Second_Order,6.0,viswhere,stimulus/viswhere_stim/120-deg_dot-left_royalblue.png,stimulus/viswhere_stim/120-deg_dot-right_cyan.png,stimulus/viswhere_stim/90-deg_dot-left_slateblue.png,stimulus/viswhere_stim/90-deg_dot-right_turquoise.png,stimulus/viswhere_stim/match_blank.png,stimulus/viswhere_stim/match_box.png,stimulus/viswhere_stim/match_yes.png,stimulus/viswhere_stim/match_no.png,1.0,Match,Line,Line,1,5.125,0,5.125,0,5.125,0,5.125,0,0.625,0.625,1,0.5,1,2.125,1,0.5,1,2.125,0,0.0,0,0.0,0,0.0,0,0.0,0,,,,,0,47,47,47,,,,,,,,,425.6460609170026,430.7714538750006,426.12469483399764,427.11192587501137,427.75825195899233,428.7485760420095,425.6460609170026,425.6460609170026,425.66005299998216,425.6460609170026,425.6460609170026,425.6460609170026,425.66005299998216,425.6460609170026,430.7714538750006,431.44007474998944,433.52415270899655,437.5582432919764,431.44007474998944,431.44007474998944,436.57781145896297,431.9055604590103,432.92647733399644,433.52415270899655,434.5320347499801,431.44007474998944,431.44007474998944,431.4171715003399,431.44007474998944,431.44007474998944,431.44007474998944,431.4171715003399,431.44007474998944,431.44007474998944,436.57781145896297,431.44007474998944,436.57781145896297,436.6325837500044,437.2627135000075,431.44007474998944,1,1,0.8710807080497034,reldom2_s026,001,2025-03-06_15h57.06.791,Where-A-Scan_AC,2022.2.5,None,
0,0.0,None,fixation,stimulus/viswhere_stim/blank_white.png,stimulus/viswhere_stim/blank_white.png,stimulus/audwhere_stim/blank_white.png,stimulus/audwhere_stim/blank_white.png,stimulus/viswhere_stim/blank_white.png,stimulus/viswhere_stim/blank_white.png,stimulus/viswhere_stim/blank_white.png,stimulus/viswhere_stim/blank_white.png,0.0,0.0,0.0,0.0,0,0.0,0,0.0,0,0.0,0,0.0,0,0.0,0.0,0,0.0,0,0.0,0,0.0,0,0.0,0,0.0,0,0.0,0,0.0,0,0.0,9,,,,,0,48,48,48,,,,,,,,,437.5582432919764,437.5582432919764,437.5582432919764,437.5582432919764,437.5582432919764,437.5582432919764,437.5582432919764,437.5582432919764,437.4567721253455,437.5582432919764,437.5582432919764,437.5582432919764,437.4567721253455,437.5582432919764,437.5582432919764,437.5582432919764,437.5582432919764,437.5582432919764,437.5582432919764,437.5582432919764,437.5582432919764,437.5582432919764,437.5582432919764,437.5582432919764,437.5582432919764,437.5582432919764,437.5582432919764,437.5067721253455,437.5582432919764,437.5582432919764,437.5582432919764,437.5067721253455,437.5582432919764,437.5582432919764,437.5582432919764,437.5582432919764,437.5582432919764,442.7672224169946,442.7672224169946,446.8231089999899,None,0,,reldom2_s026,001,2025-03-06_15h57.06.791,Where-A-Scan_AC,2022.2.5,None,
37,First_Order,7.0,audwhere,stimulus/audwhere_stim/dummy.wav,stimulus/audwhere_stim/dummy.wav,stimulus/audwhere_stim/left_toward_280h.wav,stimulus/audwhere_stim/left_away_290h.wav,stimulus/audwhere_stim/blank_white.png,stimulus/audwhere_stim/direction_box.png,stimulus/audwhere_stim/direction_yes.png,stimulus/audwhere_stim/direction_no.png,None,Direction,None,Side,2,0.0,0,5.125,0,5.125,0,5.125,0,0.0,0.625,0,0.0,0,0.0,0,0.0,0,0.0,0,0.0,0,0.0,1,0.5,1,2.125,0,,,,,0,49,49,49,,,,,,,,,446.8231089999899,446.8231089999899,446.8231089999899,446.8231089999899,446.8231089999899,446.8231089999899,446.8231089999899,446.8231089999899,446.7496037086627,446.8231089999899,446.8231089999899,446.8231089999899,446.7496037086627,446.8231089999899,446.8231089999899,446.8231089999899,448.93069150001975,,446.8231089999899,446.8231089999899,451.9766793749877,446.8231089999899,446.8231089999899,446.8231089999899,446.8231089999899,447.29336566699203,448.3228024999844,447.2629102086687,,448.93069150001975,449.96475704200566,448.90052775066965,,446.8231089999899,451.9766793749877,446.8231089999899,451.9766793749877,452.0184694589698,452.67722733400296,446.8231089999899,2,1,1.2647532490664162,reldom2_s026,001,2025-03-06_15h57.06.791,Where-A-Scan_AC,2022.2.5,None,
38,First_Order,7.0,audwhere,stimulus/audwhere_stim/dummy.wav,stimulus/audwhere_stim/dummy.wav,stimulus/audwhere_stim/left_away_300h.wav,stimulus/audwhere_stim/right_away_280h.wav,stimulus/audwhere_stim/blank_white.png,stimulus/audwhere_stim/side_box.png,stimulus/audwhere_stim/side_yes.png,stimulus/audwhere_stim/side_no.png,None,Side,None,Direction,2,0.0,0,5.125,0,5.125,0,5.125,0,0.0,0.625,0,0.0,0,0.0,0,0.0,0,0.0,0,0.0,0,0.0,1,0.5,1,2.125,0,,,,,0,50,50,50,,,,,,,,,452.93175562500255,452.93175562500255,452.93175562500255,452.93175562500255,452.93175562500255,452.93175562500255,452.93175562500255,452.93175562500255,452.8512847083349,452.93175562500255,452.93175562500255,452.93175562500255,452.8512847083349,452.93175562500255,452.93175562500255,452.93175562500255,455.0357840419747,,452.93175562500255,452.93175562500255,458.114170417015,452.93175562500255,452.93175562500255,452.93175562500255,452.93175562500255,453.40125266701216,454.47694491699804,453.3711816256439,,455.0357840419747,456.06680416699965,455.00570533366795,,452.93175562500255,458.114170417015,452.93175562500255,458.114170417015,458.15528145898134,458.8099714589771,452.93175562500255,2,1,0.8940870829974301,reldom2_s026,001,2025-03-06_15h57.06.791,Where-A-Scan_AC,2022.2.5,None,
39,First_Order,7.0,audwhere,stimulus/audwhere_stim/dummy.wav,stimulus/audwhere_stim/dummy.wav,stimulus/audwhere_stim/right_toward_280h.wav,stimulus/audwhere_stim/right_away_300h.wav,stimulus/audwhere_stim/blank_white.png,stimulus/audwhere_stim/side_box.png,stimulus/audwhere_stim/side_yes.png,stimulus/audwhere_stim/side_no.png,None,Side,None,Side,1,0.0,0,5.125,0,5.125,0,5.125,0,0.0,0.625,0,0.0,0,0.0,0,0.0,0,0.0,0,0.0,0,0.0,1,0.5,1,2.125,0,,,,,0,51,51,51,,,,,,,,,459.02323204197455,459.02323204197455,459.02323204197455,459.02323204197455,459.02323204197455,459.02323204197455,459.02323204197455,459.02323204197455,458.9433047923104,459.02323204197455,459.02323204197455,459.02323204197455,458.9433047923104,459.02323204197455,459.02323204197455,459.02323204197455,461.1234182919725,465.1529532499844,459.02323204197455,459.02323204197455,464.1984105000156,459.02323204197455,459.02323204197455,459.02323204197455,459.02323204197455,459.49088741699234,460.5644567499985,459.46095350064957,,461.1234182919725,462.1958437919966,461.09284987562955,,459.02323204197455,464.1984105000156,459.02323204197455,464.1984105000156,464.23965116700856,464.89751379197696,459.02323204197455,1,1,0.8653377910377458,reldom2_s026,001,2025-03-06_15h57.06.791,Where-A-Scan_AC,2022.2.5,None,
40,First_Order,7.0,audwhere,stimulus/audwhere_stim/dummy.wav,stimulus/audwhere_stim/dummy.wav,stimulus/audwhere_stim/left_away_280h.wav,stimulus/audwhere_stim/left_toward_300h.wav,stimulus/audwhere_stim/blank_white.png,stimulus/audwhere_stim/side_box.png,stimulus/audwhere_stim/side_yes.png,stimulus/audwhere_stim/side_no.png,None,Side,None,Side,1,0.0,0,5.125,0,5.125,0,5.125,0,0.0,0.625,0,0.0,0,0.0,0,0.0,0,0.0,0,0.0,0,0.0,1,0.5,1,2.125,0,,,,,0,52,52,52,,,,,,,,,465.1529532499844,465.1529532499844,465.1529532499844,465.1529532499844,465.1529532499844,465.1529532499844,465.1529532499844,465.1529532499844,465.0716922503508,465.1529532499844,465.1529532499844,465.1529532499844,465.0716922503508,465.1529532499844,465.1529532499844,465.1529532499844,467.2500594169833,471.3033720420208,465.1529532499844,465.1529532499844,470.329169042001,465.1529532499844,465.1529532499844,465.1529532499844,465.1529532499844,465.619794624974,466.689796791994,465.58969912567795,,467.2500594169833,468.3259832499898,467.2198317086479,,465.1529532499844,470.329169042001,465.1529532499844,470.329169042001,470.3703405840206,471.0266267500119,465.1529532499844,1,1,1.0060979580739513,reldom2_s026,001,2025-03-06_15h57.06.791,Where-A-Scan_AC,2022.2.5,None,
0,0.0,None,fixation,stimulus/viswhere_stim/blank_white.png,stimulus/viswhere_stim/blank_white.png,stimulus/audwhere_stim/blank_white.png,stimulus/audwhere_stim/blank_white.png,stimulus/viswhere_stim/blank_white.png,stimulus/viswhere_stim/blank_white.png,stimulus/viswhere_stim/blank_white.png,stimulus/viswhere_stim/blank_white.png,0.0,0.0,0.0,0.0,0,0.0,0,0.0,0,0.0,0,0.0,0,0.0,0.0,0,0.0,0,0.0,0,0.0,0,0.0,0,0.0,0,0.0,0,0.0,0,0.0,8,,,,,0,53,53,53,,,,,,,,,471.3033720420208,471.3033720420208,471.3033720420208,471.3033720420208,471.3033720420208,471.3033720420208,471.3033720420208,471.3033720420208,471.2023920833327,471.3033720420208,471.3033720420208,471.3033720420208,471.2023920833327,471.3033720420208,471.3033720420208,471.3033720420208,471.3033720420208,471.3033720420208,471.3033720420208,471.3033720420208,471.3033720420208,471.3033720420208,471.3033720420208,471.3033720420208,471.3033720420208,471.3033720420208,471.3033720420208,471.2523920833327,471.3033720420208,471.3033720420208,471.3033720420208,471.2523920833327,471.3033720420208,471.3033720420208,471.3033720420208,471.3033720420208,471.3033720420208,476.5189597919816,476.5189597919816,479.45763787499163,None,0,,reldom2_s026,001,2025-03-06_15h57.06.791,Where-A-Scan_AC,2022.2.5,None,
41,Second_Order,7.0,audwhere,stimulus/audwhere_stim/left_away_300h.wav,stimulus/audwhere_stim/left_toward_300h.wav,stimulus/audwhere_stim/right_away_290h.wav,stimulus/audwhere_stim/right_toward_290h.wav,stimulus/viswhere_stim/match_blank.png,stimulus/audwhere_stim/match_box.png,stimulus/viswhere_stim/match_yes.png,stimulus/viswhere_stim/match_no.png,1.0,Match,Side,Side,1,5.125,0,5.125,0,5.125,0,5.125,0,0.75,0.75,0,0.0,0,0.0,0,0.0,0,0.0,1,0.5,1,2.125,1,0.5,1,2.125,0,,,,,0,54,54,54,,,,,,,,,479.45763787499163,484.5775956250145,479.45763787499163,479.45763787499163,479.45763787499163,479.45763787499163,479.9155646250001,480.91463208396453,479.9285865836466,,481.537683292001,482.5348251669784,481.54928862565816,,484.5775956250145,485.4250562500092,487.47722624999005,491.4175948749762,485.4250562500092,485.4250562500092,490.5997121669934,485.4250562500092,485.4250562500092,485.4250562500092,485.4250562500092,485.84449083398795,486.9171496669878,485.8142920416469,,487.47722624999005,488.55247229197994,487.44725816668165,,485.4250562500092,490.5997121669934,485.4250562500092,490.5997121669934,490.5997121669934,,485.4250562500092,1,1,0.8506927490816452,reldom2_s026,001,2025-03-06_15h57.06.791,Where-A-Scan_AC,2022.2.5,None,
42,Second_Order,7.0,audwhere,stimulus/audwhere_stim/left_away_280h.wav,stimulus/audwhere_stim/right_away_270h.wav,stimulus/audwhere_stim/right_toward_270h.wav,stimulus/audwhere_stim/left_toward_280h.wav,stimulus/viswhere_stim/match_blank.png,stimulus/audwhere_stim/match_box.png,stimulus/viswhere_stim/match_yes.png,stimulus/viswhere_stim/match_no.png,1.0,Match,Direction,Direction,1,5.125,0,5.125,0,5.125,0,5.125,0,0.625,0.625,0,0.0,0,0.0,0,0.0,0,0.0,1,0.5,1,2.125,1,0.5,1,2.125,0,,,,,0,55,55,55,,,,,,,,,491.4175948749762,496.5389139999752,491.4175948749762,491.4175948749762,491.4175948749762,491.4175948749762,491.8756495419657,492.8621552090044,491.88951562566604,,493.4978388749878,494.49550962500507,493.51022850064714,,496.5389139999752,497.25801766698714,499.3520391249913,,497.25801766698714,497.25801766698714,502.4231681670062,497.25801766698714,497.25801766698714,497.25801766698714,497.25801766698714,497.72311612498015,498.79290304199094,497.6930820836608,,499.3520391249913,500.4244859999744,499.32212170865773,,497.25801766698714,502.4231681670062,497.25801766698714,502.4231681670062,502.46444520901423,503.122118416999,497.25801766698714,1,1,0.9598001250415109,reldom2_s026,001,2025-03-06_15h57.06.791,Where-A-Scan_AC,2022.2.5,None,
0,0.0,None,fixation,stimulus/viswhere_stim/blank_white.png,stimulus/viswhere_stim/blank_white.png,stimulus/audwhere_stim/blank_white.png,stimulus/audwhere_stim/blank_white.png,stimulus/viswhere_stim/blank_white.png,stimulus/viswhere_stim/blank_white.png,stimulus/viswhere_stim/blank_white.png,stimulus/viswhere_stim/blank_white.png,0.0,0.0,0.0,0.0,0,0.0,0,0.0,0,0.0,0,0.0,0,0.0,0.0,0,0.0,0,0.0,0,0.0,0,0.0,0,0.0,0,0.0,0,0.0,0,0.0,10,,,,,0,56,56,56,,,,,,,,,503.3572868339834,503.3572868339834,503.3572868339834,503.3572868339834,503.3572868339834,503.3572868339834,503.3572868339834,503.3572868339834,503.2554517503323,503.3572868339834,503.3572868339834,503.3572868339834,503.2554517503323,503.3572868339834,503.3572868339834,503.3572868339834,503.3572868339834,503.3572868339834,503.3572868339834,503.3572868339834,503.3572868339834,503.3572868339834,503.3572868339834,503.3572868339834,503.3572868339834,503.3572868339834,503.3572868339834,503.30545175033234,503.3572868339834,503.3572868339834,503.3572868339834,503.30545175033234,503.3572868339834,503.3572868339834,503.3572868339834,503.3572868339834,503.3572868339834,508.5584667499643,508.5584667499643,513.6336191250011,None,0,,reldom2_s026,001,2025-03-06_15h57.06.791,Where-A-Scan_AC,2022.2.5,None,
43,First_Order,8.0,audwhere,stimulus/audwhere_stim/dummy.wav,stimulus/audwhere_stim/dummy.wav,stimulus/audwhere_stim/left_away_270h.wav,stimulus/audwhere_stim/right_away_300h.wav,stimulus/audwhere_stim/blank_white.png,stimulus/audwhere_stim/direction_box.png,stimulus/audwhere_stim/direction_yes.png,stimulus/audwhere_stim/direction_no.png,None,Direction,None,Direction,1,0.0,0,5.125,0,5.125,0,5.125,0,0.0,0.625,0,0.0,0,0.0,0,0.0,0,0.0,0,0.0,0,0.0,1,0.5,1,2.125,0,,,,,0,57,57,57,,,,,,,,,513.6336191250011,513.6336191250011,513.6336191250011,513.6336191250011,513.6336191250011,513.6336191250011,513.6336191250011,513.6336191250011,513.5593330416401,513.6336191250011,513.6336191250011,513.6336191250011,513.5593330416401,513.6336191250011,513.6336191250011,513.6336191250011,515.7420438749832,,513.6336191250011,513.6336191250011,518.7866878749919,513.6336191250011,513.6336191250011,513.6336191250011,513.6336191250011,514.1019173340173,515.1334698749706,514.0716705416601,,515.7420438749832,516.7752263339935,515.7117723756858,,513.6336191250011,518.7866878749919,513.6336191250011,518.7866878749919,518.8281384999864,519.4895779169747,513.6336191250011,1,1,2.354571874078829,reldom2_s026,001,2025-03-06_15h57.06.791,Where-A-Scan_AC,2022.2.5,None,
44,First_Order,8.0,audwhere,stimulus/audwhere_stim/dummy.wav,stimulus/audwhere_stim/dummy.wav,stimulus/audwhere_stim/left_toward_300h.wav,stimulus/audwhere_stim/left_away_280h.wav,stimulus/audwhere_stim/blank_white.png,stimulus/audwhere_stim/direction_box.png,stimulus/audwhere_stim/direction_yes.png,stimulus/audwhere_stim/direction_no.png,None,Direction,None,Side,2,0.0,0,5.125,0,5.125,0,5.125,0,0.0,0.625,0,0.0,0,0.0,0,0.0,0,0.0,0,0.0,0,0.0,1,0.5,1,2.125,0,,,,,0,58,58,58,,,,,,,,,519.7436421249877,519.7436421249877,519.7436421249877,519.7436421249877,519.7436421249877,519.7436421249877,519.7436421249877,519.7436421249877,519.6638287923143,519.7436421249877,519.7436421249877,519.7436421249877,519.6638287923143,519.7436421249877,519.7436421249877,519.7436421249877,521.8487528749974,,519.7436421249877,519.7436421249877,524.93726216699,519.7436421249877,519.7436421249877,519.7436421249877,519.7436421249877,520.2120626670076,521.2414785419824,520.1817933756431,,521.8487528749974,522.8802561669727,521.8186058336325,,519.7436421249877,524.93726216699,519.7436421249877,524.93726216699,524.93726216699,525.5983724169782,519.7436421249877,2,1,0.9186994580668397,reldom2_s026,001,2025-03-06_15h57.06.791,Where-A-Scan_AC,2022.2.5,None,
45,First_Order,8.0,audwhere,stimulus/audwhere_stim/dummy.wav,stimulus/audwhere_stim/dummy.wav,stimulus/audwhere_stim/right_away_290h.wav,stimulus/audwhere_stim/left_away_280h.wav,stimulus/audwhere_stim/blank_white.png,stimulus/audwhere_stim/side_box.png,stimulus/audwhere_stim/side_yes.png,stimulus/audwhere_stim/side_no.png,None,Side,None,Direction,2,0.0,0,5.125,0,5.125,0,5.125,0,0.0,0.625,0,0.0,0,0.0,0,0.0,0,0.0,0,0.0,0,0.0,1,0.5,1,2.125,0,,,,,0,59,59,59,,,,,,,,,525.8519493750064,525.8519493750064,525.8519493750064,525.8519493750064,525.8519493750064,525.8519493750064,525.8519493750064,525.8519493750064,525.7727264583538,525.8519493750064,525.8519493750064,525.8519493750064,525.7727264583538,525.8519493750064,525.8519493750064,525.8519493750064,527.9476142089698,531.969554374984,525.8519493750064,525.8519493750064,531.0180154590053,525.8519493750064,525.8519493750064,525.8519493750064,525.8519493750064,526.3183507089852,527.3896558749839,526.2884353336451,,527.9476142089698,529.0213568750187,527.9176591666803,,525.8519493750064,531.0180154590053,525.8519493750064,531.0180154590053,531.0590869169682,531.7157984169899,525.8519493750064,2,1,0.49151149904355407,reldom2_s026,001,2025-03-06_15h57.06.791,Where-A-Scan_AC,2022.2.5,None,
46,First_Order,8.0,audwhere,stimulus/audwhere_stim/dummy.wav,stimulus/audwhere_stim/dummy.wav,stimulus/audwhere_stim/left_away_270h.wav,stimulus/audwhere_stim/right_away_290h.wav,stimulus/audwhere_stim/blank_white.png,stimulus/audwhere_stim/direction_box.png,stimulus/audwhere_stim/direction_yes.png,stimulus/audwhere_stim/direction_no.png,None,Direction,None,Direction,1,0.0,0,5.125,0,5.125,0,5.125,0,0.0,0.625,0,0.0,0,0.0,0,0.0,0,0.0,0,0.0,0,0.0,1,0.5,1,2.125,0,,,,,0,60,60,60,,,,,,,,,531.969554374984,531.969554374984,531.969554374984,531.969554374984,531.969554374984,531.969554374984,531.969554374984,531.969554374984,531.8897672923359,531.969554374984,531.969554374984,531.969554374984,531.8897672923359,531.969554374984,531.969554374984,531.969554374984,534.0808862919803,538.1036926669767,531.969554374984,531.969554374984,537.1275165000116,531.969554374984,531.969554374984,531.969554374984,531.969554374984,532.438727583969,533.4721857089899,532.4079429586457,,534.0808862919803,535.114213333989,534.0504539586875,,531.969554374984,537.1275165000116,531.969554374984,537.1275165000116,537.1688210839638,537.8282802919857,531.969554374984,1,1,1.6882113330066204,reldom2_s026,001,2025-03-06_15h57.06.791,Where-A-Scan_AC,2022.2.5,None,
0,0.0,None,fixation,stimulus/viswhere_stim/blank_white.png,stimulus/viswhere_stim/blank_white.png,stimulus/audwhere_stim/blank_white.png,stimulus/audwhere_stim/blank_white.png,stimulus/viswhere_stim/blank_white.png,stimulus/viswhere_stim/blank_white.png,stimulus/viswhere_stim/blank_white.png,stimulus/viswhere_stim/blank_white.png,0.0,0.0,0.0,0.0,0,0.0,0,0.0,0,0.0,0,0.0,0,0.0,0.0,0,0.0,0,0.0,0,0.0,0,0.0,0,0.0,0,0.0,0,0.0,0,0.0,9,,,,,0,61,61,61,,,,,,,,,538.1036926669767,538.1036926669767,538.1036926669767,538.1036926669767,538.1036926669767,538.1036926669767,538.1036926669767,538.1036926669767,538.002990375304,538.1036926669767,538.1036926669767,538.1036926669767,538.002990375304,538.1036926669767,538.1036926669767,538.1036926669767,538.1036926669767,538.1036926669767,538.1036926669767,538.1036926669767,538.1036926669767,538.1036926669767,538.1036926669767,538.1036926669767,538.1036926669767,538.1036926669767,538.1036926669767,538.0529903753039,538.1036926669767,538.1036926669767,538.1036926669767,538.0529903753039,538.1036926669767,538.1036926669767,538.1036926669767,538.1036926669767,538.1036926669767,543.3228717499878,543.3228717499878,547.2340100840083,None,0,,reldom2_s026,001,2025-03-06_15h57.06.791,Where-A-Scan_AC,2022.2.5,None,
47,Second_Order,8.0,audwhere,stimulus/audwhere_stim/right_away_280h.wav,stimulus/audwhere_stim/left_away_290h.wav,stimulus/audwhere_stim/right_toward_300h.wav,stimulus/audwhere_stim/right_away_300h.wav,stimulus/viswhere_stim/match_blank.png,stimulus/audwhere_stim/match_box.png,stimulus/viswhere_stim/match_yes.png,stimulus/viswhere_stim/match_no.png,2.0,Match,Direction,Side,2,5.125,0,5.125,0,5.125,0,5.125,0,0.75,0.75,0,0.0,0,0.0,0,0.0,0,0.0,1,0.5,1,2.125,1,0.5,1,2.125,0,,,,,0,62,62,62,,,,,,,,,547.2340100840083,552.3506486249971,547.2340100840083,547.2340100840083,547.2340100840083,547.2340100840083,547.6872096249717,548.6750650840113,547.7015860416616,,549.310294166964,550.307880709006,549.3225193756555,,552.3506486249971,553.197849292017,555.2525858749868,,553.197849292017,553.197849292017,558.3668462500209,553.197849292017,553.197849292017,553.197849292017,553.197849292017,553.6649349589716,554.7383345839917,553.6345636666558,,555.2525858749868,556.3251503339852,555.2220581666372,,553.197849292017,558.3668462500209,553.197849292017,558.3668462500209,558.3668462500209,,553.197849292017,2,1,1.2887204579892568,reldom2_s026,001,2025-03-06_15h57.06.791,Where-A-Scan_AC,2022.2.5,None,
48,Second_Order,8.0,audwhere,stimulus/audwhere_stim/left_away_280h.wav,stimulus/audwhere_stim/right_away_290h.wav,stimulus/audwhere_stim/left_toward_280h.wav,stimulus/audwhere_stim/right_toward_300h.wav,stimulus/viswhere_stim/match_blank.png,stimulus/audwhere_stim/match_box.png,stimulus/viswhere_stim/match_yes.png,stimulus/viswhere_stim/match_no.png,1.0,Match,Direction,Direction,1,5.125,0,5.125,0,5.125,0,5.125,0,0.625,0.625,0,0.0,0,0.0,0,0.0,0,0.0,1,0.5,1,2.125,1,0.5,1,2.125,0,,,,,0,63,63,63,,,,,,,,,559.1860738340183,564.3072349589784,559.1860738340183,559.1860738340183,559.1860738340183,559.1860738340183,559.6314685000107,560.6184688750072,559.6457390006437,,561.2714465419995,562.2691503340029,561.2833651256553,,564.3072349589784,565.041788166971,567.0906478749821,,565.041788166971,565.041788166971,570.2082952919882,565.041788166971,565.041788166971,565.041788166971,565.041788166971,565.462073749979,566.5319497919991,565.4320249586638,,567.0906478749821,568.1627922499902,567.0596639166508,,565.041788166971,570.2082952919882,565.041788166971,570.2082952919882,570.2082952919882,570.864640166983,565.041788166971,1,1,0.8777355830534361,reldom2_s026,001,2025-03-06_15h57.06.791,Where-A-Scan_AC,2022.2.5,None,
0,0.0,None,fixation,stimulus/viswhere_stim/blank_white.png,stimulus/viswhere_stim/blank_white.png,stimulus/audwhere_stim/blank_white.png,stimulus/audwhere_stim/blank_white.png,stimulus/viswhere_stim/blank_white.png,stimulus/viswhere_stim/blank_white.png,stimulus/viswhere_stim/blank_white.png,stimulus/viswhere_stim/blank_white.png,0.0,0.0,0.0,0.0,0,0.0,0,0.0,0,0.0,0,0.0,0,0.0,0.0,0,0.0,0,0.0,0,0.0,0,0.0,0,0.0,0,0.0,0,0.0,0,0.0,16,,,,,0,64,64,64,,,,,,,,,571.1421097089769,571.1421097089769,571.1421097089769,571.1421097089769,571.1421097089769,571.1421097089769,571.1421097089769,571.1421097089769,571.0390780003237,571.1421097089769,571.1421097089769,571.1421097089769,571.0390780003237,571.1421097089769,571.1421097089769,571.1421097089769,571.1421097089769,571.1421097089769,571.1421097089769,571.1421097089769,571.1421097089769,571.1421097089769,571.1421097089769,571.1421097089769,571.1421097089769,571.1421097089769,571.1421097089769,571.0890780003236,571.1421097089769,571.1421097089769,571.1421097089769,571.0890780003236,571.1421097089769,571.1421097089769,571.1421097089769,571.1421097089769,571.1421097089769,576.3480028749909,576.3480028749909,587.2845273750136,None,0,,reldom2_s026,001,2025-03-06_15h57.06.791,Where-A-Scan_AC,2022.2.5,None,
