Trial,Order,Block,Type,Stimuli_File1,Stimuli_File2,Stimuli_File3,Stimuli_File4,Cue_File1,Cue_File2,Response_File_Yes,Response_File_No,Match,Cue_Dimension,Pair1_Dimension,Pair2_Dimension,Key,Cue1_Duration,Cue1_Onset,Cue2_Duration,Cue2_Onset,ResponseYes_Duration,ResponseYes_Onset,ResponseNo_Duration,ResponseNo_Onset,ITI_Within,ITI_Between,Image1_Duration,Image1_Onset,Image2_Duration,Image2_Onset,Image3_Duration,Image3_Onset,Image4_Duration,Image4_Onset,Sound1_Duration,Sound1_Onset,Sound2_Duration,Sound2_Onset,Sound3_Duration,Sound3_Onset,Sound4_Duration,Sound4_Onset,Fixation_Duration,trials_2.thisRepN,trials_2.thisTrialN,trials_2.thisN,trials_2.thisIndex,trials.thisRepN,trials.thisTrialN,trials.thisN,trials.thisIndex,text_start.started,key_resp_start.started,key_resp_start.keys,key_resp_start.rt,text2.started,key_resp_2.started,key_resp_2.keys,key_resp_2.rt,cue_file1.started,cue_file1.stopped,image_1.started,image_1.stopped,image_2.started,image_2.stopped,sound_icon1.started,sound_icon1.stopped,sound_1.started,sound_1.stopped,sound_icon2.started,sound_icon2.stopped,sound_2.started,sound_2.stopped,image_blank_1.started,image_blank_1.stopped,key_press.started,key_press.stopped,fixation_text.started,cue_file2.started,cue_file2.stopped,image_3.started,image_3.stopped,image_4.started,image_4.stopped,sound_icon3.started,sound_icon3.stopped,sound_3.started,sound_3.stopped,sound_icon4.started,sound_icon4.stopped,sound_4.started,sound_4.stopped,response_yes.started,response_yes.stopped,response_no.started,response_no.stopped,iti_blank.started,iti_blank.stopped,fixation_text.stopped,key_press.keys,key_press.corr,key_press.rt,participant,session,date,expName,psychopyVersion,frameRate,
,,,,,,,,,,,,,,,,,,,,,,,,,,,,,,,,,,,,,,,,,,,,,,,,,,,,6.841062999970745,6.841062999970745,2,0.7390625000116415,,,,,,,,,,,,,,,,,,,,,,,,,,,,,,,,,,,,,,,,,,,,,,,,reldom2_s026,001,2025-03-06_16h08.46.806,Aud-A-Scan_AC,2022.2.5,None,
,,,,,,,,,,,,,,,,,,,,,,,,,,,,,,,,,,,,,,,,,,,,0,0,0,0,,,,,,,,,7.612055249977857,7.612055249977857,5,17.84464745799778,,,,,,,,,,,,,,,,,,,,,,,,,,,,,,,,,,,,,,,,,,,,reldom2_s026,001,2025-03-06_16h08.46.806,Aud-A-Scan_AC,2022.2.5,None,
,,,,,,,,,,,,,,,,,,,,,,,,,,,,,,,,,,,,,,,,,,,,1,0,1,0,,,,,,,,,25.469146249990445,25.469146249990445,5,1.9855909579782747,,,,,,,,,,,,,,,,,,,,,,,,,,,,,,,,,,,,,,,,,,,,reldom2_s026,001,2025-03-06_16h08.46.806,Aud-A-Scan_AC,2022.2.5,None,
,,,,,,,,,,,,,,,,,,,,,,,,,,,,,,,,,,,,,,,,,,,,2,0,2,0,,,,,,,,,27.468595333979465,27.468595333979465,5,1.9858532910002396,,,,,,,,,,,,,,,,,,,,,,,,,,,,,,,,,,,,,,,,,,,,reldom2_s026,001,2025-03-06_16h08.46.806,Aud-A-Scan_AC,2022.2.5,None,
,,,,,,,,,,,,,,,,,,,,,,,,,,,,,,,,,,,,,,,,,,,,3,0,3,0,,,,,,,,,29.47029216698138,29.47029216698138,5,1.9854652080102824,,,,,,,,,,,,,,,,,,,,,,,,,,,,,,,,,,,,,,,,,,,,reldom2_s026,001,2025-03-06_16h08.46.806,Aud-A-Scan_AC,2022.2.5,None,
0,0.0,None,fixation,stimulus/audwhere_stim/blank_white.png,stimulus/audwhere_stim/blank_white.png,stimulus/audwhat_stim/blank_white.png,stimulus/audwhat_stim/blank_white.png,stimulus/audwhere_stim/blank_white.png,stimulus/audwhere_stim/blank_white.png,stimulus/audwhere_stim/blank_white.png,stimulus/audwhere_stim/blank_white.png,0.0,0.0,0.0,0.0,0,0.0,0,0.0,0,0.0,0,0.0,0,0.0,0.0,0,0,0,0,0,0,0,0,0,0.0,0,0.0,0,0.0,0,0.0,16,,,,,0,0,0,0,,,,,,,,,31.672693124972284,31.672693124972284,31.672693124972284,31.672693124972284,31.672693124972284,31.672693124972284,31.672693124972284,31.672693124972284,31.582727000668335,31.672693124972284,31.672693124972284,31.672693124972284,31.582727000668335,31.672693124972284,31.672693124972284,31.672693124972284,31.672693124972284,31.672693124972284,31.672693124972284,31.672693124972284,31.672693124972284,31.672693124972284,31.672693124972284,31.672693124972284,31.672693124972284,31.672693124972284,31.672693124972284,31.632727000668332,31.672693124972284,31.672693124972284,31.672693124972284,31.632727000668332,31.672693124972284,31.672693124972284,31.672693124972284,31.672693124972284,31.672693124972284,36.86804199998733,36.86804199998733,47.90210941695841,None,0,,reldom2_s026,001,2025-03-06_16h08.46.806,Aud-A-Scan_AC,2022.2.5,None,
1,First_Order,1.0,audwhere,stimulus/audwhere_stim/dummy.wav,stimulus/audwhere_stim/dummy.wav,stimulus/audwhere_stim/left_away_280h.wav,stimulus/audwhere_stim/right_away_290h.wav,stimulus/audwhere_stim/blank_white.png,stimulus/audwhere_stim/direction_box.png,stimulus/audwhere_stim/direction_yes.png,stimulus/audwhere_stim/direction_no.png,None,Direction,None,Direction,1,0.0,0,5.125,0,5.125,0,5.125,0,0.0,0.625,0,0,0,0,0,0,0,0,0,0.0,0,0.0,1,0.5,1,2.125,0,,,,,0,1,1,1,,,,,,,,,47.90210941695841,47.90210941695841,47.90210941695841,47.90210941695841,47.90210941695841,47.90210941695841,47.90210941695841,47.90210941695841,47.82836354195606,47.90210941695841,47.90210941695841,47.90210941695841,47.82836354195606,47.90210941695841,47.90210941695841,47.90210941695841,49.98404429195216,,47.90210941695841,47.90210941695841,53.092087124998216,47.90210941695841,47.90210941695841,47.90210941695841,47.90210941695841,48.366670583956875,49.428896333964076,48.336786958625694,,49.98404429195216,51.047998458961956,49.95445554162531,,47.90210941695841,53.092087124998216,47.90210941695841,53.092087124998216,53.132706916949246,53.78660208400106,47.90210941695841,1,1,1.2593805820215493,reldom2_s026,001,2025-03-06_16h08.46.806,Aud-A-Scan_AC,2022.2.5,None,
2,First_Order,1.0,audwhere,stimulus/audwhere_stim/dummy.wav,stimulus/audwhere_stim/dummy.wav,stimulus/audwhere_stim/left_away_270h.wav,stimulus/audwhere_stim/left_toward_270h.wav,stimulus/audwhere_stim/blank_white.png,stimulus/audwhere_stim/direction_box.png,stimulus/audwhere_stim/direction_yes.png,stimulus/audwhere_stim/direction_no.png,None,Direction,None,Side,2,0.0,0,5.125,0,5.125,0,5.125,0,0.0,0.625,0,0,0,0,0,0,0,0,0,0.0,0,0.0,1,0.5,1,2.125,0,,,,,0,2,2,2,,,,,,,,,54.00145345897181,54.00145345897181,54.00145345897181,54.00145345897181,54.00145345897181,54.00145345897181,54.00145345897181,54.00145345897181,53.91993541733439,54.00145345897181,54.00145345897181,54.00145345897181,53.91993541733439,54.00145345897181,54.00145345897181,54.00145345897181,56.08668562496314,,54.00145345897181,54.00145345897181,59.15457216696814,54.00145345897181,54.00145345897181,54.00145345897181,54.00145345897181,54.46245616697706,55.53245087497635,54.43296004162791,,56.08668562496314,57.1571561669698,56.05751316663033,,54.00145345897181,59.15457216696814,54.00145345897181,59.15457216696814,59.19574554200517,59.84966616699239,54.00145345897181,2,1,1.085154499975033,reldom2_s026,001,2025-03-06_16h08.46.806,Aud-A-Scan_AC,2022.2.5,None,
3,First_Order,1.0,audwhere,stimulus/audwhere_stim/dummy.wav,stimulus/audwhere_stim/dummy.wav,stimulus/audwhere_stim/left_toward_300h.wav,stimulus/audwhere_stim/left_away_280h.wav,stimulus/audwhere_stim/blank_white.png,stimulus/audwhere_stim/direction_box.png,stimulus/audwhere_stim/direction_yes.png,stimulus/audwhere_stim/direction_no.png,None,Direction,None,Side,2,0.0,0,5.125,0,5.125,0,5.125,0,0.0,0.625,0,0,0,0,0,0,0,0,0,0.0,0,0.0,1,0.5,1,2.125,0,,,,,0,3,3,3,,,,,,,,,60.10516066697892,60.10516066697892,60.10516066697892,60.10516066697892,60.10516066697892,60.10516066697892,60.10516066697892,60.10516066697892,60.02347545829446,60.10516066697892,60.10516066697892,60.10516066697892,60.02347545829446,60.10516066697892,60.10516066697892,60.10516066697892,62.20328929199604,66.22873549995711,60.10516066697892,60.10516066697892,65.27814074995695,60.10516066697892,60.10516066697892,60.10516066697892,60.10516066697892,60.56846449995646,61.59893245896092,60.53911958361665,,62.20328929199604,63.27725837496109,62.17294245865584,,60.10516066697892,65.27814074995695,60.10516066697892,65.27814074995695,65.31923341698712,65.97602541698143,60.10516066697892,2,1,0.9354695829679258,reldom2_s026,001,2025-03-06_16h08.46.806,Aud-A-Scan_AC,2022.2.5,None,
4,First_Order,1.0,audwhere,stimulus/audwhere_stim/dummy.wav,stimulus/audwhere_stim/dummy.wav,stimulus/audwhere_stim/left_away_270h.wav,stimulus/audwhere_stim/left_toward_290h.wav,stimulus/audwhere_stim/blank_white.png,stimulus/audwhere_stim/side_box.png,stimulus/audwhere_stim/side_yes.png,stimulus/audwhere_stim/side_no.png,None,Side,None,Side,1,0.0,0,5.125,0,5.125,0,5.125,0,0.0,0.625,0,0,0,0,0,0,0,0,0,0.0,0,0.0,1,0.5,1,2.125,0,,,,,0,4,4,4,,,,,,,,,66.22873549995711,66.22873549995711,66.22873549995711,66.22873549995711,66.22873549995711,66.22873549995711,66.22873549995711,66.22873549995711,66.15012854230201,66.22873549995711,66.22873549995711,66.22873549995711,66.15012854230201,66.22873549995711,66.22873549995711,66.22873549995711,68.31754920899402,,66.22873549995711,66.22873549995711,71.38067954196595,66.22873549995711,66.22873549995711,66.22873549995711,66.22873549995711,66.69173837499693,67.7607457919512,66.66173891665336,,68.31754920899402,69.38792237499729,68.28742866666677,,66.22873549995711,71.38067954196595,66.22873549995711,71.38067954196595,71.42209374997765,72.07727962499484,66.22873549995711,1,1,1.7516264989972115,reldom2_s026,001,2025-03-06_16h08.46.806,Aud-A-Scan_AC,2022.2.5,None,
0,0.0,None,fixation,stimulus/audwhere_stim/blank_white.png,stimulus/audwhere_stim/blank_white.png,stimulus/audwhat_stim/blank_white.png,stimulus/audwhat_stim/blank_white.png,stimulus/audwhere_stim/blank_white.png,stimulus/audwhere_stim/blank_white.png,stimulus/audwhere_stim/blank_white.png,stimulus/audwhere_stim/blank_white.png,0.0,0.0,0.0,0.0,0,0.0,0,0.0,0,0.0,0,0.0,0,0.0,0.0,0,0,0,0,0,0,0,0,0,0.0,0,0.0,0,0.0,0,0.0,9,,,,,0,5,5,5,,,,,,,,,72.35041220899438,72.35041220899438,72.35041220899438,72.35041220899438,72.35041220899438,72.35041220899438,72.35041220899438,72.35041220899438,72.25075091733208,72.35041220899438,72.35041220899438,72.35041220899438,72.25075091733208,72.35041220899438,72.35041220899438,72.35041220899438,72.35041220899438,72.35041220899438,72.35041220899438,72.35041220899438,72.35041220899438,72.35041220899438,72.35041220899438,72.35041220899438,72.35041220899438,72.35041220899438,72.35041220899438,72.3007509173321,72.35041220899438,72.35041220899438,72.35041220899438,72.3007509173321,72.35041220899438,72.35041220899438,72.35041220899438,72.35041220899438,72.35041220899438,77.53682354197372,77.53682354197372,81.48054554197006,None,0,,reldom2_s026,001,2025-03-06_16h08.46.806,Aud-A-Scan_AC,2022.2.5,None,
5,Second_Order,1.0,audwhere,stimulus/audwhere_stim/left_away_290h.wav,stimulus/audwhere_stim/right_away_300h.wav,stimulus/audwhere_stim/right_toward_290h.wav,stimulus/audwhere_stim/left_toward_300h.wav,stimulus/audwhere_stim/match_blank.png,stimulus/audwhere_stim/match_box.png,stimulus/audwhere_stim/match_yes.png,stimulus/audwhere_stim/match_no.png,1.0,Match,Direction,Direction,1,5.125,0,5.125,0,5.125,0,5.125,0,0.75,0.75,0,0,0,0,0,0,0,0,1,0.5,1,2.125,1,0.5,1,2.125,0,,,,,0,6,6,6,,,,,,,,,81.48054554197006,86.59974054200575,81.48054554197006,81.48054554197006,81.48054554197006,81.48054554197006,81.93601004197262,82.93517787498422,81.94869929162475,,83.55735024996102,84.55509454198182,83.56968370866186,,86.59974054200575,87.45043195900507,89.49060299998382,,87.45043195900507,87.45043195900507,92.6000862919609,87.45043195900507,87.45043195900507,87.45043195900507,87.45043195900507,87.86696899996605,88.93313879199559,87.83697629161567,,89.49060299998382,90.56104083399987,89.45974220865561,,87.45043195900507,92.6000862919609,87.45043195900507,92.6000862919609,92.6410452919663,,87.45043195900507,1,1,0.9518755410099402,reldom2_s026,001,2025-03-06_16h08.46.806,Aud-A-Scan_AC,2022.2.5,None,
6,Second_Order,1.0,audwhere,stimulus/audwhere_stim/left_away_280h.wav,stimulus/audwhere_stim/right_away_280h.wav,stimulus/audwhere_stim/left_away_300h.wav,stimulus/audwhere_stim/left_toward_280h.wav,stimulus/audwhere_stim/match_blank.png,stimulus/audwhere_stim/match_box.png,stimulus/audwhere_stim/match_yes.png,stimulus/audwhere_stim/match_no.png,2.0,Match,Direction,Side,2,5.125,0,5.125,0,5.125,0,5.125,0,0.625,0.625,0,0,0,0,0,0,0,0,1,0.5,1,2.125,1,0.5,1,2.125,0,,,,,0,7,7,7,,,,,,,,,93.41292270895792,98.52578095899662,93.41292270895792,93.41292270895792,93.41292270895792,93.41292270895792,93.86246433400083,94.84924491698621,93.87659208366337,,95.49708474997897,96.48636974999681,95.50040500064303,96.48636974999681,98.52578095899662,99.25518058397574,101.33411533397157,105.36181624996243,99.25518058397574,99.25518058397574,104.43946479196893,99.25518058397574,99.25518058397574,99.25518058397574,99.25518058397574,99.67059733398492,100.73250970896333,99.64121337567146,,101.33411533397157,102.40528795897262,101.30417550064546,,99.25518058397574,104.43946479196893,99.25518058397574,104.43946479196893,104.43946479196893,105.08981566695729,99.25518058397574,2,1,0.8911592080257833,reldom2_s026,001,2025-03-06_16h08.46.806,Aud-A-Scan_AC,2022.2.5,None,
0,0.0,None,fixation,stimulus/audwhere_stim/blank_white.png,stimulus/audwhere_stim/blank_white.png,stimulus/audwhat_stim/blank_white.png,stimulus/audwhat_stim/blank_white.png,stimulus/audwhere_stim/blank_white.png,stimulus/audwhere_stim/blank_white.png,stimulus/audwhere_stim/blank_white.png,stimulus/audwhere_stim/blank_white.png,0.0,0.0,0.0,0.0,0,0.0,0,0.0,0,0.0,0,0.0,0,0.0,0.0,0,0,0,0,0,0,0,0,0,0.0,0,0.0,0,0.0,0,0.0,10,,,,,0,8,8,8,,,,,,,,,105.36181624996243,105.36181624996243,105.36181624996243,105.36181624996243,105.36181624996243,105.36181624996243,105.36181624996243,105.36181624996243,105.26299775028212,105.36181624996243,105.36181624996243,105.36181624996243,105.26299775028212,105.36181624996243,105.36181624996243,105.36181624996243,105.36181624996243,105.36181624996243,105.36181624996243,105.36181624996243,105.36181624996243,105.36181624996243,105.36181624996243,105.36181624996243,105.36181624996243,105.36181624996243,105.36181624996243,105.31299775028214,105.36181624996243,105.36181624996243,105.36181624996243,105.31299775028214,105.36181624996243,105.36181624996243,105.36181624996243,105.36181624996243,105.36181624996243,110.58387037500506,110.58387037500506,115.61245383397909,None,0,,reldom2_s026,001,2025-03-06_16h08.46.806,Aud-A-Scan_AC,2022.2.5,None,
7,First_Order,2.0,audwhere,stimulus/audwhere_stim/dummy.wav,stimulus/audwhere_stim/dummy.wav,stimulus/audwhere_stim/left_away_300h.wav,stimulus/audwhere_stim/right_away_300h.wav,stimulus/audwhere_stim/blank_white.png,stimulus/audwhere_stim/side_box.png,stimulus/audwhere_stim/side_yes.png,stimulus/audwhere_stim/side_no.png,None,Side,None,Direction,2,0.0,0,5.125,0,5.125,0,5.125,0,0.0,0.625,0,0,0,0,0,0,0,0,0,0.0,0,0.0,1,0.5,1,2.125,0,,,,,0,9,9,9,,,,,,,,,115.61245383397909,115.61245383397909,115.61245383397909,115.61245383397909,115.61245383397909,115.61245383397909,115.61245383397909,115.61245383397909,115.53855570863622,115.61245383397909,115.61245383397909,115.61245383397909,115.53855570863622,115.61245383397909,115.61245383397909,115.61245383397909,117.70397008396685,121.72384379198775,115.61245383397909,115.61245383397909,120.77163129195105,115.61245383397909,115.61245383397909,115.61245383397909,115.61245383397909,116.07851316698361,117.14556658396032,116.04870329163192,,117.70397008396685,118.77504704199964,117.67429400067,,115.61245383397909,120.77163129195105,115.61245383397909,120.77163129195105,120.81293724995339,121.46952358400449,115.61245383397909,2,1,1.1259490409865975,reldom2_s026,001,2025-03-06_16h08.46.806,Aud-A-Scan_AC,2022.2.5,None,
8,First_Order,2.0,audwhere,stimulus/audwhere_stim/dummy.wav,stimulus/audwhere_stim/dummy.wav,stimulus/audwhere_stim/left_away_280h.wav,stimulus/audwhere_stim/right_away_270h.wav,stimulus/audwhere_stim/blank_white.png,stimulus/audwhere_stim/side_box.png,stimulus/audwhere_stim/side_yes.png,stimulus/audwhere_stim/side_no.png,None,Side,None,Direction,2,0.0,0,5.125,0,5.125,0,5.125,0,0.0,0.625,0,0,0,0,0,0,0,0,0,0.0,0,0.0,1,0.5,1,2.125,0,,,,,0,10,10,10,,,,,,,,,121.72384379198775,121.72384379198775,121.72384379198775,121.72384379198775,121.72384379198775,121.72384379198775,121.72384379198775,121.72384379198775,121.64412175028895,121.72384379198775,121.72384379198775,121.72384379198775,121.64412175028895,121.72384379198775,121.72384379198775,121.72384379198775,123.81378641695483,127.8380057499744,121.72384379198775,121.72384379198775,126.88493674999336,121.72384379198775,121.72384379198775,121.72384379198775,121.72384379198775,122.18859012494795,123.25569412496407,122.15855991666128,,123.81378641695483,124.88748483400559,123.7836172916616,,121.72384379198775,126.88493674999336,121.72384379198775,126.88493674999336,126.92627624998568,127.5831170839956,121.72384379198775,2,1,0.6432976240175776,reldom2_s026,001,2025-03-06_16h08.46.806,Aud-A-Scan_AC,2022.2.5,None,
9,First_Order,2.0,audwhere,stimulus/audwhere_stim/dummy.wav,stimulus/audwhere_stim/dummy.wav,stimulus/audwhere_stim/left_away_280h.wav,stimulus/audwhere_stim/right_away_300h.wav,stimulus/audwhere_stim/blank_white.png,stimulus/audwhere_stim/direction_box.png,stimulus/audwhere_stim/direction_yes.png,stimulus/audwhere_stim/direction_no.png,None,Direction,None,Direction,1,0.0,0,5.125,0,5.125,0,5.125,0,0.0,0.625,0,0,0,0,0,0,0,0,0,0.0,0,0.0,1,0.5,1,2.125,0,,,,,0,11,11,11,,,,,,,,,127.8380057499744,127.8380057499744,127.8380057499744,127.8380057499744,127.8380057499744,127.8380057499744,127.8380057499744,127.8380057499744,127.75782266733779,127.8380057499744,127.8380057499744,127.8380057499744,127.75782266733779,127.8380057499744,127.8380057499744,127.8380057499744,129.9450824999949,,127.8380057499744,127.8380057499744,132.9867714169668,127.8380057499744,127.8380057499744,127.8380057499744,127.8380057499744,128.30720179196214,129.38296999997692,128.2767186666645,,129.9450824999949,130.9754727499676,129.91451758362044,,127.8380057499744,132.9867714169668,127.8380057499744,132.9867714169668,133.06842458399478,133.72769920900464,127.8380057499744,1,1,1.0565613330109045,reldom2_s026,001,2025-03-06_16h08.46.806,Aud-A-Scan_AC,2022.2.5,None,
10,First_Order,2.0,audwhere,stimulus/audwhere_stim/dummy.wav,stimulus/audwhere_stim/dummy.wav,stimulus/audwhere_stim/right_away_270h.wav,stimulus/audwhere_stim/right_toward_300h.wav,stimulus/audwhere_stim/blank_white.png,stimulus/audwhere_stim/side_box.png,stimulus/audwhere_stim/side_yes.png,stimulus/audwhere_stim/side_no.png,None,Side,None,Side,1,0.0,0,5.125,0,5.125,0,5.125,0,0.0,0.625,0,0,0,0,0,0,0,0,0,0.0,0,0.0,1,0.5,1,2.125,0,,,,,0,12,12,12,,,,,,,,,133.94139137497405,133.94139137497405,133.94139137497405,133.94139137497405,133.94139137497405,133.94139137497405,133.94139137497405,133.94139137497405,133.861032542338,133.94139137497405,133.94139137497405,133.94139137497405,133.861032542338,133.94139137497405,133.94139137497405,133.94139137497405,136.04020966700045,140.09329091699328,133.94139137497405,133.94139137497405,139.11729699996067,133.94139137497405,133.94139137497405,133.94139137497405,133.94139137497405,134.406491333968,135.47980204195483,134.37681158364674,,136.04020966700045,137.11525866697775,136.00990241661592,,133.94139137497405,139.11729699996067,133.94139137497405,139.11729699996067,139.1588566249702,139.81734833394876,133.94139137497405,1,1,0.6081816249643452,reldom2_s026,001,2025-03-06_16h08.46.806,Aud-A-Scan_AC,2022.2.5,None,
0,0.0,None,fixation,stimulus/audwhere_stim/blank_white.png,stimulus/audwhere_stim/blank_white.png,stimulus/audwhat_stim/blank_white.png,stimulus/audwhat_stim/blank_white.png,stimulus/audwhere_stim/blank_white.png,stimulus/audwhere_stim/blank_white.png,stimulus/audwhere_stim/blank_white.png,stimulus/audwhere_stim/blank_white.png,0.0,0.0,0.0,0.0,0,0.0,0,0.0,0,0.0,0,0.0,0,0.0,0.0,0,0,0,0,0,0,0,0,0,0.0,0,0.0,0,0.0,0,0.0,8,,,,,0,13,13,13,,,,,,,,,140.09329091699328,140.09329091699328,140.09329091699328,140.09329091699328,140.09329091699328,140.09329091699328,140.09329091699328,140.09329091699328,139.99192912530467,140.09329091699328,140.09329091699328,140.09329091699328,139.99192912530467,140.09329091699328,140.09329091699328,140.09329091699328,140.09329091699328,140.09329091699328,140.09329091699328,140.09329091699328,140.09329091699328,140.09329091699328,140.09329091699328,140.09329091699328,140.09329091699328,140.09329091699328,140.09329091699328,140.04192912530465,140.09329091699328,140.09329091699328,140.09329091699328,140.04192912530465,140.09329091699328,140.09329091699328,140.09329091699328,140.09329091699328,140.09329091699328,145.2902634999482,145.2902634999482,148.22526341699995,None,0,,reldom2_s026,001,2025-03-06_16h08.46.806,Aud-A-Scan_AC,2022.2.5,None,
11,Second_Order,2.0,audwhere,stimulus/audwhere_stim/left_away_280h.wav,stimulus/audwhere_stim/left_toward_280h.wav,stimulus/audwhere_stim/right_toward_280h.wav,stimulus/audwhere_stim/left_toward_270h.wav,stimulus/audwhere_stim/match_blank.png,stimulus/audwhere_stim/match_box.png,stimulus/audwhere_stim/match_yes.png,stimulus/audwhere_stim/match_no.png,2.0,Match,Side,Direction,2,5.125,0,5.125,0,5.125,0,5.125,0,0.75,0.75,0,0,0,0,0,0,0,0,1,0.5,1,2.125,1,0.5,1,2.125,0,,,,,0,14,14,14,,,,,,,,,148.22526341699995,153.34768812498078,148.22526341699995,148.22526341699995,148.22526341699995,148.22526341699995,148.67228529194836,149.65969758399297,148.6861742506192,,150.30717987497337,151.29595537495334,150.3116478336199,,153.34768812498078,154.19652999995742,156.24585433397442,160.18536266696174,154.19652999995742,154.19652999995742,159.37060558400117,154.19652999995742,154.19652999995742,154.19652999995742,154.19652999995742,154.6163424999686,155.68854104197817,154.58611370862153,,156.24585433397442,157.32116129196947,156.2159795006194,,154.19652999995742,159.37060558400117,154.19652999995742,159.37060558400117,159.37060558400117,,154.19652999995742,2,1,0.8839126250240952,reldom2_s026,001,2025-03-06_16h08.46.806,Aud-A-Scan_AC,2022.2.5,None,
12,Second_Order,2.0,audwhere,stimulus/audwhere_stim/left_away_300h.wav,stimulus/audwhere_stim/right_away_270h.wav,stimulus/audwhere_stim/left_toward_280h.wav,stimulus/audwhere_stim/right_toward_280h.wav,stimulus/audwhere_stim/match_blank.png,stimulus/audwhere_stim/match_box.png,stimulus/audwhere_stim/match_yes.png,stimulus/audwhere_stim/match_no.png,1.0,Match,Direction,Direction,1,5.125,0,5.125,0,5.125,0,5.125,0,0.625,0.625,0,0,0,0,0,0,0,0,1,0.5,1,2.125,1,0.5,1,2.125,0,,,,,0,15,15,15,,,,,,,,,160.18536266696174,165.30823258397868,160.18536266696174,160.18536266696174,160.18536266696174,160.18536266696174,160.6331501249806,161.6210032919771,160.64741116663598,,162.26836924999952,163.25691612495575,162.2724051256703,163.27059733396163,165.30823258397868,166.0403580419952,168.083022042003,,166.0403580419952,166.0403580419952,171.1956837089965,166.0403580419952,166.0403580419952,166.0403580419952,166.0403580419952,166.45700449997094,167.52545045898296,166.42701945861725,,168.083022042003,169.15658191696275,168.05291495862573,,166.0403580419952,171.1956837089965,166.0403580419952,171.1956837089965,171.2368760840036,171.89384979195893,166.0403580419952,1,1,0.7419803329976276,reldom2_s026,001,2025-03-06_16h08.46.806,Aud-A-Scan_AC,2022.2.5,None,
0,0.0,None,fixation,stimulus/audwhere_stim/blank_white.png,stimulus/audwhere_stim/blank_white.png,stimulus/audwhat_stim/blank_white.png,stimulus/audwhat_stim/blank_white.png,stimulus/audwhere_stim/blank_white.png,stimulus/audwhere_stim/blank_white.png,stimulus/audwhere_stim/blank_white.png,stimulus/audwhere_stim/blank_white.png,0.0,0.0,0.0,0.0,0,0.0,0,0.0,0,0.0,0,0.0,0,0.0,0.0,0,0,0,0,0,0,0,0,0,0.0,0,0.0,0,0.0,0,0.0,8,,,,,0,16,16,16,,,,,,,,,172.1278714169748,172.1278714169748,172.1278714169748,172.1278714169748,172.1278714169748,172.1278714169748,172.1278714169748,172.1278714169748,172.02718312529228,172.1278714169748,172.1278714169748,172.1278714169748,172.02718312529228,172.1278714169748,172.1278714169748,172.1278714169748,172.1278714169748,172.1278714169748,172.1278714169748,172.1278714169748,172.1278714169748,172.1278714169748,172.1278714169748,172.1278714169748,172.1278714169748,172.1278714169748,172.1278714169748,172.07718312529227,172.1278714169748,172.1278714169748,172.1278714169748,172.07718312529227,172.1278714169748,172.1278714169748,172.1278714169748,172.1278714169748,172.1278714169748,177.32012374995975,177.32012374995975,180.39667729195207,None,0,,reldom2_s026,001,2025-03-06_16h08.46.806,Aud-A-Scan_AC,2022.2.5,None,
13,First_Order,3.0,audwhat,stimulus/audwhat_stim/dummy.wav,stimulus/audwhat_stim/dummy.wav,stimulus/audwhat_stim/percussion xylophone_high-pitch_F_loud.wav,stimulus/audwhat_stim/percussion mallet_low-pitch_Dtri_loud.wav,stimulus/audwhat_stim/blank_white.png,stimulus/audwhat_stim/category_box.png,stimulus/audwhat_stim/category_yes.png,stimulus/audwhat_stim/category_no.png,None,Category,None,Category,1,0.0,0,5.125,0,5.125,0,5.125,0,0.0,0.625,0,0,0,0,0,0,0,0,0,0.0,0,0.0,1,0.5,1,2.125,0,,,,,0,17,17,17,,,,,,,,,180.39667729195207,180.39667729195207,180.39667729195207,180.39667729195207,180.39667729195207,180.39667729195207,180.39667729195207,180.39667729195207,180.3233837086397,180.39667729195207,180.39667729195207,180.39667729195207,180.3233837086397,180.39667729195207,180.39667729195207,180.39667729195207,182.50050816696603,,180.39667729195207,180.39667729195207,185.58859658398433,180.39667729195207,180.39667729195207,180.39667729195207,180.39667729195207,180.8633615419967,181.89366508397507,180.83299162565189,181.89366508397507,182.50050816696603,183.53317199996673,182.4703249586203,,180.39667729195207,185.58859658398433,180.39667729195207,185.58859658398433,185.58859658398433,186.24636583396932,180.39667729195207,1,1,1.0053045820095576,reldom2_s026,001,2025-03-06_16h08.46.806,Aud-A-Scan_AC,2022.2.5,None,
14,First_Order,3.0,audwhat,stimulus/audwhat_stim/dummy.wav,stimulus/audwhat_stim/dummy.wav,stimulus/audwhat_stim/string cello_low-pitch_Ftri_loud.wav,stimulus/audwhat_stim/string viola_high-pitch_F_loud.wav,stimulus/audwhat_stim/blank_white.png,stimulus/audwhat_stim/category_box.png,stimulus/audwhat_stim/category_yes.png,stimulus/audwhat_stim/category_no.png,None,Category,None,Category,1,0.0,0,5.125,0,5.125,0,5.125,0,0.0,0.625,0,0,0,0,0,0,0,0,0,0.0,0,0.0,1,0.5,1,2.125,0,,,,,0,18,18,18,,,,,,,,,186.5019559999928,186.5019559999928,186.5019559999928,186.5019559999928,186.5019559999928,186.5019559999928,186.5019559999928,186.5019559999928,186.42090804231898,186.5019559999928,186.5019559999928,186.5019559999928,186.42090804231898,186.5019559999928,186.5019559999928,186.5019559999928,188.60454979195492,,186.5019559999928,186.5019559999928,191.6924991249689,186.5019559999928,186.5019559999928,186.5019559999928,186.5019559999928,186.96835733397165,188.04407295899,186.93786758365266,,188.60454979195492,189.63796699995873,188.57428304164594,,186.5019559999928,191.6924991249689,186.5019559999928,191.6924991249689,191.6924991249689,192.34733483399032,186.5019559999928,1,1,0.6316231659729965,reldom2_s026,001,2025-03-06_16h08.46.806,Aud-A-Scan_AC,2022.2.5,None,
15,First_Order,3.0,audwhat,stimulus/audwhat_stim/dummy.wav,stimulus/audwhat_stim/dummy.wav,stimulus/audwhat_stim/string viola_low-pitch_D_loud.wav,stimulus/audwhat_stim/percussion mallet_low-pitch_D_loud.wav,stimulus/audwhat_stim/blank_white.png,stimulus/audwhat_stim/pitch_box.png,stimulus/audwhat_stim/pitch_yes.png,stimulus/audwhat_stim/pitch_no.png,None,Pitch,None,Pitch,1,0.0,0,5.125,0,5.125,0,5.125,0,0.0,0.625,0,0,0,0,0,0,0,0,0,0.0,0,0.0,1,0.5,1,2.125,0,,,,,0,19,19,19,,,,,,,,,192.60377449996304,192.60377449996304,192.60377449996304,192.60377449996304,192.60377449996304,192.60377449996304,192.60377449996304,192.60377449996304,192.52229620833728,192.60377449996304,192.60377449996304,192.60377449996304,192.52229620833728,192.60377449996304,192.60377449996304,192.60377449996304,194.70303474995308,,192.60377449996304,192.60377449996304,197.781322291994,192.60377449996304,192.60377449996304,192.60377449996304,192.60377449996304,193.0707357499632,194.14504329196643,193.04055616661597,,194.70303474995308,195.7324518339592,194.67284083366783,,192.60377449996304,197.781322291994,192.60377449996304,197.781322291994,197.82290920900414,198.47975062497426,192.60377449996304,1,1,0.8273531249724329,reldom2_s026,001,2025-03-06_16h08.46.806,Aud-A-Scan_AC,2022.2.5,None,
16,First_Order,3.0,audwhat,stimulus/audwhat_stim/dummy.wav,stimulus/audwhat_stim/dummy.wav,stimulus/audwhat_stim/string cello_low-pitch_D_loud.wav,stimulus/audwhat_stim/string viola_high-pitch_Dtri_loud.wav,stimulus/audwhat_stim/blank_white.png,stimulus/audwhat_stim/pitch_box.png,stimulus/audwhat_stim/pitch_yes.png,stimulus/audwhat_stim/pitch_no.png,None,Pitch,None,Category,2,0.0,0,5.125,0,5.125,0,5.125,0,0.0,0.625,0,0,0,0,0,0,0,0,0,0.0,0,0.0,1,0.5,1,2.125,0,,,,,0,20,20,20,,,,,,,,,198.69318558397936,198.69318558397936,198.69318558397936,198.69318558397936,198.69318558397936,198.69318558397936,198.69318558397936,198.69318558397936,198.6130839583076,198.69318558397936,198.69318558397936,198.69318558397936,198.6130839583076,198.69318558397936,198.69318558397936,198.69318558397936,200.7935897919815,,198.69318558397936,198.69318558397936,203.87267937499564,198.69318558397936,198.69318558397936,198.69318558397936,198.69318558397936,199.1596764169517,200.23583195899846,199.1294821666709,,200.7935897919815,201.86764945898904,200.7634439166325,,198.69318558397936,203.87267937499564,198.69318558397936,203.87267937499564,203.91385737498058,204.57104274997255,198.69318558397936,2,1,1.1139169160160236,reldom2_s026,001,2025-03-06_16h08.46.806,Aud-A-Scan_AC,2022.2.5,None,
0,0.0,None,fixation,stimulus/audwhere_stim/blank_white.png,stimulus/audwhere_stim/blank_white.png,stimulus/audwhat_stim/blank_white.png,stimulus/audwhat_stim/blank_white.png,stimulus/audwhere_stim/blank_white.png,stimulus/audwhere_stim/blank_white.png,stimulus/audwhere_stim/blank_white.png,stimulus/audwhere_stim/blank_white.png,0.0,0.0,0.0,0.0,0,0.0,0,0.0,0,0.0,0,0.0,0,0.0,0.0,0,0,0,0,0,0,0,0,0,0.0,0,0.0,0,0.0,0,0.0,8,,,,,0,21,21,21,,,,,,,,,204.80484191694995,204.80484191694995,204.80484191694995,204.80484191694995,204.80484191694995,204.80484191694995,204.80484191694995,204.80484191694995,204.7043760833059,204.80484191694995,204.80484191694995,204.80484191694995,204.7043760833059,204.80484191694995,204.80484191694995,204.80484191694995,204.80484191694995,204.80484191694995,204.80484191694995,204.80484191694995,204.80484191694995,204.80484191694995,204.80484191694995,204.80484191694995,204.80484191694995,204.80484191694995,204.80484191694995,204.75437608330589,204.80484191694995,204.80484191694995,204.80484191694995,204.75437608330589,204.80484191694995,204.80484191694995,204.80484191694995,204.80484191694995,204.80484191694995,210.0168813749915,210.0168813749915,212.95164470898453,None,0,,reldom2_s026,001,2025-03-06_16h08.46.806,Aud-A-Scan_AC,2022.2.5,None,
17,Second_Order,3.0,audwhat,stimulus/audwhat_stim/percussion mallet_high-pitch_F_loud.wav,stimulus/audwhat_stim/string viola_high-pitch_F_loud.wav,stimulus/audwhat_stim/string cello_low-pitch_Ftri_loud.wav,stimulus/audwhat_stim/string cello_high-pitch_Dtri_loud.wav,stimulus/audwhere_stim/match_blank.png,stimulus/audwhat_stim/match_box.png,stimulus/audwhere_stim/match_yes.png,stimulus/audwhere_stim/match_no.png,2.0,Match,Pitch,Category,2,5.125,0,5.125,0,5.125,0,5.125,0,0.75,0.75,0,0,0,0,0,0,0,0,1,0.5,1,2.125,1,0.5,1,2.125,0,,,,,0,22,22,22,,,,,,,,,212.95164470898453,218.06873612495838,212.95164470898453,212.95164470898453,212.95164470898453,212.95164470898453,213.40515629196307,214.39294870896265,213.41919083364,,215.02805266698124,216.02571625000564,215.04014816665247,,218.06873612495838,218.91759312496288,220.96529924997594,224.90526099997805,218.91759312496288,218.91759312496288,224.09106204198906,218.91759312496288,218.91759312496288,218.91759312496288,218.91759312496288,219.33468416699907,220.4070615840028,219.3046996256492,,220.96529924997594,222.04063554195454,220.9358678756437,,218.91759312496288,224.09106204198906,218.91759312496288,224.09106204198906,224.09106204198906,,218.91759312496288,2,1,1.3483719989890233,reldom2_s026,001,2025-03-06_16h08.46.806,Aud-A-Scan_AC,2022.2.5,None,
18,Second_Order,3.0,audwhat,stimulus/audwhat_stim/string viola_low-pitch_F_loud.wav,stimulus/audwhat_stim/percussion mallet_low-pitch_F_loud.wav,stimulus/audwhat_stim/percussion mallet_high-pitch_Ftri_loud.wav,stimulus/audwhat_stim/string cello_high-pitch_Ftri_loud.wav,stimulus/audwhere_stim/match_blank.png,stimulus/audwhat_stim/match_box.png,stimulus/audwhere_stim/match_yes.png,stimulus/audwhere_stim/match_no.png,1.0,Match,Pitch,Pitch,1,5.125,0,5.125,0,5.125,0,5.125,0,0.625,0.625,0,0,0,0,0,0,0,0,1,0.5,1,2.125,1,0.5,1,2.125,0,,,,,0,23,23,23,,,,,,,,,224.90526099997805,230.0292482499499,224.90526099997805,224.90526099997805,224.90526099997805,224.90526099997805,225.3636967499624,226.35426041699247,225.36709845863905,,226.9889726669644,227.9866199590033,227.00101520866545,,230.0292482499499,230.7603394999751,232.8001851249719,,230.7603394999751,230.7603394999751,235.91980187495938,230.7603394999751,230.7603394999751,230.7603394999751,230.7603394999751,231.1763623339939,232.24320258398075,231.14655975066515,,232.8001851249719,233.8723413340049,232.77013129165087,,230.7603394999751,235.91980187495938,230.7603394999751,235.91980187495938,235.91980187495938,236.5742286669556,230.7603394999751,1,1,1.8389529989799485,reldom2_s026,001,2025-03-06_16h08.46.806,Aud-A-Scan_AC,2022.2.5,None,
0,0.0,None,fixation,stimulus/audwhere_stim/blank_white.png,stimulus/audwhere_stim/blank_white.png,stimulus/audwhat_stim/blank_white.png,stimulus/audwhat_stim/blank_white.png,stimulus/audwhere_stim/blank_white.png,stimulus/audwhere_stim/blank_white.png,stimulus/audwhere_stim/blank_white.png,stimulus/audwhere_stim/blank_white.png,0.0,0.0,0.0,0.0,0,0.0,0,0.0,0,0.0,0,0.0,0,0.0,0.0,0,0,0,0,0,0,0,0,0,0.0,0,0.0,0,0.0,0,0.0,9,,,,,0,24,24,24,,,,,,,,,236.8488611249486,236.8488611249486,236.8488611249486,236.8488611249486,236.8488611249486,236.8488611249486,236.8488611249486,236.8488611249486,236.74870429231865,236.8488611249486,236.8488611249486,236.8488611249486,236.74870429231865,236.8488611249486,236.8488611249486,236.8488611249486,236.8488611249486,236.8488611249486,236.8488611249486,236.8488611249486,236.8488611249486,236.8488611249486,236.8488611249486,236.8488611249486,236.8488611249486,236.8488611249486,236.8488611249486,236.79870429231863,236.8488611249486,236.8488611249486,236.8488611249486,236.79870429231863,236.8488611249486,236.8488611249486,236.8488611249486,236.8488611249486,236.8488611249486,242.0463206669665,242.0463206669665,246.091885834001,None,0,,reldom2_s026,001,2025-03-06_16h08.46.806,Aud-A-Scan_AC,2022.2.5,None,
19,First_Order,4.0,audwhat,stimulus/audwhat_stim/dummy.wav,stimulus/audwhat_stim/dummy.wav,stimulus/audwhat_stim/percussion mallet_low-pitch_D_loud.wav,stimulus/audwhat_stim/string viola_low-pitch_D_loud.wav,stimulus/audwhat_stim/blank_white.png,stimulus/audwhat_stim/category_box.png,stimulus/audwhat_stim/category_yes.png,stimulus/audwhat_stim/category_no.png,None,Category,None,Pitch,2,0.0,0,5.125,0,5.125,0,5.125,0,0.0,0.625,0,0,0,0,0,0,0,0,0,0.0,0,0.0,1,0.5,1,2.125,0,,,,,0,25,25,25,,,,,,,,,246.091885834001,246.091885834001,246.091885834001,246.091885834001,246.091885834001,246.091885834001,246.091885834001,246.091885834001,246.01896716664004,246.091885834001,246.091885834001,246.091885834001,246.01896716664004,246.091885834001,246.091885834001,246.091885834001,248.19867066695588,,246.091885834001,246.091885834001,251.28536699997494,246.091885834001,246.091885834001,246.091885834001,246.091885834001,246.56034849997377,247.5908038339694,246.53041162563412,,248.19867066695588,249.22971570899244,248.1688467086681,,246.091885834001,251.28536699997494,246.091885834001,251.28536699997494,251.28536699997494,251.94302041700576,246.091885834001,2,1,0.6004775409819558,reldom2_s026,001,2025-03-06_16h08.46.806,Aud-A-Scan_AC,2022.2.5,None,
20,First_Order,4.0,audwhat,stimulus/audwhat_stim/dummy.wav,stimulus/audwhat_stim/dummy.wav,stimulus/audwhat_stim/percussion xylophone_high-pitch_Dtri_loud.wav,stimulus/audwhat_stim/string cello_high-pitch_Dtri_loud.wav,stimulus/audwhat_stim/blank_white.png,stimulus/audwhat_stim/pitch_box.png,stimulus/audwhat_stim/pitch_yes.png,stimulus/audwhat_stim/pitch_no.png,None,Pitch,None,Pitch,1,0.0,0,5.125,0,5.125,0,5.125,0,0.0,0.625,0,0,0,0,0,0,0,0,0,0.0,0,0.0,1,0.5,1,2.125,0,,,,,0,26,26,26,,,,,,,,,252.19694458396407,252.19694458396407,252.19694458396407,252.19694458396407,252.19694458396407,252.19694458396407,252.19694458396407,252.19694458396407,252.11721241733372,252.19694458396407,252.19694458396407,252.19694458396407,252.11721241733372,252.19694458396407,252.19694458396407,252.19694458396407,254.2948592499597,258.32561287499266,252.19694458396407,252.19694458396407,257.3730419589556,252.19694458396407,252.19694458396407,252.19694458396407,252.19694458396407,252.6646716669784,253.7359319999814,252.63451570866553,253.68919762497535,254.2948592499597,255.3699232089566,254.26478308363974,,252.19694458396407,257.3730419589556,252.19694458396407,257.3730419589556,257.4143391249818,258.07109545898857,252.19694458396407,1,1,0.5992599989986047,reldom2_s026,001,2025-03-06_16h08.46.806,Aud-A-Scan_AC,2022.2.5,None,
21,First_Order,4.0,audwhat,stimulus/audwhat_stim/dummy.wav,stimulus/audwhat_stim/dummy.wav,stimulus/audwhat_stim/string viola_low-pitch_D_loud.wav,stimulus/audwhat_stim/percussion mallet_low-pitch_D_loud.wav,stimulus/audwhat_stim/blank_white.png,stimulus/audwhat_stim/category_box.png,stimulus/audwhat_stim/category_yes.png,stimulus/audwhat_stim/category_no.png,None,Category,None,Pitch,2,0.0,0,5.125,0,5.125,0,5.125,0,0.0,0.625,0,0,0,0,0,0,0,0,0,0.0,0,0.0,1,0.5,1,2.125,0,,,,,0,27,27,27,,,,,,,,,258.32561287499266,258.32561287499266,258.32561287499266,258.32561287499266,258.32561287499266,258.32561287499266,258.32561287499266,258.32561287499266,258.24502837532975,258.32561287499266,258.32561287499266,258.32561287499266,258.24502837532975,258.32561287499266,258.32561287499266,258.32561287499266,260.43333654198796,,258.32561287499266,258.32561287499266,263.4803545419709,258.32561287499266,258.32561287499266,258.32561287499266,258.32561287499266,258.79504891700344,259.82584233395755,258.764676166644,,260.43333654198796,261.46973441698356,260.4027885836588,,258.32561287499266,263.4803545419709,258.32561287499266,263.4803545419709,263.52199337497586,264.1795339589589,258.32561287499266,2,1,0.4605433330289088,reldom2_s026,001,2025-03-06_16h08.46.806,Aud-A-Scan_AC,2022.2.5,None,
22,First_Order,4.0,audwhat,stimulus/audwhat_stim/dummy.wav,stimulus/audwhat_stim/dummy.wav,stimulus/audwhat_stim/string viola_low-pitch_Ftri_loud.wav,stimulus/audwhat_stim/string cello_high-pitch_D_loud.wav,stimulus/audwhat_stim/blank_white.png,stimulus/audwhat_stim/pitch_box.png,stimulus/audwhat_stim/pitch_yes.png,stimulus/audwhat_stim/pitch_no.png,None,Pitch,None,Category,2,0.0,0,5.125,0,5.125,0,5.125,0,0.0,0.625,0,0,0,0,0,0,0,0,0,0.0,0,0.0,1,0.5,1,2.125,0,,,,,0,28,28,28,,,,,,,,,264.4348737919936,264.4348737919936,264.4348737919936,264.4348737919936,264.4348737919936,264.4348737919936,264.4348737919936,264.4348737919936,264.35408504228883,264.4348737919936,264.4348737919936,264.4348737919936,264.35408504228883,264.4348737919936,264.4348737919936,264.4348737919936,266.5349893340026,,264.4348737919936,264.4348737919936,269.61491470900364,264.4348737919936,264.4348737919936,264.4348737919936,264.4348737919936,264.90166287496686,265.97614324995084,264.8716172086463,,266.5349893340026,267.5644826249918,266.50481975061507,,264.4348737919936,269.61491470900364,264.4348737919936,269.61491470900364,269.65627470897743,270.3118099589483,264.4348737919936,2,1,1.4099928319919854,reldom2_s026,001,2025-03-06_16h08.46.806,Aud-A-Scan_AC,2022.2.5,None,
0,0.0,None,fixation,stimulus/audwhere_stim/blank_white.png,stimulus/audwhere_stim/blank_white.png,stimulus/audwhat_stim/blank_white.png,stimulus/audwhat_stim/blank_white.png,stimulus/audwhere_stim/blank_white.png,stimulus/audwhere_stim/blank_white.png,stimulus/audwhere_stim/blank_white.png,stimulus/audwhere_stim/blank_white.png,0.0,0.0,0.0,0.0,0,0.0,0,0.0,0,0.0,0,0.0,0,0.0,0.0,0,0,0,0,0,0,0,0,0,0.0,0,0.0,0,0.0,0,0.0,10,,,,,0,29,29,29,,,,,,,,,270.5456432089559,270.5456432089559,270.5456432089559,270.5456432089559,270.5456432089559,270.5456432089559,270.5456432089559,270.5456432089559,270.4451432922816,270.5456432089559,270.5456432089559,270.5456432089559,270.4451432922816,270.5456432089559,270.5456432089559,270.5456432089559,270.5456432089559,270.5456432089559,270.5456432089559,270.5456432089559,270.5456432089559,270.5456432089559,270.5456432089559,270.5456432089559,270.5456432089559,270.5456432089559,270.5456432089559,270.4951432922816,270.5456432089559,270.5456432089559,270.5456432089559,270.4951432922816,270.5456432089559,270.5456432089559,270.5456432089559,270.5456432089559,270.5456432089559,275.748855791986,275.748855791986,280.71679799997946,None,0,,reldom2_s026,001,2025-03-06_16h08.46.806,Aud-A-Scan_AC,2022.2.5,None,
23,Second_Order,4.0,audwhat,stimulus/audwhat_stim/string cello_low-pitch_F_loud.wav,stimulus/audwhat_stim/string cello_high-pitch_Ftri_loud.wav,stimulus/audwhat_stim/percussion mallet_high-pitch_Ftri_loud.wav,stimulus/audwhat_stim/percussion mallet_low-pitch_F_loud.wav,stimulus/audwhere_stim/match_blank.png,stimulus/audwhat_stim/match_box.png,stimulus/audwhere_stim/match_yes.png,stimulus/audwhere_stim/match_no.png,1.0,Match,Category,Category,1,5.125,0,5.125,0,5.125,0,5.125,0,0.75,0.75,0,0,0,0,0,0,0,0,1,0.5,1,2.125,1,0.5,1,2.125,0,,,,,0,30,30,30,,,,,,,,,280.71679799997946,285.83676329196896,280.71679799997946,280.71679799997946,280.71679799997946,280.71679799997946,281.16153508395655,282.14863662497373,281.1757973336537,,282.8012250419706,283.7988820839673,282.8132263336486,,285.83676329196896,286.68770016694907,288.739079833962,292.6825775419711,286.68770016694907,286.68770016694907,291.86422108398983,286.68770016694907,286.68770016694907,286.68770016694907,286.68770016694907,287.10627245897194,288.18060033395886,287.07607445866256,,288.739079833962,289.76828533399384,288.7088199166503,,286.68770016694907,291.86422108398983,286.68770016694907,291.86422108398983,291.86422108398983,,286.68770016694907,1,1,0.5315333739854395,reldom2_s026,001,2025-03-06_16h08.46.806,Aud-A-Scan_AC,2022.2.5,None,
24,Second_Order,4.0,audwhat,stimulus/audwhat_stim/percussion xylophone_high-pitch_Dtri_loud.wav,stimulus/audwhat_stim/percussion mallet_low-pitch_D_loud.wav,stimulus/audwhat_stim/string cello_low-pitch_Ftri_loud.wav,stimulus/audwhat_stim/string viola_high-pitch_D_loud.wav,stimulus/audwhere_stim/match_blank.png,stimulus/audwhat_stim/match_box.png,stimulus/audwhere_stim/match_yes.png,stimulus/audwhere_stim/match_no.png,1.0,Match,Category,Category,1,5.125,0,5.125,0,5.125,0,5.125,0,0.625,0.625,0,0,0,0,0,0,0,0,1,0.5,1,2.125,1,0.5,1,2.125,0,,,,,0,31,31,31,,,,,,,,,292.6825775419711,297.80256108398316,292.6825775419711,292.6825775419711,292.6825775419711,292.6825775419711,293.14087974996073,294.139609417005,293.15406058362373,294.1431253339979,294.7620503749931,295.76001195894787,294.7742124586405,,297.80256108398316,298.534212958999,300.57432570896344,,298.534212958999,298.534212958999,303.6909046669607,298.534212958999,298.534212958999,298.534212958999,298.534212958999,298.9497802919941,300.0185181249981,298.920336833635,,300.57432570896344,301.646163583966,300.54428870865763,,298.534212958999,303.6909046669607,298.534212958999,303.6909046669607,303.6909046669607,304.3460719589493,298.534212958999,1,1,0.5617189159966074,reldom2_s026,001,2025-03-06_16h08.46.806,Aud-A-Scan_AC,2022.2.5,None,
0,0.0,None,fixation,stimulus/audwhere_stim/blank_white.png,stimulus/audwhere_stim/blank_white.png,stimulus/audwhat_stim/blank_white.png,stimulus/audwhat_stim/blank_white.png,stimulus/audwhere_stim/blank_white.png,stimulus/audwhere_stim/blank_white.png,stimulus/audwhere_stim/blank_white.png,stimulus/audwhere_stim/blank_white.png,0.0,0.0,0.0,0.0,0,0.0,0,0.0,0,0.0,0,0.0,0,0.0,0.0,0,0,0,0,0,0,0,0,0,0.0,0,0.0,0,0.0,0,0.0,9,,,,,0,32,32,32,,,,,,,,,304.6212978339754,304.6212978339754,304.6212978339754,304.6212978339754,304.6212978339754,304.6212978339754,304.6212978339754,304.6212978339754,304.5204805423001,304.6212978339754,304.6212978339754,304.6212978339754,304.5204805423001,304.6212978339754,304.6212978339754,304.6212978339754,304.6212978339754,304.6212978339754,304.6212978339754,304.6212978339754,304.6212978339754,304.6212978339754,304.6212978339754,304.6212978339754,304.6212978339754,304.6212978339754,304.6212978339754,304.5704805423001,304.6212978339754,304.6212978339754,304.6212978339754,304.5704805423001,304.6212978339754,304.6212978339754,304.6212978339754,304.6212978339754,304.6212978339754,309.815841041971,309.815841041971,313.86503229197115,None,0,,reldom2_s026,001,2025-03-06_16h08.46.806,Aud-A-Scan_AC,2022.2.5,None,
25,First_Order,5.0,audwhere,stimulus/audwhere_stim/dummy.wav,stimulus/audwhere_stim/dummy.wav,stimulus/audwhere_stim/right_away_300h.wav,stimulus/audwhere_stim/right_toward_300h.wav,stimulus/audwhere_stim/blank_white.png,stimulus/audwhere_stim/direction_box.png,stimulus/audwhere_stim/direction_yes.png,stimulus/audwhere_stim/direction_no.png,None,Direction,None,Side,2,0.0,0,5.125,0,5.125,0,5.125,0,0.0,0.625,0,0,0,0,0,0,0,0,0,0.0,0,0.0,1,0.5,1,2.125,0,,,,,0,33,33,33,,,,,,,,,313.86503229197115,313.86503229197115,313.86503229197115,313.86503229197115,313.86503229197115,313.86503229197115,313.86503229197115,313.86503229197115,313.7922436666364,313.86503229197115,313.86503229197115,313.86503229197115,313.7922436666364,313.86503229197115,313.86503229197115,313.86503229197115,315.973986166995,,313.86503229197115,313.86503229197115,319.0205917089479,313.86503229197115,313.86503229197115,313.86503229197115,313.86503229197115,314.33372470899485,315.3632200839929,314.3031955416702,,315.973986166995,317.00618574995315,315.9435460006391,,313.86503229197115,319.0205917089479,313.86503229197115,319.0205917089479,319.0617937920033,319.7203106249799,313.86503229197115,2,1,1.0406217490090057,reldom2_s026,001,2025-03-06_16h08.46.806,Aud-A-Scan_AC,2022.2.5,None,
26,First_Order,5.0,audwhere,stimulus/audwhere_stim/dummy.wav,stimulus/audwhere_stim/dummy.wav,stimulus/audwhere_stim/right_away_280h.wav,stimulus/audwhere_stim/left_away_270h.wav,stimulus/audwhere_stim/blank_white.png,stimulus/audwhere_stim/side_box.png,stimulus/audwhere_stim/side_yes.png,stimulus/audwhere_stim/side_no.png,None,Side,None,Direction,2,0.0,0,5.125,0,5.125,0,5.125,0,0.0,0.625,0,0,0,0,0,0,0,0,0,0.0,0,0.0,1,0.5,1,2.125,0,,,,,0,34,34,34,,,,,,,,,319.9747552499757,319.9747552499757,319.9747552499757,319.9747552499757,319.9747552499757,319.9747552499757,319.9747552499757,319.9747552499757,319.89452158331017,319.9747552499757,319.9747552499757,319.9747552499757,319.89452158331017,319.9747552499757,319.9747552499757,319.9747552499757,322.0717040839954,326.1052547500003,319.9747552499757,319.9747552499757,325.15189404197736,319.9747552499757,319.9747552499757,319.9747552499757,319.9747552499757,320.4400008749799,321.5122641249909,320.409779166632,,322.0717040839954,323.10135333397193,322.04167537566195,,319.9747552499757,325.15189404197736,319.9747552499757,325.15189404197736,325.1931247089524,325.85070162499323,319.9747552499757,2,1,0.7544909999705851,reldom2_s026,001,2025-03-06_16h08.46.806,Aud-A-Scan_AC,2022.2.5,None,
27,First_Order,5.0,audwhere,stimulus/audwhere_stim/dummy.wav,stimulus/audwhere_stim/dummy.wav,stimulus/audwhere_stim/left_away_300h.wav,stimulus/audwhere_stim/right_away_290h.wav,stimulus/audwhere_stim/blank_white.png,stimulus/audwhere_stim/direction_box.png,stimulus/audwhere_stim/direction_yes.png,stimulus/audwhere_stim/direction_no.png,None,Direction,None,Direction,1,0.0,0,5.125,0,5.125,0,5.125,0,0.0,0.625,0,0,0,0,0,0,0,0,0,0.0,0,0.0,1,0.5,1,2.125,0,,,,,0,35,35,35,,,,,,,,,326.1052547500003,326.1052547500003,326.1052547500003,326.1052547500003,326.1052547500003,326.1052547500003,326.1052547500003,326.1052547500003,326.0250942503063,326.1052547500003,326.1052547500003,326.1052547500003,326.0250942503063,326.1052547500003,326.1052547500003,326.1052547500003,328.2148688749876,,326.1052547500003,326.1052547500003,331.2588233339484,326.1052547500003,326.1052547500003,326.1052547500003,326.1052547500003,326.574880375003,327.60714312497294,326.54455404164423,,328.2148688749876,329.2480502919643,328.18457737565427,,326.1052547500003,331.2588233339484,326.1052547500003,331.2588233339484,331.30006404197775,331.95933245896595,326.1052547500003,1,1,1.0154438739991747,reldom2_s026,001,2025-03-06_16h08.46.806,Aud-A-Scan_AC,2022.2.5,None,
28,First_Order,5.0,audwhere,stimulus/audwhere_stim/dummy.wav,stimulus/audwhere_stim/dummy.wav,stimulus/audwhere_stim/left_away_290h.wav,stimulus/audwhere_stim/right_away_280h.wav,stimulus/audwhere_stim/blank_white.png,stimulus/audwhere_stim/direction_box.png,stimulus/audwhere_stim/direction_yes.png,stimulus/audwhere_stim/direction_no.png,None,Direction,None,Direction,1,0.0,0,5.125,0,5.125,0,5.125,0,0.0,0.625,0,0,0,0,0,0,0,0,0,0.0,0,0.0,1,0.5,1,2.125,0,,,,,0,36,36,36,,,,,,,,,332.21399379195645,332.21399379195645,332.21399379195645,332.21399379195645,332.21399379195645,332.21399379195645,332.21399379195645,332.21399379195645,332.1337061673131,332.21399379195645,332.21399379195645,332.21399379195645,332.1337061673131,332.21399379195645,332.21399379195645,332.21399379195645,334.322795916989,,332.21399379195645,332.21399379195645,337.370039374975,332.21399379195645,332.21399379195645,332.21399379195645,332.21399379195645,332.6822060839622,333.7151666669524,332.65167995862816,,334.322795916989,335.3562537090038,334.2921480006228,,332.21399379195645,337.370039374975,332.21399379195645,337.370039374975,337.41107608395396,338.0700079999515,332.21399379195645,1,1,1.0141874570399523,reldom2_s026,001,2025-03-06_16h08.46.806,Aud-A-Scan_AC,2022.2.5,None,
0,0.0,None,fixation,stimulus/audwhere_stim/blank_white.png,stimulus/audwhere_stim/blank_white.png,stimulus/audwhat_stim/blank_white.png,stimulus/audwhat_stim/blank_white.png,stimulus/audwhere_stim/blank_white.png,stimulus/audwhere_stim/blank_white.png,stimulus/audwhere_stim/blank_white.png,stimulus/audwhere_stim/blank_white.png,0.0,0.0,0.0,0.0,0,0.0,0,0.0,0,0.0,0,0.0,0,0.0,0.0,0,0,0,0,0,0,0,0,0,0.0,0,0.0,0,0.0,0,0.0,9,,,,,0,37,37,37,,,,,,,,,338.3447747500031,338.3447747500031,338.3447747500031,338.3447747500031,338.3447747500031,338.3447747500031,338.3447747500031,338.3447747500031,338.2439418753221,338.3447747500031,338.3447747500031,338.3447747500031,338.2439418753221,338.3447747500031,338.3447747500031,338.3447747500031,338.3447747500031,338.3447747500031,338.3447747500031,338.3447747500031,338.3447747500031,338.3447747500031,338.3447747500031,338.3447747500031,338.3447747500031,338.3447747500031,338.3447747500031,338.2939418753221,338.3447747500031,338.3447747500031,338.3447747500031,338.2939418753221,338.3447747500031,338.3447747500031,338.3447747500031,338.3447747500031,338.3447747500031,343.5701629999676,343.5701629999676,347.47841195896035,None,0,,reldom2_s026,001,2025-03-06_16h08.46.806,Aud-A-Scan_AC,2022.2.5,None,
29,Second_Order,5.0,audwhere,stimulus/audwhere_stim/right_toward_270h.wav,stimulus/audwhere_stim/right_away_280h.wav,stimulus/audwhere_stim/left_toward_290h.wav,stimulus/audwhere_stim/left_away_290h.wav,stimulus/audwhere_stim/match_blank.png,stimulus/audwhere_stim/match_box.png,stimulus/audwhere_stim/match_yes.png,stimulus/audwhere_stim/match_no.png,1.0,Match,Side,Side,1,5.125,0,5.125,0,5.125,0,5.125,0,0.75,0.75,0,0,0,0,0,0,0,0,1,0.5,1,2.125,1,0.5,1,2.125,0,,,,,0,38,38,38,,,,,,,,,347.47841195896035,352.5960825419752,347.47841195896035,347.47841195896035,347.47841195896035,347.47841195896035,347.9326459589647,348.92076312500285,347.94682908367054,,349.5557271249709,350.55309487495106,349.56763633364267,,352.5960825419752,353.44803504197625,355.50330754194874,359.4456662089797,353.44803504197625,353.44803504197625,358.63267087499844,353.44803504197625,353.44803504197625,353.44803504197625,353.44803504197625,353.8699396249722,354.94230624998454,353.83997266664323,,355.50330754194874,356.5336434589699,355.47166058363314,,353.44803504197625,358.63267087499844,353.44803504197625,358.63267087499844,358.63267087499844,,353.44803504197625,1,1,0.9767514989944175,reldom2_s026,001,2025-03-06_16h08.46.806,Aud-A-Scan_AC,2022.2.5,None,
30,Second_Order,5.0,audwhere,stimulus/audwhere_stim/left_toward_300h.wav,stimulus/audwhere_stim/left_away_290h.wav,stimulus/audwhere_stim/right_away_290h.wav,stimulus/audwhere_stim/right_toward_280h.wav,stimulus/audwhere_stim/match_blank.png,stimulus/audwhere_stim/match_box.png,stimulus/audwhere_stim/match_yes.png,stimulus/audwhere_stim/match_no.png,1.0,Match,Side,Side,1,5.125,0,5.125,0,5.125,0,5.125,0,0.625,0.625,0,0,0,0,0,0,0,0,1,0.5,1,2.125,1,0.5,1,2.125,0,,,,,0,39,39,39,,,,,,,,,359.4456662089797,364.5689085839549,359.4456662089797,359.4456662089797,359.4456662089797,359.4456662089797,359.8933812920004,360.8802806249587,359.9074920836176,,361.5283579590032,362.51801591698313,361.5318325006558,,364.5689085839549,365.3028737499844,367.3450159589993,,365.3028737499844,365.3028737499844,370.467142916983,365.3028737499844,365.3028737499844,365.3028737499844,365.3028737499844,365.72083750000456,366.7873567919596,365.6910627506479,,367.3450159589993,368.41995974996826,367.3148615006396,,365.3028737499844,370.467142916983,365.3028737499844,370.467142916983,370.467142916983,371.1228403749992,365.3028737499844,1,1,1.094291374029126,reldom2_s026,001,2025-03-06_16h08.46.806,Aud-A-Scan_AC,2022.2.5,None,
0,0.0,None,fixation,stimulus/audwhere_stim/blank_white.png,stimulus/audwhere_stim/blank_white.png,stimulus/audwhat_stim/blank_white.png,stimulus/audwhat_stim/blank_white.png,stimulus/audwhere_stim/blank_white.png,stimulus/audwhere_stim/blank_white.png,stimulus/audwhere_stim/blank_white.png,stimulus/audwhere_stim/blank_white.png,0.0,0.0,0.0,0.0,0,0.0,0,0.0,0,0.0,0,0.0,0,0.0,0.0,0,0,0,0,0,0,0,0,0,0.0,0,0.0,0,0.0,0,0.0,9,,,,,0,40,40,40,,,,,,,,,371.397504166991,371.397504166991,371.397504166991,371.397504166991,371.397504166991,371.397504166991,371.397504166991,371.397504166991,371.29713804231335,371.397504166991,371.397504166991,371.397504166991,371.29713804231335,371.397504166991,371.397504166991,371.397504166991,371.397504166991,371.397504166991,371.397504166991,371.397504166991,371.397504166991,371.397504166991,371.397504166991,371.397504166991,371.397504166991,371.397504166991,371.397504166991,371.34713804231336,371.397504166991,371.397504166991,371.397504166991,371.34713804231336,371.397504166991,371.397504166991,371.397504166991,371.397504166991,371.397504166991,376.60348887497094,376.60348887497094,380.6472985839937,None,0,,reldom2_s026,001,2025-03-06_16h08.46.806,Aud-A-Scan_AC,2022.2.5,None,
31,First_Order,6.0,audwhere,stimulus/audwhere_stim/dummy.wav,stimulus/audwhere_stim/dummy.wav,stimulus/audwhere_stim/left_away_300h.wav,stimulus/audwhere_stim/left_toward_300h.wav,stimulus/audwhere_stim/blank_white.png,stimulus/audwhere_stim/side_box.png,stimulus/audwhere_stim/side_yes.png,stimulus/audwhere_stim/side_no.png,None,Side,None,Side,1,0.0,0,5.125,0,5.125,0,5.125,0,0.0,0.625,0,0,0,0,0,0,0,0,0,0.0,0,0.0,1,0.5,1,2.125,0,,,,,0,41,41,41,,,,,,,,,380.6472985839937,380.6472985839937,380.6472985839937,380.6472985839937,380.6472985839937,380.6472985839937,380.6472985839937,380.6472985839937,380.5745228336697,380.6472985839937,380.6472985839937,380.6472985839937,380.5745228336697,380.6472985839937,380.6472985839937,380.6472985839937,382.74554745899513,386.7715479589533,380.6472985839937,380.6472985839937,385.8233938749763,380.6472985839937,380.6472985839937,380.6472985839937,380.6472985839937,381.1125573749887,382.1873757089488,381.0822388756244,,382.74554745899513,383.82025891699595,382.71560129162776,,380.6472985839937,385.8233938749763,380.6472985839937,385.8233938749763,385.8644687499618,386.51975870894967,380.6472985839937,1,1,1.133883083006367,reldom2_s026,001,2025-03-06_16h08.46.806,Aud-A-Scan_AC,2022.2.5,None,
32,First_Order,6.0,audwhere,stimulus/audwhere_stim/dummy.wav,stimulus/audwhere_stim/dummy.wav,stimulus/audwhere_stim/right_away_270h.wav,stimulus/audwhere_stim/left_away_280h.wav,stimulus/audwhere_stim/blank_white.png,stimulus/audwhere_stim/side_box.png,stimulus/audwhere_stim/side_yes.png,stimulus/audwhere_stim/side_no.png,None,Side,None,Direction,2,0.0,0,5.125,0,5.125,0,5.125,0,0.0,0.625,0,0,0,0,0,0,0,0,0,0.0,0,0.0,1,0.5,1,2.125,0,,,,,0,42,42,42,,,,,,,,,386.7715479589533,386.7715479589533,386.7715479589533,386.7715479589533,386.7715479589533,386.7715479589533,386.7715479589533,386.7715479589533,386.6934530003074,386.7715479589533,386.7715479589533,386.7715479589533,386.6934530003074,386.7715479589533,386.7715479589533,386.7715479589533,388.86536075000186,392.8953315419494,386.7715479589533,386.7715479589533,391.9427950839745,386.7715479589533,386.7715479589533,386.7715479589533,386.7715479589533,387.2357079589856,388.30775008397177,387.20576404163535,,388.86536075000186,389.89666224998655,388.83546479163147,,386.7715479589533,391.9427950839745,386.7715479589533,391.9427950839745,391.9840914589586,392.6406046249904,386.7715479589533,2,1,0.55554500001017,reldom2_s026,001,2025-03-06_16h08.46.806,Aud-A-Scan_AC,2022.2.5,None,
33,First_Order,6.0,audwhere,stimulus/audwhere_stim/dummy.wav,stimulus/audwhere_stim/dummy.wav,stimulus/audwhere_stim/left_toward_270h.wav,stimulus/audwhere_stim/left_away_270h.wav,stimulus/audwhere_stim/blank_white.png,stimulus/audwhere_stim/direction_box.png,stimulus/audwhere_stim/direction_yes.png,stimulus/audwhere_stim/direction_no.png,None,Direction,None,Side,2,0.0,0,5.125,0,5.125,0,5.125,0,0.0,0.625,0,0,0,0,0,0,0,0,0,0.0,0,0.0,1,0.5,1,2.125,0,,,,,0,43,43,43,,,,,,,,,392.8953315419494,392.8953315419494,392.8953315419494,392.8953315419494,392.8953315419494,392.8953315419494,392.8953315419494,392.8953315419494,392.8148441672985,392.8953315419494,392.8953315419494,392.8953315419494,392.8148441672985,392.8953315419494,392.8953315419494,392.8953315419494,395.0050859589828,399.00723316695075,392.8953315419494,392.8953315419494,398.05349729198497,392.8953315419494,392.8953315419494,392.8953315419494,392.8953315419494,393.3640437499853,394.39659262495115,393.3338270836432,,395.0050859589828,396.0398446669569,394.974734291671,,392.8953315419494,398.05349729198497,392.8953315419494,398.05349729198497,398.09483187500155,398.75275666697416,392.8953315419494,2,1,1.021314000012353,reldom2_s026,001,2025-03-06_16h08.46.806,Aud-A-Scan_AC,2022.2.5,None,
34,First_Order,6.0,audwhere,stimulus/audwhere_stim/dummy.wav,stimulus/audwhere_stim/dummy.wav,stimulus/audwhere_stim/left_toward_300h.wav,stimulus/audwhere_stim/left_away_300h.wav,stimulus/audwhere_stim/blank_white.png,stimulus/audwhere_stim/side_box.png,stimulus/audwhere_stim/side_yes.png,stimulus/audwhere_stim/side_no.png,None,Side,None,Side,1,0.0,0,5.125,0,5.125,0,5.125,0,0.0,0.625,0,0,0,0,0,0,0,0,0,0.0,0,0.0,1,0.5,1,2.125,0,,,,,0,44,44,44,,,,,,,,,399.00723316695075,399.00723316695075,399.00723316695075,399.00723316695075,399.00723316695075,399.00723316695075,399.00723316695075,399.00723316695075,398.92730333333213,399.00723316695075,399.00723316695075,399.00723316695075,398.92730333333213,399.00723316695075,399.00723316695075,399.00723316695075,401.1080506249564,,399.00723316695075,399.00723316695075,404.1889931669575,399.00723316695075,399.00723316695075,399.00723316695075,399.00723316695075,399.4747554999776,400.5477729169652,399.4433041256309,,401.1080506249564,402.1390249169781,401.0780146256477,,399.00723316695075,404.1889931669575,399.00723316695075,404.1889931669575,404.23017358395737,404.8869040419813,399.00723316695075,1,1,1.2703518740017898,reldom2_s026,001,2025-03-06_16h08.46.806,Aud-A-Scan_AC,2022.2.5,None,
0,0.0,None,fixation,stimulus/audwhere_stim/blank_white.png,stimulus/audwhere_stim/blank_white.png,stimulus/audwhat_stim/blank_white.png,stimulus/audwhat_stim/blank_white.png,stimulus/audwhere_stim/blank_white.png,stimulus/audwhere_stim/blank_white.png,stimulus/audwhere_stim/blank_white.png,stimulus/audwhere_stim/blank_white.png,0.0,0.0,0.0,0.0,0,0.0,0,0.0,0,0.0,0,0.0,0,0.0,0.0,0,0,0,0,0,0,0,0,0,0.0,0,0.0,0,0.0,0,0.0,10,,,,,0,45,45,45,,,,,,,,,405.12088370899437,405.12088370899437,405.12088370899437,405.12088370899437,405.12088370899437,405.12088370899437,405.12088370899437,405.12088370899437,405.02023737531465,405.12088370899437,405.12088370899437,405.12088370899437,405.02023737531465,405.12088370899437,405.12088370899437,405.12088370899437,405.12088370899437,405.12088370899437,405.12088370899437,405.12088370899437,405.12088370899437,405.12088370899437,405.12088370899437,405.12088370899437,405.12088370899437,405.12088370899437,405.12088370899437,405.07023737531466,405.12088370899437,405.12088370899437,405.12088370899437,405.07023737531466,405.12088370899437,405.12088370899437,405.12088370899437,405.12088370899437,405.12088370899437,410.3303522919887,410.3303522919887,415.251366374956,None,0,,reldom2_s026,001,2025-03-06_16h08.46.806,Aud-A-Scan_AC,2022.2.5,None,
35,Second_Order,6.0,audwhere,stimulus/audwhere_stim/left_away_280h.wav,stimulus/audwhere_stim/left_toward_300h.wav,stimulus/audwhere_stim/right_away_280h.wav,stimulus/audwhere_stim/right_toward_300h.wav,stimulus/audwhere_stim/match_blank.png,stimulus/audwhere_stim/match_box.png,stimulus/audwhere_stim/match_yes.png,stimulus/audwhere_stim/match_no.png,1.0,Match,Side,Side,1,5.125,0,5.125,0,5.125,0,5.125,0,0.75,0.75,0,0,0,0,0,0,0,0,1,0.5,1,2.125,1,0.5,1,2.125,0,,,,,0,46,46,46,,,,,,,,,415.251366374956,420.3693229169585,415.251366374956,415.251366374956,415.251366374956,415.251366374956,415.70774333400186,416.70602141699055,415.7204152506349,,417.32969029195374,418.32668037497206,417.3412889166541,418.3307257089764,420.3693229169585,421.21805687499,423.26972799998475,427.21326270897407,421.21805687499,421.21805687499,426.39701174997026,421.21805687499,421.21805687499,421.21805687499,421.21805687499,421.63702724996256,422.70950762496796,421.60696779162777,,423.26972799998475,424.3016269590007,423.239662750628,,421.21805687499,426.39701174997026,421.21805687499,426.39701174997026,426.39701174997026,,421.21805687499,1,1,0.6212162490119226,reldom2_s026,001,2025-03-06_16h08.46.806,Aud-A-Scan_AC,2022.2.5,None,
36,Second_Order,6.0,audwhere,stimulus/audwhere_stim/left_away_290h.wav,stimulus/audwhere_stim/left_toward_270h.wav,stimulus/audwhere_stim/left_toward_290h.wav,stimulus/audwhere_stim/right_toward_270h.wav,stimulus/audwhere_stim/match_blank.png,stimulus/audwhere_stim/match_box.png,stimulus/audwhere_stim/match_yes.png,stimulus/audwhere_stim/match_no.png,2.0,Match,Side,Direction,2,5.125,0,5.125,0,5.125,0,5.125,0,0.625,0.625,0,0,0,0,0,0,0,0,1,0.5,1,2.125,1,0.5,1,2.125,0,,,,,0,47,47,47,,,,,,,,,427.21326270897407,432.33138754195534,427.21326270897407,427.21326270897407,427.21326270897407,427.21326270897407,427.66680533398176,428.65347658400424,427.6809796256168,,429.28928195900517,430.2874319169787,429.3017547506645,,432.33138754195534,433.0622795840027,435.10920562496176,439.1684824999538,433.0622795840027,433.0622795840027,438.2343097499688,433.0622795840027,433.0622795840027,433.0622795840027,433.0622795840027,433.4804989169934,434.5509086669772,433.44944491662704,,435.10920562496176,436.1392230420024,435.078980750641,,433.0622795840027,438.2343097499688,433.0622795840027,438.2343097499688,438.2343097499688,438.8932796669542,433.0622795840027,2,1,0.7790501240524463,reldom2_s026,001,2025-03-06_16h08.46.806,Aud-A-Scan_AC,2022.2.5,None,
0,0.0,None,fixation,stimulus/audwhere_stim/blank_white.png,stimulus/audwhere_stim/blank_white.png,stimulus/audwhat_stim/blank_white.png,stimulus/audwhat_stim/blank_white.png,stimulus/audwhere_stim/blank_white.png,stimulus/audwhere_stim/blank_white.png,stimulus/audwhere_stim/blank_white.png,stimulus/audwhere_stim/blank_white.png,0.0,0.0,0.0,0.0,0,0.0,0,0.0,0,0.0,0,0.0,0,0.0,0.0,0,0,0,0,0,0,0,0,0,0.0,0,0.0,0,0.0,0,0.0,9,,,,,0,48,48,48,,,,,,,,,439.1684824999538,439.1684824999538,439.1684824999538,439.1684824999538,439.1684824999538,439.1684824999538,439.1684824999538,439.1684824999538,439.0675746252838,439.1684824999538,439.1684824999538,439.1684824999538,439.0675746252838,439.1684824999538,439.1684824999538,439.1684824999538,439.1684824999538,439.1684824999538,439.1684824999538,439.1684824999538,439.1684824999538,439.1684824999538,439.1684824999538,439.1684824999538,439.1684824999538,439.1684824999538,439.1684824999538,439.1175746252838,439.1684824999538,439.1684824999538,439.1684824999538,439.1175746252838,439.1684824999538,439.1684824999538,439.1684824999538,439.1684824999538,439.1684824999538,444.36776012496557,444.36776012496557,448.413528458972,None,0,,reldom2_s026,001,2025-03-06_16h08.46.806,Aud-A-Scan_AC,2022.2.5,None,
37,First_Order,7.0,audwhat,stimulus/audwhat_stim/dummy.wav,stimulus/audwhat_stim/dummy.wav,stimulus/audwhat_stim/string cello_low-pitch_Ftri_loud.wav,stimulus/audwhat_stim/string cello_high-pitch_D_loud.wav,stimulus/audwhat_stim/blank_white.png,stimulus/audwhat_stim/pitch_box.png,stimulus/audwhat_stim/pitch_yes.png,stimulus/audwhat_stim/pitch_no.png,None,Pitch,None,Category,2,0.0,0,5.125,0,5.125,0,5.125,0,0.0,0.625,0,0,0,0,0,0,0,0,0,0.0,0,0.0,1,0.5,1,2.125,0,,,,,0,49,49,49,,,,,,,,,448.413528458972,448.413528458972,448.413528458972,448.413528458972,448.413528458972,448.413528458972,448.413528458972,448.413528458972,448.3400037506168,448.413528458972,448.413528458972,448.413528458972,448.3400037506168,448.413528458972,448.413528458972,448.413528458972,450.5124925839482,454.53984304197365,448.413528458972,448.413528458972,453.5893043749966,448.413528458972,448.413528458972,448.413528458972,448.413528458972,448.8805434999522,449.95335362496553,448.8502757916615,,450.5124925839482,451.5888417499955,450.4824742086387,,448.413528458972,453.5893043749966,448.413528458972,453.5893043749966,453.6305906669586,454.28622095898027,448.413528458972,2,1,0.8406324579846114,reldom2_s026,001,2025-03-06_16h08.46.806,Aud-A-Scan_AC,2022.2.5,None,
38,First_Order,7.0,audwhat,stimulus/audwhat_stim/dummy.wav,stimulus/audwhat_stim/dummy.wav,stimulus/audwhat_stim/string cello_low-pitch_D_loud.wav,stimulus/audwhat_stim/string cello_high-pitch_Ftri_loud.wav,stimulus/audwhat_stim/blank_white.png,stimulus/audwhat_stim/pitch_box.png,stimulus/audwhat_stim/pitch_yes.png,stimulus/audwhat_stim/pitch_no.png,None,Pitch,None,Category,2,0.0,0,5.125,0,5.125,0,5.125,0,0.0,0.625,0,0,0,0,0,0,0,0,0,0.0,0,0.0,1,0.5,1,2.125,0,,,,,0,50,50,50,,,,,,,,,454.53984304197365,454.53984304197365,454.53984304197365,454.53984304197365,454.53984304197365,454.53984304197365,454.53984304197365,454.53984304197365,454.4604220002967,454.53984304197365,454.53984304197365,454.53984304197365,454.4604220002967,454.53984304197365,454.53984304197365,454.53984304197365,456.64337220898597,,454.53984304197365,454.53984304197365,459.7256759169977,454.53984304197365,454.53984304197365,454.53984304197365,454.53984304197365,455.00890529196477,456.0835340420017,454.97701887565586,,456.64337220898597,457.6743874999811,456.61341425066735,,454.53984304197365,459.7256759169977,454.53984304197365,459.7256759169977,459.7671374999918,460.4243530840031,454.53984304197365,2,1,0.7263975830283016,reldom2_s026,001,2025-03-06_16h08.46.806,Aud-A-Scan_AC,2022.2.5,None,
39,First_Order,7.0,audwhat,stimulus/audwhat_stim/dummy.wav,stimulus/audwhat_stim/dummy.wav,stimulus/audwhat_stim/percussion xylophone_high-pitch_Dtri_loud.wav,stimulus/audwhat_stim/string cello_high-pitch_Dtri_loud.wav,stimulus/audwhat_stim/blank_white.png,stimulus/audwhat_stim/pitch_box.png,stimulus/audwhat_stim/pitch_yes.png,stimulus/audwhat_stim/pitch_no.png,None,Pitch,None,Pitch,1,0.0,0,5.125,0,5.125,0,5.125,0,0.0,0.625,0,0,0,0,0,0,0,0,0,0.0,0,0.0,1,0.5,1,2.125,0,,,,,0,51,51,51,,,,,,,,,460.6377511249739,460.6377511249739,460.6377511249739,460.6377511249739,460.6377511249739,460.6377511249739,460.6377511249739,460.6377511249739,460.5576864173364,460.6377511249739,460.6377511249739,460.6377511249739,460.5576864173364,460.6377511249739,460.6377511249739,460.6377511249739,462.73437637498137,466.765346375003,460.6377511249739,460.6377511249739,465.8131836249959,460.6377511249739,460.6377511249739,460.6377511249739,460.6377511249739,461.1023032499943,462.17638283397537,461.072578750671,462.12962437496753,462.73437637498137,463.76484633400105,462.70411537564746,,460.6377511249739,465.8131836249959,460.6377511249739,465.8131836249959,465.8548404589528,466.51102258398896,460.6377511249739,1,1,0.5640537079889327,reldom2_s026,001,2025-03-06_16h08.46.806,Aud-A-Scan_AC,2022.2.5,None,
40,First_Order,7.0,audwhat,stimulus/audwhat_stim/dummy.wav,stimulus/audwhat_stim/dummy.wav,stimulus/audwhat_stim/string cello_low-pitch_D_loud.wav,stimulus/audwhat_stim/percussion mallet_low-pitch_D_loud.wav,stimulus/audwhat_stim/blank_white.png,stimulus/audwhat_stim/pitch_box.png,stimulus/audwhat_stim/pitch_yes.png,stimulus/audwhat_stim/pitch_no.png,None,Pitch,None,Pitch,1,0.0,0,5.125,0,5.125,0,5.125,0,0.0,0.625,0,0,0,0,0,0,0,0,0,0.0,0,0.0,1,0.5,1,2.125,0,,,,,0,52,52,52,,,,,,,,,466.765346375003,466.765346375003,466.765346375003,466.765346375003,466.765346375003,466.765346375003,466.765346375003,466.765346375003,466.68531808330056,466.765346375003,466.765346375003,466.765346375003,466.68531808330056,466.765346375003,466.765346375003,466.765346375003,468.8662382919574,,466.765346375003,466.765346375003,471.9467799999984,466.765346375003,466.765346375003,466.765346375003,466.765346375003,467.23110708396416,468.2602381669567,467.2009733756461,,468.8662382919574,469.8981760419556,468.8359818756619,,466.765346375003,471.9467799999984,466.765346375003,471.9467799999984,471.98802083398914,472.6436674169963,466.765346375003,1,1,0.6473822080297396,reldom2_s026,001,2025-03-06_16h08.46.806,Aud-A-Scan_AC,2022.2.5,None,
0,0.0,None,fixation,stimulus/audwhere_stim/blank_white.png,stimulus/audwhere_stim/blank_white.png,stimulus/audwhat_stim/blank_white.png,stimulus/audwhat_stim/blank_white.png,stimulus/audwhere_stim/blank_white.png,stimulus/audwhere_stim/blank_white.png,stimulus/audwhere_stim/blank_white.png,stimulus/audwhere_stim/blank_white.png,0.0,0.0,0.0,0.0,0,0.0,0,0.0,0,0.0,0,0.0,0,0.0,0.0,0,0,0,0,0,0,0,0,0,0.0,0,0.0,0,0.0,0,0.0,10,,,,,0,53,53,53,,,,,,,,,472.88248374999966,472.88248374999966,472.88248374999966,472.88248374999966,472.88248374999966,472.88248374999966,472.88248374999966,472.88248374999966,472.77700075032965,472.88248374999966,472.88248374999966,472.88248374999966,472.77700075032965,472.88248374999966,472.88248374999966,472.88248374999966,472.88248374999966,472.88248374999966,472.88248374999966,472.88248374999966,472.88248374999966,472.88248374999966,472.88248374999966,472.88248374999966,472.88248374999966,472.88248374999966,472.88248374999966,472.82700075032966,472.88248374999966,472.88248374999966,472.88248374999966,472.82700075032966,472.88248374999966,472.88248374999966,472.88248374999966,472.88248374999966,472.88248374999966,478.0951336249709,478.0951336249709,483.020676583983,None,0,,reldom2_s026,001,2025-03-06_16h08.46.806,Aud-A-Scan_AC,2022.2.5,None,
41,Second_Order,7.0,audwhat,stimulus/audwhat_stim/percussion xylophone_high-pitch_Ftri_loud.wav,stimulus/audwhat_stim/percussion mallet_low-pitch_Dtri_loud.wav,stimulus/audwhat_stim/string viola_low-pitch_Ftri_loud.wav,stimulus/audwhat_stim/percussion mallet_low-pitch_Ftri_loud.wav,stimulus/audwhere_stim/match_blank.png,stimulus/audwhat_stim/match_box.png,stimulus/audwhere_stim/match_yes.png,stimulus/audwhere_stim/match_no.png,2.0,Match,Category,Pitch,2,5.125,0,5.125,0,5.125,0,5.125,0,0.75,0.75,0,0,0,0,0,0,0,0,1,0.5,1,2.125,1,0.5,1,2.125,0,,,,,0,54,54,54,,,,,,,,,483.020676583983,488.1422757919645,483.020676583983,483.020676583983,483.020676583983,483.020676583983,483.4765212920029,484.46609170897864,483.48072033364247,484.47949270898243,485.10205083398614,486.09955654200166,485.1142022916504,,488.1422757919645,488.9907975840033,491.04069716698723,494.9855384589755,488.9907975840033,488.9907975840033,494.16886704199715,488.9907975840033,488.9907975840033,488.9907975840033,488.9907975840033,489.4100137499627,490.48346749995835,489.37979187566475,,491.04069716698723,492.07152716699056,491.0107877916346,,488.9907975840033,494.16886704199715,488.9907975840033,494.16886704199715,494.16886704199715,,488.9907975840033,2,1,0.6964548319811001,reldom2_s026,001,2025-03-06_16h08.46.806,Aud-A-Scan_AC,2022.2.5,None,
42,Second_Order,7.0,audwhat,stimulus/audwhat_stim/string cello_high-pitch_Dtri_loud.wav,stimulus/audwhat_stim/percussion mallet_high-pitch_Dtri_loud.wav,stimulus/audwhat_stim/percussion mallet_low-pitch_D_loud.wav,stimulus/audwhat_stim/string cello_low-pitch_D_loud.wav,stimulus/audwhere_stim/match_blank.png,stimulus/audwhat_stim/match_box.png,stimulus/audwhere_stim/match_yes.png,stimulus/audwhere_stim/match_no.png,1.0,Match,Pitch,Pitch,1,5.125,0,5.125,0,5.125,0,5.125,0,0.625,0.625,0,0,0,0,0,0,0,0,1,0.5,1,2.125,1,0.5,1,2.125,0,,,,,0,55,55,55,,,,,,,,,494.9855384589755,500.10361237498,494.9855384589755,494.9855384589755,494.9855384589755,494.9855384589755,495.440024541982,496.42668770899763,495.45420270861746,,497.062709833961,498.06117670895765,497.07499387563826,,500.10361237498,500.8323375839973,502.8853336669854,506.9365125419572,500.8323375839973,500.8323375839973,506.006469541986,500.8323375839973,500.8323375839973,500.8323375839973,500.8323375839973,501.253079416987,502.3266669999575,501.2230522506327,,502.8853336669854,503.9605018339935,502.85542216664567,,500.8323375839973,506.006469541986,500.8323375839973,506.006469541986,506.006469541986,506.6611724589602,500.8323375839973,1,1,0.5967852910398506,reldom2_s026,001,2025-03-06_16h08.46.806,Aud-A-Scan_AC,2022.2.5,None,
0,0.0,None,fixation,stimulus/audwhere_stim/blank_white.png,stimulus/audwhere_stim/blank_white.png,stimulus/audwhat_stim/blank_white.png,stimulus/audwhat_stim/blank_white.png,stimulus/audwhere_stim/blank_white.png,stimulus/audwhere_stim/blank_white.png,stimulus/audwhere_stim/blank_white.png,stimulus/audwhere_stim/blank_white.png,0.0,0.0,0.0,0.0,0,0.0,0,0.0,0,0.0,0,0.0,0,0.0,0.0,0,0,0,0,0,0,0,0,0,0.0,0,0.0,0,0.0,0,0.0,9,,,,,0,56,56,56,,,,,,,,,506.9365125419572,506.9365125419572,506.9365125419572,506.9365125419572,506.9365125419572,506.9365125419572,506.9365125419572,506.9365125419572,506.8355433753187,506.9365125419572,506.9365125419572,506.9365125419572,506.8355433753187,506.9365125419572,506.9365125419572,506.9365125419572,506.9365125419572,506.9365125419572,506.9365125419572,506.9365125419572,506.9365125419572,506.9365125419572,506.9365125419572,506.9365125419572,506.9365125419572,506.9365125419572,506.9365125419572,506.8855433753187,506.9365125419572,506.9365125419572,506.9365125419572,506.8855433753187,506.9365125419572,506.9365125419572,506.9365125419572,506.9365125419572,506.9365125419572,512.1404020419577,512.1404020419577,516.1919623339782,None,0,,reldom2_s026,001,2025-03-06_16h08.46.806,Aud-A-Scan_AC,2022.2.5,None,
43,First_Order,8.0,audwhat,stimulus/audwhat_stim/dummy.wav,stimulus/audwhat_stim/dummy.wav,stimulus/audwhat_stim/string viola_low-pitch_F_loud.wav,stimulus/audwhat_stim/percussion mallet_low-pitch_F_loud.wav,stimulus/audwhat_stim/blank_white.png,stimulus/audwhat_stim/category_box.png,stimulus/audwhat_stim/category_yes.png,stimulus/audwhat_stim/category_no.png,None,Category,None,Pitch,2,0.0,0,5.125,0,5.125,0,5.125,0,0.0,0.625,0,0,0,0,0,0,0,0,0,0.0,0,0.0,1,0.5,1,2.125,0,,,,,0,57,57,57,,,,,,,,,516.1919623339782,516.1919623339782,516.1919623339782,516.1919623339782,516.1919623339782,516.1919623339782,516.1919623339782,516.1919623339782,516.117771791624,516.1919623339782,516.1919623339782,516.1919623339782,516.117771791624,516.1919623339782,516.1919623339782,516.1919623339782,518.3020415419596,522.3077192089986,516.1919623339782,516.1919623339782,521.3507667919621,516.1919623339782,516.1919623339782,516.1919623339782,516.1919623339782,516.6620982089662,517.6939411669737,516.6316805416175,,518.3020415419596,519.3345771249733,518.2718340006579,,516.1919623339782,521.3507667919621,516.1919623339782,521.3507667919621,521.3923643750022,522.0524965839577,516.1919623339782,2,1,2.1534066659514792,reldom2_s026,001,2025-03-06_16h08.46.806,Aud-A-Scan_AC,2022.2.5,None,
44,First_Order,8.0,audwhat,stimulus/audwhat_stim/dummy.wav,stimulus/audwhat_stim/dummy.wav,stimulus/audwhat_stim/percussion mallet_low-pitch_Dtri_loud.wav,stimulus/audwhat_stim/percussion xylophone_high-pitch_F_loud.wav,stimulus/audwhat_stim/blank_white.png,stimulus/audwhat_stim/category_box.png,stimulus/audwhat_stim/category_yes.png,stimulus/audwhat_stim/category_no.png,None,Category,None,Category,1,0.0,0,5.125,0,5.125,0,5.125,0,0.0,0.625,0,0,0,0,0,0,0,0,0,0.0,0,0.0,1,0.5,1,2.125,0,,,,,0,58,58,58,,,,,,,,,522.3077192089986,522.3077192089986,522.3077192089986,522.3077192089986,522.3077192089986,522.3077192089986,522.3077192089986,522.3077192089986,522.2268455003233,522.3077192089986,522.3077192089986,522.3077192089986,522.2268455003233,522.3077192089986,522.3077192089986,522.3077192089986,524.4134262919542,,522.3077192089986,522.3077192089986,527.4597433749586,522.3077192089986,522.3077192089986,522.3077192089986,522.3077192089986,522.7759892089525,523.8056367089739,522.7458177086703,,524.4134262919542,525.4468087499845,524.3830847916581,525.4468087499845,522.3077192089986,527.4597433749586,522.3077192089986,527.4597433749586,527.5016280839918,528.1601398749626,522.3077192089986,1,1,0.5598796240519732,reldom2_s026,001,2025-03-06_16h08.46.806,Aud-A-Scan_AC,2022.2.5,None,
45,First_Order,8.0,audwhat,stimulus/audwhat_stim/dummy.wav,stimulus/audwhat_stim/dummy.wav,stimulus/audwhat_stim/string cello_high-pitch_Dtri_loud.wav,stimulus/audwhat_stim/percussion xylophone_high-pitch_Dtri_loud.wav,stimulus/audwhat_stim/blank_white.png,stimulus/audwhat_stim/category_box.png,stimulus/audwhat_stim/category_yes.png,stimulus/audwhat_stim/category_no.png,None,Category,None,Pitch,2,0.0,0,5.125,0,5.125,0,5.125,0,0.0,0.625,0,0,0,0,0,0,0,0,0,0.0,0,0.0,1,0.5,1,2.125,0,,,,,0,59,59,59,,,,,,,,,528.4159691669629,528.4159691669629,528.4159691669629,528.4159691669629,528.4159691669629,528.4159691669629,528.4159691669629,528.4159691669629,528.3345721253155,528.4159691669629,528.4159691669629,528.4159691669629,528.3345721253155,528.4159691669629,528.4159691669629,528.4159691669629,530.5248508339864,534.5285894169938,528.4159691669629,528.4159691669629,533.5733367089997,528.4159691669629,528.4159691669629,528.4159691669629,528.4159691669629,528.8847997499979,529.9167316669482,528.8543972916707,,530.5248508339864,531.5592525419779,530.4947086256618,531.5592525419779,528.4159691669629,533.5733367089997,528.4159691669629,533.5733367089997,533.614746541949,534.2740310420049,528.4159691669629,2,1,1.133181000011973,reldom2_s026,001,2025-03-06_16h08.46.806,Aud-A-Scan_AC,2022.2.5,None,
46,First_Order,8.0,audwhat,stimulus/audwhat_stim/dummy.wav,stimulus/audwhat_stim/dummy.wav,stimulus/audwhat_stim/percussion mallet_low-pitch_Ftri_loud.wav,stimulus/audwhat_stim/percussion mallet_high-pitch_F_loud.wav,stimulus/audwhat_stim/blank_white.png,stimulus/audwhat_stim/category_box.png,stimulus/audwhat_stim/category_yes.png,stimulus/audwhat_stim/category_no.png,None,Category,None,Category,1,0.0,0,5.125,0,5.125,0,5.125,0,0.0,0.625,0,0,0,0,0,0,0,0,0,0.0,0,0.0,1,0.5,1,2.125,0,,,,,0,60,60,60,,,,,,,,,534.5285894169938,534.5285894169938,534.5285894169938,534.5285894169938,534.5285894169938,534.5285894169938,534.5285894169938,534.5285894169938,534.4482342083085,534.5285894169938,534.5285894169938,534.5285894169938,534.4482342083085,534.5285894169938,534.5285894169938,534.5285894169938,536.6381802499527,540.6656164589804,534.5285894169938,534.5285894169938,539.6864035420003,534.5285894169938,534.5285894169938,534.5285894169938,534.5285894169938,534.997629999998,536.0292578749941,534.9672135006442,,536.6381802499527,537.672713042004,536.607637750629,,534.5285894169938,539.6864035420003,534.5285894169938,539.6864035420003,539.7284448339487,540.3903792919591,534.5285894169938,1,1,0.8924845409928821,reldom2_s026,001,2025-03-06_16h08.46.806,Aud-A-Scan_AC,2022.2.5,None,
0,0.0,None,fixation,stimulus/audwhere_stim/blank_white.png,stimulus/audwhere_stim/blank_white.png,stimulus/audwhat_stim/blank_white.png,stimulus/audwhat_stim/blank_white.png,stimulus/audwhere_stim/blank_white.png,stimulus/audwhere_stim/blank_white.png,stimulus/audwhere_stim/blank_white.png,stimulus/audwhere_stim/blank_white.png,0.0,0.0,0.0,0.0,0,0.0,0,0.0,0,0.0,0,0.0,0,0.0,0.0,0,0,0,0,0,0,0,0,0,0.0,0,0.0,0,0.0,0,0.0,8,,,,,0,61,61,61,,,,,,,,,540.6656164589804,540.6656164589804,540.6656164589804,540.6656164589804,540.6656164589804,540.6656164589804,540.6656164589804,540.6656164589804,540.5645789582942,540.6656164589804,540.6656164589804,540.6656164589804,540.5645789582942,540.6656164589804,540.6656164589804,540.6656164589804,540.6656164589804,540.6656164589804,540.6656164589804,540.6656164589804,540.6656164589804,540.6656164589804,540.6656164589804,540.6656164589804,540.6656164589804,540.6656164589804,540.6656164589804,540.6145789582941,540.6656164589804,540.6656164589804,540.6656164589804,540.6145789582941,540.6656164589804,540.6656164589804,540.6656164589804,540.6656164589804,540.6656164589804,545.8892152920016,545.8892152920016,548.8302174169803,None,0,,reldom2_s026,001,2025-03-06_16h08.46.806,Aud-A-Scan_AC,2022.2.5,None,
47,Second_Order,8.0,audwhat,stimulus/audwhat_stim/string cello_high-pitch_F_loud.wav,stimulus/audwhat_stim/string viola_low-pitch_D_loud.wav,stimulus/audwhat_stim/percussion mallet_low-pitch_Ftri_loud.wav,stimulus/audwhat_stim/percussion xylophone_high-pitch_F_loud.wav,stimulus/audwhere_stim/match_blank.png,stimulus/audwhat_stim/match_box.png,stimulus/audwhere_stim/match_yes.png,stimulus/audwhere_stim/match_no.png,1.0,Match,Category,Category,1,5.125,0,5.125,0,5.125,0,5.125,0,0.75,0.75,0,0,0,0,0,0,0,0,1,0.5,1,2.125,1,0.5,1,2.125,0,,,,,0,62,62,62,,,,,,,,,548.8302174169803,553.9439434999949,548.8302174169803,548.8302174169803,548.8302174169803,548.8302174169803,549.2809066670015,550.2682567919837,549.2950028336529,,550.9033386670053,551.9014993339661,550.9158796666345,,553.9439434999949,554.795597999997,556.8481445839861,560.7907429999905,554.795597999997,554.795597999997,559.976167374989,554.795597999997,554.795597999997,554.795597999997,554.795597999997,555.2154704169952,556.2889039999573,555.1855205416252,,556.8481445839861,557.8786627089721,556.8179588336536,557.8786627089721,554.795597999997,559.976167374989,554.795597999997,559.976167374989,559.976167374989,,554.795597999997,1,1,0.9654655000194907,reldom2_s026,001,2025-03-06_16h08.46.806,Aud-A-Scan_AC,2022.2.5,None,
48,Second_Order,8.0,audwhat,stimulus/audwhat_stim/percussion mallet_high-pitch_Ftri_loud.wav,stimulus/audwhat_stim/percussion mallet_low-pitch_D_loud.wav,stimulus/audwhat_stim/string cello_high-pitch_Ftri_loud.wav,stimulus/audwhat_stim/percussion xylophone_high-pitch_Ftri_loud.wav,stimulus/audwhere_stim/match_blank.png,stimulus/audwhat_stim/match_box.png,stimulus/audwhere_stim/match_yes.png,stimulus/audwhere_stim/match_no.png,2.0,Match,Category,Pitch,2,5.125,0,5.125,0,5.125,0,5.125,0,0.625,0.625,0,0,0,0,0,0,0,0,1,0.5,1,2.125,1,0.5,1,2.125,0,,,,,0,63,63,63,,,,,,,,,560.7907429999905,565.9057239589747,560.7907429999905,560.7907429999905,560.7907429999905,560.7907429999905,561.2419063340058,562.2297465839656,561.2559390416175,,562.8643301669508,563.8625648749876,562.8771804166647,563.8665336669656,565.9057239589747,566.636420041963,568.6862861669506,572.7364469169988,566.636420041963,566.636420041963,571.8063729999703,566.636420041963,566.636420041963,566.636420041963,566.636420041963,567.0544512500055,568.127049667004,567.0243290416586,,568.6862861669506,569.7620287919999,568.6560425006357,569.7149992919876,566.636420041963,571.8063729999703,566.636420041963,571.8063729999703,571.8063729999703,572.4615275840042,566.636420041963,2,1,0.6798170409747399,reldom2_s026,001,2025-03-06_16h08.46.806,Aud-A-Scan_AC,2022.2.5,None,
0,0.0,None,fixation,stimulus/audwhere_stim/blank_white.png,stimulus/audwhere_stim/blank_white.png,stimulus/audwhat_stim/blank_white.png,stimulus/audwhat_stim/blank_white.png,stimulus/audwhere_stim/blank_white.png,stimulus/audwhere_stim/blank_white.png,stimulus/audwhere_stim/blank_white.png,stimulus/audwhere_stim/blank_white.png,0.0,0.0,0.0,0.0,0,0.0,0,0.0,0,0.0,0,0.0,0,0.0,0.0,0,0,0,0,0,0,0,0,0,0.0,0,0.0,0,0.0,0,0.0,16,,,,,0,64,64,64,,,,,,,,,572.7364469169988,572.7364469169988,572.7364469169988,572.7364469169988,572.7364469169988,572.7364469169988,572.7364469169988,572.7364469169988,572.635837208336,572.7364469169988,572.7364469169988,572.7364469169988,572.635837208336,572.7364469169988,572.7364469169988,572.7364469169988,572.7364469169988,572.7364469169988,572.7364469169988,572.7364469169988,572.7364469169988,572.7364469169988,572.7364469169988,572.7364469169988,572.7364469169988,572.7364469169988,572.7364469169988,572.685837208336,572.7364469169988,572.7364469169988,572.7364469169988,572.685837208336,572.7364469169988,572.7364469169988,572.7364469169988,572.7364469169988,572.7364469169988,577.9379027090035,577.9379027090035,588.8726071249694,None,0,,reldom2_s026,001,2025-03-06_16h08.46.806,Aud-A-Scan_AC,2022.2.5,None,
