Trial,Order,Block,Type,Stimuli_File1,Stimuli_File2,Stimuli_File3,Stimuli_File4,Cue_File1,Cue_File2,Response_File_Yes,Response_File_No,Match,Cue_Dimension,Pair1_Dimension,Pair2_Dimension,Key,Cue1_Duration,Cue1_Onset,Cue2_Duration,Cue2_Onset,ResponseYes_Duration,ResponseYes_Onset,ResponseNo_Duration,ResponseNo_Onset,ITI_Within,ITI_Between,Image1_Duration,Image1_Onset,Image2_Duration,Image2_Onset,Image3_Duration,Image3_Onset,Image4_Duration,Image4_Onset,Sound1_Duration,Sound1_Onset,Sound2_Duration,Sound2_Onset,Sound3_Duration,Sound3_Onset,Sound4_Duration,Sound4_Onset,Fixation_Duration,trials_2.thisRepN,trials_2.thisTrialN,trials_2.thisN,trials_2.thisIndex,trials.thisRepN,trials.thisTrialN,trials.thisN,trials.thisIndex,text_start.started,key_resp_start.started,key_resp_start.keys,key_resp_start.rt,text2.started,key_resp_2.started,key_resp_2.keys,key_resp_2.rt,cue_file1.started,cue_file1.stopped,image_1.started,image_1.stopped,image_2.started,image_2.stopped,sound_icon1.started,sound_icon1.stopped,sound_1.started,sound_1.stopped,sound_icon2.started,sound_icon2.stopped,sound_2.started,sound_2.stopped,image_blank_1.started,image_blank_1.stopped,key_press.started,key_press.stopped,fixation_text.started,cue_file2.started,cue_file2.stopped,image_3.started,image_3.stopped,image_4.started,image_4.stopped,sound_icon3.started,sound_icon3.stopped,sound_3.started,sound_3.stopped,sound_icon4.started,sound_icon4.stopped,sound_4.started,sound_4.stopped,response_yes.started,response_yes.stopped,response_no.started,response_no.stopped,iti_blank.started,iti_blank.stopped,fixation_text.stopped,key_press.keys,key_press.corr,key_press.rt,participant,session,date,expName,psychopyVersion,frameRate,
,,,,,,,,,,,,,,,,,,,,,,,,,,,,,,,,,,,,,,,,,,,,,,,,,,,,8.781481749960221,8.781481749960221,2,1.1269235830404796,,,,,,,,,,,,,,,,,,,,,,,,,,,,,,,,,,,,,,,,,,,,,,,,reldom2_s025,001,2025-03-07_09h59.45.764,Aud-B-Scan_AC,2022.2.5,None,
,,,,,,,,,,,,,,,,,,,,,,,,,,,,,,,,,,,,,,,,,,,,0,0,0,0,,,,,,,,,9.944670624972787,9.944670624972787,5,18.388665248989128,,,,,,,,,,,,,,,,,,,,,,,,,,,,,,,,,,,,,,,,,,,,reldom2_s025,001,2025-03-07_09h59.45.764,Aud-B-Scan_AC,2022.2.5,None,
,,,,,,,,,,,,,,,,,,,,,,,,,,,,,,,,,,,,,,,,,,,,1,0,1,0,,,,,,,,,28.347311833989806,28.347311833989806,5,1.9869579160586,,,,,,,,,,,,,,,,,,,,,,,,,,,,,,,,,,,,,,,,,,,,reldom2_s025,001,2025-03-07_09h59.45.764,Aud-B-Scan_AC,2022.2.5,None,
,,,,,,,,,,,,,,,,,,,,,,,,,,,,,,,,,,,,,,,,,,,,2,0,2,0,,,,,,,,,30.342064124997705,30.342064124997705,5,1.991322957968805,,,,,,,,,,,,,,,,,,,,,,,,,,,,,,,,,,,,,,,,,,,,reldom2_s025,001,2025-03-07_09h59.45.764,Aud-B-Scan_AC,2022.2.5,None,
,,,,,,,,,,,,,,,,,,,,,,,,,,,,,,,,,,,,,,,,,,,,3,0,3,0,,,,,,,,,32.34935187496012,32.34935187496012,5,1.984467457048595,,,,,,,,,,,,,,,,,,,,,,,,,,,,,,,,,,,,,,,,,,,,reldom2_s025,001,2025-03-07_09h59.45.764,Aud-B-Scan_AC,2022.2.5,None,
0,0.0,None,fixation,stimulus/audwhat_stim/blank_white.png,stimulus/audwhat_stim/blank_white.png,stimulus/audwhere_stim/blank_white.png,stimulus/audwhere_stim/blank_white.png,stimulus/audwhat_stim/blank_white.png,stimulus/audwhat_stim/blank_white.png,stimulus/audwhat_stim/blank_white.png,stimulus/audwhat_stim/blank_white.png,0.0,0.0,0.0,0.0,0,0.0,0,0.0,0,0.0,0,0.0,0,0.0,0.0,0,0,0,0,0,0,0,0,0,0.0,0,0.0,0,0.0,0,0.0,16,,,,,0,0,0,0,,,,,,,,,34.54441379196942,34.54441379196942,34.54441379196942,34.54441379196942,34.54441379196942,34.54441379196942,34.54441379196942,34.54441379196942,34.44474554198096,34.54441379196942,34.54441379196942,34.54441379196942,34.44474554198096,34.54441379196942,34.54441379196942,34.54441379196942,34.54441379196942,34.54441379196942,34.54441379196942,34.54441379196942,34.54441379196942,34.54441379196942,34.54441379196942,34.54441379196942,34.54441379196942,34.54441379196942,34.54441379196942,34.51141220864762,34.54441379196942,34.54441379196942,34.54441379196942,34.51141220864762,34.54441379196942,34.54441379196942,34.54441379196942,34.54441379196942,34.54441379196942,39.725851083989255,39.725851083989255,50.78241129196249,None,0,,reldom2_s025,001,2025-03-07_09h59.45.764,Aud-B-Scan_AC,2022.2.5,None,
1,First_Order,1.0,audwhat,stimulus/audwhat_stim/dummy.wav,stimulus/audwhat_stim/dummy.wav,stimulus/audwhat_stim/string viola_low-pitch_F_loud.wav,stimulus/audwhat_stim/string cello_high-pitch_Dtri_loud.wav,stimulus/audwhat_stim/blank_white.png,stimulus/audwhat_stim/pitch_box.png,stimulus/audwhat_stim/pitch_yes.png,stimulus/audwhat_stim/pitch_no.png,None,Pitch,None,Category,2,0.0,0,5.125,0,5.125,0,5.125,0,0.0,0.625,0,0,0,0,0,0,0,0,0,0.0,0,0.0,1,0.5,1,2.125,0,,,,,0,1,1,1,,,,,,,,,50.78241129196249,50.78241129196249,50.78241129196249,50.78241129196249,50.78241129196249,50.78241129196249,50.78241129196249,50.78241129196249,50.71232425000053,50.78241129196249,50.78241129196249,50.78241129196249,50.71232425000053,50.78241129196249,50.78241129196249,50.78241129196249,52.88920674996916,56.90226191695547,50.78241129196249,50.78241129196249,55.942872749990784,50.78241129196249,50.78241129196249,50.78241129196249,50.78241129196249,51.23177183396183,52.260879584006034,51.203423916657144,,52.88920674996916,53.92098845896544,52.86077945866079,,50.78241129196249,55.942872749990784,50.78241129196249,55.942872749990784,55.98273020895431,56.6560001669568,50.78241129196249,2,1,1.141696333012078,reldom2_s025,001,2025-03-07_09h59.45.764,Aud-B-Scan_AC,2022.2.5,None,
2,First_Order,1.0,audwhat,stimulus/audwhat_stim/dummy.wav,stimulus/audwhat_stim/dummy.wav,stimulus/audwhat_stim/percussion xylophone_high-pitch_Ftri_loud.wav,stimulus/audwhat_stim/string viola_high-pitch_Ftri_loud.wav,stimulus/audwhat_stim/blank_white.png,stimulus/audwhat_stim/pitch_box.png,stimulus/audwhat_stim/pitch_yes.png,stimulus/audwhat_stim/pitch_no.png,None,Pitch,None,Pitch,1,0.0,0,5.125,0,5.125,0,5.125,0,0.0,0.625,0,0,0,0,0,0,0,0,0,0.0,0,0.0,1,0.5,1,2.125,0,,,,,0,2,2,2,,,,,,,,,56.90226191695547,56.90226191695547,56.90226191695547,56.90226191695547,56.90226191695547,56.90226191695547,56.90226191695547,56.90226191695547,56.8288174583305,56.90226191695547,56.90226191695547,56.90226191695547,56.8288174583305,56.90226191695547,56.90226191695547,56.90226191695547,59.01314316695789,63.01252329198178,56.90226191695547,56.90226191695547,62.08490499999607,56.90226191695547,56.90226191695547,56.90226191695547,56.90226191695547,57.38936674996512,58.4266782089835,57.3605637916519,58.4266782089835,59.01314316695789,60.0523744589882,58.98436758364939,,56.90226191695547,62.08490499999607,56.90226191695547,62.08490499999607,62.125033083953895,62.80428374995245,56.90226191695547,1,1,1.2766667490359396,reldom2_s025,001,2025-03-07_09h59.45.764,Aud-B-Scan_AC,2022.2.5,None,
3,First_Order,1.0,audwhat,stimulus/audwhat_stim/dummy.wav,stimulus/audwhat_stim/dummy.wav,stimulus/audwhat_stim/string viola_low-pitch_Dtri_loud.wav,stimulus/audwhat_stim/percussion mallet_low-pitch_Dtri_loud.wav,stimulus/audwhat_stim/blank_white.png,stimulus/audwhat_stim/category_box.png,stimulus/audwhat_stim/category_yes.png,stimulus/audwhat_stim/category_no.png,None,Category,None,Pitch,2,0.0,0,5.125,0,5.125,0,5.125,0,0.0,0.625,0,0,0,0,0,0,0,0,0,0.0,0,0.0,1,0.5,1,2.125,0,,,,,0,3,3,3,,,,,,,,,63.01252329198178,63.01252329198178,63.01252329198178,63.01252329198178,63.01252329198178,63.01252329198178,63.01252329198178,63.01252329198178,62.93761708328578,63.01252329198178,63.01252329198178,63.01252329198178,62.93761708328578,63.01252329198178,63.01252329198178,63.01252329198178,65.10632399999304,69.1315711250063,63.01252329198178,63.01252329198178,68.1988896249677,63.01252329198178,63.01252329198178,63.01252329198178,63.01252329198178,63.467949499958195,64.51533954200568,63.43809083366456,,65.10632399999304,66.15520904195728,65.07739583362515,,63.01252329198178,68.1988896249677,63.01252329198178,68.1988896249677,68.23918824997963,68.92048024997348,63.01252329198178,2,1,0.9926079580327496,reldom2_s025,001,2025-03-07_09h59.45.764,Aud-B-Scan_AC,2022.2.5,None,
4,First_Order,1.0,audwhat,stimulus/audwhat_stim/dummy.wav,stimulus/audwhat_stim/dummy.wav,stimulus/audwhat_stim/percussion mallet_low-pitch_D_loud.wav,stimulus/audwhat_stim/percussion xylophone_high-pitch_Dtri_loud.wav,stimulus/audwhat_stim/blank_white.png,stimulus/audwhat_stim/pitch_box.png,stimulus/audwhat_stim/pitch_yes.png,stimulus/audwhat_stim/pitch_no.png,None,Pitch,None,Category,2,0.0,0,5.125,0,5.125,0,5.125,0,0.0,0.625,0,0,0,0,0,0,0,0,0,0.0,0,0.0,1,0.5,1,2.125,0,,,,,0,4,4,4,,,,,,,,,69.1315711250063,69.1315711250063,69.1315711250063,69.1315711250063,69.1315711250063,69.1315711250063,69.1315711250063,69.1315711250063,69.0538135833068,69.1315711250063,69.1315711250063,69.1315711250063,69.0538135833068,69.1315711250063,69.1315711250063,69.1315711250063,71.22276425000746,75.27251816698117,69.1315711250063,69.1315711250063,74.32105495897122,69.1315711250063,69.1315711250063,69.1315711250063,69.1315711250063,69.58744429197395,70.63403954199748,69.55832779163417,,71.22276425000746,72.27073691698024,71.19409404165732,72.22557745897211,69.1315711250063,74.32105495897122,69.1315711250063,74.32105495897122,74.32105495897122,75.00493583397474,69.1315711250063,2,1,1.2881444160011597,reldom2_s025,001,2025-03-07_09h59.45.764,Aud-B-Scan_AC,2022.2.5,None,
0,0.0,None,fixation,stimulus/audwhat_stim/blank_white.png,stimulus/audwhat_stim/blank_white.png,stimulus/audwhere_stim/blank_white.png,stimulus/audwhere_stim/blank_white.png,stimulus/audwhat_stim/blank_white.png,stimulus/audwhat_stim/blank_white.png,stimulus/audwhat_stim/blank_white.png,stimulus/audwhat_stim/blank_white.png,0.0,0.0,0.0,0.0,0,0.0,0,0.0,0,0.0,0,0.0,0,0.0,0.0,0,0,0,0,0,0,0,0,0,0.0,0,0.0,0,0.0,0,0.0,8,,,,,0,5,5,5,,,,,,,,,75.27251816698117,75.27251816698117,75.27251816698117,75.27251816698117,75.27251816698117,75.27251816698117,75.27251816698117,75.27251816698117,75.17808329229786,75.27251816698117,75.27251816698117,75.27251816698117,75.17808329229786,75.27251816698117,75.27251816698117,75.27251816698117,75.27251816698117,75.27251816698117,75.27251816698117,75.27251816698117,75.27251816698117,75.27251816698117,75.27251816698117,75.27251816698117,75.27251816698117,75.27251816698117,75.27251816698117,75.22808329229787,75.27251816698117,75.27251816698117,75.27251816698117,75.22808329229787,75.27251816698117,75.27251816698117,75.27251816698117,75.27251816698117,75.27251816698117,80.46608454198577,80.46608454198577,83.44927395897685,None,0,,reldom2_s025,001,2025-03-07_09h59.45.764,Aud-B-Scan_AC,2022.2.5,None,
5,Second_Order,1.0,audwhat,stimulus/audwhat_stim/percussion mallet_high-pitch_Dtri_loud.wav,stimulus/audwhat_stim/string cello_high-pitch_Dtri_loud.wav,stimulus/audwhat_stim/string viola_low-pitch_F_loud.wav,stimulus/audwhat_stim/percussion mallet_low-pitch_F_loud.wav,stimulus/audwhat_stim/match_blank.png,stimulus/audwhat_stim/match_box.png,stimulus/audwhat_stim/match_yes.png,stimulus/audwhat_stim/match_no.png,1.0,Match,Pitch,Pitch,1,5.125,0,5.125,0,5.125,0,5.125,0,0.75,0.75,0,0,0,0,0,0,0,0,1,0.5,1,2.125,1,0.5,1,2.125,0,,,,,0,6,6,6,,,,,,,,,83.44927395897685,88.56975229200907,83.44927395897685,83.44927395897685,83.44927395897685,83.44927395897685,83.89407966699218,84.89477154199267,83.90835562564122,,85.53004774998408,86.51883520896081,85.53402716666848,,88.56975229200907,89.42436879198067,91.5040769589832,,89.42436879198067,89.42436879198067,94.60415041696979,89.42436879198067,89.42436879198067,89.42436879198067,89.42436879198067,89.8749924589647,90.91627141699428,89.84617641667525,,91.5040769589832,92.55607604200486,91.47506283363715,,89.42436879198067,94.60415041696979,89.42436879198067,94.60415041696979,94.60415041696979,,89.42436879198067,1,1,0.8664533739793114,reldom2_s025,001,2025-03-07_09h59.45.764,Aud-B-Scan_AC,2022.2.5,None,
6,Second_Order,1.0,audwhat,stimulus/audwhat_stim/percussion mallet_low-pitch_F_loud.wav,stimulus/audwhat_stim/percussion mallet_high-pitch_Dtri_loud.wav,stimulus/audwhat_stim/string viola_low-pitch_Ftri_loud.wav,stimulus/audwhat_stim/percussion mallet_low-pitch_Ftri_loud.wav,stimulus/audwhat_stim/match_blank.png,stimulus/audwhat_stim/match_box.png,stimulus/audwhat_stim/match_yes.png,stimulus/audwhat_stim/match_no.png,2.0,Match,Category,Pitch,2,5.125,0,5.125,0,5.125,0,5.125,0,0.625,0.625,0,0,0,0,0,0,0,0,1,0.5,1,2.125,1,0.5,1,2.125,0,,,,,0,7,7,7,,,,,,,,,95.3991197089781,100.51958479196765,95.3991197089781,95.3991197089781,95.3991197089781,95.3991197089781,95.85565154196229,96.84326104196953,95.86956720863624,,97.47863183397567,98.47570504195755,97.49045812565988,,100.51958479196765,101.25183754198952,103.32372145896079,107.34866512496956,101.25183754198952,101.25183754198952,106.40494270896306,101.25183754198952,101.25183754198952,101.25183754198952,101.25183754198952,101.70118574996013,102.73797716695117,101.67273125064482,,103.32372145896079,104.36787162499968,103.29485145863534,,101.25183754198952,106.40494270896306,101.25183754198952,106.40494270896306,106.44461174996104,107.120490124973,101.25183754198952,2,1,0.5751724159927107,reldom2_s025,001,2025-03-07_09h59.45.764,Aud-B-Scan_AC,2022.2.5,None,
0,0.0,None,fixation,stimulus/audwhat_stim/blank_white.png,stimulus/audwhat_stim/blank_white.png,stimulus/audwhere_stim/blank_white.png,stimulus/audwhere_stim/blank_white.png,stimulus/audwhat_stim/blank_white.png,stimulus/audwhat_stim/blank_white.png,stimulus/audwhat_stim/blank_white.png,stimulus/audwhat_stim/blank_white.png,0.0,0.0,0.0,0.0,0,0.0,0,0.0,0,0.0,0,0.0,0,0.0,0.0,0,0,0,0,0,0,0,0,0,0.0,0,0.0,0,0.0,0,0.0,10,,,,,0,8,8,8,,,,,,,,,107.34866512496956,107.34866512496956,107.34866512496956,107.34866512496956,107.34866512496956,107.34866512496956,107.34866512496956,107.34866512496956,107.25382345830633,107.34866512496956,107.34866512496956,107.34866512496956,107.25382345830633,107.34866512496956,107.34866512496956,107.34866512496956,107.34866512496956,107.34866512496956,107.34866512496956,107.34866512496956,107.34866512496956,107.34866512496956,107.34866512496956,107.34866512496956,107.34866512496956,107.34866512496956,107.34866512496956,107.30382345830634,107.34866512496956,107.34866512496956,107.34866512496956,107.30382345830634,107.34866512496956,107.34866512496956,107.34866512496956,107.34866512496956,107.34866512496956,112.56221687496873,112.56221687496873,117.56873100000666,None,0,,reldom2_s025,001,2025-03-07_09h59.45.764,Aud-B-Scan_AC,2022.2.5,None,
7,First_Order,2.0,audwhat,stimulus/audwhat_stim/dummy.wav,stimulus/audwhat_stim/dummy.wav,stimulus/audwhat_stim/percussion xylophone_high-pitch_F_loud.wav,stimulus/audwhat_stim/percussion mallet_low-pitch_D_loud.wav,stimulus/audwhat_stim/blank_white.png,stimulus/audwhat_stim/category_box.png,stimulus/audwhat_stim/category_yes.png,stimulus/audwhat_stim/category_no.png,None,Category,None,Category,1,0.0,0,5.125,0,5.125,0,5.125,0,0.0,0.625,0,0,0,0,0,0,0,0,0,0.0,0,0.0,1,0.5,1,2.125,0,,,,,0,9,9,9,,,,,,,,,117.56873100000666,117.56873100000666,117.56873100000666,117.56873100000666,117.56873100000666,117.56873100000666,117.56873100000666,117.56873100000666,117.49966950066543,117.56873100000666,117.56873100000666,117.56873100000666,117.49966950066543,117.56873100000666,117.56873100000666,117.56873100000666,119.63768366695149,123.69700562499929,117.56873100000666,117.56873100000666,122.71702404198004,117.56873100000666,117.56873100000666,117.56873100000666,117.56873100000666,118.02685766696231,119.08506187499734,117.9978118756592,119.03932787495432,119.63768366695149,120.69433341699187,119.60810070863614,,117.56873100000666,122.71702404198004,117.56873100000666,122.71702404198004,122.75804024998797,123.44455108395778,117.56873100000666,2,0,1.0811330410069786,reldom2_s025,001,2025-03-07_09h59.45.764,Aud-B-Scan_AC,2022.2.5,None,
8,First_Order,2.0,audwhat,stimulus/audwhat_stim/dummy.wav,stimulus/audwhat_stim/dummy.wav,stimulus/audwhat_stim/percussion mallet_low-pitch_D_loud.wav,stimulus/audwhat_stim/string viola_low-pitch_D_loud.wav,stimulus/audwhat_stim/blank_white.png,stimulus/audwhat_stim/pitch_box.png,stimulus/audwhat_stim/pitch_yes.png,stimulus/audwhat_stim/pitch_no.png,None,Pitch,None,Pitch,1,0.0,0,5.125,0,5.125,0,5.125,0,0.0,0.625,0,0,0,0,0,0,0,0,0,0.0,0,0.0,1,0.5,1,2.125,0,,,,,0,10,10,10,,,,,,,,,123.69700562499929,123.69700562499929,123.69700562499929,123.69700562499929,123.69700562499929,123.69700562499929,123.69700562499929,123.69700562499929,123.61833950030461,123.69700562499929,123.69700562499929,123.69700562499929,123.61833950030461,123.69700562499929,123.69700562499929,123.69700562499929,125.81056195899146,,123.69700562499929,123.69700562499929,128.88978762499755,123.69700562499929,123.69700562499929,123.69700562499929,123.69700562499929,124.15761341695907,125.21418908395572,124.12824408366966,,125.81056195899146,126.8668394999695,125.78094212565726,,123.69700562499929,128.88978762499755,123.69700562499929,128.88978762499755,128.88978762499755,129.57490862498526,123.69700562499929,1,1,2.3796328739845194,reldom2_s025,001,2025-03-07_09h59.45.764,Aud-B-Scan_AC,2022.2.5,None,
9,First_Order,2.0,audwhat,stimulus/audwhat_stim/dummy.wav,stimulus/audwhat_stim/dummy.wav,stimulus/audwhat_stim/percussion mallet_low-pitch_D_loud.wav,stimulus/audwhat_stim/percussion mallet_high-pitch_Ftri_loud.wav,stimulus/audwhat_stim/blank_white.png,stimulus/audwhat_stim/category_box.png,stimulus/audwhat_stim/category_yes.png,stimulus/audwhat_stim/category_no.png,None,Category,None,Category,1,0.0,0,5.125,0,5.125,0,5.125,0,0.0,0.625,0,0,0,0,0,0,0,0,0,0.0,0,0.0,1,0.5,1,2.125,0,,,,,0,11,11,11,,,,,,,,,129.78701108397217,129.78701108397217,129.78701108397217,129.78701108397217,129.78701108397217,129.78701108397217,129.78701108397217,129.78701108397217,129.7082419583186,129.78701108397217,129.78701108397217,129.78701108397217,129.7082419583186,129.78701108397217,129.78701108397217,129.78701108397217,131.86990499997046,,129.78701108397217,129.78701108397217,134.97337216697633,129.78701108397217,129.78701108397217,129.78701108397217,129.78701108397217,130.25103570899228,131.31736954196822,130.22122520866495,,131.86990499997046,132.9384724999545,131.8403729586319,,129.78701108397217,134.97337216697633,129.78701108397217,134.97337216697633,135.01443641696824,135.66381895897212,129.78701108397217,1,1,0.8001498749945313,reldom2_s025,001,2025-03-07_09h59.45.764,Aud-B-Scan_AC,2022.2.5,None,
10,First_Order,2.0,audwhat,stimulus/audwhat_stim/dummy.wav,stimulus/audwhat_stim/dummy.wav,stimulus/audwhat_stim/string cello_high-pitch_F_loud.wav,stimulus/audwhat_stim/percussion mallet_high-pitch_F_loud.wav,stimulus/audwhat_stim/blank_white.png,stimulus/audwhat_stim/category_box.png,stimulus/audwhat_stim/category_yes.png,stimulus/audwhat_stim/category_no.png,None,Category,None,Pitch,2,0.0,0,5.125,0,5.125,0,5.125,0,0.0,0.625,0,0,0,0,0,0,0,0,0,0.0,0,0.0,1,0.5,1,2.125,0,,,,,0,12,12,12,,,,,,,,,135.8774863749859,135.8774863749859,135.8774863749859,135.8774863749859,135.8774863749859,135.8774863749859,135.8774863749859,135.8774863749859,135.79715229230547,135.8774863749859,135.8774863749859,135.8774863749859,135.79715229230547,135.8774863749859,135.8774863749859,135.8774863749859,137.95884445897536,,135.8774863749859,135.8774863749859,141.06390516698593,135.8774863749859,135.8774863749859,135.8774863749859,135.8774863749859,136.3388755839551,137.40286616695812,136.3081964586202,,137.95884445897536,139.02484274999006,137.9287204586474,,135.8774863749859,141.06390516698593,135.8774863749859,141.06390516698593,141.1046302919858,141.75646408397006,135.8774863749859,2,1,1.6809551250189543,reldom2_s025,001,2025-03-07_09h59.45.764,Aud-B-Scan_AC,2022.2.5,None,
0,0.0,None,fixation,stimulus/audwhat_stim/blank_white.png,stimulus/audwhat_stim/blank_white.png,stimulus/audwhere_stim/blank_white.png,stimulus/audwhere_stim/blank_white.png,stimulus/audwhat_stim/blank_white.png,stimulus/audwhat_stim/blank_white.png,stimulus/audwhat_stim/blank_white.png,stimulus/audwhat_stim/blank_white.png,0.0,0.0,0.0,0.0,0,0.0,0,0.0,0,0.0,0,0.0,0,0.0,0.0,0,0,0,0,0,0,0,0,0,0.0,0,0.0,0,0.0,0,0.0,8,,,,,0,13,13,13,,,,,,,,,141.98803687497275,141.98803687497275,141.98803687497275,141.98803687497275,141.98803687497275,141.98803687497275,141.98803687497275,141.98803687497275,141.8897974173034,141.98803687497275,141.98803687497275,141.98803687497275,141.8897974173034,141.98803687497275,141.98803687497275,141.98803687497275,141.98803687497275,141.98803687497275,141.98803687497275,141.98803687497275,141.98803687497275,141.98803687497275,141.98803687497275,141.98803687497275,141.98803687497275,141.98803687497275,141.98803687497275,141.9397974173034,141.98803687497275,141.98803687497275,141.98803687497275,141.9397974173034,141.98803687497275,141.98803687497275,141.98803687497275,141.98803687497275,141.98803687497275,147.21077124995645,147.21077124995645,150.1216739169904,None,0,,reldom2_s025,001,2025-03-07_09h59.45.764,Aud-B-Scan_AC,2022.2.5,None,
11,Second_Order,2.0,audwhat,stimulus/audwhat_stim/string viola_high-pitch_Dtri_loud.wav,stimulus/audwhat_stim/string cello_low-pitch_D_loud.wav,stimulus/audwhat_stim/percussion mallet_high-pitch_Dtri_loud.wav,stimulus/audwhat_stim/percussion mallet_low-pitch_Ftri_loud.wav,stimulus/audwhat_stim/match_blank.png,stimulus/audwhat_stim/match_box.png,stimulus/audwhat_stim/match_yes.png,stimulus/audwhat_stim/match_no.png,1.0,Match,Category,Category,1,5.125,0,5.125,0,5.125,0,5.125,0,0.75,0.75,0,0,0,0,0,0,0,0,1,0.5,1,2.125,1,0.5,1,2.125,0,,,,,0,14,14,14,,,,,,,,,150.1216739169904,155.24484399997164,150.1216739169904,150.1216739169904,150.1216739169904,150.1216739169904,150.57975658396026,151.56951424997533,150.58133995865163,,152.19999970897334,153.1895118340035,152.20469283365335,,155.24484399997164,156.09591258398723,158.1512994999648,,156.09591258398723,156.09591258398723,161.26915629196446,156.09591258398723,156.09591258398723,156.09591258398723,156.09591258398723,156.55189254198922,157.6029489589855,156.5227507916318,,158.1512994999648,159.20995208399836,158.12215645861968,,156.09591258398723,161.26915629196446,156.09591258398723,161.26915629196446,161.26915629196446,,156.09591258398723,1,1,0.5229322910308838,reldom2_s025,001,2025-03-07_09h59.45.764,Aud-B-Scan_AC,2022.2.5,None,
12,Second_Order,2.0,audwhat,stimulus/audwhat_stim/string viola_low-pitch_F_loud.wav,stimulus/audwhat_stim/string viola_high-pitch_Ftri_loud.wav,stimulus/audwhat_stim/percussion mallet_low-pitch_Ftri_loud.wav,stimulus/audwhat_stim/percussion xylophone_high-pitch_Dtri_loud.wav,stimulus/audwhat_stim/match_blank.png,stimulus/audwhat_stim/match_box.png,stimulus/audwhat_stim/match_yes.png,stimulus/audwhat_stim/match_no.png,1.0,Match,Category,Category,1,5.125,0,5.125,0,5.125,0,5.125,0,0.625,0.625,0,0,0,0,0,0,0,0,1,0.5,1,2.125,1,0.5,1,2.125,0,,,,,0,15,15,15,,,,,,,,,162.07045612495858,167.18952004198218,162.07045612495858,162.07045612495858,162.07045612495858,162.07045612495858,162.5260206249659,163.51356066699373,162.54020362563122,,164.14881179196527,165.1471515839803,164.16095158365013,,167.18952004198218,167.9203487089835,169.9601512089721,174.01761620899197,167.9203487089835,167.9203487089835,173.10494116699556,167.9203487089835,167.9203487089835,167.9203487089835,167.9203487089835,168.37202129198704,169.41359891695902,168.34175141662516,,169.9601512089721,171.00961583398748,169.9310530006226,170.96383316698484,167.9203487089835,173.10494116699556,167.9203487089835,173.10494116699556,173.10494116699556,173.78743525000755,167.9203487089835,1,1,0.9663955409778282,reldom2_s025,001,2025-03-07_09h59.45.764,Aud-B-Scan_AC,2022.2.5,None,
0,0.0,None,fixation,stimulus/audwhat_stim/blank_white.png,stimulus/audwhat_stim/blank_white.png,stimulus/audwhere_stim/blank_white.png,stimulus/audwhere_stim/blank_white.png,stimulus/audwhat_stim/blank_white.png,stimulus/audwhat_stim/blank_white.png,stimulus/audwhat_stim/blank_white.png,stimulus/audwhat_stim/blank_white.png,0.0,0.0,0.0,0.0,0,0.0,0,0.0,0,0.0,0,0.0,0,0.0,0.0,0,0,0,0,0,0,0,0,0,0.0,0,0.0,0,0.0,0,0.0,9,,,,,0,16,16,16,,,,,,,,,174.01761620899197,174.01761620899197,174.01761620899197,174.01761620899197,174.01761620899197,174.01761620899197,174.01761620899197,174.01761620899197,173.9207685833409,174.01761620899197,174.01761620899197,174.01761620899197,173.9207685833409,174.01761620899197,174.01761620899197,174.01761620899197,174.01761620899197,174.01761620899197,174.01761620899197,174.01761620899197,174.01761620899197,174.01761620899197,174.01761620899197,174.01761620899197,174.01761620899197,174.01761620899197,174.01761620899197,173.97076858334088,174.01761620899197,174.01761620899197,174.01761620899197,173.97076858334088,174.01761620899197,174.01761620899197,174.01761620899197,174.01761620899197,174.01761620899197,179.21047175000422,179.21047175000422,183.23903804196743,None,0,,reldom2_s025,001,2025-03-07_09h59.45.764,Aud-B-Scan_AC,2022.2.5,None,
13,First_Order,3.0,audwhere,stimulus/audwhere_stim/dummy.wav,stimulus/audwhere_stim/dummy.wav,stimulus/audwhere_stim/left_toward_290h.wav,stimulus/audwhere_stim/right_toward_280h.wav,stimulus/audwhere_stim/blank_white.png,stimulus/audwhere_stim/direction_box.png,stimulus/audwhere_stim/direction_yes.png,stimulus/audwhere_stim/direction_no.png,None,Direction,None,Direction,1,0.0,0,5.125,0,5.125,0,5.125,0,0.0,0.625,0,0,0,0,0,0,0,0,0,0.0,0,0.0,1,0.5,1,2.125,0,,,,,0,17,17,17,,,,,,,,,183.23903804196743,183.23903804196743,183.23903804196743,183.23903804196743,183.23903804196743,183.23903804196743,183.23903804196743,183.23903804196743,183.1698546256327,183.23903804196743,183.23903804196743,183.23903804196743,183.1698546256327,183.23903804196743,183.23903804196743,183.23903804196743,185.32054758397862,189.36406291695312,183.23903804196743,183.23903804196743,188.4194147089729,183.23903804196743,183.23903804196743,183.23903804196743,183.23903804196743,183.7025791250053,184.7670508339652,183.6726347086408,,185.32054758397862,186.3857857089606,185.29008166666998,,183.23903804196743,188.4194147089729,183.23903804196743,188.4194147089729,188.46055545896525,189.11187562497798,183.23903804196743,1,1,1.1239955829805695,reldom2_s025,001,2025-03-07_09h59.45.764,Aud-B-Scan_AC,2022.2.5,None,
14,First_Order,3.0,audwhere,stimulus/audwhere_stim/dummy.wav,stimulus/audwhere_stim/dummy.wav,stimulus/audwhere_stim/left_toward_270h.wav,stimulus/audwhere_stim/right_toward_290h.wav,stimulus/audwhere_stim/blank_white.png,stimulus/audwhere_stim/direction_box.png,stimulus/audwhere_stim/direction_yes.png,stimulus/audwhere_stim/direction_no.png,None,Direction,None,Direction,1,0.0,0,5.125,0,5.125,0,5.125,0,0.0,0.625,0,0,0,0,0,0,0,0,0,0.0,0,0.0,1,0.5,1,2.125,0,,,,,0,18,18,18,,,,,,,,,189.36406291695312,189.36406291695312,189.36406291695312,189.36406291695312,189.36406291695312,189.36406291695312,189.36406291695312,189.36406291695312,189.28595241732742,189.36406291695312,189.36406291695312,189.36406291695312,189.28595241732742,189.36406291695312,189.36406291695312,189.36406291695312,191.44539466698188,,189.36406291695312,189.36406291695312,194.55622666695854,189.36406291695312,189.36406291695312,189.36406291695312,189.36406291695312,189.82705895899562,190.8921077499981,189.79744950065313,,191.44539466698188,192.51604179199785,191.41604420863248,,189.36406291695312,194.55622666695854,189.36406291695312,194.55622666695854,194.55622666695854,195.20887095900252,189.36406291695312,1,1,0.7725397080066614,reldom2_s025,001,2025-03-07_09h59.45.764,Aud-B-Scan_AC,2022.2.5,None,
15,First_Order,3.0,audwhere,stimulus/audwhere_stim/dummy.wav,stimulus/audwhere_stim/dummy.wav,stimulus/audwhere_stim/left_away_290h.wav,stimulus/audwhere_stim/left_toward_280h.wav,stimulus/audwhere_stim/blank_white.png,stimulus/audwhere_stim/direction_box.png,stimulus/audwhere_stim/direction_yes.png,stimulus/audwhere_stim/direction_no.png,None,Direction,None,Side,2,0.0,0,5.125,0,5.125,0,5.125,0,0.0,0.625,0,0,0,0,0,0,0,0,0,0.0,0,0.0,1,0.5,1,2.125,0,,,,,0,19,19,19,,,,,,,,,195.46093133400427,195.46093133400427,195.46093133400427,195.46093133400427,195.46093133400427,195.46093133400427,195.46093133400427,195.46093133400427,195.38263845831003,195.46093133400427,195.46093133400427,195.46093133400427,195.38263845831003,195.46093133400427,195.46093133400427,195.46093133400427,197.54821833397727,,195.46093133400427,195.46093133400427,200.61653587495675,195.46093133400427,195.46093133400427,195.46093133400427,195.46093133400427,195.92482566699618,196.99260862497613,195.8949700006672,,197.54821833397727,198.62095237500034,197.51815004164044,,195.46093133400427,200.61653587495675,195.46093133400427,200.61653587495675,200.65660954196937,201.30981329199858,195.46093133400427,2,1,2.745879625028465,reldom2_s025,001,2025-03-07_09h59.45.764,Aud-B-Scan_AC,2022.2.5,None,
16,First_Order,3.0,audwhere,stimulus/audwhere_stim/dummy.wav,stimulus/audwhere_stim/dummy.wav,stimulus/audwhere_stim/left_toward_300h.wav,stimulus/audwhere_stim/left_away_290h.wav,stimulus/audwhere_stim/blank_white.png,stimulus/audwhere_stim/direction_box.png,stimulus/audwhere_stim/direction_yes.png,stimulus/audwhere_stim/direction_no.png,None,Direction,None,Side,2,0.0,0,5.125,0,5.125,0,5.125,0,0.0,0.625,0,0,0,0,0,0,0,0,0,0.0,0,0.0,1,0.5,1,2.125,0,,,,,0,20,20,20,,,,,,,,,201.56393404200207,201.56393404200207,201.56393404200207,201.56393404200207,201.56393404200207,201.56393404200207,201.56393404200207,201.56393404200207,201.4836768333063,201.56393404200207,201.56393404200207,201.56393404200207,201.4836768333063,201.56393404200207,201.56393404200207,201.56393404200207,203.6520757919643,,201.56393404200207,201.56393404200207,206.71854412497487,201.56393404200207,201.56393404200207,201.56393404200207,201.56393404200207,202.02711195900338,203.09499291697284,201.99748679163557,,203.6520757919643,204.72136745898752,203.62254720862646,,201.56393404200207,206.71854412497487,201.56393404200207,206.71854412497487,206.75954462500522,207.4133446670021,201.56393404200207,2,1,1.1029717909987085,reldom2_s025,001,2025-03-07_09h59.45.764,Aud-B-Scan_AC,2022.2.5,None,
0,0.0,None,fixation,stimulus/audwhat_stim/blank_white.png,stimulus/audwhat_stim/blank_white.png,stimulus/audwhere_stim/blank_white.png,stimulus/audwhere_stim/blank_white.png,stimulus/audwhat_stim/blank_white.png,stimulus/audwhat_stim/blank_white.png,stimulus/audwhat_stim/blank_white.png,stimulus/audwhat_stim/blank_white.png,0.0,0.0,0.0,0.0,0,0.0,0,0.0,0,0.0,0,0.0,0,0.0,0.0,0,0,0,0,0,0,0,0,0,0.0,0,0.0,0,0.0,0,0.0,10,,,,,0,21,21,21,,,,,,,,,207.68704558396712,207.68704558396712,207.68704558396712,207.68704558396712,207.68704558396712,207.68704558396712,207.68704558396712,207.68704558396712,207.58743629229335,207.68704558396712,207.68704558396712,207.68704558396712,207.58743629229335,207.68704558396712,207.68704558396712,207.68704558396712,207.68704558396712,207.68704558396712,207.68704558396712,207.68704558396712,207.68704558396712,207.68704558396712,207.68704558396712,207.68704558396712,207.68704558396712,207.68704558396712,207.68704558396712,207.63743629229333,207.68704558396712,207.68704558396712,207.68704558396712,207.63743629229333,207.68704558396712,207.68704558396712,207.68704558396712,207.68704558396712,207.68704558396712,212.9088672499638,212.9088672499638,217.85330504196463,None,0,,reldom2_s025,001,2025-03-07_09h59.45.764,Aud-B-Scan_AC,2022.2.5,None,
17,Second_Order,3.0,audwhere,stimulus/audwhere_stim/right_toward_290h.wav,stimulus/audwhere_stim/right_away_290h.wav,stimulus/audwhere_stim/right_away_280h.wav,stimulus/audwhere_stim/left_away_300h.wav,stimulus/audwhat_stim/match_blank.png,stimulus/audwhat_stim/match_box.png,stimulus/audwhat_stim/match_yes.png,stimulus/audwhat_stim/match_no.png,2.0,Match,Side,Direction,2,5.125,0,5.125,0,5.125,0,5.125,0,0.75,0.75,0,0,0,0,0,0,0,0,1,0.5,1,2.125,1,0.5,1,2.125,0,,,,,0,22,22,22,,,,,,,,,217.85330504196463,222.96840049995808,217.85330504196463,217.85330504196463,217.85330504196463,217.85330504196463,218.30499470897485,219.2924272089731,218.31908554165082,,219.92733758396935,220.92511070898036,219.94005883363232,220.92866458400385,222.96840049995808,223.81913333397824,225.8851462089806,229.8158567089704,223.81913333397824,223.81913333397824,229.01190245896578,223.81913333397824,223.81913333397824,223.81913333397824,223.81913333397824,224.27774341695476,225.33472162496764,224.24870216666412,,225.8851462089806,226.94807570899138,225.85559154162573,,223.81913333397824,229.01190245896578,223.81913333397824,229.01190245896578,229.01190245896578,,223.81913333397824,2,1,0.8383449990069494,reldom2_s025,001,2025-03-07_09h59.45.764,Aud-B-Scan_AC,2022.2.5,None,
18,Second_Order,3.0,audwhere,stimulus/audwhere_stim/right_toward_270h.wav,stimulus/audwhere_stim/left_toward_270h.wav,stimulus/audwhere_stim/right_away_300h.wav,stimulus/audwhere_stim/left_away_280h.wav,stimulus/audwhat_stim/match_blank.png,stimulus/audwhat_stim/match_box.png,stimulus/audwhat_stim/match_yes.png,stimulus/audwhat_stim/match_no.png,1.0,Match,Direction,Direction,1,5.125,0,5.125,0,5.125,0,5.125,0,0.625,0.625,0,0,0,0,0,0,0,0,1,0.5,1,2.125,1,0.5,1,2.125,0,,,,,0,23,23,23,,,,,,,,,229.8158567089704,234.92960974999005,229.8158567089704,229.8158567089704,229.8158567089704,229.8158567089704,230.26586162496824,231.25304058397887,230.27985316666698,,231.9012581249699,232.89048004196957,231.9043395006486,,234.92960974999005,235.65902683400782,237.70603587495862,241.77072874997975,235.65902683400782,235.65902683400782,240.8148313339916,235.65902683400782,235.65902683400782,235.65902683400782,235.65902683400782,236.11086749995593,237.15935124998214,236.0816796256734,,237.70603587495862,238.7605992499739,237.67643108364817,,235.65902683400782,240.8148313339916,235.65902683400782,240.8148313339916,240.85542987496592,241.5402167919674,235.65902683400782,1,1,0.9433114569983445,reldom2_s025,001,2025-03-07_09h59.45.764,Aud-B-Scan_AC,2022.2.5,None,
0,0.0,None,fixation,stimulus/audwhat_stim/blank_white.png,stimulus/audwhat_stim/blank_white.png,stimulus/audwhere_stim/blank_white.png,stimulus/audwhere_stim/blank_white.png,stimulus/audwhat_stim/blank_white.png,stimulus/audwhat_stim/blank_white.png,stimulus/audwhat_stim/blank_white.png,stimulus/audwhat_stim/blank_white.png,0.0,0.0,0.0,0.0,0,0.0,0,0.0,0,0.0,0,0.0,0,0.0,0.0,0,0,0,0,0,0,0,0,0,0.0,0,0.0,0,0.0,0,0.0,8,,,,,0,24,24,24,,,,,,,,,241.77072874997975,241.77072874997975,241.77072874997975,241.77072874997975,241.77072874997975,241.77072874997975,241.77072874997975,241.77072874997975,241.67355012530075,241.77072874997975,241.77072874997975,241.77072874997975,241.67355012530075,241.77072874997975,241.77072874997975,241.77072874997975,241.77072874997975,241.77072874997975,241.77072874997975,241.77072874997975,241.77072874997975,241.77072874997975,241.77072874997975,241.77072874997975,241.77072874997975,241.77072874997975,241.77072874997975,241.72355012530073,241.77072874997975,241.77072874997975,241.77072874997975,241.72355012530073,241.77072874997975,241.77072874997975,241.77072874997975,241.77072874997975,241.77072874997975,246.9833067089785,246.9833067089785,250.0218016669969,None,0,,reldom2_s025,001,2025-03-07_09h59.45.764,Aud-B-Scan_AC,2022.2.5,None,
19,First_Order,4.0,audwhere,stimulus/audwhere_stim/dummy.wav,stimulus/audwhere_stim/dummy.wav,stimulus/audwhere_stim/right_toward_280h.wav,stimulus/audwhere_stim/left_toward_280h.wav,stimulus/audwhere_stim/blank_white.png,stimulus/audwhere_stim/side_box.png,stimulus/audwhere_stim/side_yes.png,stimulus/audwhere_stim/side_no.png,None,Side,None,Direction,2,0.0,0,5.125,0,5.125,0,5.125,0,0.0,0.625,0,0,0,0,0,0,0,0,0,0.0,0,0.0,1,0.5,1,2.125,0,,,,,0,25,25,25,,,,,,,,,250.0218016669969,250.0218016669969,250.0218016669969,250.0218016669969,250.0218016669969,250.0218016669969,250.0218016669969,250.0218016669969,249.95169870861963,250.0218016669969,250.0218016669969,250.0218016669969,249.95169870861963,250.0218016669969,250.0218016669969,250.0218016669969,252.13568262499757,,250.0218016669969,250.0218016669969,255.17575091699837,250.0218016669969,250.0218016669969,250.0218016669969,250.0218016669969,250.48327058396535,251.54003170895157,250.45385416667366,,252.13568262499757,253.1965809169924,252.106090083664,,250.0218016669969,255.17575091699837,250.0218016669969,255.17575091699837,255.21665770898107,255.86522916698596,250.0218016669969,2,1,1.1991421660059132,reldom2_s025,001,2025-03-07_09h59.45.764,Aud-B-Scan_AC,2022.2.5,None,
20,First_Order,4.0,audwhere,stimulus/audwhere_stim/dummy.wav,stimulus/audwhere_stim/dummy.wav,stimulus/audwhere_stim/left_toward_290h.wav,stimulus/audwhere_stim/right_toward_270h.wav,stimulus/audwhere_stim/blank_white.png,stimulus/audwhere_stim/side_box.png,stimulus/audwhere_stim/side_yes.png,stimulus/audwhere_stim/side_no.png,None,Side,None,Direction,2,0.0,0,5.125,0,5.125,0,5.125,0,0.0,0.625,0,0,0,0,0,0,0,0,0,0.0,0,0.0,1,0.5,1,2.125,0,,,,,0,26,26,26,,,,,,,,,256.1162237919634,256.1162237919634,256.1162237919634,256.1162237919634,256.1162237919634,256.1162237919634,256.1162237919634,256.1162237919634,256.0384555423244,256.1162237919634,256.1162237919634,256.1162237919634,256.0384555423244,256.1162237919634,256.1162237919634,256.1162237919634,258.18888612498995,,256.1162237919634,256.1162237919634,261.28194929199526,256.1162237919634,256.1162237919634,256.1162237919634,256.1162237919634,256.57650229195133,257.64008533395827,256.54717779165753,,258.18888612498995,259.2508715419681,258.1597452086319,,256.1162237919634,261.28194929199526,256.1162237919634,261.28194929199526,261.32275154197123,261.97194558399497,256.1162237919634,2,1,2.3665979159995914,reldom2_s025,001,2025-03-07_09h59.45.764,Aud-B-Scan_AC,2022.2.5,None,
21,First_Order,4.0,audwhere,stimulus/audwhere_stim/dummy.wav,stimulus/audwhere_stim/dummy.wav,stimulus/audwhere_stim/left_toward_270h.wav,stimulus/audwhere_stim/left_away_300h.wav,stimulus/audwhere_stim/blank_white.png,stimulus/audwhere_stim/side_box.png,stimulus/audwhere_stim/side_yes.png,stimulus/audwhere_stim/side_no.png,None,Side,None,Side,1,0.0,0,5.125,0,5.125,0,5.125,0,0.0,0.625,0,0,0,0,0,0,0,0,0,0.0,0,0.0,1,0.5,1,2.125,0,,,,,0,27,27,27,,,,,,,,,262.2225897089811,262.2225897089811,262.2225897089811,262.2225897089811,262.2225897089811,262.2225897089811,262.2225897089811,262.2225897089811,262.1449148753037,262.2225897089811,262.2225897089811,262.2225897089811,262.1449148753037,262.2225897089811,262.2225897089811,262.2225897089811,264.3020913749933,268.3410911249812,262.2225897089811,262.2225897089811,267.3938883749652,262.2225897089811,262.2225897089811,262.2225897089811,262.2225897089811,262.6872881249874,263.74782354198396,262.6573856666257,,264.3020913749933,265.3659497500048,264.2722793756441,,262.2225897089811,267.3938883749652,262.2225897089811,267.3938883749652,267.4344839169644,268.0874862499768,262.2225897089811,1,1,0.5822362499893643,reldom2_s025,001,2025-03-07_09h59.45.764,Aud-B-Scan_AC,2022.2.5,None,
22,First_Order,4.0,audwhere,stimulus/audwhere_stim/dummy.wav,stimulus/audwhere_stim/dummy.wav,stimulus/audwhere_stim/left_away_290h.wav,stimulus/audwhere_stim/left_toward_270h.wav,stimulus/audwhere_stim/blank_white.png,stimulus/audwhere_stim/side_box.png,stimulus/audwhere_stim/side_yes.png,stimulus/audwhere_stim/side_no.png,None,Side,None,Side,1,0.0,0,5.125,0,5.125,0,5.125,0,0.0,0.625,0,0,0,0,0,0,0,0,0,0.0,0,0.0,1,0.5,1,2.125,0,,,,,0,28,28,28,,,,,,,,,268.3410911249812,268.3410911249812,268.3410911249812,268.3410911249812,268.3410911249812,268.3410911249812,268.3410911249812,268.3410911249812,268.2613991253039,268.3410911249812,268.3410911249812,268.3410911249812,268.2613991253039,268.3410911249812,268.3410911249812,268.3410911249812,270.42287270899396,274.490335459006,268.3410911249812,268.3410911249812,273.52364745899104,268.3410911249812,268.3410911249812,268.3410911249812,268.3410911249812,268.80472537496826,269.866586041986,268.775192708654,,270.42287270899396,271.4886041249847,270.3926629166274,,268.3410911249812,273.52364745899104,268.3410911249812,273.52364745899104,273.5645534999785,274.2162581249722,268.3410911249812,1,1,1.2798373750410974,reldom2_s025,001,2025-03-07_09h59.45.764,Aud-B-Scan_AC,2022.2.5,None,
0,0.0,None,fixation,stimulus/audwhat_stim/blank_white.png,stimulus/audwhat_stim/blank_white.png,stimulus/audwhere_stim/blank_white.png,stimulus/audwhere_stim/blank_white.png,stimulus/audwhat_stim/blank_white.png,stimulus/audwhat_stim/blank_white.png,stimulus/audwhat_stim/blank_white.png,stimulus/audwhat_stim/blank_white.png,0.0,0.0,0.0,0.0,0,0.0,0,0.0,0,0.0,0,0.0,0,0.0,0.0,0,0,0,0,0,0,0,0,0,0.0,0,0.0,0,0.0,0,0.0,10,,,,,0,29,29,29,,,,,,,,,274.490335459006,274.490335459006,274.490335459006,274.490335459006,274.490335459006,274.490335459006,274.490335459006,274.490335459006,274.39020029231517,274.490335459006,274.490335459006,274.490335459006,274.39020029231517,274.490335459006,274.490335459006,274.490335459006,274.490335459006,274.490335459006,274.490335459006,274.490335459006,274.490335459006,274.490335459006,274.490335459006,274.490335459006,274.490335459006,274.490335459006,274.490335459006,274.4402002923152,274.490335459006,274.490335459006,274.490335459006,274.4402002923152,274.490335459006,274.490335459006,274.490335459006,274.490335459006,274.490335459006,279.7059354590019,279.7059354590019,284.6461199169862,None,0,,reldom2_s025,001,2025-03-07_09h59.45.764,Aud-B-Scan_AC,2022.2.5,None,
23,Second_Order,4.0,audwhere,stimulus/audwhere_stim/right_toward_300h.wav,stimulus/audwhere_stim/left_toward_270h.wav,stimulus/audwhere_stim/left_away_300h.wav,stimulus/audwhere_stim/right_away_300h.wav,stimulus/audwhat_stim/match_blank.png,stimulus/audwhat_stim/match_box.png,stimulus/audwhat_stim/match_yes.png,stimulus/audwhat_stim/match_no.png,1.0,Match,Direction,Direction,1,5.125,0,5.125,0,5.125,0,5.125,0,0.75,0.75,0,0,0,0,0,0,0,0,1,0.5,1,2.125,1,0.5,1,2.125,0,,,,,0,30,30,30,,,,,,,,,284.6461199169862,289.7681169999996,284.6461199169862,284.6461199169862,284.6461199169862,284.6461199169862,285.0923946669791,286.0798972089542,285.10658516665376,,286.7277620419627,287.7173639169778,286.7310875836449,287.7173639169778,289.7681169999996,290.6194566669874,292.68453612498706,296.6173359999666,290.6194566669874,290.6194566669874,295.80976995895617,290.6194566669874,290.6194566669874,290.6194566669874,290.6194566669874,291.0768158749561,292.13063695898745,291.0465900006277,,292.68453612498706,293.74107662495226,292.65512250067354,,290.6194566669874,295.80976995895617,290.6194566669874,295.80976995895617,295.80976995895617,,290.6194566669874,2,0,2.743405082030222,reldom2_s025,001,2025-03-07_09h59.45.764,Aud-B-Scan_AC,2022.2.5,None,
24,Second_Order,4.0,audwhere,stimulus/audwhere_stim/right_toward_300h.wav,stimulus/audwhere_stim/left_toward_300h.wav,stimulus/audwhere_stim/left_away_290h.wav,stimulus/audwhere_stim/right_away_280h.wav,stimulus/audwhat_stim/match_blank.png,stimulus/audwhat_stim/match_box.png,stimulus/audwhat_stim/match_yes.png,stimulus/audwhat_stim/match_no.png,1.0,Match,Direction,Direction,1,5.125,0,5.125,0,5.125,0,5.125,0,0.625,0.625,0,0,0,0,0,0,0,0,1,0.5,1,2.125,1,0.5,1,2.125,0,,,,,0,31,31,31,,,,,,,,,296.6173359999666,301.7336369169643,296.6173359999666,296.6173359999666,296.6173359999666,296.6173359999666,297.0720638749772,298.07041345897596,297.08530508366334,,298.69388666696614,299.69080637500156,298.70601333363834,299.694158874976,301.7336369169643,302.46619962499244,304.51154137495905,308.57973766699433,302.46619962499244,302.46619962499244,307.62257787497947,302.46619962499244,302.46619962499244,302.46619962499244,302.46619962499244,302.9180551249883,303.9630931249703,302.8888179166281,,304.51154137495905,305.5658088339842,304.48223712563436,,302.46619962499244,307.62257787497947,302.46619962499244,307.62257787497947,307.62257787497947,308.3072739999625,302.46619962499244,1,1,1.0246128750150092,reldom2_s025,001,2025-03-07_09h59.45.764,Aud-B-Scan_AC,2022.2.5,None,
0,0.0,None,fixation,stimulus/audwhat_stim/blank_white.png,stimulus/audwhat_stim/blank_white.png,stimulus/audwhere_stim/blank_white.png,stimulus/audwhere_stim/blank_white.png,stimulus/audwhat_stim/blank_white.png,stimulus/audwhat_stim/blank_white.png,stimulus/audwhat_stim/blank_white.png,stimulus/audwhat_stim/blank_white.png,0.0,0.0,0.0,0.0,0,0.0,0,0.0,0,0.0,0,0.0,0,0.0,0.0,0,0,0,0,0,0,0,0,0,0.0,0,0.0,0,0.0,0,0.0,9,,,,,0,32,32,32,,,,,,,,,308.57973766699433,308.57973766699433,308.57973766699433,308.57973766699433,308.57973766699433,308.57973766699433,308.57973766699433,308.57973766699433,308.4821328753334,308.57973766699433,308.57973766699433,308.57973766699433,308.4821328753334,308.57973766699433,308.57973766699433,308.57973766699433,308.57973766699433,308.57973766699433,308.57973766699433,308.57973766699433,308.57973766699433,308.57973766699433,308.57973766699433,308.57973766699433,308.57973766699433,308.57973766699433,308.57973766699433,308.5321328753334,308.57973766699433,308.57973766699433,308.57973766699433,308.5321328753334,308.57973766699433,308.57973766699433,308.57973766699433,308.57973766699433,308.57973766699433,313.7952466669958,313.7952466669958,317.8429296669783,None,0,,reldom2_s025,001,2025-03-07_09h59.45.764,Aud-B-Scan_AC,2022.2.5,None,
25,First_Order,5.0,audwhat,stimulus/audwhat_stim/dummy.wav,stimulus/audwhat_stim/dummy.wav,stimulus/audwhat_stim/percussion xylophone_high-pitch_Ftri_loud.wav,stimulus/audwhat_stim/percussion mallet_low-pitch_F_loud.wav,stimulus/audwhat_stim/blank_white.png,stimulus/audwhat_stim/pitch_box.png,stimulus/audwhat_stim/pitch_yes.png,stimulus/audwhat_stim/pitch_no.png,None,Pitch,None,Category,2,0.0,0,5.125,0,5.125,0,5.125,0,0.0,0.625,0,0,0,0,0,0,0,0,0,0.0,0,0.0,1,0.5,1,2.125,0,,,,,0,33,33,33,,,,,,,,,317.8429296669783,317.8429296669783,317.8429296669783,317.8429296669783,317.8429296669783,317.8429296669783,317.8429296669783,317.8429296669783,317.77248325063067,317.8429296669783,317.8429296669783,317.8429296669783,317.77248325063067,317.8429296669783,317.8429296669783,317.8429296669783,319.9170293339994,323.956783083966,317.8429296669783,317.8429296669783,323.0144198339549,317.8429296669783,317.8429296669783,317.8429296669783,317.8429296669783,318.30495020898525,319.36838083399925,318.2751571666488,319.3219543749583,319.9170293339994,320.9843040839769,319.8879172916679,,317.8429296669783,323.0144198339549,317.8429296669783,323.0144198339549,323.0552113339654,323.7043924589525,317.8429296669783,2,1,1.2605982500244863,reldom2_s025,001,2025-03-07_09h59.45.764,Aud-B-Scan_AC,2022.2.5,None,
26,First_Order,5.0,audwhat,stimulus/audwhat_stim/dummy.wav,stimulus/audwhat_stim/dummy.wav,stimulus/audwhat_stim/percussion mallet_low-pitch_Dtri_loud.wav,stimulus/audwhat_stim/percussion xylophone_high-pitch_Ftri_loud.wav,stimulus/audwhat_stim/blank_white.png,stimulus/audwhat_stim/category_box.png,stimulus/audwhat_stim/category_yes.png,stimulus/audwhat_stim/category_no.png,None,Category,None,Category,1,0.0,0,5.125,0,5.125,0,5.125,0,0.0,0.625,0,0,0,0,0,0,0,0,0,0.0,0,0.0,1,0.5,1,2.125,0,,,,,0,34,34,34,,,,,,,,,323.956783083966,323.956783083966,323.956783083966,323.956783083966,323.956783083966,323.956783083966,323.956783083966,323.956783083966,323.8779024173001,323.956783083966,323.956783083966,323.956783083966,323.8779024173001,323.956783083966,323.956783083966,323.956783083966,326.0463455419522,,323.956783083966,323.956783083966,329.11161216697656,323.956783083966,323.956783083966,323.956783083966,323.956783083966,324.4239911249606,325.48947170900647,324.39319508365975,,326.0463455419522,327.11659195896937,326.0163770416441,327.07032449997496,323.956783083966,329.11161216697656,323.956783083966,329.11161216697656,329.1526634589536,329.8069411669858,323.956783083966,1,1,1.472532375017181,reldom2_s025,001,2025-03-07_09h59.45.764,Aud-B-Scan_AC,2022.2.5,None,
27,First_Order,5.0,audwhat,stimulus/audwhat_stim/dummy.wav,stimulus/audwhat_stim/dummy.wav,stimulus/audwhat_stim/string cello_low-pitch_Dtri_loud.wav,stimulus/audwhat_stim/percussion mallet_low-pitch_Dtri_loud.wav,stimulus/audwhat_stim/blank_white.png,stimulus/audwhat_stim/pitch_box.png,stimulus/audwhat_stim/pitch_yes.png,stimulus/audwhat_stim/pitch_no.png,None,Pitch,None,Pitch,1,0.0,0,5.125,0,5.125,0,5.125,0,0.0,0.625,0,0,0,0,0,0,0,0,0,0.0,0,0.0,1,0.5,1,2.125,0,,,,,0,35,35,35,,,,,,,,,330.06231408397434,330.06231408397434,330.06231408397434,330.06231408397434,330.06231408397434,330.06231408397434,330.06231408397434,330.06231408397434,329.98106750034106,330.06231408397434,330.06231408397434,330.06231408397434,329.98106750034106,330.06231408397434,330.06231408397434,330.06231408397434,332.1451315419981,,330.06231408397434,330.06231408397434,335.25023970898474,330.06231408397434,330.06231408397434,330.06231408397434,330.06231408397434,330.5273485420039,331.59097420895705,330.4979115416684,,332.1451315419981,333.2118494589813,332.1155840416361,,330.06231408397434,335.25023970898474,330.06231408397434,335.25023970898474,335.2914618749637,335.94060712499777,330.06231408397434,1,1,2.3667705829720944,reldom2_s025,001,2025-03-07_09h59.45.764,Aud-B-Scan_AC,2022.2.5,None,
28,First_Order,5.0,audwhat,stimulus/audwhat_stim/dummy.wav,stimulus/audwhat_stim/dummy.wav,stimulus/audwhat_stim/percussion xylophone_high-pitch_Ftri_loud.wav,stimulus/audwhat_stim/percussion mallet_low-pitch_F_loud.wav,stimulus/audwhat_stim/blank_white.png,stimulus/audwhat_stim/category_box.png,stimulus/audwhat_stim/category_yes.png,stimulus/audwhat_stim/category_no.png,None,Category,None,Category,1,0.0,0,5.125,0,5.125,0,5.125,0,0.0,0.625,0,0,0,0,0,0,0,0,0,0.0,0,0.0,1,0.5,1,2.125,0,,,,,0,36,36,36,,,,,,,,,336.1522036669776,336.1522036669776,336.1522036669776,336.1522036669776,336.1522036669776,336.1522036669776,336.1522036669776,336.1522036669776,336.0739404583311,336.1522036669776,336.1522036669776,336.1522036669776,336.0739404583311,336.1522036669776,336.1522036669776,336.1522036669776,338.24325100000715,342.2839052089839,336.1522036669776,336.1522036669776,341.31627354200464,336.1522036669776,336.1522036669776,336.1522036669776,336.1522036669776,336.61914916697424,337.68647858395707,336.5890392506301,337.6405235839775,338.24325100000715,339.31890070898226,338.2131041666182,,336.1522036669776,341.31627354200464,336.1522036669776,341.31627354200464,341.35830354195787,342.01078099996084,336.1522036669776,1,1,0.7278214160469361,reldom2_s025,001,2025-03-07_09h59.45.764,Aud-B-Scan_AC,2022.2.5,None,
0,0.0,None,fixation,stimulus/audwhat_stim/blank_white.png,stimulus/audwhat_stim/blank_white.png,stimulus/audwhere_stim/blank_white.png,stimulus/audwhere_stim/blank_white.png,stimulus/audwhat_stim/blank_white.png,stimulus/audwhat_stim/blank_white.png,stimulus/audwhat_stim/blank_white.png,stimulus/audwhat_stim/blank_white.png,0.0,0.0,0.0,0.0,0,0.0,0,0.0,0,0.0,0,0.0,0,0.0,0.0,0,0,0,0,0,0,0,0,0,0.0,0,0.0,0,0.0,0,0.0,8,,,,,0,37,37,37,,,,,,,,,342.2839052089839,342.2839052089839,342.2839052089839,342.2839052089839,342.2839052089839,342.2839052089839,342.2839052089839,342.2839052089839,342.18485125029304,342.2839052089839,342.2839052089839,342.2839052089839,342.18485125029304,342.2839052089839,342.2839052089839,342.2839052089839,342.2839052089839,342.2839052089839,342.2839052089839,342.2839052089839,342.2839052089839,342.2839052089839,342.2839052089839,342.2839052089839,342.2839052089839,342.2839052089839,342.2839052089839,342.23485125029305,342.2839052089839,342.2839052089839,342.2839052089839,342.23485125029305,342.2839052089839,342.2839052089839,342.2839052089839,342.2839052089839,342.2839052089839,347.5175703339628,347.5175703339628,350.4403169999714,None,0,,reldom2_s025,001,2025-03-07_09h59.45.764,Aud-B-Scan_AC,2022.2.5,None,
29,Second_Order,5.0,audwhat,stimulus/audwhat_stim/string viola_low-pitch_Dtri_loud.wav,stimulus/audwhat_stim/percussion mallet_low-pitch_Dtri_loud.wav,stimulus/audwhat_stim/string viola_low-pitch_Dtri_loud.wav,stimulus/audwhat_stim/string cello_high-pitch_Ftri_loud.wav,stimulus/audwhat_stim/match_blank.png,stimulus/audwhat_stim/match_box.png,stimulus/audwhat_stim/match_yes.png,stimulus/audwhat_stim/match_no.png,2.0,Match,Pitch,Category,2,5.125,0,5.125,0,5.125,0,5.125,0,0.75,0.75,0,0,0,0,0,0,0,0,1,0.5,1,2.125,1,0.5,1,2.125,0,,,,,0,38,38,38,,,,,,,,,350.4403169999714,355.5576616670005,350.4403169999714,350.4403169999714,350.4403169999714,350.4403169999714,350.89473649999127,351.8816248339717,350.9088593756353,,352.51838933397084,353.51527929195436,352.52973025065535,,355.5576616670005,356.40883995895274,358.47629416699056,362.4092596669798,356.40883995895274,356.40883995895274,361.56250012497185,356.40883995895274,356.40883995895274,356.40883995895274,356.40883995895274,356.8216747089755,357.87658370897407,356.79215858364864,,358.47629416699056,359.53699070896255,358.446670791662,,356.40883995895274,361.56250012497185,356.40883995895274,361.56250012497185,361.60339437500807,,356.40883995895274,2,1,1.2811659580329433,reldom2_s025,001,2025-03-07_09h59.45.764,Aud-B-Scan_AC,2022.2.5,None,
30,Second_Order,5.0,audwhat,stimulus/audwhat_stim/string viola_high-pitch_Ftri_loud.wav,stimulus/audwhat_stim/percussion xylophone_high-pitch_Ftri_loud.wav,stimulus/audwhat_stim/string viola_low-pitch_D_loud.wav,stimulus/audwhat_stim/percussion mallet_low-pitch_D_loud.wav,stimulus/audwhat_stim/match_blank.png,stimulus/audwhat_stim/match_box.png,stimulus/audwhat_stim/match_yes.png,stimulus/audwhat_stim/match_no.png,1.0,Match,Pitch,Pitch,1,5.125,0,5.125,0,5.125,0,5.125,0,0.625,0.625,0,0,0,0,0,0,0,0,1,0.5,1,2.125,1,0.5,1,2.125,0,,,,,0,39,39,39,,,,,,,,,362.4092596669798,367.53110766696045,362.4092596669798,362.4092596669798,362.4092596669798,362.4092596669798,362.8557478750008,363.84336966695264,362.8696385006226,,364.49040183395846,365.48018954199506,364.49362870864957,365.48018954199506,367.53110766696045,368.26593487500213,370.31516037497204,,368.26593487500213,368.26593487500213,373.4344428749755,368.26593487500213,368.26593487500213,368.26593487500213,368.26593487500213,368.72036462498363,369.76832187495893,368.6911999166516,,370.31516037497204,371.3748582499684,370.28606754163434,,368.26593487500213,373.4344428749755,368.26593487500213,373.4344428749755,373.4344428749755,374.11950612498913,368.26593487500213,1,1,0.42591362399980426,reldom2_s025,001,2025-03-07_09h59.45.764,Aud-B-Scan_AC,2022.2.5,None,
0,0.0,None,fixation,stimulus/audwhat_stim/blank_white.png,stimulus/audwhat_stim/blank_white.png,stimulus/audwhere_stim/blank_white.png,stimulus/audwhere_stim/blank_white.png,stimulus/audwhat_stim/blank_white.png,stimulus/audwhat_stim/blank_white.png,stimulus/audwhat_stim/blank_white.png,stimulus/audwhat_stim/blank_white.png,0.0,0.0,0.0,0.0,0,0.0,0,0.0,0,0.0,0,0.0,0,0.0,0.0,0,0,0,0,0,0,0,0,0,0.0,0,0.0,0,0.0,0,0.0,9,,,,,0,40,40,40,,,,,,,,,374.35131837497465,374.35131837497465,374.35131837497465,374.35131837497465,374.35131837497465,374.35131837497465,374.35131837497465,374.35131837497465,374.25283945832246,374.35131837497465,374.35131837497465,374.35131837497465,374.25283945832246,374.35131837497465,374.35131837497465,374.35131837497465,374.35131837497465,374.35131837497465,374.35131837497465,374.35131837497465,374.35131837497465,374.35131837497465,374.35131837497465,374.35131837497465,374.35131837497465,374.35131837497465,374.35131837497465,374.30283945832247,374.35131837497465,374.35131837497465,374.35131837497465,374.30283945832247,374.35131837497465,374.35131837497465,374.35131837497465,374.35131837497465,374.35131837497465,379.5815311250044,379.5815311250044,383.58024245896377,None,0,,reldom2_s025,001,2025-03-07_09h59.45.764,Aud-B-Scan_AC,2022.2.5,None,
31,First_Order,6.0,audwhat,stimulus/audwhat_stim/dummy.wav,stimulus/audwhat_stim/dummy.wav,stimulus/audwhat_stim/string viola_low-pitch_D_loud.wav,stimulus/audwhat_stim/percussion mallet_low-pitch_D_loud.wav,stimulus/audwhat_stim/blank_white.png,stimulus/audwhat_stim/category_box.png,stimulus/audwhat_stim/category_yes.png,stimulus/audwhat_stim/category_no.png,None,Category,None,Pitch,2,0.0,0,5.125,0,5.125,0,5.125,0,0.0,0.625,0,0,0,0,0,0,0,0,0,0.0,0,0.0,1,0.5,1,2.125,0,,,,,0,41,41,41,,,,,,,,,383.58024245896377,383.58024245896377,383.58024245896377,383.58024245896377,383.58024245896377,383.58024245896377,383.58024245896377,383.58024245896377,383.50802700062434,383.58024245896377,383.58024245896377,383.58024245896377,383.50802700062434,383.58024245896377,383.58024245896377,383.58024245896377,385.67162699997425,,383.58024245896377,383.58024245896377,388.73610783397453,383.58024245896377,383.58024245896377,383.58024245896377,383.58024245896377,384.0448836669675,385.11468649999006,384.0147820836321,,385.67162699997425,386.74232399999164,385.6416200836577,,383.58024245896377,388.73610783397453,383.58024245896377,388.73610783397453,388.7770184999681,389.42768733395496,383.58024245896377,2,1,2.3626063740230165,reldom2_s025,001,2025-03-07_09h59.45.764,Aud-B-Scan_AC,2022.2.5,None,
32,First_Order,6.0,audwhat,stimulus/audwhat_stim/dummy.wav,stimulus/audwhat_stim/dummy.wav,stimulus/audwhat_stim/percussion mallet_high-pitch_Dtri_loud.wav,stimulus/audwhat_stim/string viola_high-pitch_Dtri_loud.wav,stimulus/audwhat_stim/blank_white.png,stimulus/audwhat_stim/pitch_box.png,stimulus/audwhat_stim/pitch_yes.png,stimulus/audwhat_stim/pitch_no.png,None,Pitch,None,Pitch,1,0.0,0,5.125,0,5.125,0,5.125,0,0.0,0.625,0,0,0,0,0,0,0,0,0,0.0,0,0.0,1,0.5,1,2.125,0,,,,,0,42,42,42,,,,,,,,,389.68058462499175,389.68058462499175,389.68058462499175,389.68058462499175,389.68058462499175,389.68058462499175,389.68058462499175,389.68058462499175,389.6014116673342,389.68058462499175,389.68058462499175,389.68058462499175,389.6014116673342,389.68058462499175,389.68058462499175,389.68058462499175,391.76268549996894,395.8103414999787,389.68058462499175,389.68058462499175,394.863304458966,389.68058462499175,389.68058462499175,389.68058462499175,389.68058462499175,390.1422303339932,391.208404666977,390.112400166636,,391.76268549996894,392.83186204195954,391.7329289166412,,389.68058462499175,394.863304458966,389.68058462499175,394.863304458966,394.9047785839648,395.55548183398787,389.68058462499175,1,1,0.8183411239879206,reldom2_s025,001,2025-03-07_09h59.45.764,Aud-B-Scan_AC,2022.2.5,None,
33,First_Order,6.0,audwhat,stimulus/audwhat_stim/dummy.wav,stimulus/audwhat_stim/dummy.wav,stimulus/audwhat_stim/string cello_high-pitch_D_loud.wav,stimulus/audwhat_stim/string viola_low-pitch_F_loud.wav,stimulus/audwhat_stim/blank_white.png,stimulus/audwhat_stim/pitch_box.png,stimulus/audwhat_stim/pitch_yes.png,stimulus/audwhat_stim/pitch_no.png,None,Pitch,None,Category,2,0.0,0,5.125,0,5.125,0,5.125,0,0.0,0.625,0,0,0,0,0,0,0,0,0,0.0,0,0.0,1,0.5,1,2.125,0,,,,,0,43,43,43,,,,,,,,,395.8103414999787,395.8103414999787,395.8103414999787,395.8103414999787,395.8103414999787,395.8103414999787,395.8103414999787,395.8103414999787,395.7295423333145,395.8103414999787,395.8103414999787,395.8103414999787,395.7295423333145,395.8103414999787,395.8103414999787,395.8103414999787,397.89260774996364,,395.8103414999787,395.8103414999787,400.9957007499761,395.8103414999787,395.8103414999787,395.8103414999787,395.8103414999787,396.2737513339962,397.34027454198804,396.24382962566256,,397.89260774996364,398.96142320899526,397.8635399586676,,395.8103414999787,400.9957007499761,395.8103414999787,400.9957007499761,401.0368795419927,401.68679587496445,395.8103414999787,1,0,2.3875856660306454,reldom2_s025,001,2025-03-07_09h59.45.764,Aud-B-Scan_AC,2022.2.5,None,
34,First_Order,6.0,audwhat,stimulus/audwhat_stim/dummy.wav,stimulus/audwhat_stim/dummy.wav,stimulus/audwhat_stim/percussion mallet_low-pitch_F_loud.wav,stimulus/audwhat_stim/string viola_low-pitch_F_loud.wav,stimulus/audwhat_stim/blank_white.png,stimulus/audwhat_stim/category_box.png,stimulus/audwhat_stim/category_yes.png,stimulus/audwhat_stim/category_no.png,None,Category,None,Pitch,2,0.0,0,5.125,0,5.125,0,5.125,0,0.0,0.625,0,0,0,0,0,0,0,0,0,0.0,0,0.0,1,0.5,1,2.125,0,,,,,0,44,44,44,,,,,,,,,401.899881374964,401.899881374964,401.899881374964,401.899881374964,401.899881374964,401.899881374964,401.899881374964,401.899881374964,401.8201292082978,401.899881374964,401.899881374964,401.899881374964,401.8201292082978,401.899881374964,401.899881374964,401.899881374964,403.9924653749913,408.0341000839835,401.899881374964,401.899881374964,407.0632052089786,401.899881374964,401.899881374964,401.899881374964,401.899881374964,402.3677232089685,403.43504029198084,402.33628425066513,,403.9924653749913,405.0649384169956,403.9624608336637,,401.899881374964,407.0632052089786,401.899881374964,407.0632052089786,407.1040495419875,407.7600116249523,401.899881374964,2,1,2.023596332001034,reldom2_s025,001,2025-03-07_09h59.45.764,Aud-B-Scan_AC,2022.2.5,None,
0,0.0,None,fixation,stimulus/audwhat_stim/blank_white.png,stimulus/audwhat_stim/blank_white.png,stimulus/audwhere_stim/blank_white.png,stimulus/audwhere_stim/blank_white.png,stimulus/audwhat_stim/blank_white.png,stimulus/audwhat_stim/blank_white.png,stimulus/audwhat_stim/blank_white.png,stimulus/audwhat_stim/blank_white.png,0.0,0.0,0.0,0.0,0,0.0,0,0.0,0,0.0,0,0.0,0,0.0,0.0,0,0,0,0,0,0,0,0,0,0.0,0,0.0,0,0.0,0,0.0,9,,,,,0,45,45,45,,,,,,,,,408.0341000839835,408.0341000839835,408.0341000839835,408.0341000839835,408.0341000839835,408.0341000839835,408.0341000839835,408.0341000839835,407.9342189583423,408.0341000839835,408.0341000839835,408.0341000839835,407.9342189583423,408.0341000839835,408.0341000839835,408.0341000839835,408.0341000839835,408.0341000839835,408.0341000839835,408.0341000839835,408.0341000839835,408.0341000839835,408.0341000839835,408.0341000839835,408.0341000839835,408.0341000839835,408.0341000839835,407.9842189583423,408.0341000839835,408.0341000839835,408.0341000839835,407.9842189583423,408.0341000839835,408.0341000839835,408.0341000839835,408.0341000839835,408.0341000839835,413.2189879589714,413.2189879589714,417.211024291988,None,0,,reldom2_s025,001,2025-03-07_09h59.45.764,Aud-B-Scan_AC,2022.2.5,None,
35,Second_Order,6.0,audwhat,stimulus/audwhat_stim/string cello_low-pitch_D_loud.wav,stimulus/audwhat_stim/percussion mallet_low-pitch_D_loud.wav,stimulus/audwhat_stim/percussion mallet_low-pitch_D_loud.wav,stimulus/audwhat_stim/percussion xylophone_high-pitch_Ftri_loud.wav,stimulus/audwhat_stim/match_blank.png,stimulus/audwhat_stim/match_box.png,stimulus/audwhat_stim/match_yes.png,stimulus/audwhat_stim/match_no.png,2.0,Match,Pitch,Category,2,5.125,0,5.125,0,5.125,0,5.125,0,0.75,0.75,0,0,0,0,0,0,0,0,1,0.5,1,2.125,1,0.5,1,2.125,0,,,,,0,46,46,46,,,,,,,,,417.211024291988,422.32850800000597,417.211024291988,417.211024291988,417.211024291988,417.211024291988,417.6658474999713,418.6523318339605,417.679711875626,,419.2888177089626,420.2862041670014,419.30095587566416,,422.32850800000597,423.1780656669871,425.24611170898424,429.18028108397266,423.1780656669871,423.1780656669871,428.3327668340062,423.1780656669871,423.1780656669871,423.1780656669871,423.1780656669871,423.63721558399266,424.6948798749945,423.6078212916657,,425.24611170898424,426.31040833395673,425.21624375065244,426.2646537089604,423.1780656669871,428.3327668340062,423.1780656669871,428.3327668340062,428.37420391698834,,423.1780656669871,2,1,1.5467444580281153,reldom2_s025,001,2025-03-07_09h59.45.764,Aud-B-Scan_AC,2022.2.5,None,
36,Second_Order,6.0,audwhat,stimulus/audwhat_stim/string cello_low-pitch_Dtri_loud.wav,stimulus/audwhat_stim/percussion mallet_low-pitch_Dtri_loud.wav,stimulus/audwhat_stim/string viola_high-pitch_F_loud.wav,stimulus/audwhat_stim/percussion xylophone_high-pitch_F_loud.wav,stimulus/audwhat_stim/match_blank.png,stimulus/audwhat_stim/match_box.png,stimulus/audwhat_stim/match_yes.png,stimulus/audwhat_stim/match_no.png,1.0,Match,Pitch,Pitch,1,5.125,0,5.125,0,5.125,0,5.125,0,0.625,0.625,0,0,0,0,0,0,0,0,1,0.5,1,2.125,1,0.5,1,2.125,0,,,,,0,47,47,47,,,,,,,,,429.18028108397266,434.3018369170022,429.18028108397266,429.18028108397266,429.18028108397266,429.18028108397266,429.6262045420008,430.61392270895885,429.64048329164893,,431.2661052919575,432.26395220897393,431.2780367086564,,434.3018369170022,435.0366486669518,437.09132712497376,,435.0366486669518,435.0366486669518,440.20795912499307,435.0366486669518,435.0366486669518,435.0366486669518,435.0366486669518,435.4914206249523,436.54360370896757,435.4625886256729,,437.09132712497376,438.14947612496326,437.06258666667077,438.1033398339641,435.0366486669518,440.20795912499307,435.0366486669518,440.20795912499307,440.20795912499307,440.8950574169867,435.0366486669518,1,1,0.7871487499796785,reldom2_s025,001,2025-03-07_09h59.45.764,Aud-B-Scan_AC,2022.2.5,None,
0,0.0,None,fixation,stimulus/audwhat_stim/blank_white.png,stimulus/audwhat_stim/blank_white.png,stimulus/audwhere_stim/blank_white.png,stimulus/audwhere_stim/blank_white.png,stimulus/audwhat_stim/blank_white.png,stimulus/audwhat_stim/blank_white.png,stimulus/audwhat_stim/blank_white.png,stimulus/audwhat_stim/blank_white.png,0.0,0.0,0.0,0.0,0,0.0,0,0.0,0,0.0,0,0.0,0,0.0,0.0,0,0,0,0,0,0,0,0,0,0.0,0,0.0,0,0.0,0,0.0,10,,,,,0,48,48,48,,,,,,,,,441.126465999987,441.126465999987,441.126465999987,441.126465999987,441.126465999987,441.126465999987,441.126465999987,441.126465999987,441.02839075032,441.126465999987,441.126465999987,441.126465999987,441.02839075032,441.126465999987,441.126465999987,441.126465999987,441.126465999987,441.126465999987,441.126465999987,441.126465999987,441.126465999987,441.126465999987,441.126465999987,441.126465999987,441.126465999987,441.126465999987,441.126465999987,441.07839075032,441.126465999987,441.126465999987,441.126465999987,441.07839075032,441.126465999987,441.126465999987,441.126465999987,441.126465999987,441.126465999987,446.35245716699865,446.35245716699865,451.35582274995977,None,0,,reldom2_s025,001,2025-03-07_09h59.45.764,Aud-B-Scan_AC,2022.2.5,None,
37,First_Order,7.0,audwhere,stimulus/audwhere_stim/dummy.wav,stimulus/audwhere_stim/dummy.wav,stimulus/audwhere_stim/right_toward_300h.wav,stimulus/audwhere_stim/left_toward_290h.wav,stimulus/audwhere_stim/blank_white.png,stimulus/audwhere_stim/direction_box.png,stimulus/audwhere_stim/direction_yes.png,stimulus/audwhere_stim/direction_no.png,None,Direction,None,Direction,1,0.0,0,5.125,0,5.125,0,5.125,0,0.0,0.625,0,0,0,0,0,0,0,0,0,0.0,0,0.0,1,0.5,1,2.125,0,,,,,0,49,49,49,,,,,,,,,451.35582274995977,451.35582274995977,451.35582274995977,451.35582274995977,451.35582274995977,451.35582274995977,451.35582274995977,451.35582274995977,451.2855201256267,451.35582274995977,451.35582274995977,451.35582274995977,451.2855201256267,451.35582274995977,451.35582274995977,451.35582274995977,453.4493801249773,457.46771545900265,451.35582274995977,451.35582274995977,456.52126341697294,451.35582274995977,451.35582274995977,451.35582274995977,451.35582274995977,451.82019333395874,452.8907374999835,451.7907466666695,,453.4493801249773,454.52209399995627,453.41920412565037,,451.35582274995977,456.52126341697294,451.35582274995977,456.52126341697294,456.56238616700284,457.21458095900016,451.35582274995977,1,1,1.4936311659985222,reldom2_s025,001,2025-03-07_09h59.45.764,Aud-B-Scan_AC,2022.2.5,None,
38,First_Order,7.0,audwhere,stimulus/audwhere_stim/dummy.wav,stimulus/audwhere_stim/dummy.wav,stimulus/audwhere_stim/right_toward_290h.wav,stimulus/audwhere_stim/right_away_270h.wav,stimulus/audwhere_stim/blank_white.png,stimulus/audwhere_stim/side_box.png,stimulus/audwhere_stim/side_yes.png,stimulus/audwhere_stim/side_no.png,None,Side,None,Side,1,0.0,0,5.125,0,5.125,0,5.125,0,0.0,0.625,0,0,0,0,0,0,0,0,0,0.0,0,0.0,1,0.5,1,2.125,0,,,,,0,50,50,50,,,,,,,,,457.46771545900265,457.46771545900265,457.46771545900265,457.46771545900265,457.46771545900265,457.46771545900265,457.46771545900265,457.46771545900265,457.388942792286,457.46771545900265,457.46771545900265,457.46771545900265,457.388942792286,457.46771545900265,457.46771545900265,457.46771545900265,459.5493828339968,463.5941929589608,457.46771545900265,457.46771545900265,462.6501511670067,457.46771545900265,457.46771545900265,457.46771545900265,457.46771545900265,457.9308795419638,458.9952593749622,457.9010546256361,,459.5493828339968,460.61454758397304,459.519522666644,,457.46771545900265,462.6501511670067,457.46771545900265,462.6501511670067,462.69126999995206,463.3420273750089,457.46771545900265,1,1,1.991557666042354,reldom2_s025,001,2025-03-07_09h59.45.764,Aud-B-Scan_AC,2022.2.5,None,
39,First_Order,7.0,audwhere,stimulus/audwhere_stim/dummy.wav,stimulus/audwhere_stim/dummy.wav,stimulus/audwhere_stim/left_away_290h.wav,stimulus/audwhere_stim/left_toward_290h.wav,stimulus/audwhere_stim/blank_white.png,stimulus/audwhere_stim/direction_box.png,stimulus/audwhere_stim/direction_yes.png,stimulus/audwhere_stim/direction_no.png,None,Direction,None,Side,2,0.0,0,5.125,0,5.125,0,5.125,0,0.0,0.625,0,0,0,0,0,0,0,0,0,0.0,0,0.0,1,0.5,1,2.125,0,,,,,0,51,51,51,,,,,,,,,463.5941929589608,463.5941929589608,463.5941929589608,463.5941929589608,463.5941929589608,463.5941929589608,463.5941929589608,463.5941929589608,463.515857500288,463.5941929589608,463.5941929589608,463.5941929589608,463.515857500288,463.5941929589608,463.5941929589608,463.5941929589608,465.68981700000586,469.71332745900145,463.5941929589608,463.5941929589608,468.76360454200767,463.5941929589608,463.5941929589608,463.5941929589608,463.5941929589608,464.0607369169593,465.1319979589898,464.03084083367526,,465.68981700000586,466.7643228749512,465.6597944166317,,463.5941929589608,468.76360454200767,463.5941929589608,468.76360454200767,468.8046909169643,469.45990979199996,463.5941929589608,2,1,1.5306528740329668,reldom2_s025,001,2025-03-07_09h59.45.764,Aud-B-Scan_AC,2022.2.5,None,
40,First_Order,7.0,audwhere,stimulus/audwhere_stim/dummy.wav,stimulus/audwhere_stim/dummy.wav,stimulus/audwhere_stim/right_away_280h.wav,stimulus/audwhere_stim/right_toward_290h.wav,stimulus/audwhere_stim/blank_white.png,stimulus/audwhere_stim/direction_box.png,stimulus/audwhere_stim/direction_yes.png,stimulus/audwhere_stim/direction_no.png,None,Direction,None,Side,2,0.0,0,5.125,0,5.125,0,5.125,0,0.0,0.625,0,0,0,0,0,0,0,0,0,0.0,0,0.0,1,0.5,1,2.125,0,,,,,0,52,52,52,,,,,,,,,469.71332745900145,469.71332745900145,469.71332745900145,469.71332745900145,469.71332745900145,469.71332745900145,469.71332745900145,469.71332745900145,469.63407141730033,469.71332745900145,469.71332745900145,469.71332745900145,469.63407141730033,469.71332745900145,469.71332745900145,469.71332745900145,471.8074949589791,475.85416004195577,469.71332745900145,469.71332745900145,474.8838192920084,469.71332745900145,469.71332745900145,469.71332745900145,469.71332745900145,470.1794401250081,471.25021387496963,470.1495778756255,,471.8074949589791,472.88192579196766,471.77736941667195,,469.71332745900145,474.8838192920084,469.71332745900145,474.8838192920084,474.9251534169889,475.57946974999504,469.71332745900145,2,1,2.2213069159770384,reldom2_s025,001,2025-03-07_09h59.45.764,Aud-B-Scan_AC,2022.2.5,None,
0,0.0,None,fixation,stimulus/audwhat_stim/blank_white.png,stimulus/audwhat_stim/blank_white.png,stimulus/audwhere_stim/blank_white.png,stimulus/audwhere_stim/blank_white.png,stimulus/audwhat_stim/blank_white.png,stimulus/audwhat_stim/blank_white.png,stimulus/audwhat_stim/blank_white.png,stimulus/audwhat_stim/blank_white.png,0.0,0.0,0.0,0.0,0,0.0,0,0.0,0,0.0,0,0.0,0,0.0,0.0,0,0,0,0,0,0,0,0,0,0.0,0,0.0,0,0.0,0,0.0,8,,,,,0,53,53,53,,,,,,,,,475.85416004195577,475.85416004195577,475.85416004195577,475.85416004195577,475.85416004195577,475.85416004195577,475.85416004195577,475.85416004195577,475.75397245833494,475.85416004195577,475.85416004195577,475.85416004195577,475.75397245833494,475.85416004195577,475.85416004195577,475.85416004195577,475.85416004195577,475.85416004195577,475.85416004195577,475.85416004195577,475.85416004195577,475.85416004195577,475.85416004195577,475.85416004195577,475.85416004195577,475.85416004195577,475.85416004195577,475.80397245833495,475.85416004195577,475.85416004195577,475.85416004195577,475.80397245833495,475.85416004195577,475.85416004195577,475.85416004195577,475.85416004195577,475.85416004195577,481.03904058400076,481.03904058400076,484.01596874999814,None,0,,reldom2_s025,001,2025-03-07_09h59.45.764,Aud-B-Scan_AC,2022.2.5,None,
41,Second_Order,7.0,audwhere,stimulus/audwhere_stim/left_toward_300h.wav,stimulus/audwhere_stim/right_toward_280h.wav,stimulus/audwhere_stim/right_toward_270h.wav,stimulus/audwhere_stim/right_away_290h.wav,stimulus/audwhat_stim/match_blank.png,stimulus/audwhat_stim/match_box.png,stimulus/audwhat_stim/match_yes.png,stimulus/audwhat_stim/match_no.png,2.0,Match,Direction,Side,2,5.125,0,5.125,0,5.125,0,5.125,0,0.75,0.75,0,0,0,0,0,0,0,0,1,0.5,1,2.125,1,0.5,1,2.125,0,,,,,0,54,54,54,,,,,,,,,484.01596874999814,489.1326315419865,484.01596874999814,484.01596874999814,484.01596874999814,484.01596874999814,484.47026908397675,485.4575325839687,484.48405508365636,,486.0931042919983,487.09002308396157,486.10504216666254,,489.1326315419865,489.9816087089712,492.05080241698306,,489.9816087089712,489.9816087089712,495.14859520900063,489.9816087089712,489.9816087089712,489.9816087089712,489.9816087089712,490.44219741696725,491.50083279196406,490.4127920416688,,492.05080241698306,493.1182979589794,492.02105587564097,,489.9816087089712,495.14859520900063,489.9816087089712,495.14859520900063,495.14859520900063,,489.9816087089712,2,1,0.7723324989783578,reldom2_s025,001,2025-03-07_09h59.45.764,Aud-B-Scan_AC,2022.2.5,None,
42,Second_Order,7.0,audwhere,stimulus/audwhere_stim/right_toward_290h.wav,stimulus/audwhere_stim/left_toward_270h.wav,stimulus/audwhere_stim/left_toward_290h.wav,stimulus/audwhere_stim/left_away_280h.wav,stimulus/audwhat_stim/match_blank.png,stimulus/audwhat_stim/match_box.png,stimulus/audwhat_stim/match_yes.png,stimulus/audwhat_stim/match_no.png,2.0,Match,Direction,Side,2,5.125,0,5.125,0,5.125,0,5.125,0,0.625,0.625,0,0,0,0,0,0,0,0,1,0.5,1,2.125,1,0.5,1,2.125,0,,,,,0,55,55,55,,,,,,,,,495.95675920898793,501.07741595897824,495.95675920898793,495.95675920898793,495.95675920898793,495.95675920898793,496.4139340419788,497.401274541975,496.42808608361906,,498.0373664170038,499.03504945896566,498.0488208336212,,501.07741595897824,501.8050108339521,503.8611176669947,,501.8050108339521,501.8050108339521,506.983965041989,501.8050108339521,501.8050108339521,501.8050108339521,501.8050108339521,502.25992199999746,503.3134243749664,502.2307597506481,,503.8611176669947,504.9179793749936,503.8314986666703,,501.8050108339521,506.983965041989,501.8050108339521,506.983965041989,506.983965041989,507.66798308398575,501.8050108339521,2,1,1.2565034999861382,reldom2_s025,001,2025-03-07_09h59.45.764,Aud-B-Scan_AC,2022.2.5,None,
0,0.0,None,fixation,stimulus/audwhat_stim/blank_white.png,stimulus/audwhat_stim/blank_white.png,stimulus/audwhere_stim/blank_white.png,stimulus/audwhere_stim/blank_white.png,stimulus/audwhat_stim/blank_white.png,stimulus/audwhat_stim/blank_white.png,stimulus/audwhat_stim/blank_white.png,stimulus/audwhat_stim/blank_white.png,0.0,0.0,0.0,0.0,0,0.0,0,0.0,0,0.0,0,0.0,0,0.0,0.0,0,0,0,0,0,0,0,0,0,0.0,0,0.0,0,0.0,0,0.0,10,,,,,0,56,56,56,,,,,,,,,507.8996289999923,507.8996289999923,507.8996289999923,507.8996289999923,507.8996289999923,507.8996289999923,507.8996289999923,507.8996289999923,507.8013164173191,507.8996289999923,507.8996289999923,507.8996289999923,507.8013164173191,507.8996289999923,507.8996289999923,507.8996289999923,507.8996289999923,507.8996289999923,507.8996289999923,507.8996289999923,507.8996289999923,507.8996289999923,507.8996289999923,507.8996289999923,507.8996289999923,507.8996289999923,507.8996289999923,507.8513164173191,507.8996289999923,507.8996289999923,507.8996289999923,507.8513164173191,507.8996289999923,507.8996289999923,507.8996289999923,507.8996289999923,507.8996289999923,513.0870393749792,513.0870393749792,518.1567361669731,None,0,,reldom2_s025,001,2025-03-07_09h59.45.764,Aud-B-Scan_AC,2022.2.5,None,
43,First_Order,8.0,audwhere,stimulus/audwhere_stim/dummy.wav,stimulus/audwhere_stim/dummy.wav,stimulus/audwhere_stim/right_toward_270h.wav,stimulus/audwhere_stim/left_toward_300h.wav,stimulus/audwhere_stim/blank_white.png,stimulus/audwhere_stim/side_box.png,stimulus/audwhere_stim/side_yes.png,stimulus/audwhere_stim/side_no.png,None,Side,None,Direction,2,0.0,0,5.125,0,5.125,0,5.125,0,0.0,0.625,0,0,0,0,0,0,0,0,0,0.0,0,0.0,1,0.5,1,2.125,0,,,,,0,57,57,57,,,,,,,,,518.1567361669731,518.1567361669731,518.1567361669731,518.1567361669731,518.1567361669731,518.1567361669731,518.1567361669731,518.1567361669731,518.0854435006428,518.1567361669731,518.1567361669731,518.1567361669731,518.0854435006428,518.1567361669731,518.1567361669731,518.1567361669731,520.234730666969,524.2755052499706,518.1567361669731,518.1567361669731,523.3316534169717,518.1567361669731,518.1567361669731,518.1567361669731,518.1567361669731,518.6203969169874,519.6826055419515,518.590806708675,,520.234730666969,521.2984569589607,520.2058148756662,,518.1567361669731,523.3316534169717,518.1567361669731,523.3316534169717,523.3726040839683,524.0231486670091,518.1567361669731,1,0,1.4112882500048727,reldom2_s025,001,2025-03-07_09h59.45.764,Aud-B-Scan_AC,2022.2.5,None,
44,First_Order,8.0,audwhere,stimulus/audwhere_stim/dummy.wav,stimulus/audwhere_stim/dummy.wav,stimulus/audwhere_stim/right_toward_270h.wav,stimulus/audwhere_stim/left_toward_280h.wav,stimulus/audwhere_stim/blank_white.png,stimulus/audwhere_stim/side_box.png,stimulus/audwhere_stim/side_yes.png,stimulus/audwhere_stim/side_no.png,None,Side,None,Direction,2,0.0,0,5.125,0,5.125,0,5.125,0,0.0,0.625,0,0,0,0,0,0,0,0,0,0.0,0,0.0,1,0.5,1,2.125,0,,,,,0,58,58,58,,,,,,,,,524.2755052499706,524.2755052499706,524.2755052499706,524.2755052499706,524.2755052499706,524.2755052499706,524.2755052499706,524.2755052499706,524.197370583339,524.2755052499706,524.2755052499706,524.2755052499706,524.197370583339,524.2755052499706,524.2755052499706,524.2755052499706,526.3596895840019,530.4061519999523,524.2755052499706,524.2755052499706,529.4575083749951,524.2755052499706,524.2755052499706,524.2755052499706,524.2755052499706,524.7407887089648,525.8048179589678,524.7110975836442,,526.3596895840019,527.4263376669842,526.3286942916495,,524.2755052499706,529.4575083749951,524.2755052499706,529.4575083749951,529.4989262919989,530.1518110419856,524.2755052499706,2,1,0.9447626250330359,reldom2_s025,001,2025-03-07_09h59.45.764,Aud-B-Scan_AC,2022.2.5,None,
45,First_Order,8.0,audwhere,stimulus/audwhere_stim/dummy.wav,stimulus/audwhere_stim/dummy.wav,stimulus/audwhere_stim/right_toward_270h.wav,stimulus/audwhere_stim/left_toward_290h.wav,stimulus/audwhere_stim/blank_white.png,stimulus/audwhere_stim/direction_box.png,stimulus/audwhere_stim/direction_yes.png,stimulus/audwhere_stim/direction_no.png,None,Direction,None,Direction,1,0.0,0,5.125,0,5.125,0,5.125,0,0.0,0.625,0,0,0,0,0,0,0,0,0,0.0,0,0.0,1,0.5,1,2.125,0,,,,,0,59,59,59,,,,,,,,,530.4061519999523,530.4061519999523,530.4061519999523,530.4061519999523,530.4061519999523,530.4061519999523,530.4061519999523,530.4061519999523,530.3254578752986,530.4061519999523,530.4061519999523,530.4061519999523,530.3254578752986,530.4061519999523,530.4061519999523,530.4061519999523,532.5046739589889,536.5352343340055,530.4061519999523,530.4061519999523,535.5819650839549,530.4061519999523,530.4061519999523,530.4061519999523,530.4061519999523,530.871899583959,531.9437327089836,530.8418696256742,,532.5046739589889,533.578485749953,532.4744205416685,,530.4061519999523,535.5819650839549,530.4061519999523,535.5819650839549,535.6234598750016,536.2812569589587,530.4061519999523,1,1,2.1479363740072586,reldom2_s025,001,2025-03-07_09h59.45.764,Aud-B-Scan_AC,2022.2.5,None,
46,First_Order,8.0,audwhere,stimulus/audwhere_stim/dummy.wav,stimulus/audwhere_stim/dummy.wav,stimulus/audwhere_stim/left_away_300h.wav,stimulus/audwhere_stim/left_toward_300h.wav,stimulus/audwhere_stim/blank_white.png,stimulus/audwhere_stim/side_box.png,stimulus/audwhere_stim/side_yes.png,stimulus/audwhere_stim/side_no.png,None,Side,None,Side,1,0.0,0,5.125,0,5.125,0,5.125,0,0.0,0.625,0,0,0,0,0,0,0,0,0,0.0,0,0.0,1,0.5,1,2.125,0,,,,,0,60,60,60,,,,,,,,,536.5352343340055,536.5352343340055,536.5352343340055,536.5352343340055,536.5352343340055,536.5352343340055,536.5352343340055,536.5352343340055,536.4546435423273,536.5352343340055,536.5352343340055,536.5352343340055,536.4546435423273,536.5352343340055,536.5352343340055,536.5352343340055,538.6222799999523,,536.5352343340055,536.5352343340055,541.7263096669922,536.5352343340055,536.5352343340055,536.5352343340055,536.5352343340055,536.9989954999764,538.0658822919941,536.9693400416329,,538.6222799999523,539.6882644169964,538.5927427506579,,536.5352343340055,541.7263096669922,536.5352343340055,541.7263096669922,541.7263096669922,542.3818055839511,536.5352343340055,1,1,1.112117082986515,reldom2_s025,001,2025-03-07_09h59.45.764,Aud-B-Scan_AC,2022.2.5,None,
0,0.0,None,fixation,stimulus/audwhat_stim/blank_white.png,stimulus/audwhat_stim/blank_white.png,stimulus/audwhere_stim/blank_white.png,stimulus/audwhere_stim/blank_white.png,stimulus/audwhat_stim/blank_white.png,stimulus/audwhat_stim/blank_white.png,stimulus/audwhat_stim/blank_white.png,stimulus/audwhat_stim/blank_white.png,0.0,0.0,0.0,0.0,0,0.0,0,0.0,0,0.0,0,0.0,0,0.0,0.0,0,0,0,0,0,0,0,0,0,0.0,0,0.0,0,0.0,0,0.0,9,,,,,0,61,61,61,,,,,,,,,542.6556541249738,542.6556541249738,542.6556541249738,542.6556541249738,542.6556541249738,542.6556541249738,542.6556541249738,542.6556541249738,542.5561433753193,542.6556541249738,542.6556541249738,542.6556541249738,542.5561433753193,542.6556541249738,542.6556541249738,542.6556541249738,542.6556541249738,542.6556541249738,542.6556541249738,542.6556541249738,542.6556541249738,542.6556541249738,542.6556541249738,542.6556541249738,542.6556541249738,542.6556541249738,542.6556541249738,542.6061433753192,542.6556541249738,542.6556541249738,542.6556541249738,542.6061433753192,542.6556541249738,542.6556541249738,542.6556541249738,542.6556541249738,542.6556541249738,547.8443759589572,547.8443759589572,551.785279083997,None,0,,reldom2_s025,001,2025-03-07_09h59.45.764,Aud-B-Scan_AC,2022.2.5,None,
47,Second_Order,8.0,audwhere,stimulus/audwhere_stim/right_away_300h.wav,stimulus/audwhere_stim/right_toward_270h.wav,stimulus/audwhere_stim/left_away_280h.wav,stimulus/audwhere_stim/left_toward_270h.wav,stimulus/audwhat_stim/match_blank.png,stimulus/audwhat_stim/match_box.png,stimulus/audwhat_stim/match_yes.png,stimulus/audwhat_stim/match_no.png,1.0,Match,Side,Side,1,5.125,0,5.125,0,5.125,0,5.125,0,0.75,0.75,0,0,0,0,0,0,0,0,1,0.5,1,2.125,1,0.5,1,2.125,0,,,,,0,62,62,62,,,,,,,,,551.785279083997,556.9067747920053,551.785279083997,551.785279083997,551.785279083997,551.785279083997,552.2446024999954,553.2431171250064,552.2575523756716,,553.8661625839886,554.863781833963,553.8781300006706,,556.9067747920053,557.7537297089584,559.8289345419616,,557.7537297089584,557.7537297089584,562.9271413339884,557.7537297089584,557.7537297089584,557.7537297089584,557.7537297089584,558.2129748750012,559.274308708962,558.1834141666225,,559.8289345419616,560.8991056249943,559.7991180416468,,557.7537297089584,562.9271413339884,557.7537297089584,562.9271413339884,562.9271413339884,,557.7537297089584,1,1,0.794046541035641,reldom2_s025,001,2025-03-07_09h59.45.764,Aud-B-Scan_AC,2022.2.5,None,
48,Second_Order,8.0,audwhere,stimulus/audwhere_stim/right_toward_270h.wav,stimulus/audwhere_stim/right_away_270h.wav,stimulus/audwhere_stim/left_away_280h.wav,stimulus/audwhere_stim/left_toward_290h.wav,stimulus/audwhat_stim/match_blank.png,stimulus/audwhat_stim/match_box.png,stimulus/audwhat_stim/match_yes.png,stimulus/audwhat_stim/match_no.png,1.0,Match,Side,Side,1,5.125,0,5.125,0,5.125,0,5.125,0,0.625,0.625,0,0,0,0,0,0,0,0,1,0.5,1,2.125,1,0.5,1,2.125,0,,,,,0,63,63,63,,,,,,,,,563.7352892499766,568.8523501669988,563.7352892499766,563.7352892499766,563.7352892499766,563.7352892499766,564.1872457090067,565.1749191249837,564.2013826256191,,565.8097405839944,566.8081043749698,565.8225381256236,,568.8523501669988,569.5804819999612,571.6436909589684,575.6939539589803,569.5804819999612,569.5804819999612,574.7745982089546,569.5804819999612,569.5804819999612,569.5804819999612,569.5804819999612,570.0361823749845,571.0918689169921,570.0066882916183,,571.6436909589684,572.704481416964,571.6141592916722,,569.5804819999612,574.7745982089546,569.5804819999612,574.7745982089546,574.7745982089546,575.462262541987,569.5804819999612,1,1,1.165420290955808,reldom2_s025,001,2025-03-07_09h59.45.764,Aud-B-Scan_AC,2022.2.5,None,
0,0.0,None,fixation,stimulus/audwhat_stim/blank_white.png,stimulus/audwhat_stim/blank_white.png,stimulus/audwhere_stim/blank_white.png,stimulus/audwhere_stim/blank_white.png,stimulus/audwhat_stim/blank_white.png,stimulus/audwhat_stim/blank_white.png,stimulus/audwhat_stim/blank_white.png,stimulus/audwhat_stim/blank_white.png,0.0,0.0,0.0,0.0,0,0.0,0,0.0,0,0.0,0,0.0,0,0.0,0.0,0,0,0,0,0,0,0,0,0,0.0,0,0.0,0,0.0,0,0.0,16,,,,,0,64,64,64,,,,,,,,,575.6939539589803,575.6939539589803,575.6939539589803,575.6939539589803,575.6939539589803,575.6939539589803,575.6939539589803,575.6939539589803,575.5955958753203,575.6939539589803,575.6939539589803,575.6939539589803,575.5955958753203,575.6939539589803,575.6939539589803,575.6939539589803,575.6939539589803,575.6939539589803,575.6939539589803,575.6939539589803,575.6939539589803,575.6939539589803,575.6939539589803,575.6939539589803,575.6939539589803,575.6939539589803,575.6939539589803,575.6455958753203,575.6939539589803,575.6939539589803,575.6939539589803,575.6455958753203,575.6939539589803,575.6939539589803,575.6939539589803,575.6939539589803,575.6939539589803,580.8904911249992,580.8904911249992,591.8224266250036,None,0,,reldom2_s025,001,2025-03-07_09h59.45.764,Aud-B-Scan_AC,2022.2.5,None,
