Trial,Order,Block,Type,Stimuli_File1,Stimuli_File2,Stimuli_File3,Stimuli_File4,Cue_File1,Cue_File2,Response_File_Yes,Response_File_No,Match,Cue_Dimension,Pair1_Dimension,Pair2_Dimension,Key,Cue1_Duration,Cue1_Onset,Cue2_Duration,Cue2_Onset,ResponseYes_Duration,ResponseYes_Onset,ResponseNo_Duration,ResponseNo_Onset,ITI_Within,ITI_Between,Image1_Duration,Image1_Onset,Image2_Duration,Image2_Onset,Image3_Duration,Image3_Onset,Image4_Duration,Image4_Onset,Sound1_Duration,Sound1_Onset,Sound2_Duration,Sound2_Onset,Sound3_Duration,Sound3_Onset,Sound4_Duration,Sound4_Onset,Fixation_Duration,trials_2.thisRepN,trials_2.thisTrialN,trials_2.thisN,trials_2.thisIndex,trials.thisRepN,trials.thisTrialN,trials.thisN,trials.thisIndex,text_start.started,key_resp_start.started,key_resp_start.keys,key_resp_start.rt,text2.started,key_resp_2.started,key_resp_2.keys,key_resp_2.rt,cue_file1.started,cue_file1.stopped,image_1.started,image_1.stopped,image_2.started,image_2.stopped,sound_icon1.started,sound_icon1.stopped,sound_1.started,sound_1.stopped,sound_icon2.started,sound_icon2.stopped,sound_2.started,sound_2.stopped,image_blank_1.started,image_blank_1.stopped,key_press.started,key_press.stopped,fixation_text.started,cue_file2.started,cue_file2.stopped,image_3.started,image_3.stopped,image_4.started,image_4.stopped,sound_icon3.started,sound_icon3.stopped,sound_3.started,sound_3.stopped,sound_icon4.started,sound_icon4.stopped,sound_4.started,sound_4.stopped,response_yes.started,response_yes.stopped,response_no.started,response_no.stopped,iti_blank.started,iti_blank.stopped,fixation_text.stopped,key_press.keys,key_press.corr,key_press.rt,participant,session,date,expName,psychopyVersion,frameRate,
,,,,,,,,,,,,,,,,,,,,,,,,,,,,,,,,,,,,,,,,,,,,,,,,,,,,9.419917584047653,9.419917584047653,2,1.2956773329642601,,,,,,,,,,,,,,,,,,,,,,,,,,,,,,,,,,,,,,,,,,,,,,,,reldom2_s025,001,2025-03-07_10h30.41.375,What-B-Scan_AC,2022.2.5,None,
,,,,,,,,,,,,,,,,,,,,,,,,,,,,,,,,,,,,,,,,,,,,0,0,0,0,,,,,,,,,10.74952954199398,10.74952954199398,5,25.03250637394376,,,,,,,,,,,,,,,,,,,,,,,,,,,,,,,,,,,,,,,,,,,,reldom2_s025,001,2025-03-07_10h30.41.375,What-B-Scan_AC,2022.2.5,None,
,,,,,,,,,,,,,,,,,,,,,,,,,,,,,,,,,,,,,,,,,,,,1,0,1,0,,,,,,,,,35.794055375037715,35.794055375037715,5,1.9895492499344982,,,,,,,,,,,,,,,,,,,,,,,,,,,,,,,,,,,,,,,,,,,,reldom2_s025,001,2025-03-07_10h30.41.375,What-B-Scan_AC,2022.2.5,None,
,,,,,,,,,,,,,,,,,,,,,,,,,,,,,,,,,,,,,,,,,,,,2,0,2,0,,,,,,,,,37.80763970903354,37.80763970903354,5,1.9739207079983316,,,,,,,,,,,,,,,,,,,,,,,,,,,,,,,,,,,,,,,,,,,,reldom2_s025,001,2025-03-07_10h30.41.375,What-B-Scan_AC,2022.2.5,None,
,,,,,,,,,,,,,,,,,,,,,,,,,,,,,,,,,,,,,,,,,,,,3,0,3,0,,,,,,,,,39.80223087500781,39.80223087500781,5,1.9816911239759065,,,,,,,,,,,,,,,,,,,,,,,,,,,,,,,,,,,,,,,,,,,,reldom2_s025,001,2025-03-07_10h30.41.375,What-B-Scan_AC,2022.2.5,None,
0,0.0,None,fixation,stimulus/viswhat_stim/blank_white.png,stimulus/viswhat_stim/blank_white.png,stimulus/audwhat_stim/blank_white.png,stimulus/audwhat_stim/blank_white.png,stimulus/viswhat_stim/blank_white.png,stimulus/viswhat_stim/blank_white.png,stimulus/viswhat_stim/blank_white.png,stimulus/viswhat_stim/blank_white.png,0.0,0.0,0.0,0.0,0,0.0,0,0.0,0,0.0,0,0.0,0,0.0,0.0,0,0.0,0,0.0,0,0.0,0,0.0,0,0.0,0,0.0,0,0.0,0,0.0,16,,,,,0,0,0,0,,,,,,,,,41.99794062500587,41.99794062500587,41.99794062500587,41.99794062500587,41.99794062500587,41.99794062500587,41.99794062500587,41.99794062500587,41.90221954168907,41.99794062500587,41.99794062500587,41.99794062500587,41.90221954168907,41.99794062500587,41.99794062500587,41.99794062500587,41.99794062500587,41.99794062500587,41.99794062500587,41.99794062500587,41.99794062500587,41.99794062500587,41.99794062500587,41.99794062500587,41.99794062500587,41.99794062500587,41.99794062500587,41.95221954168907,41.99794062500587,41.99794062500587,41.99794062500587,41.95221954168907,41.99794062500587,41.99794062500587,41.99794062500587,41.99794062500587,41.99794062500587,47.205378084036056,47.205378084036056,58.416254792013206,None,0,,reldom2_s025,001,2025-03-07_10h30.41.375,What-B-Scan_AC,2022.2.5,None,
1,First_Order,1.0,viswhat,stimulus/viswhat_stim/blank_white.png,stimulus/viswhat_stim/blank_white.png,stimulus/viswhat_stim/water_vehicle-pirateship.png,stimulus/viswhat_stim/water_animal-lobster.png,stimulus/viswhat_stim/blank_white.png,stimulus/viswhat_stim/location_box.png,stimulus/viswhat_stim/location_yes.png,stimulus/viswhat_stim/location_no.png,None,Location,None,Location,1,0.0,0,5.125,0,5.125,0,5.125,0,0.0,0.625,0,0.0,0,0.0,1,0.5,1,2.125,0,0.0,0,0.0,0,0.0,0,0.0,0,,,,,0,1,1,1,,,,,,,,,58.416254792013206,58.416254792013206,58.416254792013206,58.416254792013206,58.416254792013206,58.416254792013206,58.416254792013206,58.416254792013206,58.14097420903854,58.416254792013206,58.416254792013206,58.416254792013206,58.14097420903854,58.416254792013206,58.416254792013206,58.416254792013206,60.50915520900162,64.4797444170108,58.416254792013206,58.416254792013206,63.718867834017146,58.834112750017084,60.09139283403056,60.50915520900162,61.76583283400396,58.416254792013206,58.416254792013206,58.29097420903854,58.416254792013206,58.416254792013206,58.416254792013206,58.29097420903854,58.416254792013206,58.416254792013206,63.718867834017146,58.416254792013206,63.718867834017146,63.58439825003734,,58.416254792013206,1,1,0.8271776239853352,reldom2_s025,001,2025-03-07_10h30.41.375,What-B-Scan_AC,2022.2.5,None,
2,First_Order,1.0,viswhat,stimulus/viswhat_stim/blank_white.png,stimulus/viswhat_stim/blank_white.png,stimulus/viswhat_stim/land_vehicle-firetruck.png,stimulus/viswhat_stim/water_vehicle-jetski.png,stimulus/viswhat_stim/blank_white.png,stimulus/viswhat_stim/location_box.png,stimulus/viswhat_stim/location_yes.png,stimulus/viswhat_stim/location_no.png,None,Location,None,Type,2,0.0,0,5.125,0,5.125,0,5.125,0,0.0,0.625,0,0.0,0,0.0,1,0.5,1,2.125,0,0.0,0,0.0,0,0.0,0,0.0,0,,,,,0,2,2,2,,,,,,,,,64.4797444170108,64.4797444170108,64.4797444170108,64.4797444170108,64.4797444170108,64.4797444170108,64.4797444170108,64.4797444170108,64.44153070870476,64.4797444170108,64.4797444170108,64.4797444170108,64.44153070870476,64.4797444170108,64.4797444170108,64.4797444170108,66.5834984999965,70.61648070899537,64.4797444170108,64.4797444170108,69.60904050001409,64.95596333401045,65.9860937090125,66.5834984999965,67.59364858403569,64.4797444170108,64.4797444170108,64.45819737537143,64.4797444170108,64.4797444170108,64.4797444170108,64.45819737537143,64.4797444170108,64.4797444170108,69.60904050001409,64.4797444170108,69.60904050001409,69.70145566703286,70.33235929202056,64.4797444170108,2,1,1.2028503329493105,reldom2_s025,001,2025-03-07_10h30.41.375,What-B-Scan_AC,2022.2.5,None,
3,First_Order,1.0,viswhat,stimulus/viswhat_stim/blank_white.png,stimulus/viswhat_stim/blank_white.png,stimulus/viswhat_stim/land_animal-moose.png,stimulus/viswhat_stim/water_animal-jellyfish.png,stimulus/viswhat_stim/blank_white.png,stimulus/viswhat_stim/type_box.png,stimulus/viswhat_stim/type_yes.png,stimulus/viswhat_stim/type_no.png,None,Type,None,Type,1,0.0,0,5.125,0,5.125,0,5.125,0,0.0,0.625,0,0.0,0,0.0,1,0.5,1,2.125,0,0.0,0,0.0,0,0.0,0,0.0,0,,,,,0,3,3,3,,,,,,,,,70.61648070899537,70.61648070899537,70.61648070899537,70.61648070899537,70.61648070899537,70.61648070899537,70.61648070899537,70.61648070899537,70.52473045899532,70.61648070899537,70.61648070899537,70.61648070899537,70.52473045899532,70.61648070899537,70.61648070899537,70.61648070899537,72.69988870900124,,70.61648070899537,70.61648070899537,75.82882170903031,71.07751770899631,72.12269216700224,72.69988870900124,73.74536287499359,70.61648070899537,70.61648070899537,70.57473045899533,70.61648070899537,70.61648070899537,70.61648070899537,70.57473045899533,70.61648070899537,70.61648070899537,75.82882170903031,70.61648070899537,75.82882170903031,75.82882170903031,76.67122320900671,70.61648070899537,1,1,0.7211466239532456,reldom2_s025,001,2025-03-07_10h30.41.375,What-B-Scan_AC,2022.2.5,None,
4,First_Order,1.0,viswhat,stimulus/viswhat_stim/blank_white.png,stimulus/viswhat_stim/blank_white.png,stimulus/viswhat_stim/land_animal-tiger.png,stimulus/viswhat_stim/land_vehicle-rv.png,stimulus/viswhat_stim/blank_white.png,stimulus/viswhat_stim/type_box.png,stimulus/viswhat_stim/type_yes.png,stimulus/viswhat_stim/type_no.png,None,Type,None,Location,2,0.0,0,5.125,0,5.125,0,5.125,0,0.0,0.625,0,0.0,0,0.0,1,0.5,1,2.125,0,0.0,0,0.0,0,0.0,0,0.0,0,,,,,0,4,4,4,,,,,,,,,76.67122320900671,76.67122320900671,76.67122320900671,76.67122320900671,76.67122320900671,76.67122320900671,76.67122320900671,76.67122320900671,76.62787529166478,76.67122320900671,76.67122320900671,76.67122320900671,76.62787529166478,76.67122320900671,76.67122320900671,76.67122320900671,78.76996900001541,82.80410387500888,76.67122320900671,76.67122320900671,81.83420924999518,77.14347662503133,78.16247966699302,78.76996900001541,79.79433154204162,76.67122320900671,76.67122320900671,76.64454195833144,76.67122320900671,76.67122320900671,76.67122320900671,76.64454195833144,76.67122320900671,76.67122320900671,81.83420924999518,76.67122320900671,81.83420924999518,81.89069770899368,82.54304737504572,76.67122320900671,2,1,0.5276095820008777,reldom2_s025,001,2025-03-07_10h30.41.375,What-B-Scan_AC,2022.2.5,None,
0,0.0,None,fixation,stimulus/viswhat_stim/blank_white.png,stimulus/viswhat_stim/blank_white.png,stimulus/audwhat_stim/blank_white.png,stimulus/audwhat_stim/blank_white.png,stimulus/viswhat_stim/blank_white.png,stimulus/viswhat_stim/blank_white.png,stimulus/viswhat_stim/blank_white.png,stimulus/viswhat_stim/blank_white.png,0.0,0.0,0.0,0.0,0,0.0,0,0.0,0,0.0,0,0.0,0,0.0,0.0,0,0.0,0,0.0,0,0.0,0,0.0,0,0.0,0,0.0,0,0.0,0,0.0,9,,,,,0,5,5,5,,,,,,,,,82.80410387500888,82.80410387500888,82.80410387500888,82.80410387500888,82.80410387500888,82.80410387500888,82.80410387500888,82.80410387500888,82.71612050066857,82.80410387500888,82.80410387500888,82.80410387500888,82.71612050066857,82.80410387500888,82.80410387500888,82.80410387500888,82.80410387500888,82.80410387500888,82.80410387500888,82.80410387500888,82.80410387500888,82.80410387500888,82.80410387500888,82.80410387500888,82.80410387500888,82.80410387500888,82.80410387500888,82.76612050066858,82.80410387500888,82.80410387500888,82.80410387500888,82.76612050066858,82.80410387500888,82.80410387500888,82.80410387500888,82.80410387500888,82.80410387500888,87.98696862504585,87.98696862504585,91.95711925002979,None,0,,reldom2_s025,001,2025-03-07_10h30.41.375,What-B-Scan_AC,2022.2.5,None,
5,Second_Order,1.0,viswhat,stimulus/viswhat_stim/land_animal-bunny.png,stimulus/viswhat_stim/land_vehicle-motorcycle.png,stimulus/viswhat_stim/water_animal-octopus.png,stimulus/viswhat_stim/land_animal-fox.png,stimulus/viswhat_stim/match_blank.png,stimulus/viswhat_stim/match_box.png,stimulus/viswhat_stim/match_yes.png,stimulus/viswhat_stim/match_no.png,2.0,Match,Location,Type,2,5.125,0,5.125,0,5.125,0,5.125,0,0.75,0.75,1,0.5,1,2.125,1,0.5,1,2.125,0,0.0,0,0.0,0,0.0,0,0.0,0,,,,,0,6,6,6,,,,,,,,,91.95711925002979,97.08076841704315,92.40197745902697,93.40115066699218,94.02355725003872,95.0212637920049,91.95711925002979,91.95711925002979,91.9699050836886,91.95711925002979,91.95711925002979,91.95711925002979,91.9699050836886,91.95711925002979,97.08076841704315,97.89849716704339,99.97257220902247,103.86466016701888,97.89849716704339,97.89849716704339,103.04643583402503,98.35285879200092,99.39001470903168,99.97257220902247,100.99113316700095,97.89849716704339,97.89849716704339,97.86435370899271,97.89849716704339,97.89849716704339,97.89849716704339,97.86435370899271,97.89849716704339,97.89849716704339,103.04643583402503,97.89849716704339,103.04643583402503,103.0966480000061,,97.89849716704339,2,1,0.7620132909505628,reldom2_s025,001,2025-03-07_10h30.41.375,What-B-Scan_AC,2022.2.5,None,
6,Second_Order,1.0,viswhat,stimulus/viswhat_stim/land_vehicle-tank.png,stimulus/viswhat_stim/land_animal-wolf.png,stimulus/viswhat_stim/water_vehicle-motorboatraft.png,stimulus/viswhat_stim/water_animal-squid.png,stimulus/viswhat_stim/match_blank.png,stimulus/viswhat_stim/match_box.png,stimulus/viswhat_stim/match_yes.png,stimulus/viswhat_stim/match_no.png,1.0,Match,Location,Location,1,5.125,0,5.125,0,5.125,0,5.125,0,0.625,0.625,1,0.5,1,2.125,1,0.5,1,2.125,0,0.0,0,0.0,0,0.0,0,0.0,0,,,,,0,7,7,7,,,,,,,,,103.86466016701888,108.98654770903522,104.34511675004615,105.33244295901386,105.96794116700767,106.96530591702322,103.86466016701888,103.86466016701888,103.86787908368666,103.86466016701888,103.86466016701888,103.86466016701888,103.86787908368666,103.86466016701888,108.98654770903522,109.68631020904286,111.76450358401053,115.79149900004268,109.68631020904286,109.68631020904286,114.81877429201268,110.11937950004358,111.15831825003261,111.76450358401053,112.78339133400004,109.68631020904286,109.68631020904286,109.65505520901642,109.68631020904286,109.68631020904286,109.68631020904286,109.65505520901642,109.68631020904286,109.68631020904286,114.81877429201268,109.68631020904286,114.81877429201268,114.8660679589957,115.50072291702963,109.68631020904286,1,1,0.854414250003174,reldom2_s025,001,2025-03-07_10h30.41.375,What-B-Scan_AC,2022.2.5,None,
0,0.0,None,fixation,stimulus/viswhat_stim/blank_white.png,stimulus/viswhat_stim/blank_white.png,stimulus/audwhat_stim/blank_white.png,stimulus/audwhat_stim/blank_white.png,stimulus/viswhat_stim/blank_white.png,stimulus/viswhat_stim/blank_white.png,stimulus/viswhat_stim/blank_white.png,stimulus/viswhat_stim/blank_white.png,0.0,0.0,0.0,0.0,0,0.0,0,0.0,0,0.0,0,0.0,0,0.0,0.0,0,0.0,0,0.0,0,0.0,0,0.0,0,0.0,0,0.0,0,0.0,0,0.0,9,,,,,0,8,8,8,,,,,,,,,115.79149900004268,115.79149900004268,115.79149900004268,115.79149900004268,115.79149900004268,115.79149900004268,115.79149900004268,115.79149900004268,115.69427712502656,115.79149900004268,115.79149900004268,115.79149900004268,115.69427712502656,115.79149900004268,115.79149900004268,115.79149900004268,115.79149900004268,115.79149900004268,115.79149900004268,115.79149900004268,115.79149900004268,115.79149900004268,115.79149900004268,115.79149900004268,115.79149900004268,115.79149900004268,115.79149900004268,115.74427712502657,115.79149900004268,115.79149900004268,115.79149900004268,115.74427712502657,115.79149900004268,115.79149900004268,115.79149900004268,115.79149900004268,115.79149900004268,120.98871325002983,120.98871325002983,125.25360454199836,None,0,,reldom2_s025,001,2025-03-07_10h30.41.375,What-B-Scan_AC,2022.2.5,None,
7,First_Order,2.0,viswhat,stimulus/viswhat_stim/blank_white.png,stimulus/viswhat_stim/blank_white.png,stimulus/viswhat_stim/water_animal-lobster.png,stimulus/viswhat_stim/water_vehicle-canoe.png,stimulus/viswhat_stim/blank_white.png,stimulus/viswhat_stim/location_box.png,stimulus/viswhat_stim/location_yes.png,stimulus/viswhat_stim/location_no.png,None,Location,None,Location,1,0.0,0,5.125,0,5.125,0,5.125,0,0.0,0.625,0,0.0,0,0.0,1,0.5,1,2.125,0,0.0,0,0.0,0,0.0,0,0.0,0,,,,,0,9,9,9,,,,,,,,,125.25360454199836,125.25360454199836,125.25360454199836,125.25360454199836,125.25360454199836,125.25360454199836,125.25360454199836,125.25360454199836,124.96326862500283,125.25360454199836,125.25360454199836,125.25360454199836,124.96326862500283,125.25360454199836,125.25360454199836,125.25360454199836,127.31233770900872,,125.25360454199836,125.25360454199836,130.55122466699686,125.69597025000257,126.8720308340271,127.31233770900872,128.49360987503314,125.25360454199836,125.25360454199836,125.11326862500282,125.25360454199836,125.25360454199836,125.25360454199836,125.11326862500282,125.25360454199836,125.25360454199836,130.55122466699686,125.25360454199836,130.55122466699686,130.40930537501117,,125.25360454199836,1,1,1.1595662499894388,reldom2_s025,001,2025-03-07_10h30.41.375,What-B-Scan_AC,2022.2.5,None,
8,First_Order,2.0,viswhat,stimulus/viswhat_stim/blank_white.png,stimulus/viswhat_stim/blank_white.png,stimulus/viswhat_stim/water_animal-jellyfish.png,stimulus/viswhat_stim/land_animal-bunny.png,stimulus/viswhat_stim/blank_white.png,stimulus/viswhat_stim/type_box.png,stimulus/viswhat_stim/type_yes.png,stimulus/viswhat_stim/type_no.png,None,Type,None,Type,1,0.0,0,5.125,0,5.125,0,5.125,0,0.0,0.625,0,0.0,0,0.0,1,0.5,1,2.125,0,0.0,0,0.0,0,0.0,0,0.0,0,,,,,0,10,10,10,,,,,,,,,131.25948083400726,131.25948083400726,131.25948083400726,131.25948083400726,131.25948083400726,131.25948083400726,131.25948083400726,131.25948083400726,131.16823870836137,131.25948083400726,131.25948083400726,131.25948083400726,131.16823870836137,131.25948083400726,131.25948083400726,131.25948083400726,133.37267983402126,137.35654654202517,131.25948083400726,131.25948083400726,136.4233154170215,131.72271033399738,132.80641545902472,133.37267983402126,134.41138191701612,131.25948083400726,131.25948083400726,131.21823870836138,131.25948083400726,131.25948083400726,131.25948083400726,131.21823870836138,131.25948083400726,131.25948083400726,136.4233154170215,131.25948083400726,136.4233154170215,136.46962287503993,137.1601375840255,131.25948083400726,1,1,1.1117733749561012,reldom2_s025,001,2025-03-07_10h30.41.375,What-B-Scan_AC,2022.2.5,None,
9,First_Order,2.0,viswhat,stimulus/viswhat_stim/blank_white.png,stimulus/viswhat_stim/blank_white.png,stimulus/viswhat_stim/land_animal-cat.png,stimulus/viswhat_stim/water_animal-whale (1).png,stimulus/viswhat_stim/blank_white.png,stimulus/viswhat_stim/location_box.png,stimulus/viswhat_stim/location_yes.png,stimulus/viswhat_stim/location_no.png,None,Location,None,Type,2,0.0,0,5.125,0,5.125,0,5.125,0,0.0,0.625,0,0.0,0,0.0,1,0.5,1,2.125,0,0.0,0,0.0,0,0.0,0,0.0,0,,,,,0,11,11,11,,,,,,,,,137.35654654202517,137.35654654202517,137.35654654202517,137.35654654202517,137.35654654202517,137.35654654202517,137.35654654202517,137.35654654202517,137.3101375840255,137.35654654202517,137.35654654202517,137.35654654202517,137.3101375840255,137.35654654202517,137.35654654202517,137.35654654202517,139.46960745903198,143.46558116702363,137.35654654202517,137.35654654202517,142.52210150001338,137.83765441703144,138.86319204204483,139.46960745903198,140.50293504202273,137.35654654202517,137.35654654202517,137.3268042506922,137.35654654202517,137.35654654202517,137.35654654202517,137.3268042506922,137.35654654202517,137.35654654202517,142.52210150001338,137.35654654202517,142.52210150001338,142.57500970904948,143.23352266702568,137.35654654202517,2,1,1.1020480409497395,reldom2_s025,001,2025-03-07_10h30.41.375,What-B-Scan_AC,2022.2.5,None,
10,First_Order,2.0,viswhat,stimulus/viswhat_stim/blank_white.png,stimulus/viswhat_stim/blank_white.png,stimulus/viswhat_stim/water_animal-shark.png,stimulus/viswhat_stim/water_vehicle-yacht.png,stimulus/viswhat_stim/blank_white.png,stimulus/viswhat_stim/type_box.png,stimulus/viswhat_stim/type_yes.png,stimulus/viswhat_stim/type_no.png,None,Type,None,Location,2,0.0,0,5.125,0,5.125,0,5.125,0,0.0,0.625,0,0.0,0,0.0,1,0.5,1,2.125,0,0.0,0,0.0,0,0.0,0,0.0,0,,,,,0,12,12,12,,,,,,,,,143.46558116702363,143.46558116702363,143.46558116702363,143.46558116702363,143.46558116702363,143.46558116702363,143.46558116702363,143.46558116702363,143.38568250004903,143.46558116702363,143.46558116702363,143.46558116702363,143.38568250004903,143.46558116702363,143.46558116702363,143.46558116702363,145.5530777090462,,143.46558116702363,143.46558116702363,148.6197960000136,143.93445287499344,144.99945220904192,145.5530777090462,146.58045495901024,143.46558116702363,143.46558116702363,143.435682500049,143.46558116702363,143.46558116702363,143.46558116702363,143.435682500049,143.46558116702363,143.46558116702363,148.6197960000136,143.46558116702363,148.6197960000136,148.65707470901543,149.32212320901453,143.46558116702363,2,1,0.6512391239521094,reldom2_s025,001,2025-03-07_10h30.41.375,What-B-Scan_AC,2022.2.5,None,
0,0.0,None,fixation,stimulus/viswhat_stim/blank_white.png,stimulus/viswhat_stim/blank_white.png,stimulus/audwhat_stim/blank_white.png,stimulus/audwhat_stim/blank_white.png,stimulus/viswhat_stim/blank_white.png,stimulus/viswhat_stim/blank_white.png,stimulus/viswhat_stim/blank_white.png,stimulus/viswhat_stim/blank_white.png,0.0,0.0,0.0,0.0,0,0.0,0,0.0,0,0.0,0,0.0,0,0.0,0.0,0,0.0,0,0.0,0,0.0,0,0.0,0,0.0,0,0.0,0,0.0,0,0.0,10,,,,,0,13,13,13,,,,,,,,,149.5871290420182,149.5871290420182,149.5871290420182,149.5871290420182,149.5871290420182,149.5871290420182,149.5871290420182,149.5871290420182,149.49223208337403,149.5871290420182,149.5871290420182,149.5871290420182,149.49223208337403,149.5871290420182,149.5871290420182,149.5871290420182,149.5871290420182,149.5871290420182,149.5871290420182,149.5871290420182,149.5871290420182,149.5871290420182,149.5871290420182,149.5871290420182,149.5871290420182,149.5871290420182,149.5871290420182,149.54223208337402,149.5871290420182,149.5871290420182,149.5871290420182,149.54223208337402,149.5871290420182,149.5871290420182,149.5871290420182,149.5871290420182,149.5871290420182,154.80097275000298,154.80097275000298,159.7113536670222,None,0,,reldom2_s025,001,2025-03-07_10h30.41.375,What-B-Scan_AC,2022.2.5,None,
11,Second_Order,2.0,viswhat,stimulus/viswhat_stim/land_animal-ostrich.png,stimulus/viswhat_stim/water_animal-stingray.png,stimulus/viswhat_stim/water_vehicle-cruiseship.png,stimulus/viswhat_stim/water_animal-seaturtle.png,stimulus/viswhat_stim/match_blank.png,stimulus/viswhat_stim/match_box.png,stimulus/viswhat_stim/match_yes.png,stimulus/viswhat_stim/match_no.png,2.0,Match,Type,Location,2,5.125,0,5.125,0,5.125,0,5.125,0,0.75,0.75,1,0.5,1,2.125,1,0.5,1,2.125,0,0.0,0,0.0,0,0.0,0,0.0,0,,,,,0,14,14,14,,,,,,,,,159.7113536670222,164.83222991699586,160.19109320902498,161.177707750001,161.81321841699537,162.81139566702768,159.7113536670222,159.7113536670222,159.7242330423634,159.7113536670222,159.7113536670222,159.7113536670222,159.7242330423634,159.7113536670222,164.83222991699586,165.80838333402062,167.81102941703284,,165.80838333402062,165.80838333402062,171.02371383400168,166.20831925002858,167.309676208999,167.81102941703284,168.9185460000299,165.80838333402062,165.80838333402062,165.71760929204757,165.80838333402062,165.80838333402062,165.80838333402062,165.71760929204757,165.80838333402062,165.80838333402062,171.02371383400168,165.80838333402062,171.02371383400168,170.92885475000367,,165.80838333402062,2,1,0.5973942499840632,reldom2_s025,001,2025-03-07_10h30.41.375,What-B-Scan_AC,2022.2.5,None,
12,Second_Order,2.0,viswhat,stimulus/viswhat_stim/land_animal-ostrich.png,stimulus/viswhat_stim/land_vehicle-oldcar.png,stimulus/viswhat_stim/water_vehicle-ship.png,stimulus/viswhat_stim/land_vehicle-vespa.png,stimulus/viswhat_stim/match_blank.png,stimulus/viswhat_stim/match_box.png,stimulus/viswhat_stim/match_yes.png,stimulus/viswhat_stim/match_no.png,2.0,Match,Location,Type,2,5.125,0,5.125,0,5.125,0,5.125,0,0.625,0.625,1,0.5,1,2.125,1,0.5,1,2.125,0,0.0,0,0.0,0,0.0,0,0.0,0,,,,,0,15,15,15,,,,,,,,,171.7212172090076,176.84344837500248,172.1864020000212,173.184856625041,173.80763808399206,174.80559858400375,171.7212172090076,171.7212172090076,171.7318027923427,171.7212172090076,171.7212172090076,171.7212172090076,171.7318027923427,171.7212172090076,176.84344837500248,177.62395770900184,179.6387978750281,,177.62395770900184,177.62395770900184,182.80539745901478,178.02615587500622,179.1003370420076,179.6387978750281,180.71772879204946,177.62395770900184,177.62395770900184,177.56157412504547,177.62395770900184,177.62395770900184,177.62395770900184,177.56157412504547,177.62395770900184,177.62395770900184,182.80539745901478,177.62395770900184,182.80539745901478,182.80539745901478,183.70029087504372,177.62395770900184,2,1,1.5365502909990028,reldom2_s025,001,2025-03-07_10h30.41.375,What-B-Scan_AC,2022.2.5,None,
0,0.0,None,fixation,stimulus/viswhat_stim/blank_white.png,stimulus/viswhat_stim/blank_white.png,stimulus/audwhat_stim/blank_white.png,stimulus/audwhat_stim/blank_white.png,stimulus/viswhat_stim/blank_white.png,stimulus/viswhat_stim/blank_white.png,stimulus/viswhat_stim/blank_white.png,stimulus/viswhat_stim/blank_white.png,0.0,0.0,0.0,0.0,0,0.0,0,0.0,0,0.0,0,0.0,0,0.0,0.0,0,0.0,0,0.0,0,0.0,0,0.0,0,0.0,0,0.0,0,0.0,0,0.0,9,,,,,0,16,16,16,,,,,,,,,183.70029087504372,183.70029087504372,183.70029087504372,183.70029087504372,183.70029087504372,183.70029087504372,183.70029087504372,183.70029087504372,183.6064104583774,183.70029087504372,183.70029087504372,183.70029087504372,183.6064104583774,183.70029087504372,183.70029087504372,183.70029087504372,183.70029087504372,183.70029087504372,183.70029087504372,183.70029087504372,183.70029087504372,183.70029087504372,183.70029087504372,183.70029087504372,183.70029087504372,183.70029087504372,183.70029087504372,183.65641045837742,183.70029087504372,183.70029087504372,183.70029087504372,183.65641045837742,183.70029087504372,183.70029087504372,183.70029087504372,183.70029087504372,183.70029087504372,188.90861987503013,188.90861987503013,192.95510362501955,None,0,,reldom2_s025,001,2025-03-07_10h30.41.375,What-B-Scan_AC,2022.2.5,None,
13,First_Order,3.0,audwhat,stimulus/audwhat_stim/dummy.wav,stimulus/audwhat_stim/dummy.wav,stimulus/audwhat_stim/percussion mallet_low-pitch_Ftri_loud.wav,stimulus/audwhat_stim/percussion xylophone_high-pitch_Dtri_loud.wav,stimulus/audwhat_stim/blank_white.png,stimulus/audwhat_stim/pitch_box.png,stimulus/audwhat_stim/pitch_yes.png,stimulus/audwhat_stim/pitch_no.png,None,Pitch,None,Category,2,0.0,0,5.125,0,5.125,0,5.125,0,0.0,0.625,0,0.0,0,0.0,0,0.0,0,0.0,0,0.0,0,0.0,1,0.5,1,2.125,0,,,,,0,17,17,17,,,,,,,,,192.95510362501955,192.95510362501955,192.95510362501955,192.95510362501955,192.95510362501955,192.95510362501955,192.95510362501955,192.95510362501955,192.88667704168864,192.95510362501955,192.95510362501955,192.95510362501955,192.88667704168864,192.95510362501955,192.95510362501955,192.95510362501955,195.05601429200033,,192.95510362501955,192.95510362501955,198.11684737500036,192.95510362501955,192.95510362501955,192.95510362501955,192.95510362501955,193.41173512500245,194.46320275001926,193.38260379166266,,195.05601429200033,196.10979275003774,195.02715737570932,196.064087167033,192.95510362501955,198.11684737500036,192.95510362501955,198.11684737500036,198.15734325000085,198.8378820840153,192.95510362501955,2,1,1.8018350410275161,reldom2_s025,001,2025-03-07_10h30.41.375,What-B-Scan_AC,2022.2.5,None,
14,First_Order,3.0,audwhat,stimulus/audwhat_stim/dummy.wav,stimulus/audwhat_stim/dummy.wav,stimulus/audwhat_stim/string cello_low-pitch_D_loud.wav,stimulus/audwhat_stim/percussion mallet_low-pitch_D_loud.wav,stimulus/audwhat_stim/blank_white.png,stimulus/audwhat_stim/pitch_box.png,stimulus/audwhat_stim/pitch_yes.png,stimulus/audwhat_stim/pitch_no.png,None,Pitch,None,Pitch,1,0.0,0,5.125,0,5.125,0,5.125,0,0.0,0.625,0,0.0,0,0.0,0,0.0,0,0.0,0,0.0,0,0.0,1,0.5,1,2.125,0,,,,,0,18,18,18,,,,,,,,,199.0479078750359,199.0479078750359,199.0479078750359,199.0479078750359,199.0479078750359,199.0479078750359,199.0479078750359,199.0479078750359,198.97121541734865,199.0479078750359,199.0479078750359,199.0479078750359,198.97121541734865,199.0479078750359,199.0479078750359,199.0479078750359,201.15070687502157,205.16079545899993,199.0479078750359,199.0479078750359,204.22252579202177,199.0479078750359,199.0479078750359,199.0479078750359,199.0479078750359,199.50455141701968,200.55727508402197,199.4752672917132,,201.15070687502157,202.20907541702036,201.12157016666995,,199.0479078750359,204.22252579202177,199.0479078750359,204.22252579202177,204.26350408402504,204.9500939589925,199.0479078750359,1,1,0.511453665967565,reldom2_s025,001,2025-03-07_10h30.41.375,What-B-Scan_AC,2022.2.5,None,
15,First_Order,3.0,audwhat,stimulus/audwhat_stim/dummy.wav,stimulus/audwhat_stim/dummy.wav,stimulus/audwhat_stim/string cello_high-pitch_D_loud.wav,stimulus/audwhat_stim/string cello_low-pitch_Ftri_loud.wav,stimulus/audwhat_stim/blank_white.png,stimulus/audwhat_stim/category_box.png,stimulus/audwhat_stim/category_yes.png,stimulus/audwhat_stim/category_no.png,None,Category,None,Category,1,0.0,0,5.125,0,5.125,0,5.125,0,0.0,0.625,0,0.0,0,0.0,0,0.0,0,0.0,0,0.0,0,0.0,1,0.5,1,2.125,0,,,,,0,19,19,19,,,,,,,,,205.16079545899993,205.16079545899993,205.16079545899993,205.16079545899993,205.16079545899993,205.16079545899993,205.16079545899993,205.16079545899993,205.08342729232587,205.16079545899993,205.16079545899993,205.16079545899993,205.08342729232587,205.16079545899993,205.16079545899993,205.16079545899993,207.2373905419954,211.2743484590319,205.16079545899993,205.16079545899993,210.3300960000488,205.16079545899993,205.16079545899993,205.16079545899993,205.16079545899993,205.62419808399864,206.6844230000279,205.59425429167848,,207.2373905419954,208.30341074999887,207.2076591256812,,205.16079545899993,210.3300960000488,205.16079545899993,210.3300960000488,210.3701701250393,211.0217443750007,205.16079545899993,1,1,1.1708646239712834,reldom2_s025,001,2025-03-07_10h30.41.375,What-B-Scan_AC,2022.2.5,None,
16,First_Order,3.0,audwhat,stimulus/audwhat_stim/dummy.wav,stimulus/audwhat_stim/dummy.wav,stimulus/audwhat_stim/string viola_low-pitch_F_loud.wav,stimulus/audwhat_stim/percussion mallet_low-pitch_F_loud.wav,stimulus/audwhat_stim/blank_white.png,stimulus/audwhat_stim/category_box.png,stimulus/audwhat_stim/category_yes.png,stimulus/audwhat_stim/category_no.png,None,Category,None,Pitch,2,0.0,0,5.125,0,5.125,0,5.125,0,0.0,0.625,0,0.0,0,0.0,0,0.0,0,0.0,0,0.0,0,0.0,1,0.5,1,2.125,0,,,,,0,20,20,20,,,,,,,,,211.2743484590319,211.2743484590319,211.2743484590319,211.2743484590319,211.2743484590319,211.2743484590319,211.2743484590319,211.2743484590319,211.19522504238026,211.2743484590319,211.2743484590319,211.2743484590319,211.19522504238026,211.2743484590319,211.2743484590319,211.2743484590319,213.34729833400343,217.4125591670163,211.2743484590319,211.2743484590319,216.4479517500149,211.2743484590319,211.2743484590319,211.2743484590319,211.2743484590319,211.7341210420127,212.79582850000588,211.70469379169324,,213.34729833400343,214.41528333403403,213.31800750067148,,211.2743484590319,216.4479517500149,211.2743484590319,216.4479517500149,216.48895337502472,217.13783887500176,211.2743484590319,2,1,0.9200799990212545,reldom2_s025,001,2025-03-07_10h30.41.375,What-B-Scan_AC,2022.2.5,None,
0,0.0,None,fixation,stimulus/viswhat_stim/blank_white.png,stimulus/viswhat_stim/blank_white.png,stimulus/audwhat_stim/blank_white.png,stimulus/audwhat_stim/blank_white.png,stimulus/viswhat_stim/blank_white.png,stimulus/viswhat_stim/blank_white.png,stimulus/viswhat_stim/blank_white.png,stimulus/viswhat_stim/blank_white.png,0.0,0.0,0.0,0.0,0,0.0,0,0.0,0,0.0,0,0.0,0,0.0,0.0,0,0.0,0,0.0,0,0.0,0,0.0,0,0.0,0,0.0,0,0.0,0,0.0,9,,,,,0,21,21,21,,,,,,,,,217.4125591670163,217.4125591670163,217.4125591670163,217.4125591670163,217.4125591670163,217.4125591670163,217.4125591670163,217.4125591670163,217.3120610833595,217.4125591670163,217.4125591670163,217.4125591670163,217.3120610833595,217.4125591670163,217.4125591670163,217.4125591670163,217.4125591670163,217.4125591670163,217.4125591670163,217.4125591670163,217.4125591670163,217.4125591670163,217.4125591670163,217.4125591670163,217.4125591670163,217.4125591670163,217.4125591670163,217.3620610833595,217.4125591670163,217.4125591670163,217.4125591670163,217.3620610833595,217.4125591670163,217.4125591670163,217.4125591670163,217.4125591670163,217.4125591670163,222.61518775002332,222.61518775002332,226.5430195000372,None,0,,reldom2_s025,001,2025-03-07_10h30.41.375,What-B-Scan_AC,2022.2.5,None,
17,Second_Order,3.0,audwhat,stimulus/audwhat_stim/percussion mallet_high-pitch_Ftri_loud.wav,stimulus/audwhat_stim/string cello_high-pitch_Ftri_loud.wav,stimulus/audwhat_stim/percussion mallet_low-pitch_D_loud.wav,stimulus/audwhat_stim/string viola_low-pitch_D_loud.wav,stimulus/viswhat_stim/match_blank.png,stimulus/viswhat_stim/match_box.png,stimulus/viswhat_stim/match_yes.png,stimulus/viswhat_stim/match_no.png,1.0,Match,Pitch,Pitch,1,5.125,0,5.125,0,5.125,0,5.125,0,0.75,0.75,0,0.0,0,0.0,0,0.0,0,0.0,1,0.5,1,2.125,1,0.5,1,2.125,0,,,,,0,22,22,22,,,,,,,,,226.5430195000372,231.657895500015,226.5430195000372,226.5430195000372,226.5430195000372,226.5430195000372,226.99486108403653,227.98216566699557,227.0090053337083,,228.61748529202305,229.61528600001475,228.62974029168643,,231.657895500015,232.5092180420179,234.5597477920237,238.50847929203883,232.5092180420179,232.5092180420179,237.6691261670203,232.5092180420179,232.5092180420179,232.5092180420179,232.5092180420179,232.9621718340204,234.01140237500658,232.9329246666787,,234.5597477920237,235.61363737500506,234.53045250068342,,232.5092180420179,237.6691261670203,232.5092180420179,237.6691261670203,237.6691261670203,,232.5092180420179,1,1,1.049068707972765,reldom2_s025,001,2025-03-07_10h30.41.375,What-B-Scan_AC,2022.2.5,None,
18,Second_Order,3.0,audwhat,stimulus/audwhat_stim/percussion mallet_high-pitch_Dtri_loud.wav,stimulus/audwhat_stim/string cello_high-pitch_Dtri_loud.wav,stimulus/audwhat_stim/string viola_low-pitch_Ftri_loud.wav,stimulus/audwhat_stim/percussion mallet_low-pitch_Ftri_loud.wav,stimulus/viswhat_stim/match_blank.png,stimulus/viswhat_stim/match_box.png,stimulus/viswhat_stim/match_yes.png,stimulus/viswhat_stim/match_no.png,1.0,Match,Pitch,Pitch,1,5.125,0,5.125,0,5.125,0,5.125,0,0.625,0.625,0,0.0,0,0.0,0,0.0,0,0.0,1,0.5,1,2.125,1,0.5,1,2.125,0,,,,,0,23,23,23,,,,,,,,,238.50847929203883,243.631055750011,238.50847929203883,238.50847929203883,238.50847929203883,238.50847929203883,238.95597833400825,239.9430835840176,238.970011541682,,240.59052291704575,241.57998166704783,240.59460058366338,,243.631055750011,244.36771950003458,246.410180167004,,244.36771950003458,244.36771950003458,249.54776283400133,244.36771950003458,244.36771950003458,244.36771950003458,244.36771950003458,244.81955820904113,245.86437625001417,244.79068058368674,,246.410180167004,247.45788962504594,246.38133737567503,,244.36771950003458,249.54776283400133,244.36771950003458,249.54776283400133,249.54776283400133,250.23048075003317,244.36771950003458,1,1,0.6761423329589888,reldom2_s025,001,2025-03-07_10h30.41.375,What-B-Scan_AC,2022.2.5,None,
0,0.0,None,fixation,stimulus/viswhat_stim/blank_white.png,stimulus/viswhat_stim/blank_white.png,stimulus/audwhat_stim/blank_white.png,stimulus/audwhat_stim/blank_white.png,stimulus/viswhat_stim/blank_white.png,stimulus/viswhat_stim/blank_white.png,stimulus/viswhat_stim/blank_white.png,stimulus/viswhat_stim/blank_white.png,0.0,0.0,0.0,0.0,0,0.0,0,0.0,0,0.0,0,0.0,0,0.0,0.0,0,0.0,0,0.0,0,0.0,0,0.0,0,0.0,0,0.0,0,0.0,0,0.0,8,,,,,0,24,24,24,,,,,,,,,250.46001133404206,250.46001133404206,250.46001133404206,250.46001133404206,250.46001133404206,250.46001133404206,250.46001133404206,250.46001133404206,250.36381408336652,250.46001133404206,250.46001133404206,250.46001133404206,250.36381408336652,250.46001133404206,250.46001133404206,250.46001133404206,250.46001133404206,250.46001133404206,250.46001133404206,250.46001133404206,250.46001133404206,250.46001133404206,250.46001133404206,250.46001133404206,250.46001133404206,250.46001133404206,250.46001133404206,250.4138140833665,250.46001133404206,250.46001133404206,250.46001133404206,250.4138140833665,250.46001133404206,250.46001133404206,250.46001133404206,250.46001133404206,250.46001133404206,255.65180454199435,255.65180454199435,258.68331479199696,None,0,,reldom2_s025,001,2025-03-07_10h30.41.375,What-B-Scan_AC,2022.2.5,None,
19,First_Order,4.0,audwhat,stimulus/audwhat_stim/dummy.wav,stimulus/audwhat_stim/dummy.wav,stimulus/audwhat_stim/percussion mallet_low-pitch_Ftri_loud.wav,stimulus/audwhat_stim/string viola_low-pitch_Ftri_loud.wav,stimulus/audwhat_stim/blank_white.png,stimulus/audwhat_stim/pitch_box.png,stimulus/audwhat_stim/pitch_yes.png,stimulus/audwhat_stim/pitch_no.png,None,Pitch,None,Pitch,1,0.0,0,5.125,0,5.125,0,5.125,0,0.0,0.625,0,0.0,0,0.0,0,0.0,0,0.0,0,0.0,0,0.0,1,0.5,1,2.125,0,,,,,0,25,25,25,,,,,,,,,258.68331479199696,258.68331479199696,258.68331479199696,258.68331479199696,258.68331479199696,258.68331479199696,258.68331479199696,258.68331479199696,258.6155801256924,258.68331479199696,258.68331479199696,258.68331479199696,258.6155801256924,258.68331479199696,258.68331479199696,258.68331479199696,260.79649224999594,264.8128366250312,258.68331479199696,258.68331479199696,263.87455695902463,258.68331479199696,258.68331479199696,258.68331479199696,258.68331479199696,259.1421667090035,260.1986269589979,259.11261570867305,,260.79649224999594,261.8564394169953,260.7673131256636,,258.68331479199696,263.87455695902463,258.68331479199696,263.87455695902463,263.87455695902463,264.56095033400925,258.68331479199696,2,0,0.6140595829929225,reldom2_s025,001,2025-03-07_10h30.41.375,What-B-Scan_AC,2022.2.5,None,
20,First_Order,4.0,audwhat,stimulus/audwhat_stim/dummy.wav,stimulus/audwhat_stim/dummy.wav,stimulus/audwhat_stim/string viola_low-pitch_F_loud.wav,stimulus/audwhat_stim/string cello_high-pitch_Ftri_loud.wav,stimulus/audwhat_stim/blank_white.png,stimulus/audwhat_stim/category_box.png,stimulus/audwhat_stim/category_yes.png,stimulus/audwhat_stim/category_no.png,None,Category,None,Category,1,0.0,0,5.125,0,5.125,0,5.125,0,0.0,0.625,0,0.0,0,0.0,0,0.0,0,0.0,0,0.0,0,0.0,1,0.5,1,2.125,0,,,,,0,26,26,26,,,,,,,,,264.8128366250312,264.8128366250312,264.8128366250312,264.8128366250312,264.8128366250312,264.8128366250312,264.8128366250312,264.8128366250312,264.73490458334174,264.8128366250312,264.8128366250312,264.8128366250312,264.73490458334174,264.8128366250312,264.8128366250312,264.8128366250312,266.89380704204086,270.9386450840393,264.8128366250312,264.8128366250312,269.99292616703315,264.8128366250312,264.8128366250312,264.8128366250312,264.8128366250312,265.27485800004797,266.3401711670449,265.2456162917117,,266.89380704204086,267.9592767500435,266.8641450007019,,264.8128366250312,269.99292616703315,264.8128366250312,269.99292616703315,270.0335043340456,270.6844706250122,264.8128366250312,1,1,1.0035393739817664,reldom2_s025,001,2025-03-07_10h30.41.375,What-B-Scan_AC,2022.2.5,None,
21,First_Order,4.0,audwhat,stimulus/audwhat_stim/dummy.wav,stimulus/audwhat_stim/dummy.wav,stimulus/audwhat_stim/string viola_high-pitch_F_loud.wav,stimulus/audwhat_stim/percussion mallet_high-pitch_F_loud.wav,stimulus/audwhat_stim/blank_white.png,stimulus/audwhat_stim/category_box.png,stimulus/audwhat_stim/category_yes.png,stimulus/audwhat_stim/category_no.png,None,Category,None,Pitch,2,0.0,0,5.125,0,5.125,0,5.125,0,0.0,0.625,0,0.0,0,0.0,0,0.0,0,0.0,0,0.0,0,0.0,1,0.5,1,2.125,0,,,,,0,27,27,27,,,,,,,,,270.9386450840393,270.9386450840393,270.9386450840393,270.9386450840393,270.9386450840393,270.9386450840393,270.9386450840393,270.9386450840393,270.8588505003446,270.9386450840393,270.9386450840393,270.9386450840393,270.8588505003446,270.9386450840393,270.9386450840393,270.9386450840393,273.01864229200874,,270.9386450840393,270.9386450840393,276.1296414170065,270.9386450840393,270.9386450840393,270.9386450840393,270.9386450840393,271.39828954200493,272.46388558403123,271.3689552506587,,273.01864229200874,274.09266637504334,272.9889352506764,,270.9386450840393,276.1296414170065,270.9386450840393,276.1296414170065,276.1296414170065,276.7802538340329,270.9386450840393,2,1,0.8780367909930646,reldom2_s025,001,2025-03-07_10h30.41.375,What-B-Scan_AC,2022.2.5,None,
22,First_Order,4.0,audwhat,stimulus/audwhat_stim/dummy.wav,stimulus/audwhat_stim/dummy.wav,stimulus/audwhat_stim/percussion xylophone_high-pitch_D_loud.wav,stimulus/audwhat_stim/percussion mallet_low-pitch_F_loud.wav,stimulus/audwhat_stim/blank_white.png,stimulus/audwhat_stim/pitch_box.png,stimulus/audwhat_stim/pitch_yes.png,stimulus/audwhat_stim/pitch_no.png,None,Pitch,None,Category,2,0.0,0,5.125,0,5.125,0,5.125,0,0.0,0.625,0,0.0,0,0.0,0,0.0,0,0.0,0,0.0,0,0.0,1,0.5,1,2.125,0,,,,,0,28,28,28,,,,,,,,,277.03396525001153,277.03396525001153,277.03396525001153,277.03396525001153,277.03396525001153,277.03396525001153,277.03396525001153,277.03396525001153,276.95415783333203,277.03396525001153,277.03396525001153,277.03396525001153,276.95415783333203,277.03396525001153,277.03396525001153,277.03396525001153,279.11354804201983,283.16840970900375,277.03396525001153,277.03396525001153,282.20577787503134,277.03396525001153,277.03396525001153,277.03396525001153,277.03396525001153,277.49635883403243,278.56101054203464,277.46649483370516,278.51452858402627,279.11354804201983,280.17593583400594,279.0837781257035,,277.03396525001153,282.20577787503134,277.03396525001153,282.20577787503134,282.2468075840152,282.89566216699313,277.03396525001153,2,1,1.9886394989443943,reldom2_s025,001,2025-03-07_10h30.41.375,What-B-Scan_AC,2022.2.5,None,
0,0.0,None,fixation,stimulus/viswhat_stim/blank_white.png,stimulus/viswhat_stim/blank_white.png,stimulus/audwhat_stim/blank_white.png,stimulus/audwhat_stim/blank_white.png,stimulus/viswhat_stim/blank_white.png,stimulus/viswhat_stim/blank_white.png,stimulus/viswhat_stim/blank_white.png,stimulus/viswhat_stim/blank_white.png,0.0,0.0,0.0,0.0,0,0.0,0,0.0,0,0.0,0,0.0,0,0.0,0.0,0,0.0,0,0.0,0,0.0,0,0.0,0,0.0,0,0.0,0,0.0,0,0.0,10,,,,,0,29,29,29,,,,,,,,,283.16840970900375,283.16840970900375,283.16840970900375,283.16840970900375,283.16840970900375,283.16840970900375,283.16840970900375,283.16840970900375,283.06926162538196,283.16840970900375,283.16840970900375,283.16840970900375,283.06926162538196,283.16840970900375,283.16840970900375,283.16840970900375,283.16840970900375,283.16840970900375,283.16840970900375,283.16840970900375,283.16840970900375,283.16840970900375,283.16840970900375,283.16840970900375,283.16840970900375,283.16840970900375,283.16840970900375,283.11926162538197,283.16840970900375,283.16840970900375,283.16840970900375,283.11926162538197,283.16840970900375,283.16840970900375,283.16840970900375,283.16840970900375,283.16840970900375,288.38764608401107,288.38764608401107,293.3266096250154,None,0,,reldom2_s025,001,2025-03-07_10h30.41.375,What-B-Scan_AC,2022.2.5,None,
23,Second_Order,4.0,audwhat,stimulus/audwhat_stim/percussion mallet_high-pitch_Ftri_loud.wav,stimulus/audwhat_stim/percussion mallet_low-pitch_Dtri_loud.wav,stimulus/audwhat_stim/percussion mallet_high-pitch_D_loud.wav,stimulus/audwhat_stim/string viola_high-pitch_D_loud.wav,stimulus/viswhat_stim/match_blank.png,stimulus/viswhat_stim/match_box.png,stimulus/viswhat_stim/match_yes.png,stimulus/viswhat_stim/match_no.png,2.0,Match,Category,Pitch,2,5.125,0,5.125,0,5.125,0,5.125,0,0.75,0.75,0,0.0,0,0.0,0,0.0,0,0.0,1,0.5,1,2.125,1,0.5,1,2.125,0,,,,,0,30,30,30,,,,,,,,,293.3266096250154,298.4458657920477,293.3266096250154,293.3266096250154,293.3266096250154,293.3266096250154,293.7850036669988,294.7829953750479,293.79745562567064,,295.4062444170122,296.40302900003735,295.4174409586742,296.4068859590334,298.4458657920477,299.29636625002604,301.3575703340466,305.2821682090289,299.29636625002604,299.29636625002604,304.47906087501906,299.29636625002604,299.29636625002604,299.29636625002604,299.29636625002604,299.7539117500419,300.8069793750183,299.7248494586713,,301.3575703340466,302.4157996250433,301.3279657086862,,299.29636625002604,304.47906087501906,299.29636625002604,304.47906087501906,304.47906087501906,,299.29636625002604,2,1,1.985281582979951,reldom2_s025,001,2025-03-07_10h30.41.375,What-B-Scan_AC,2022.2.5,None,
24,Second_Order,4.0,audwhat,stimulus/audwhat_stim/string viola_high-pitch_Dtri_loud.wav,stimulus/audwhat_stim/percussion mallet_high-pitch_Dtri_loud.wav,stimulus/audwhat_stim/string cello_low-pitch_Dtri_loud.wav,stimulus/audwhat_stim/string viola_high-pitch_Ftri_loud.wav,stimulus/viswhat_stim/match_blank.png,stimulus/viswhat_stim/match_box.png,stimulus/viswhat_stim/match_yes.png,stimulus/viswhat_stim/match_no.png,2.0,Match,Pitch,Category,2,5.125,0,5.125,0,5.125,0,5.125,0,0.625,0.625,0,0.0,0,0.0,0,0.0,0,0.0,1,0.5,1,2.125,1,0.5,1,2.125,0,,,,,0,31,31,31,,,,,,,,,305.2821682090289,310.40756600000896,305.2821682090289,305.2821682090289,305.2821682090289,305.2821682090289,305.742038958997,306.73072354204487,305.74330137571474,,307.3663819170324,308.3643884170451,307.3786158756741,,310.40756600000896,311.138714834,313.18127987504704,317.2433144170209,311.138714834,311.138714834,316.3309027920477,311.138714834,311.138714834,311.138714834,311.138714834,311.5888780420064,312.6360858340049,311.5600768337065,,313.18127987504704,314.2338486670051,313.1522352916693,,311.138714834,316.3309027920477,311.138714834,316.3309027920477,316.3309027920477,317.01321104203817,311.138714834,None,0,,reldom2_s025,001,2025-03-07_10h30.41.375,What-B-Scan_AC,2022.2.5,None,
0,0.0,None,fixation,stimulus/viswhat_stim/blank_white.png,stimulus/viswhat_stim/blank_white.png,stimulus/audwhat_stim/blank_white.png,stimulus/audwhat_stim/blank_white.png,stimulus/viswhat_stim/blank_white.png,stimulus/viswhat_stim/blank_white.png,stimulus/viswhat_stim/blank_white.png,stimulus/viswhat_stim/blank_white.png,0.0,0.0,0.0,0.0,0,0.0,0,0.0,0,0.0,0,0.0,0,0.0,0.0,0,0.0,0,0.0,0,0.0,0,0.0,0,0.0,0,0.0,0,0.0,0,0.0,9,,,,,0,32,32,32,,,,,,,,,317.2433144170209,317.2433144170209,317.2433144170209,317.2433144170209,317.2433144170209,317.2433144170209,317.2433144170209,317.2433144170209,317.1465443753715,317.2433144170209,317.2433144170209,317.2433144170209,317.1465443753715,317.2433144170209,317.2433144170209,317.2433144170209,317.2433144170209,317.2433144170209,317.2433144170209,317.2433144170209,317.2433144170209,317.2433144170209,317.2433144170209,317.2433144170209,317.2433144170209,317.2433144170209,317.2433144170209,317.1965443753715,317.2433144170209,317.2433144170209,317.2433144170209,317.1965443753715,317.2433144170209,317.2433144170209,317.2433144170209,317.2433144170209,317.2433144170209,322.4541385000339,322.4541385000339,326.5194598340313,None,0,,reldom2_s025,001,2025-03-07_10h30.41.375,What-B-Scan_AC,2022.2.5,None,
25,First_Order,5.0,viswhat,stimulus/viswhat_stim/blank_white.png,stimulus/viswhat_stim/blank_white.png,stimulus/viswhat_stim/land_animal-elephant.png,stimulus/viswhat_stim/land_vehicle-firetruck.png,stimulus/viswhat_stim/blank_white.png,stimulus/viswhat_stim/location_box.png,stimulus/viswhat_stim/location_yes.png,stimulus/viswhat_stim/location_no.png,None,Location,None,Location,1,0.0,0,5.125,0,5.125,0,5.125,0,0.0,0.625,0,0.0,0,0.0,1,0.5,1,2.125,0,0.0,0,0.0,0,0.0,0,0.0,0,,,,,0,33,33,33,,,,,,,,,326.5194598340313,326.5194598340313,326.5194598340313,326.5194598340313,326.5194598340313,326.5194598340313,326.5194598340313,326.5194598340313,326.41937412569916,326.5194598340313,326.5194598340313,326.5194598340313,326.41937412569916,326.5194598340313,326.5194598340313,326.5194598340313,328.59137862501666,,326.5194598340313,326.5194598340313,331.71931116702035,326.99124433402903,328.0596584590385,328.59137862501666,329.6574557500426,326.5194598340313,326.5194598340313,326.4693741256992,326.5194598340313,326.5194598340313,326.5194598340313,326.4693741256992,326.5194598340313,326.5194598340313,331.71931116702035,326.5194598340313,331.71931116702035,331.71931116702035,332.5509861250175,326.5194598340313,1,1,0.7271273749647662,reldom2_s025,001,2025-03-07_10h30.41.375,What-B-Scan_AC,2022.2.5,None,
26,First_Order,5.0,viswhat,stimulus/viswhat_stim/blank_white.png,stimulus/viswhat_stim/blank_white.png,stimulus/viswhat_stim/land_vehicle-tank.png,stimulus/viswhat_stim/land_animal-pig.png,stimulus/viswhat_stim/blank_white.png,stimulus/viswhat_stim/type_box.png,stimulus/viswhat_stim/type_yes.png,stimulus/viswhat_stim/type_no.png,None,Type,None,Location,2,0.0,0,5.125,0,5.125,0,5.125,0,0.0,0.625,0,0.0,0,0.0,1,0.5,1,2.125,0,0.0,0,0.0,0,0.0,0,0.0,0,,,,,0,34,34,34,,,,,,,,,332.5509861250175,332.5509861250175,332.5509861250175,332.5509861250175,332.5509861250175,332.5509861250175,332.5509861250175,332.5509861250175,332.52765429169324,332.5509861250175,332.5509861250175,332.5509861250175,332.52765429169324,332.5509861250175,332.5509861250175,332.5509861250175,334.64601433399366,338.706435042026,332.5509861250175,332.5509861250175,337.6864147920278,333.031097625033,334.0367973750108,334.64601433399366,335.6568376250216,332.5509861250175,332.5509861250175,332.54432095835995,332.5509861250175,332.5509861250175,332.5509861250175,332.54432095835995,332.5509861250175,332.5509861250175,337.6864147920278,332.5509861250175,337.6864147920278,337.7670637500123,338.4022271670401,332.5509861250175,2,1,0.5907886659260839,reldom2_s025,001,2025-03-07_10h30.41.375,What-B-Scan_AC,2022.2.5,None,
27,First_Order,5.0,viswhat,stimulus/viswhat_stim/blank_white.png,stimulus/viswhat_stim/blank_white.png,stimulus/viswhat_stim/land_animal-moose.png,stimulus/viswhat_stim/land_vehicle-vespa.png,stimulus/viswhat_stim/blank_white.png,stimulus/viswhat_stim/location_box.png,stimulus/viswhat_stim/location_yes.png,stimulus/viswhat_stim/location_no.png,None,Location,None,Location,1,0.0,0,5.125,0,5.125,0,5.125,0,0.0,0.625,0,0.0,0,0.0,1,0.5,1,2.125,0,0.0,0,0.0,0,0.0,0,0.0,0,,,,,0,35,35,35,,,,,,,,,338.706435042026,338.706435042026,338.706435042026,338.706435042026,338.706435042026,338.706435042026,338.706435042026,338.706435042026,338.5857200423682,338.706435042026,338.706435042026,338.706435042026,338.5857200423682,338.706435042026,338.706435042026,338.706435042026,340.774966875033,344.85341995902127,338.706435042026,338.706435042026,343.90937716700137,339.17280683404533,340.24160279199714,340.774966875033,341.84549791703466,338.706435042026,338.706435042026,338.6523867090349,338.706435042026,338.706435042026,338.706435042026,338.6523867090349,338.706435042026,338.706435042026,343.90937716700137,338.706435042026,343.90937716700137,343.90937716700137,344.58103354199557,338.706435042026,1,1,0.5442518749623559,reldom2_s025,001,2025-03-07_10h30.41.375,What-B-Scan_AC,2022.2.5,None,
28,First_Order,5.0,viswhat,stimulus/viswhat_stim/blank_white.png,stimulus/viswhat_stim/blank_white.png,stimulus/viswhat_stim/land_animal-giraffe.png,stimulus/viswhat_stim/water_animal-squid.png,stimulus/viswhat_stim/blank_white.png,stimulus/viswhat_stim/location_box.png,stimulus/viswhat_stim/location_yes.png,stimulus/viswhat_stim/location_no.png,None,Location,None,Type,2,0.0,0,5.125,0,5.125,0,5.125,0,0.0,0.625,0,0.0,0,0.0,1,0.5,1,2.125,0,0.0,0,0.0,0,0.0,0,0.0,0,,,,,0,36,36,36,,,,,,,,,344.85341995902127,344.85341995902127,344.85341995902127,344.85341995902127,344.85341995902127,344.85341995902127,344.85341995902127,344.85341995902127,344.7643668753289,344.85341995902127,344.85341995902127,344.85341995902127,344.7643668753289,344.85341995902127,344.85341995902127,344.85341995902127,346.95219708402874,,344.85341995902127,344.85341995902127,350.04044912499376,345.29494229203556,346.3459880000446,346.95219708402874,348.0018290420412,344.85341995902127,344.85341995902127,344.81436687532886,344.85341995902127,344.85341995902127,344.85341995902127,344.81436687532886,344.85341995902127,344.85341995902127,350.04044912499376,344.85341995902127,350.04044912499376,350.04044912499376,350.7315817089984,344.85341995902127,2,1,1.122170125017874,reldom2_s025,001,2025-03-07_10h30.41.375,What-B-Scan_AC,2022.2.5,None,
0,0.0,None,fixation,stimulus/viswhat_stim/blank_white.png,stimulus/viswhat_stim/blank_white.png,stimulus/audwhat_stim/blank_white.png,stimulus/audwhat_stim/blank_white.png,stimulus/viswhat_stim/blank_white.png,stimulus/viswhat_stim/blank_white.png,stimulus/viswhat_stim/blank_white.png,stimulus/viswhat_stim/blank_white.png,0.0,0.0,0.0,0.0,0,0.0,0,0.0,0,0.0,0,0.0,0,0.0,0.0,0,0.0,0,0.0,0,0.0,0,0.0,0,0.0,0,0.0,0,0.0,0,0.0,9,,,,,0,37,37,37,,,,,,,,,350.9851672920049,350.9851672920049,350.9851672920049,350.9851672920049,350.9851672920049,350.9851672920049,350.9851672920049,350.9851672920049,350.8815817089984,350.9851672920049,350.9851672920049,350.9851672920049,350.8815817089984,350.9851672920049,350.9851672920049,350.9851672920049,350.9851672920049,350.9851672920049,350.9851672920049,350.9851672920049,350.9851672920049,350.9851672920049,350.9851672920049,350.9851672920049,350.9851672920049,350.9851672920049,350.9851672920049,350.9315817089984,350.9851672920049,350.9851672920049,350.9851672920049,350.9315817089984,350.9851672920049,350.9851672920049,350.9851672920049,350.9851672920049,350.9851672920049,356.2169070840464,356.2169070840464,360.12932854203973,None,0,,reldom2_s025,001,2025-03-07_10h30.41.375,What-B-Scan_AC,2022.2.5,None,
29,Second_Order,5.0,viswhat,stimulus/viswhat_stim/water_vehicle-pirateship.png,stimulus/viswhat_stim/land_vehicle-schoolbus.png,stimulus/viswhat_stim/water_animal-dolphin.png,stimulus/viswhat_stim/land_animal-cat.png,stimulus/viswhat_stim/match_blank.png,stimulus/viswhat_stim/match_box.png,stimulus/viswhat_stim/match_yes.png,stimulus/viswhat_stim/match_no.png,1.0,Match,Type,Type,1,5.125,0,5.125,0,5.125,0,5.125,0,0.75,0.75,1,0.5,1,2.125,1,0.5,1,2.125,0,0.0,0,0.0,0,0.0,0,0.0,0,,,,,0,38,38,38,,,,,,,,,360.12932854203973,365.25031683401903,360.6051451670355,361.60405304201413,362.22755291702924,363.22450375003973,360.12932854203973,360.12932854203973,360.13614016733675,360.12932854203973,360.12932854203973,360.12932854203973,360.13614016733675,360.12932854203973,365.25031683401903,366.0692469170317,368.15195887500886,372.10581658402225,366.0692469170317,366.0692469170317,371.22700499999337,366.5182903750101,367.54218775004847,368.15195887500886,369.18169441702776,366.0692469170317,366.0692469170317,366.03401787504555,366.0692469170317,366.0692469170317,366.0692469170317,366.03401787504555,366.0692469170317,366.0692469170317,371.22700499999337,366.0692469170317,371.22700499999337,371.2539470840129,,366.0692469170317,1,1,0.44706849893555045,reldom2_s025,001,2025-03-07_10h30.41.375,What-B-Scan_AC,2022.2.5,None,
30,Second_Order,5.0,viswhat,stimulus/viswhat_stim/water_animal-orka.png,stimulus/viswhat_stim/land_animal-bunny.png,stimulus/viswhat_stim/land_vehicle-motorcycle.png,stimulus/viswhat_stim/water_vehicle-motorboatraft.png,stimulus/viswhat_stim/match_blank.png,stimulus/viswhat_stim/match_box.png,stimulus/viswhat_stim/match_yes.png,stimulus/viswhat_stim/match_no.png,1.0,Match,Type,Type,1,5.125,0,5.125,0,5.125,0,5.125,0,0.625,0.625,1,0.5,1,2.125,1,0.5,1,2.125,0,0.0,0,0.0,0,0.0,0,0.0,0,,,,,0,39,39,39,,,,,,,,,372.10581658402225,377.2276981670293,372.5143370000296,373.50112995901145,374.13856895902427,375.1348262919928,372.10581658402225,372.10581658402225,372.12000629204556,372.10581658402225,372.10581658402225,372.10581658402225,372.12000629204556,372.10581658402225,377.2276981670293,377.91550837503746,379.9871485000476,384.0450419590343,377.91550837503746,377.91550837503746,383.0701342090033,378.35796008404577,379.3935167500167,379.9871485000476,381.02555054205004,377.91550837503746,377.91550837503746,377.89121266700096,377.91550837503746,377.91550837503746,377.91550837503746,377.89121266700096,377.91550837503746,377.91550837503746,383.0701342090033,377.91550837503746,383.0701342090033,383.11865695903543,383.7663354999968,377.91550837503746,1,1,2.6244001239538193,reldom2_s025,001,2025-03-07_10h30.41.375,What-B-Scan_AC,2022.2.5,None,
0,0.0,None,fixation,stimulus/viswhat_stim/blank_white.png,stimulus/viswhat_stim/blank_white.png,stimulus/audwhat_stim/blank_white.png,stimulus/audwhat_stim/blank_white.png,stimulus/viswhat_stim/blank_white.png,stimulus/viswhat_stim/blank_white.png,stimulus/viswhat_stim/blank_white.png,stimulus/viswhat_stim/blank_white.png,0.0,0.0,0.0,0.0,0,0.0,0,0.0,0,0.0,0,0.0,0,0.0,0.0,0,0.0,0,0.0,0,0.0,0,0.0,0,0.0,0,0.0,0,0.0,0,0.0,9,,,,,0,40,40,40,,,,,,,,,384.0450419590343,384.0450419590343,384.0450419590343,384.0450419590343,384.0450419590343,384.0450419590343,384.0450419590343,384.0450419590343,383.95620775068335,384.0450419590343,384.0450419590343,384.0450419590343,383.95620775068335,384.0450419590343,384.0450419590343,384.0450419590343,384.0450419590343,384.0450419590343,384.0450419590343,384.0450419590343,384.0450419590343,384.0450419590343,384.0450419590343,384.0450419590343,384.0450419590343,384.0450419590343,384.0450419590343,384.0062077506833,384.0450419590343,384.0450419590343,384.0450419590343,384.0062077506833,384.0450419590343,384.0450419590343,384.0450419590343,384.0450419590343,384.0450419590343,389.274476459017,389.274476459017,393.3048439170234,None,0,,reldom2_s025,001,2025-03-07_10h30.41.375,What-B-Scan_AC,2022.2.5,None,
31,First_Order,6.0,viswhat,stimulus/viswhat_stim/blank_white.png,stimulus/viswhat_stim/blank_white.png,stimulus/viswhat_stim/water_vehicle-ship.png,stimulus/viswhat_stim/land_vehicle-schoolbus.png,stimulus/viswhat_stim/blank_white.png,stimulus/viswhat_stim/location_box.png,stimulus/viswhat_stim/location_yes.png,stimulus/viswhat_stim/location_no.png,None,Location,None,Type,2,0.0,0,5.125,0,5.125,0,5.125,0,0.0,0.625,0,0.0,0,0.0,1,0.5,1,2.125,0,0.0,0,0.0,0,0.0,0,0.0,0,,,,,0,41,41,41,,,,,,,,,393.3048439170234,393.3048439170234,393.3048439170234,393.3048439170234,393.3048439170234,393.3048439170234,393.3048439170234,393.3048439170234,393.20180333368864,393.3048439170234,393.3048439170234,393.3048439170234,393.20180333368864,393.3048439170234,393.3048439170234,393.3048439170234,395.40580387500813,399.3809201249969,393.3048439170234,393.3048439170234,398.4678561670007,393.7848945420119,394.866200709017,395.40580387500813,396.48895870900014,393.3048439170234,393.3048439170234,393.25180333368866,393.3048439170234,393.3048439170234,393.3048439170234,393.25180333368866,393.3048439170234,393.3048439170234,398.4678561670007,393.3048439170234,398.4678561670007,398.5222765840008,399.3809201249969,393.3048439170234,2,1,1.4470074999844655,reldom2_s025,001,2025-03-07_10h30.41.375,What-B-Scan_AC,2022.2.5,None,
32,First_Order,6.0,viswhat,stimulus/viswhat_stim/blank_white.png,stimulus/viswhat_stim/blank_white.png,stimulus/viswhat_stim/land_vehicle-bus.png,stimulus/viswhat_stim/water_vehicle-jetski.png,stimulus/viswhat_stim/blank_white.png,stimulus/viswhat_stim/type_box.png,stimulus/viswhat_stim/type_yes.png,stimulus/viswhat_stim/type_no.png,None,Type,None,Type,1,0.0,0,5.125,0,5.125,0,5.125,0,0.0,0.625,0,0.0,0,0.0,1,0.5,1,2.125,0,0.0,0,0.0,0,0.0,0,0.0,0,,,,,0,42,42,42,,,,,,,,,399.3809201249969,399.3809201249969,399.3809201249969,399.3809201249969,399.3809201249969,399.3809201249969,399.3809201249969,399.3809201249969,399.34097075070406,399.3809201249969,399.3809201249969,399.3809201249969,399.34097075070406,399.3809201249969,399.3809201249969,399.3809201249969,401.47198037500493,405.4828832090134,399.3809201249969,399.3809201249969,404.52953270904254,399.84781908401055,400.86440204200335,401.47198037500493,402.49652958399383,399.3809201249969,399.3809201249969,399.35763741737077,399.3809201249969,399.3809201249969,399.3809201249969,399.35763741737077,399.3809201249969,399.3809201249969,404.52953270904254,399.3809201249969,404.52953270904254,404.60026920901146,405.234069750004,399.3809201249969,1,1,0.49046770797576755,reldom2_s025,001,2025-03-07_10h30.41.375,What-B-Scan_AC,2022.2.5,None,
33,First_Order,6.0,viswhat,stimulus/viswhat_stim/blank_white.png,stimulus/viswhat_stim/blank_white.png,stimulus/viswhat_stim/water_animal-seahorse.png,stimulus/viswhat_stim/water_vehicle-cabincruiser.png,stimulus/viswhat_stim/blank_white.png,stimulus/viswhat_stim/type_box.png,stimulus/viswhat_stim/type_yes.png,stimulus/viswhat_stim/type_no.png,None,Type,None,Location,2,0.0,0,5.125,0,5.125,0,5.125,0,0.0,0.625,0,0.0,0,0.0,1,0.5,1,2.125,0,0.0,0,0.0,0,0.0,0,0.0,0,,,,,0,43,43,43,,,,,,,,,405.4828832090134,405.4828832090134,405.4828832090134,405.4828832090134,405.4828832090134,405.4828832090134,405.4828832090134,405.4828832090134,405.4276616670191,405.4828832090134,405.4828832090134,405.4828832090134,405.4276616670191,405.4828832090134,405.4828832090134,405.4828832090134,407.58828416699544,,405.4828832090134,405.4828832090134,410.6251532090246,405.967807042005,407.0032372500282,407.58828416699544,408.62692062504357,405.4828832090134,405.4828832090134,405.46099500035245,405.4828832090134,405.4828832090134,405.4828832090134,405.46099500035245,405.4828832090134,405.4828832090134,410.6251532090246,405.4828832090134,410.6251532090246,410.71160004200647,411.3757035420276,405.4828832090134,None,0,,reldom2_s025,001,2025-03-07_10h30.41.375,What-B-Scan_AC,2022.2.5,None,
34,First_Order,6.0,viswhat,stimulus/viswhat_stim/blank_white.png,stimulus/viswhat_stim/blank_white.png,stimulus/viswhat_stim/land_animal-tiger.png,stimulus/viswhat_stim/water_animal-octopus.png,stimulus/viswhat_stim/blank_white.png,stimulus/viswhat_stim/type_box.png,stimulus/viswhat_stim/type_yes.png,stimulus/viswhat_stim/type_no.png,None,Type,None,Type,1,0.0,0,5.125,0,5.125,0,5.125,0,0.0,0.625,0,0.0,0,0.0,1,0.5,1,2.125,0,0.0,0,0.0,0,0.0,0,0.0,0,,,,,0,44,44,44,,,,,,,,,411.5885452500079,411.5885452500079,411.5885452500079,411.5885452500079,411.5885452500079,411.5885452500079,411.5885452500079,411.5885452500079,411.5213723336618,411.5885452500079,411.5885452500079,411.5885452500079,411.5213723336618,411.5885452500079,411.5885452500079,411.5885452500079,413.69598375004716,417.731910292001,411.5885452500079,411.5885452500079,416.7548303340445,412.0632155840285,413.0946239590412,413.69598375004716,414.7352074170485,411.5885452500079,411.5885452500079,411.5547056669951,411.5885452500079,411.5885452500079,411.5885452500079,411.5547056669951,411.5885452500079,411.5885452500079,416.7548303340445,411.5885452500079,416.7548303340445,416.79253187502036,417.46490091702435,411.5885452500079,1,1,0.9075743329594843,reldom2_s025,001,2025-03-07_10h30.41.375,What-B-Scan_AC,2022.2.5,None,
0,0.0,None,fixation,stimulus/viswhat_stim/blank_white.png,stimulus/viswhat_stim/blank_white.png,stimulus/audwhat_stim/blank_white.png,stimulus/audwhat_stim/blank_white.png,stimulus/viswhat_stim/blank_white.png,stimulus/viswhat_stim/blank_white.png,stimulus/viswhat_stim/blank_white.png,stimulus/viswhat_stim/blank_white.png,0.0,0.0,0.0,0.0,0,0.0,0,0.0,0,0.0,0,0.0,0,0.0,0.0,0,0.0,0,0.0,0,0.0,0,0.0,0,0.0,0,0.0,0,0.0,0,0.0,8,,,,,0,45,45,45,,,,,,,,,417.731910292001,417.731910292001,417.731910292001,417.731910292001,417.731910292001,417.731910292001,417.731910292001,417.731910292001,417.6358050833534,417.731910292001,417.731910292001,417.731910292001,417.6358050833534,417.731910292001,417.731910292001,417.731910292001,417.731910292001,417.731910292001,417.731910292001,417.731910292001,417.731910292001,417.731910292001,417.731910292001,417.731910292001,417.731910292001,417.731910292001,417.731910292001,417.6858050833534,417.731910292001,417.731910292001,417.731910292001,417.6858050833534,417.731910292001,417.731910292001,417.731910292001,417.731910292001,417.731910292001,422.918926000013,422.918926000013,425.8750587500399,None,0,,reldom2_s025,001,2025-03-07_10h30.41.375,What-B-Scan_AC,2022.2.5,None,
35,Second_Order,6.0,viswhat,stimulus/viswhat_stim/land_animal-wolf.png,stimulus/viswhat_stim/land_vehicle-schoolbus.png,stimulus/viswhat_stim/water_animal-shark.png,stimulus/viswhat_stim/water_vehicle-ship.png,stimulus/viswhat_stim/match_blank.png,stimulus/viswhat_stim/match_box.png,stimulus/viswhat_stim/match_yes.png,stimulus/viswhat_stim/match_no.png,1.0,Match,Location,Location,1,5.125,0,5.125,0,5.125,0,5.125,0,0.75,0.75,1,0.5,1,2.125,1,0.5,1,2.125,0,0.0,0,0.0,0,0.0,0,0.0,0,,,,,0,46,46,46,,,,,,,,,425.8750587500399,430.9976920839981,426.3411981250392,427.3393215840333,427.9737976670149,428.96261808404233,425.8750587500399,425.8750587500399,425.88213262535476,425.8750587500399,425.8750587500399,425.8750587500399,425.88213262535476,425.8750587500399,430.9976920839981,431.89989808399696,433.9133319170214,,431.89989808399696,431.89989808399696,437.1102393750334,432.3165759590338,433.4271147090476,433.9133319170214,435.0271541250404,431.89989808399696,431.89989808399696,431.83263241699893,431.89989808399696,431.89989808399696,431.89989808399696,431.83263241699893,431.89989808399696,431.89989808399696,437.1102393750334,431.89989808399696,437.1102393750334,437.0461798339966,,431.89989808399696,1,1,1.6560856659780256,reldom2_s025,001,2025-03-07_10h30.41.375,What-B-Scan_AC,2022.2.5,None,
36,Second_Order,6.0,viswhat,stimulus/viswhat_stim/land_vehicle-oldcar.png,stimulus/viswhat_stim/land_animal-cat.png,stimulus/viswhat_stim/water_vehicle-cargoboat.png,stimulus/viswhat_stim/water_animal-orka.png,stimulus/viswhat_stim/match_blank.png,stimulus/viswhat_stim/match_box.png,stimulus/viswhat_stim/match_yes.png,stimulus/viswhat_stim/match_no.png,1.0,Match,Location,Location,1,5.125,0,5.125,0,5.125,0,5.125,0,0.625,0.625,1,0.5,1,2.125,1,0.5,1,2.125,0,0.0,0,0.0,0,0.0,0,0.0,0,,,,,0,47,47,47,,,,,,,,,437.8521491670399,442.9757635000278,438.3016475000186,439.3001182920416,439.9352566250018,440.92445695900824,437.8521491670399,437.8521491670399,437.85189912571025,437.8521491670399,437.8521491670399,437.8521491670399,437.85189912571025,437.8521491670399,442.9757635000278,443.75099091703305,445.7878005420207,,443.75099091703305,443.75099091703305,448.9493631250225,444.1441699170391,445.19650612503756,445.7878005420207,446.84540387504967,443.75099091703305,443.75099091703305,443.6929033750435,443.75099091703305,443.75099091703305,443.75099091703305,443.6929033750435,443.75099091703305,443.75099091703305,448.9493631250225,443.75099091703305,448.9493631250225,448.9493631250225,,443.75099091703305,1,1,0.7852467080228962,reldom2_s025,001,2025-03-07_10h30.41.375,What-B-Scan_AC,2022.2.5,None,
0,0.0,None,fixation,stimulus/viswhat_stim/blank_white.png,stimulus/viswhat_stim/blank_white.png,stimulus/audwhat_stim/blank_white.png,stimulus/audwhat_stim/blank_white.png,stimulus/viswhat_stim/blank_white.png,stimulus/viswhat_stim/blank_white.png,stimulus/viswhat_stim/blank_white.png,stimulus/viswhat_stim/blank_white.png,0.0,0.0,0.0,0.0,0,0.0,0,0.0,0,0.0,0,0.0,0,0.0,0.0,0,0.0,0,0.0,0,0.0,0,0.0,0,0.0,0,0.0,0,0.0,0,0.0,10,,,,,0,48,48,48,,,,,,,,,449.8334433750133,449.8334433750133,449.8334433750133,449.8334433750133,449.8334433750133,449.8334433750133,449.8334433750133,449.8334433750133,449.73684262535147,449.8334433750133,449.8334433750133,449.8334433750133,449.73684262535147,449.8334433750133,449.8334433750133,449.8334433750133,449.8334433750133,449.8334433750133,449.8334433750133,449.8334433750133,449.8334433750133,449.8334433750133,449.8334433750133,449.8334433750133,449.8334433750133,449.8334433750133,449.8334433750133,449.7868426253514,449.8334433750133,449.8334433750133,449.8334433750133,449.7868426253514,449.8334433750133,449.8334433750133,449.8334433750133,449.8334433750133,449.8334433750133,455.01403087499784,455.01403087499784,460.08708195900545,None,0,,reldom2_s025,001,2025-03-07_10h30.41.375,What-B-Scan_AC,2022.2.5,None,
37,First_Order,7.0,audwhat,stimulus/audwhat_stim/dummy.wav,stimulus/audwhat_stim/dummy.wav,stimulus/audwhat_stim/string viola_low-pitch_Ftri_loud.wav,stimulus/audwhat_stim/string viola_high-pitch_Dtri_loud.wav,stimulus/audwhat_stim/blank_white.png,stimulus/audwhat_stim/category_box.png,stimulus/audwhat_stim/category_yes.png,stimulus/audwhat_stim/category_no.png,None,Category,None,Category,1,0.0,0,5.125,0,5.125,0,5.125,0,0.0,0.625,0,0.0,0,0.0,0,0.0,0,0.0,0,0.0,0,0.0,1,0.5,1,2.125,0,,,,,0,49,49,49,,,,,,,,,460.08708195900545,460.08708195900545,460.08708195900545,460.08708195900545,460.08708195900545,460.08708195900545,460.08708195900545,460.08708195900545,460.0157573756684,460.08708195900545,460.08708195900545,460.08708195900545,460.0157573756684,460.08708195900545,460.08708195900545,460.08708195900545,462.1739337500185,,460.08708195900545,460.08708195900545,465.28211920900503,460.08708195900545,460.08708195900545,460.08708195900545,460.08708195900545,460.5508710000431,461.61730095901294,460.52147012571027,,462.1739337500185,463.2427570000291,462.144006666673,,460.08708195900545,465.28211920900503,460.08708195900545,465.28211920900503,465.28211920900503,465.9368411670439,460.08708195900545,1,1,1.26354520797031,reldom2_s025,001,2025-03-07_10h30.41.375,What-B-Scan_AC,2022.2.5,None,
38,First_Order,7.0,audwhat,stimulus/audwhat_stim/dummy.wav,stimulus/audwhat_stim/dummy.wav,stimulus/audwhat_stim/percussion mallet_high-pitch_D_loud.wav,stimulus/audwhat_stim/string viola_high-pitch_D_loud.wav,stimulus/audwhat_stim/blank_white.png,stimulus/audwhat_stim/pitch_box.png,stimulus/audwhat_stim/pitch_yes.png,stimulus/audwhat_stim/pitch_no.png,None,Pitch,None,Pitch,1,0.0,0,5.125,0,5.125,0,5.125,0,0.0,0.625,0,0.0,0,0.0,0,0.0,0,0.0,0,0.0,0,0.0,1,0.5,1,2.125,0,,,,,0,50,50,50,,,,,,,,,466.190971834003,466.190971834003,466.190971834003,466.190971834003,466.190971834003,466.190971834003,466.190971834003,466.190971834003,466.11075029234246,466.190971834003,466.190971834003,466.190971834003,466.11075029234246,466.190971834003,466.190971834003,466.190971834003,468.27125741704367,472.3187862500199,466.190971834003,466.190971834003,471.3698127090465,466.190971834003,466.190971834003,466.190971834003,466.190971834003,466.65122025000164,467.71583037503297,466.6213780416913,,468.27125741704367,469.337005459005,468.24135104171387,,466.190971834003,471.3698127090465,466.190971834003,471.3698127090465,471.410982166999,472.06458933401154,466.190971834003,1,1,1.9352315829601139,reldom2_s025,001,2025-03-07_10h30.41.375,What-B-Scan_AC,2022.2.5,None,
39,First_Order,7.0,audwhat,stimulus/audwhat_stim/dummy.wav,stimulus/audwhat_stim/dummy.wav,stimulus/audwhat_stim/string viola_low-pitch_Dtri_loud.wav,stimulus/audwhat_stim/percussion mallet_low-pitch_Dtri_loud.wav,stimulus/audwhat_stim/blank_white.png,stimulus/audwhat_stim/category_box.png,stimulus/audwhat_stim/category_yes.png,stimulus/audwhat_stim/category_no.png,None,Category,None,Pitch,2,0.0,0,5.125,0,5.125,0,5.125,0,0.0,0.625,0,0.0,0,0.0,0,0.0,0,0.0,0,0.0,0,0.0,1,0.5,1,2.125,0,,,,,0,51,51,51,,,,,,,,,472.3187862500199,472.3187862500199,472.3187862500199,472.3187862500199,472.3187862500199,472.3187862500199,472.3187862500199,472.3187862500199,472.2386554173737,472.3187862500199,472.3187862500199,472.3187862500199,472.2386554173737,472.3187862500199,472.3187862500199,472.3187862500199,474.4114912500372,,472.3187862500199,472.3187862500199,477.4789942090283,472.3187862500199,472.3187862500199,472.3187862500199,472.3187862500199,472.7836901250412,473.8537578340038,472.7538670006945,,474.4114912500372,475.48396591702476,474.3814769586936,,472.3187862500199,477.4789942090283,472.3187862500199,477.4789942090283,477.5205157920136,478.1749310840387,472.3187862500199,2,1,0.3639598319423385,reldom2_s025,001,2025-03-07_10h30.41.375,What-B-Scan_AC,2022.2.5,None,
40,First_Order,7.0,audwhat,stimulus/audwhat_stim/dummy.wav,stimulus/audwhat_stim/dummy.wav,stimulus/audwhat_stim/string viola_high-pitch_F_loud.wav,stimulus/audwhat_stim/string viola_low-pitch_Ftri_loud.wav,stimulus/audwhat_stim/blank_white.png,stimulus/audwhat_stim/pitch_box.png,stimulus/audwhat_stim/pitch_yes.png,stimulus/audwhat_stim/pitch_no.png,None,Pitch,None,Category,2,0.0,0,5.125,0,5.125,0,5.125,0,0.0,0.625,0,0.0,0,0.0,0,0.0,0,0.0,0,0.0,0,0.0,1,0.5,1,2.125,0,,,,,0,52,52,52,,,,,,,,,478.42894275003346,478.42894275003346,478.42894275003346,478.42894275003346,478.42894275003346,478.42894275003346,478.42894275003346,478.42894275003346,478.34879045837636,478.42894275003346,478.42894275003346,478.42894275003346,478.34879045837636,478.42894275003346,478.42894275003346,478.42894275003346,480.511747917044,,478.42894275003346,478.42894275003346,483.6146815000102,478.42894275003346,478.42894275003346,478.42894275003346,478.42894275003346,478.89180191699415,479.95699487504316,478.8623512086963,,480.511747917044,481.5769220000366,480.4821289586873,,478.42894275003346,483.6146815000102,478.42894275003346,483.6146815000102,483.65571975003695,484.3107930420083,478.42894275003346,2,1,1.4588342909701169,reldom2_s025,001,2025-03-07_10h30.41.375,What-B-Scan_AC,2022.2.5,None,
0,0.0,None,fixation,stimulus/viswhat_stim/blank_white.png,stimulus/viswhat_stim/blank_white.png,stimulus/audwhat_stim/blank_white.png,stimulus/audwhat_stim/blank_white.png,stimulus/viswhat_stim/blank_white.png,stimulus/viswhat_stim/blank_white.png,stimulus/viswhat_stim/blank_white.png,stimulus/viswhat_stim/blank_white.png,0.0,0.0,0.0,0.0,0,0.0,0,0.0,0,0.0,0,0.0,0,0.0,0.0,0,0.0,0,0.0,0,0.0,0,0.0,0,0.0,0,0.0,0,0.0,0,0.0,9,,,,,0,53,53,53,,,,,,,,,484.5437440420501,484.5437440420501,484.5437440420501,484.5437440420501,484.5437440420501,484.5437440420501,484.5437440420501,484.5437440420501,484.4441263753416,484.5437440420501,484.5437440420501,484.5437440420501,484.4441263753416,484.5437440420501,484.5437440420501,484.5437440420501,484.5437440420501,484.5437440420501,484.5437440420501,484.5437440420501,484.5437440420501,484.5437440420501,484.5437440420501,484.5437440420501,484.5437440420501,484.5437440420501,484.5437440420501,484.49412637534164,484.5437440420501,484.5437440420501,484.5437440420501,484.49412637534164,484.5437440420501,484.5437440420501,484.5437440420501,484.5437440420501,484.5437440420501,489.726235292037,489.726235292037,493.716551584017,None,0,,reldom2_s025,001,2025-03-07_10h30.41.375,What-B-Scan_AC,2022.2.5,None,
41,Second_Order,7.0,audwhat,stimulus/audwhat_stim/percussion mallet_low-pitch_F_loud.wav,stimulus/audwhat_stim/percussion mallet_high-pitch_D_loud.wav,stimulus/audwhat_stim/string cello_low-pitch_Dtri_loud.wav,stimulus/audwhat_stim/string viola_high-pitch_F_loud.wav,stimulus/viswhat_stim/match_blank.png,stimulus/viswhat_stim/match_box.png,stimulus/viswhat_stim/match_yes.png,stimulus/viswhat_stim/match_no.png,1.0,Match,Category,Category,1,5.125,0,5.125,0,5.125,0,5.125,0,0.75,0.75,0,0.0,0,0.0,0,0.0,0,0.0,1,0.5,1,2.125,1,0.5,1,2.125,0,,,,,0,54,54,54,,,,,,,,,493.716551584017,498.83743358403444,493.716551584017,493.716551584017,493.716551584017,493.716551584017,494.16187433403684,495.1494219590095,494.1760093756641,,495.7969542500214,496.78707291703904,495.8007876667,,498.83743358403444,499.6917416250217,501.7644568750402,,499.6917416250217,499.6917416250217,504.85862995899515,499.6917416250217,499.6917416250217,499.6917416250217,499.6917416250217,500.1050723750377,501.1664989590063,500.0752360416848,,501.7644568750402,502.83066129201325,501.7348991257061,,499.6917416250217,504.85862995899515,499.6917416250217,504.85862995899515,504.85862995899515,,499.6917416250217,1,1,0.7733673329348676,reldom2_s025,001,2025-03-07_10h30.41.375,What-B-Scan_AC,2022.2.5,None,
42,Second_Order,7.0,audwhat,stimulus/audwhat_stim/percussion mallet_high-pitch_Ftri_loud.wav,stimulus/audwhat_stim/percussion mallet_low-pitch_F_loud.wav,stimulus/audwhat_stim/percussion mallet_low-pitch_Dtri_loud.wav,stimulus/audwhat_stim/string viola_low-pitch_Dtri_loud.wav,stimulus/viswhat_stim/match_blank.png,stimulus/viswhat_stim/match_box.png,stimulus/viswhat_stim/match_yes.png,stimulus/viswhat_stim/match_no.png,2.0,Match,Category,Pitch,2,5.125,0,5.125,0,5.125,0,5.125,0,0.625,0.625,0,0.0,0,0.0,0,0.0,0,0.0,1,0.5,1,2.125,1,0.5,1,2.125,0,,,,,0,55,55,55,,,,,,,,,505.6685024170438,510.78623758401955,505.6685024170438,505.6685024170438,505.6685024170438,505.6685024170438,506.1233061670209,507.1098982919939,506.1372117917092,,507.7458245840389,508.74347783403937,507.7582217917118,,510.78623758401955,511.51508091704454,513.5721185420407,,511.51508091704454,511.51508091704454,516.6949121250072,511.51508091704454,511.51508091704454,511.51508091704454,511.51508091704454,511.97095979203004,513.023771542008,511.9416801256632,,513.5721185420407,514.6300666250172,513.5432350416706,,511.51508091704454,516.6949121250072,511.51508091704454,516.6949121250072,516.6949121250072,517.3810281670303,511.51508091704454,None,0,,reldom2_s025,001,2025-03-07_10h30.41.375,What-B-Scan_AC,2022.2.5,None,
0,0.0,None,fixation,stimulus/viswhat_stim/blank_white.png,stimulus/viswhat_stim/blank_white.png,stimulus/audwhat_stim/blank_white.png,stimulus/audwhat_stim/blank_white.png,stimulus/viswhat_stim/blank_white.png,stimulus/viswhat_stim/blank_white.png,stimulus/viswhat_stim/blank_white.png,stimulus/viswhat_stim/blank_white.png,0.0,0.0,0.0,0.0,0,0.0,0,0.0,0,0.0,0,0.0,0,0.0,0.0,0,0.0,0,0.0,0,0.0,0,0.0,0,0.0,0,0.0,0,0.0,0,0.0,9,,,,,0,56,56,56,,,,,,,,,517.611868750013,517.611868750013,517.611868750013,517.611868750013,517.611868750013,517.611868750013,517.611868750013,517.611868750013,517.5143615003636,517.611868750013,517.611868750013,517.611868750013,517.5143615003636,517.611868750013,517.611868750013,517.611868750013,517.611868750013,517.611868750013,517.611868750013,517.611868750013,517.611868750013,517.611868750013,517.611868750013,517.611868750013,517.611868750013,517.611868750013,517.611868750013,517.5643615003636,517.611868750013,517.611868750013,517.611868750013,517.5643615003636,517.611868750013,517.611868750013,517.611868750013,517.611868750013,517.611868750013,522.807042792032,522.807042792032,526.871961124998,None,0,,reldom2_s025,001,2025-03-07_10h30.41.375,What-B-Scan_AC,2022.2.5,None,
43,First_Order,8.0,audwhat,stimulus/audwhat_stim/dummy.wav,stimulus/audwhat_stim/dummy.wav,stimulus/audwhat_stim/string cello_high-pitch_D_loud.wav,stimulus/audwhat_stim/string cello_low-pitch_F_loud.wav,stimulus/audwhat_stim/blank_white.png,stimulus/audwhat_stim/pitch_box.png,stimulus/audwhat_stim/pitch_yes.png,stimulus/audwhat_stim/pitch_no.png,None,Pitch,None,Category,2,0.0,0,5.125,0,5.125,0,5.125,0,0.0,0.625,0,0.0,0,0.0,0,0.0,0,0.0,0,0.0,0,0.0,1,0.5,1,2.125,0,,,,,0,57,57,57,,,,,,,,,526.871961124998,526.871961124998,526.871961124998,526.871961124998,526.871961124998,526.871961124998,526.871961124998,526.871961124998,526.7997121666946,526.871961124998,526.871961124998,526.871961124998,526.7997121666946,526.871961124998,526.871961124998,526.871961124998,528.9499116250081,532.9876605000463,526.871961124998,526.871961124998,532.0428425840219,526.871961124998,526.871961124998,526.871961124998,526.871961124998,527.3347382920329,528.3970916669932,527.3050022916907,,528.9499116250081,530.0137206670479,528.919660750664,,526.871961124998,532.0428425840219,526.871961124998,532.0428425840219,532.0838602500153,532.7343642920023,526.871961124998,2,1,0.9795858329744078,reldom2_s025,001,2025-03-07_10h30.41.375,What-B-Scan_AC,2022.2.5,None,
44,First_Order,8.0,audwhat,stimulus/audwhat_stim/dummy.wav,stimulus/audwhat_stim/dummy.wav,stimulus/audwhat_stim/percussion mallet_low-pitch_F_loud.wav,stimulus/audwhat_stim/string cello_low-pitch_F_loud.wav,stimulus/audwhat_stim/blank_white.png,stimulus/audwhat_stim/pitch_box.png,stimulus/audwhat_stim/pitch_yes.png,stimulus/audwhat_stim/pitch_no.png,None,Pitch,None,Pitch,1,0.0,0,5.125,0,5.125,0,5.125,0,0.0,0.625,0,0.0,0,0.0,0,0.0,0,0.0,0,0.0,0,0.0,1,0.5,1,2.125,0,,,,,0,58,58,58,,,,,,,,,532.9876605000463,532.9876605000463,532.9876605000463,532.9876605000463,532.9876605000463,532.9876605000463,532.9876605000463,532.9876605000463,532.908419500369,532.9876605000463,532.9876605000463,532.9876605000463,532.908419500369,532.9876605000463,532.9876605000463,532.9876605000463,535.0670242500491,539.113469834032,532.9876605000463,532.9876605000463,538.1647271669935,532.9876605000463,532.9876605000463,532.9876605000463,532.9876605000463,533.448326917016,534.5129893340054,533.4186575007082,,535.0670242500491,536.1347265420482,535.0372292507129,,532.9876605000463,538.1647271669935,532.9876605000463,538.1647271669935,538.2058665000368,538.8599315000465,532.9876605000463,1,1,0.6684171659289859,reldom2_s025,001,2025-03-07_10h30.41.375,What-B-Scan_AC,2022.2.5,None,
45,First_Order,8.0,audwhat,stimulus/audwhat_stim/dummy.wav,stimulus/audwhat_stim/dummy.wav,stimulus/audwhat_stim/string viola_low-pitch_Dtri_loud.wav,stimulus/audwhat_stim/string cello_high-pitch_Ftri_loud.wav,stimulus/audwhat_stim/blank_white.png,stimulus/audwhat_stim/category_box.png,stimulus/audwhat_stim/category_yes.png,stimulus/audwhat_stim/category_no.png,None,Category,None,Category,1,0.0,0,5.125,0,5.125,0,5.125,0,0.0,0.625,0,0.0,0,0.0,0,0.0,0,0.0,0,0.0,0,0.0,1,0.5,1,2.125,0,,,,,0,59,59,59,,,,,,,,,539.113469834032,539.113469834032,539.113469834032,539.113469834032,539.113469834032,539.113469834032,539.113469834032,539.113469834032,539.0339864583531,539.113469834032,539.113469834032,539.113469834032,539.0339864583531,539.113469834032,539.113469834032,539.113469834032,541.2059064999921,545.231702292047,539.113469834032,539.113469834032,544.2806335840141,539.113469834032,539.113469834032,539.113469834032,539.113469834032,539.5795145000448,540.6501173750148,539.5494535416985,,541.2059064999921,542.235661792045,541.175976458708,,539.113469834032,544.2806335840141,539.113469834032,544.2806335840141,544.3219829589943,544.9770524590276,539.113469834032,1,1,0.9588876239722595,reldom2_s025,001,2025-03-07_10h30.41.375,What-B-Scan_AC,2022.2.5,None,
46,First_Order,8.0,audwhat,stimulus/audwhat_stim/dummy.wav,stimulus/audwhat_stim/dummy.wav,stimulus/audwhat_stim/string viola_high-pitch_Ftri_loud.wav,stimulus/audwhat_stim/percussion xylophone_high-pitch_Ftri_loud.wav,stimulus/audwhat_stim/blank_white.png,stimulus/audwhat_stim/category_box.png,stimulus/audwhat_stim/category_yes.png,stimulus/audwhat_stim/category_no.png,None,Category,None,Pitch,2,0.0,0,5.125,0,5.125,0,5.125,0,0.0,0.625,0,0.0,0,0.0,0,0.0,0,0.0,0,0.0,0,0.0,1,0.5,1,2.125,0,,,,,0,60,60,60,,,,,,,,,545.231702292047,545.231702292047,545.231702292047,545.231702292047,545.231702292047,545.231702292047,545.231702292047,545.231702292047,545.1509476673401,545.231702292047,545.231702292047,545.231702292047,545.1509476673401,545.231702292047,545.231702292047,545.231702292047,547.3292312090052,551.3712119590491,545.231702292047,545.231702292047,550.3999822500045,545.231702292047,545.231702292047,545.231702292047,545.231702292047,545.6976011670195,546.769546125026,545.6674702086641,,547.3292312090052,548.4025282920338,547.29916358367,548.3563203749945,545.231702292047,550.3999822500045,545.231702292047,550.3999822500045,550.440920958994,551.0957012090366,545.231702292047,2,1,0.5112636659760028,reldom2_s025,001,2025-03-07_10h30.41.375,What-B-Scan_AC,2022.2.5,None,
0,0.0,None,fixation,stimulus/viswhat_stim/blank_white.png,stimulus/viswhat_stim/blank_white.png,stimulus/audwhat_stim/blank_white.png,stimulus/audwhat_stim/blank_white.png,stimulus/viswhat_stim/blank_white.png,stimulus/viswhat_stim/blank_white.png,stimulus/viswhat_stim/blank_white.png,stimulus/viswhat_stim/blank_white.png,0.0,0.0,0.0,0.0,0,0.0,0,0.0,0,0.0,0,0.0,0,0.0,0.0,0,0.0,0,0.0,0,0.0,0,0.0,0,0.0,0,0.0,0,0.0,0,0.0,8,,,,,0,61,61,61,,,,,,,,,551.3712119590491,551.3712119590491,551.3712119590491,551.3712119590491,551.3712119590491,551.3712119590491,551.3712119590491,551.3712119590491,551.270013875359,551.3712119590491,551.3712119590491,551.3712119590491,551.270013875359,551.3712119590491,551.3712119590491,551.3712119590491,551.3712119590491,551.3712119590491,551.3712119590491,551.3712119590491,551.3712119590491,551.3712119590491,551.3712119590491,551.3712119590491,551.3712119590491,551.3712119590491,551.3712119590491,551.320013875359,551.3712119590491,551.3712119590491,551.3712119590491,551.320013875359,551.3712119590491,551.3712119590491,551.3712119590491,551.3712119590491,551.3712119590491,556.5557801669929,556.5557801669929,559.5329175420338,None,0,,reldom2_s025,001,2025-03-07_10h30.41.375,What-B-Scan_AC,2022.2.5,None,
47,Second_Order,8.0,audwhat,stimulus/audwhat_stim/string cello_low-pitch_Dtri_loud.wav,stimulus/audwhat_stim/string viola_high-pitch_D_loud.wav,stimulus/audwhat_stim/percussion xylophone_high-pitch_F_loud.wav,stimulus/audwhat_stim/percussion mallet_low-pitch_D_loud.wav,stimulus/viswhat_stim/match_blank.png,stimulus/viswhat_stim/match_box.png,stimulus/viswhat_stim/match_yes.png,stimulus/viswhat_stim/match_no.png,1.0,Match,Category,Category,1,5.125,0,5.125,0,5.125,0,5.125,0,0.75,0.75,0,0.0,0,0.0,0,0.0,0,0.0,1,0.5,1,2.125,1,0.5,1,2.125,0,,,,,0,62,62,62,,,,,,,,,559.5329175420338,564.6559473749949,559.5329175420338,559.5329175420338,559.5329175420338,559.5329175420338,559.9807359590195,560.9678087090142,559.9948553756733,,561.6159561670502,562.6056205000496,561.619641041678,,564.6559473749949,565.5094830840244,567.5811179589946,571.4985083750216,565.5094830840244,565.5094830840244,570.6868261670461,565.5094830840244,565.5094830840244,565.5094830840244,565.5094830840244,565.9222210840089,566.9822453749948,565.8933803756993,566.9360684170388,567.5811179589946,568.6507655000314,567.5512136257059,,565.5094830840244,570.6868261670461,565.5094830840244,570.6868261670461,570.6868261670461,,565.5094830840244,1,1,0.4269785829819739,reldom2_s025,001,2025-03-07_10h30.41.375,What-B-Scan_AC,2022.2.5,None,
48,Second_Order,8.0,audwhat,stimulus/audwhat_stim/percussion mallet_high-pitch_D_loud.wav,stimulus/audwhat_stim/percussion mallet_low-pitch_Dtri_loud.wav,stimulus/audwhat_stim/string viola_high-pitch_F_loud.wav,stimulus/audwhat_stim/string viola_low-pitch_Dtri_loud.wav,stimulus/viswhat_stim/match_blank.png,stimulus/viswhat_stim/match_box.png,stimulus/viswhat_stim/match_yes.png,stimulus/viswhat_stim/match_no.png,1.0,Match,Category,Category,1,5.125,0,5.125,0,5.125,0,5.125,0,0.625,0.625,0,0.0,0,0.0,0,0.0,0,0.0,1,0.5,1,2.125,1,0.5,1,2.125,0,,,,,0,63,63,63,,,,,,,,,571.4985083750216,576.6211573750479,571.4985083750216,571.4985083750216,571.4985083750216,571.4985083750216,571.9594669590006,572.9454636250157,571.9723424586739,,573.5813692090451,574.5790064590401,573.5931248336603,,576.6211573750479,577.3499880839954,579.4136050000088,583.4592518340214,577.3499880839954,577.3499880839954,582.4981429170002,577.3499880839954,577.3499880839954,577.3499880839954,577.3499880839954,577.8086006670492,578.8622669170145,577.7779204166766,,579.4136050000088,580.4767947500222,579.3839748337089,,577.3499880839954,582.4981429170002,577.3499880839954,582.4981429170002,582.53867954202,583.1869542089989,577.3499880839954,1,1,1.241057582956273,reldom2_s025,001,2025-03-07_10h30.41.375,What-B-Scan_AC,2022.2.5,None,
0,0.0,None,fixation,stimulus/viswhat_stim/blank_white.png,stimulus/viswhat_stim/blank_white.png,stimulus/audwhat_stim/blank_white.png,stimulus/audwhat_stim/blank_white.png,stimulus/viswhat_stim/blank_white.png,stimulus/viswhat_stim/blank_white.png,stimulus/viswhat_stim/blank_white.png,stimulus/viswhat_stim/blank_white.png,0.0,0.0,0.0,0.0,0,0.0,0,0.0,0,0.0,0,0.0,0,0.0,0.0,0,0.0,0,0.0,0,0.0,0,0.0,0,0.0,0,0.0,0,0.0,0,0.0,16,,,,,0,64,64,64,,,,,,,,,583.4592518340214,583.4592518340214,583.4592518340214,583.4592518340214,583.4592518340214,583.4592518340214,583.4592518340214,583.4592518340214,583.3607852503502,583.4592518340214,583.4592518340214,583.4592518340214,583.3607852503502,583.4592518340214,583.4592518340214,583.4592518340214,583.4592518340214,583.4592518340214,583.4592518340214,583.4592518340214,583.4592518340214,583.4592518340214,583.4592518340214,583.4592518340214,583.4592518340214,583.4592518340214,583.4592518340214,583.4107852503502,583.4592518340214,583.4592518340214,583.4592518340214,583.4107852503502,583.4592518340214,583.4592518340214,583.4592518340214,583.4592518340214,583.4592518340214,588.6595410840237,588.6595410840237,599.6022574999952,None,0,,reldom2_s025,001,2025-03-07_10h30.41.375,What-B-Scan_AC,2022.2.5,None,
