Trial,Order,Block,Type,Stimuli_File1,Stimuli_File2,Stimuli_File3,Stimuli_File4,Cue_File1,Cue_File2,Response_File_Yes,Response_File_No,Match,Cue_Dimension,Pair1_Dimension,Pair2_Dimension,Key,Cue1_Duration,Cue1_Onset,Cue2_Duration,Cue2_Onset,ResponseYes_Duration,ResponseYes_Onset,ResponseNo_Duration,ResponseNo_Onset,ITI_Within,ITI_Between,Image1_Duration,Image1_Onset,Image2_Duration,Image2_Onset,Image3_Duration,Image3_Onset,Image4_Duration,Image4_Onset,Sound1_Duration,Sound1_Onset,Sound2_Duration,Sound2_Onset,Sound3_Duration,Sound3_Onset,Sound4_Duration,Sound4_Onset,Fixation_Duration,trials_2.thisRepN,trials_2.thisTrialN,trials_2.thisN,trials_2.thisIndex,trials.thisRepN,trials.thisTrialN,trials.thisN,trials.thisIndex,text_start.started,key_resp_start.started,key_resp_start.keys,key_resp_start.rt,text2.started,key_resp_2.started,key_resp_2.keys,key_resp_2.rt,cue_file1.started,cue_file1.stopped,image_1.started,image_1.stopped,image_2.started,image_2.stopped,sound_icon1.started,sound_icon1.stopped,sound_1.started,sound_1.stopped,sound_icon2.started,sound_icon2.stopped,sound_2.started,sound_2.stopped,image_blank_1.started,image_blank_1.stopped,key_press.started,key_press.stopped,fixation_text.started,cue_file2.started,cue_file2.stopped,image_3.started,image_3.stopped,image_4.started,image_4.stopped,sound_icon3.started,sound_icon3.stopped,sound_3.started,sound_3.stopped,sound_icon4.started,sound_icon4.stopped,sound_4.started,sound_4.stopped,response_yes.started,response_yes.stopped,response_no.started,response_no.stopped,iti_blank.started,iti_blank.stopped,fixation_text.stopped,key_press.keys,key_press.corr,key_press.rt,participant,session,date,expName,psychopyVersion,frameRate,
,,,,,,,,,,,,,,,,,,,,,,,,,,,,,,,,,,,,,,,,,,,,,,,,,,,,9.277948874980211,9.277948874980211,2,1.1603748330380768,,,,,,,,,,,,,,,,,,,,,,,,,,,,,,,,,,,,,,,,,,,,,,,,reldom2_s025,001,2025-03-07_09h48.22.058,Where-B-Scan_AC,2022.2.5,None,
,,,,,,,,,,,,,,,,,,,,,,,,,,,,,,,,,,,,,,,,,,,,0,0,0,0,,,,,,,,,10.473079999967013,10.473079999967013,5,20.71127366705332,,,,,,,,,,,,,,,,,,,,,,,,,,,,,,,,,,,,,,,,,,,,reldom2_s025,001,2025-03-07_09h48.22.058,Where-B-Scan_AC,2022.2.5,None,
,,,,,,,,,,,,,,,,,,,,,,,,,,,,,,,,,,,,,,,,,,,,1,0,1,0,,,,,,,,,31.19896983297076,31.19896983297076,5,1.9857220409903675,,,,,,,,,,,,,,,,,,,,,,,,,,,,,,,,,,,,,,,,,,,,reldom2_s025,001,2025-03-07_09h48.22.058,Where-B-Scan_AC,2022.2.5,None,
,,,,,,,,,,,,,,,,,,,,,,,,,,,,,,,,,,,,,,,,,,,,2,0,2,0,,,,,,,,,33.20246474997839,33.20246474997839,5,1.9821976670064032,,,,,,,,,,,,,,,,,,,,,,,,,,,,,,,,,,,,,,,,,,,,reldom2_s025,001,2025-03-07_09h48.22.058,Where-B-Scan_AC,2022.2.5,None,
,,,,,,,,,,,,,,,,,,,,,,,,,,,,,,,,,,,,,,,,,,,,3,0,3,0,,,,,,,,,35.20057566597825,35.20057566597825,5,1.9838556250324473,,,,,,,,,,,,,,,,,,,,,,,,,,,,,,,,,,,,,,,,,,,,reldom2_s025,001,2025-03-07_09h48.22.058,Where-B-Scan_AC,2022.2.5,None,
0,0.0,None,fixation,stimulus/audwhere_stim/blank_white.png,stimulus/audwhere_stim/blank_white.png,stimulus/viswhere_stim/blank_white.png,stimulus/viswhere_stim/blank_white.png,stimulus/audwhere_stim/blank_white.png,stimulus/audwhere_stim/blank_white.png,stimulus/audwhere_stim/blank_white.png,stimulus/audwhere_stim/blank_white.png,0.0,0.0,0.0,0.0,0,0.0,0,0.0,0,0.0,0,0.0,0,0.0,0.0,0,0.0,0,0.0,0,0.0,0,0.0,0,0.0,0,0.0,0,0.0,0,0.0,16,,,,,0,0,0,0,,,,,,,,,37.40691216598498,37.40691216598498,37.40691216598498,37.40691216598498,37.40691216598498,37.40691216598498,37.40691216598498,37.40691216598498,37.312678791667956,37.40691216598498,37.40691216598498,37.40691216598498,37.312678791667956,37.40691216598498,37.40691216598498,37.40691216598498,37.40691216598498,37.40691216598498,37.40691216598498,37.40691216598498,37.40691216598498,37.40691216598498,37.40691216598498,37.40691216598498,37.40691216598498,37.40691216598498,37.40691216598498,37.36267879166795,37.40691216598498,37.40691216598498,37.40691216598498,37.36267879166795,37.40691216598498,37.40691216598498,37.40691216598498,37.40691216598498,37.40691216598498,42.59464758296963,42.59464758296963,53.61576929100556,None,0,,reldom2_s025,001,2025-03-07_09h48.22.058,Where-B-Scan_AC,2022.2.5,None,
1,First_Order,1.0,audwhere,stimulus/audwhere_stim/dummy.wav,stimulus/audwhere_stim/dummy.wav,stimulus/audwhere_stim/right_away_290h.wav,stimulus/audwhere_stim/right_toward_300h.wav,stimulus/audwhere_stim/blank_white.png,stimulus/audwhere_stim/direction_box.png,stimulus/audwhere_stim/direction_yes.png,stimulus/audwhere_stim/direction_no.png,None,Direction,None,Side,2,0.0,0,5.125,0,5.125,0,5.125,0,0.0,0.625,0,0.0,0,0.0,0,0.0,0,0.0,0,0.0,0,0.0,1,0.5,1,2.125,0,,,,,0,1,1,1,,,,,,,,,53.61576929100556,53.61576929100556,53.61576929100556,53.61576929100556,53.61576929100556,53.61576929100556,53.61576929100556,53.61576929100556,53.54551374997245,53.61576929100556,53.61576929100556,53.61576929100556,53.54551374997245,53.61576929100556,53.61576929100556,53.61576929100556,55.69535616599023,,53.61576929100556,53.61576929100556,58.797821832995396,53.61576929100556,53.61576929100556,53.61576929100556,53.61576929100556,54.10261304100277,55.16285220795544,54.07510633266453,,55.69535616599023,56.75936712499242,55.66758233262614,,53.61576929100556,58.797821832995396,53.61576929100556,58.797821832995396,58.837165874952916,59.50049154099543,53.61576929100556,2,1,1.1527587920427322,reldom2_s025,001,2025-03-07_09h48.22.058,Where-B-Scan_AC,2022.2.5,None,
2,First_Order,1.0,audwhere,stimulus/audwhere_stim/dummy.wav,stimulus/audwhere_stim/dummy.wav,stimulus/audwhere_stim/left_toward_290h.wav,stimulus/audwhere_stim/right_toward_280h.wav,stimulus/audwhere_stim/blank_white.png,stimulus/audwhere_stim/side_box.png,stimulus/audwhere_stim/side_yes.png,stimulus/audwhere_stim/side_no.png,None,Side,None,Direction,2,0.0,0,5.125,0,5.125,0,5.125,0,0.0,0.625,0,0.0,0,0.0,0,0.0,0,0.0,0,0.0,0,0.0,1,0.5,1,2.125,0,,,,,0,2,2,2,,,,,,,,,59.706102291005664,59.706102291005664,59.706102291005664,59.706102291005664,59.706102291005664,59.706102291005664,59.706102291005664,59.706102291005664,59.63382487432876,59.706102291005664,59.706102291005664,59.706102291005664,59.63382487432876,59.706102291005664,59.706102291005664,59.706102291005664,61.81627654097974,65.81227549997857,59.706102291005664,59.706102291005664,64.86830108298454,59.706102291005664,59.706102291005664,59.706102291005664,59.706102291005664,60.18416054098634,61.242868040979374,60.15674908267489,,61.81627654097974,62.879327707982156,61.78844620765109,,59.706102291005664,64.86830108298454,59.706102291005664,64.86830108298454,64.90728225000203,65.56994487496559,59.706102291005664,2,1,1.1764942920417525,reldom2_s025,001,2025-03-07_09h48.22.058,Where-B-Scan_AC,2022.2.5,None,
3,First_Order,1.0,audwhere,stimulus/audwhere_stim/dummy.wav,stimulus/audwhere_stim/dummy.wav,stimulus/audwhere_stim/right_toward_280h.wav,stimulus/audwhere_stim/right_away_300h.wav,stimulus/audwhere_stim/blank_white.png,stimulus/audwhere_stim/direction_box.png,stimulus/audwhere_stim/direction_yes.png,stimulus/audwhere_stim/direction_no.png,None,Direction,None,Side,2,0.0,0,5.125,0,5.125,0,5.125,0,0.0,0.625,0,0.0,0,0.0,0,0.0,0,0.0,0,0.0,0,0.0,1,0.5,1,2.125,0,,,,,0,3,3,3,,,,,,,,,65.81227549997857,65.81227549997857,65.81227549997857,65.81227549997857,65.81227549997857,65.81227549997857,65.81227549997857,65.81227549997857,65.74203533333105,65.81227549997857,65.81227549997857,65.81227549997857,65.74203533333105,65.81227549997857,65.81227549997857,65.81227549997857,67.90491670800839,71.92775033297949,65.81227549997857,65.81227549997857,70.98072554095415,65.81227549997857,65.81227549997857,65.81227549997857,65.81227549997857,66.30149333295412,67.37104108300991,66.27358624962314,,67.90491670800839,68.97575583297294,67.87683499965739,,65.81227549997857,70.98072554095415,65.81227549997857,70.98072554095415,71.02023979095975,71.68689287500456,65.81227549997857,2,1,1.2837537920568138,reldom2_s025,001,2025-03-07_09h48.22.058,Where-B-Scan_AC,2022.2.5,None,
4,First_Order,1.0,audwhere,stimulus/audwhere_stim/dummy.wav,stimulus/audwhere_stim/dummy.wav,stimulus/audwhere_stim/left_toward_270h.wav,stimulus/audwhere_stim/right_toward_300h.wav,stimulus/audwhere_stim/blank_white.png,stimulus/audwhere_stim/direction_box.png,stimulus/audwhere_stim/direction_yes.png,stimulus/audwhere_stim/direction_no.png,None,Direction,None,Direction,1,0.0,0,5.125,0,5.125,0,5.125,0,0.0,0.625,0,0.0,0,0.0,0,0.0,0,0.0,0,0.0,0,0.0,1,0.5,1,2.125,0,,,,,0,4,4,4,,,,,,,,,71.92775033297949,71.92775033297949,71.92775033297949,71.92775033297949,71.92775033297949,71.92775033297949,71.92775033297949,71.92775033297949,71.85905837433722,71.92775033297949,71.92775033297949,71.92775033297949,71.85905837433722,71.92775033297949,71.92775033297949,71.92775033297949,74.0265788329998,,71.92775033297949,71.92775033297949,77.10887058300432,71.92775033297949,71.92775033297949,71.92775033297949,71.92775033297949,72.41869408299681,73.44692404096713,72.39028958266523,,74.0265788329998,75.05603133299155,73.99862591666557,,71.92775033297949,77.10887058300432,71.92775033297949,77.10887058300432,77.14818220800953,77.81542120798258,71.92775033297949,1,1,0.8738349589984864,reldom2_s025,001,2025-03-07_09h48.22.058,Where-B-Scan_AC,2022.2.5,None,
0,0.0,None,fixation,stimulus/audwhere_stim/blank_white.png,stimulus/audwhere_stim/blank_white.png,stimulus/viswhere_stim/blank_white.png,stimulus/viswhere_stim/blank_white.png,stimulus/audwhere_stim/blank_white.png,stimulus/audwhere_stim/blank_white.png,stimulus/audwhere_stim/blank_white.png,stimulus/audwhere_stim/blank_white.png,0.0,0.0,0.0,0.0,0,0.0,0,0.0,0,0.0,0,0.0,0,0.0,0.0,0,0.0,0,0.0,0,0.0,0,0.0,0,0.0,0,0.0,0,0.0,0,0.0,10,,,,,0,5,5,5,,,,,,,,,78.0371079579927,78.0371079579927,78.0371079579927,78.0371079579927,78.0371079579927,78.0371079579927,78.0371079579927,78.0371079579927,77.9487545413159,78.0371079579927,78.0371079579927,78.0371079579927,77.9487545413159,78.0371079579927,78.0371079579927,78.0371079579927,78.0371079579927,78.0371079579927,78.0371079579927,78.0371079579927,78.0371079579927,78.0371079579927,78.0371079579927,78.0371079579927,78.0371079579927,78.0371079579927,78.0371079579927,77.99875454131592,78.0371079579927,78.0371079579927,78.0371079579927,77.99875454131592,78.0371079579927,78.0371079579927,78.0371079579927,78.0371079579927,78.0371079579927,83.25613120797789,83.25613120797789,88.1651024579769,None,0,,reldom2_s025,001,2025-03-07_09h48.22.058,Where-B-Scan_AC,2022.2.5,None,
5,Second_Order,1.0,audwhere,stimulus/audwhere_stim/right_toward_300h.wav,stimulus/audwhere_stim/left_toward_280h.wav,stimulus/audwhere_stim/right_toward_280h.wav,stimulus/audwhere_stim/right_away_280h.wav,stimulus/audwhere_stim/match_blank.png,stimulus/audwhere_stim/match_box.png,stimulus/audwhere_stim/match_yes.png,stimulus/audwhere_stim/match_no.png,2.0,Match,Direction,Side,2,5.125,0,5.125,0,5.125,0,5.125,0,0.75,0.75,0,0.0,0,0.0,0,0.0,0,0.0,1,0.5,1,2.125,1,0.5,1,2.125,0,,,,,0,6,6,6,,,,,,,,,88.1651024579769,93.28040674998192,88.1651024579769,88.1651024579769,88.1651024579769,88.1651024579769,88.617046749976,89.60472687496804,88.63100420765501,,90.23952462500893,91.23739708296489,90.25179870764647,,93.28040674998192,94.13089799997397,96.1804059999995,100.11919033300364,94.13089799997397,94.13089799997397,99.30235920799896,94.13089799997397,94.13089799997397,94.13089799997397,94.13089799997397,94.57613304100232,95.64638012496289,94.54821841663603,,96.1804059999995,97.20862716599368,96.1526524996191,,94.13089799997397,99.30235920799896,94.13089799997397,99.30235920799896,99.30235920799896,,94.13089799997397,2,1,0.9078685000422411,reldom2_s025,001,2025-03-07_09h48.22.058,Where-B-Scan_AC,2022.2.5,None,
6,Second_Order,1.0,audwhere,stimulus/audwhere_stim/right_toward_270h.wav,stimulus/audwhere_stim/right_away_290h.wav,stimulus/audwhere_stim/left_toward_300h.wav,stimulus/audwhere_stim/left_away_290h.wav,stimulus/audwhere_stim/match_blank.png,stimulus/audwhere_stim/match_box.png,stimulus/audwhere_stim/match_yes.png,stimulus/audwhere_stim/match_no.png,1.0,Match,Side,Side,1,5.125,0,5.125,0,5.125,0,5.125,0,0.625,0.625,0,0.0,0,0.0,0,0.0,0,0.0,1,0.5,1,2.125,1,0.5,1,2.125,0,,,,,0,7,7,7,,,,,,,,,100.11919033300364,105.24095441598911,100.11919033300364,100.11919033300364,100.11919033300364,100.11919033300364,100.57834854099201,101.5648705830099,100.59216429165487,,102.20217779098311,103.1985723329708,102.21299474966169,,105.24095441598911,105.97127683297731,108.01399895799113,,105.97127683297731,105.97127683297731,111.13087037496734,105.97127683297731,105.97127683297731,105.97127683297731,105.97127683297731,106.41494270798285,107.48068574996432,106.38695229165411,,108.01399895799113,109.08360120799625,107.98586099961928,,105.97127683297731,111.13087037496734,105.97127683297731,111.13087037496734,111.13087037496734,111.79625679098535,105.97127683297731,1,1,0.934203208074905,reldom2_s025,001,2025-03-07_09h48.22.058,Where-B-Scan_AC,2022.2.5,None,
0,0.0,None,fixation,stimulus/audwhere_stim/blank_white.png,stimulus/audwhere_stim/blank_white.png,stimulus/viswhere_stim/blank_white.png,stimulus/viswhere_stim/blank_white.png,stimulus/audwhere_stim/blank_white.png,stimulus/audwhere_stim/blank_white.png,stimulus/audwhere_stim/blank_white.png,stimulus/audwhere_stim/blank_white.png,0.0,0.0,0.0,0.0,0,0.0,0,0.0,0,0.0,0,0.0,0,0.0,0.0,0,0.0,0,0.0,0,0.0,0,0.0,0,0.0,0,0.0,0,0.0,0,0.0,9,,,,,0,8,8,8,,,,,,,,,112.05929191596806,112.05929191596806,112.05929191596806,112.05929191596806,112.05929191596806,112.05929191596806,112.05929191596806,112.05929191596806,111.96850049929537,112.05929191596806,112.05929191596806,112.05929191596806,111.96850049929537,112.05929191596806,112.05929191596806,112.05929191596806,112.05929191596806,112.05929191596806,112.05929191596806,112.05929191596806,112.05929191596806,112.05929191596806,112.05929191596806,112.05929191596806,112.05929191596806,112.05929191596806,112.05929191596806,112.01850049929538,112.05929191596806,112.05929191596806,112.05929191596806,112.01850049929538,112.05929191596806,112.05929191596806,112.05929191596806,112.05929191596806,112.05929191596806,117.26473474997329,117.26473474997329,121.29444087500451,None,0,,reldom2_s025,001,2025-03-07_09h48.22.058,Where-B-Scan_AC,2022.2.5,None,
7,First_Order,2.0,audwhere,stimulus/audwhere_stim/dummy.wav,stimulus/audwhere_stim/dummy.wav,stimulus/audwhere_stim/left_toward_270h.wav,stimulus/audwhere_stim/right_toward_270h.wav,stimulus/audwhere_stim/blank_white.png,stimulus/audwhere_stim/direction_box.png,stimulus/audwhere_stim/direction_yes.png,stimulus/audwhere_stim/direction_no.png,None,Direction,None,Direction,1,0.0,0,5.125,0,5.125,0,5.125,0,0.0,0.625,0,0.0,0,0.0,0,0.0,0,0.0,0,0.0,0,0.0,1,0.5,1,2.125,0,,,,,0,9,9,9,,,,,,,,,121.29444087500451,121.29444087500451,121.29444087500451,121.29444087500451,121.29444087500451,121.29444087500451,121.29444087500451,121.29444087500451,121.21213566596853,121.29444087500451,121.29444087500451,121.29444087500451,121.21213566596853,121.29444087500451,121.29444087500451,121.29444087500451,123.37298145797104,127.40918633295223,121.29444087500451,121.29444087500451,126.44799479097128,121.29444087500451,121.29444087500451,121.29444087500451,121.29444087500451,121.74649895797484,122.78315041598398,121.71779662464202,,123.37298145797104,124.41397337499075,123.34427679167517,,121.29444087500451,126.44799479097128,121.29444087500451,126.44799479097128,126.4876590409549,127.16193474997999,121.29444087500451,1,1,1.852248042006977,reldom2_s025,001,2025-03-07_09h48.22.058,Where-B-Scan_AC,2022.2.5,None,
8,First_Order,2.0,audwhere,stimulus/audwhere_stim/dummy.wav,stimulus/audwhere_stim/dummy.wav,stimulus/audwhere_stim/left_toward_280h.wav,stimulus/audwhere_stim/right_toward_290h.wav,stimulus/audwhere_stim/blank_white.png,stimulus/audwhere_stim/side_box.png,stimulus/audwhere_stim/side_yes.png,stimulus/audwhere_stim/side_no.png,None,Side,None,Direction,2,0.0,0,5.125,0,5.125,0,5.125,0,0.0,0.625,0,0.0,0,0.0,0,0.0,0,0.0,0,0.0,0,0.0,1,0.5,1,2.125,0,,,,,0,10,10,10,,,,,,,,,127.40918633295223,127.40918633295223,127.40918633295223,127.40918633295223,127.40918633295223,127.40918633295223,127.40918633295223,127.40918633295223,127.33580995831483,127.40918633295223,127.40918633295223,127.40918633295223,127.33580995831483,127.40918633295223,127.40918633295223,127.40918633295223,129.4847314999788,133.51923858298687,127.40918633295223,127.40918633295223,132.59595549997175,127.40918633295223,127.40918633295223,127.40918633295223,127.40918633295223,127.85912937496323,128.89581358298892,127.83082016662617,,129.4847314999788,130.523675540986,129.45600779162876,,127.40918633295223,132.59595549997175,127.40918633295223,132.59595549997175,132.63516825000988,133.31183920800686,127.40918633295223,2,1,1.0651312500122003,reldom2_s025,001,2025-03-07_09h48.22.058,Where-B-Scan_AC,2022.2.5,None,
9,First_Order,2.0,audwhere,stimulus/audwhere_stim/dummy.wav,stimulus/audwhere_stim/dummy.wav,stimulus/audwhere_stim/left_away_270h.wav,stimulus/audwhere_stim/left_toward_290h.wav,stimulus/audwhere_stim/blank_white.png,stimulus/audwhere_stim/side_box.png,stimulus/audwhere_stim/side_yes.png,stimulus/audwhere_stim/side_no.png,None,Side,None,Side,1,0.0,0,5.125,0,5.125,0,5.125,0,0.0,0.625,0,0.0,0,0.0,0,0.0,0,0.0,0,0.0,0,0.0,1,0.5,1,2.125,0,,,,,0,11,11,11,,,,,,,,,133.51923858298687,133.51923858298687,133.51923858298687,133.51923858298687,133.51923858298687,133.51923858298687,133.51923858298687,133.51923858298687,133.4451725413402,133.51923858298687,133.51923858298687,133.51923858298687,133.4451725413402,133.51923858298687,133.51923858298687,133.51923858298687,135.59931137500098,,133.51923858298687,133.51923858298687,138.67832783295307,133.51923858298687,133.51923858298687,133.51923858298687,133.51923858298687,133.96953899995424,135.01055899995845,133.941131374628,,135.59931137500098,136.6438294579857,135.57040954166249,136.59836495795753,133.51923858298687,138.67832783295307,133.51923858298687,138.67832783295307,138.71873174997745,139.39916770800482,133.51923858298687,1,1,0.7687580839847215,reldom2_s025,001,2025-03-07_09h48.22.058,Where-B-Scan_AC,2022.2.5,None,
10,First_Order,2.0,audwhere,stimulus/audwhere_stim/dummy.wav,stimulus/audwhere_stim/dummy.wav,stimulus/audwhere_stim/right_away_290h.wav,stimulus/audwhere_stim/right_toward_290h.wav,stimulus/audwhere_stim/blank_white.png,stimulus/audwhere_stim/side_box.png,stimulus/audwhere_stim/side_yes.png,stimulus/audwhere_stim/side_no.png,None,Side,None,Side,1,0.0,0,5.125,0,5.125,0,5.125,0,0.0,0.625,0,0.0,0,0.0,0,0.0,0,0.0,0,0.0,0,0.0,1,0.5,1,2.125,0,,,,,0,12,12,12,,,,,,,,,139.6062729159603,139.6062729159603,139.6062729159603,139.6062729159603,139.6062729159603,139.6062729159603,139.6062729159603,139.6062729159603,139.53250104133818,139.6062729159603,139.6062729159603,139.6062729159603,139.53250104133818,139.6062729159603,139.6062729159603,139.6062729159603,141.69304329098668,,139.6062729159603,139.6062729159603,144.7794224579702,139.6062729159603,139.6062729159603,139.6062729159603,139.6062729159603,140.0590368330013,141.10108787496574,140.03097216663107,,141.69304329098668,142.73795129096834,141.66459529166266,142.6926554159727,139.6062729159603,144.7794224579702,139.6062729159603,144.7794224579702,144.81898929097224,145.4981127079809,139.6062729159603,1,1,1.5168566250358708,reldom2_s025,001,2025-03-07_09h48.22.058,Where-B-Scan_AC,2022.2.5,None,
0,0.0,None,fixation,stimulus/audwhere_stim/blank_white.png,stimulus/audwhere_stim/blank_white.png,stimulus/viswhere_stim/blank_white.png,stimulus/viswhere_stim/blank_white.png,stimulus/audwhere_stim/blank_white.png,stimulus/audwhere_stim/blank_white.png,stimulus/audwhere_stim/blank_white.png,stimulus/audwhere_stim/blank_white.png,0.0,0.0,0.0,0.0,0,0.0,0,0.0,0,0.0,0,0.0,0,0.0,0.0,0,0.0,0,0.0,0,0.0,0,0.0,0,0.0,0,0.0,0,0.0,0,0.0,9,,,,,0,13,13,13,,,,,,,,,145.72643020795658,145.72643020795658,145.72643020795658,145.72643020795658,145.72643020795658,145.72643020795658,145.72643020795658,145.72643020795658,145.63144604131426,145.72643020795658,145.72643020795658,145.72643020795658,145.63144604131426,145.72643020795658,145.72643020795658,145.72643020795658,145.72643020795658,145.72643020795658,145.72643020795658,145.72643020795658,145.72643020795658,145.72643020795658,145.72643020795658,145.72643020795658,145.72643020795658,145.72643020795658,145.72643020795658,145.68144604131425,145.72643020795658,145.72643020795658,145.72643020795658,145.68144604131425,145.72643020795658,145.72643020795658,145.72643020795658,145.72643020795658,145.72643020795658,150.92975329095498,150.92975329095498,154.88560808298644,None,0,,reldom2_s025,001,2025-03-07_09h48.22.058,Where-B-Scan_AC,2022.2.5,None,
11,Second_Order,2.0,audwhere,stimulus/audwhere_stim/left_toward_280h.wav,stimulus/audwhere_stim/left_away_290h.wav,stimulus/audwhere_stim/left_away_290h.wav,stimulus/audwhere_stim/right_away_280h.wav,stimulus/audwhere_stim/match_blank.png,stimulus/audwhere_stim/match_box.png,stimulus/audwhere_stim/match_yes.png,stimulus/audwhere_stim/match_no.png,2.0,Match,Side,Direction,2,5.125,0,5.125,0,5.125,0,5.125,0,0.75,0.75,0,0.0,0,0.0,0,0.0,0,0.0,1,0.5,1,2.125,1,0.5,1,2.125,0,,,,,0,14,14,14,,,,,,,,,154.88560808298644,159.9990207499941,154.88560808298644,154.88560808298644,154.88560808298644,154.88560808298644,155.33760974998586,156.32520716596628,155.35172162467305,,156.9599991249852,157.9583101659664,156.9725067076545,,159.9990207499941,160.848038874974,162.91841758298688,,160.848038874974,160.848038874974,165.99694995797472,160.848038874974,160.848038874974,160.848038874974,160.848038874974,161.29779099998996,162.33385366597213,161.26955004164873,,162.91841758298688,163.96310958295362,162.88994858262984,,160.848038874974,165.99694995797472,160.848038874974,165.99694995797472,166.03709212498507,,160.848038874974,2,1,0.7421162080718204,reldom2_s025,001,2025-03-07_09h48.22.058,Where-B-Scan_AC,2022.2.5,None,
12,Second_Order,2.0,audwhere,stimulus/audwhere_stim/left_away_270h.wav,stimulus/audwhere_stim/left_toward_280h.wav,stimulus/audwhere_stim/right_away_280h.wav,stimulus/audwhere_stim/right_toward_300h.wav,stimulus/audwhere_stim/match_blank.png,stimulus/audwhere_stim/match_box.png,stimulus/audwhere_stim/match_yes.png,stimulus/audwhere_stim/match_no.png,1.0,Match,Side,Side,1,5.125,0,5.125,0,5.125,0,5.125,0,0.625,0.625,0,0.0,0,0.0,0,0.0,0,0.0,1,0.5,1,2.125,1,0.5,1,2.125,0,,,,,0,15,15,15,,,,,,,,,166.82550158299273,171.94547341600992,166.82550158299273,166.82550158299273,166.82550158299273,166.82550158299273,167.2822836249834,168.26909470796818,167.2962407496564,,168.9056156249717,169.90267279098043,168.91739170765894,,171.94547341600992,172.6742685000063,174.73071187495952,,172.6742685000063,172.6742685000063,177.83360966597684,172.6742685000063,172.6742685000063,172.6742685000063,172.6742685000063,173.12022812495707,174.14904233295238,173.09230258263804,,174.73071187495952,175.76605774997734,174.70226216665858,,172.6742685000063,177.83360966597684,172.6742685000063,177.83360966597684,177.83360966597684,178.50258958298946,172.6742685000063,1,1,1.171466000028886,reldom2_s025,001,2025-03-07_09h48.22.058,Where-B-Scan_AC,2022.2.5,None,
0,0.0,None,fixation,stimulus/audwhere_stim/blank_white.png,stimulus/audwhere_stim/blank_white.png,stimulus/viswhere_stim/blank_white.png,stimulus/viswhere_stim/blank_white.png,stimulus/audwhere_stim/blank_white.png,stimulus/audwhere_stim/blank_white.png,stimulus/audwhere_stim/blank_white.png,stimulus/audwhere_stim/blank_white.png,0.0,0.0,0.0,0.0,0,0.0,0,0.0,0,0.0,0,0.0,0,0.0,0.0,0,0.0,0,0.0,0,0.0,0,0.0,0,0.0,0,0.0,0,0.0,0,0.0,8,,,,,0,16,16,16,,,,,,,,,178.76787191600306,178.76787191600306,178.76787191600306,178.76787191600306,178.76787191600306,178.76787191600306,178.76787191600306,178.76787191600306,178.67509074931345,178.76787191600306,178.76787191600306,178.76787191600306,178.67509074931345,178.76787191600306,178.76787191600306,178.76787191600306,178.76787191600306,178.76787191600306,178.76787191600306,178.76787191600306,178.76787191600306,178.76787191600306,178.76787191600306,178.76787191600306,178.76787191600306,178.76787191600306,178.76787191600306,178.72509074931344,178.76787191600306,178.76787191600306,178.76787191600306,178.72509074931344,178.76787191600306,178.76787191600306,178.76787191600306,178.76787191600306,178.76787191600306,183.989660791005,183.989660791005,186.9670169579913,None,0,,reldom2_s025,001,2025-03-07_09h48.22.058,Where-B-Scan_AC,2022.2.5,None,
13,First_Order,3.0,viswhere,stimulus/viswhere_stim/blank_white.png,stimulus/viswhere_stim/blank_white.png,stimulus/viswhere_stim/150-deg_dot-left_seagreen.png,stimulus/viswhere_stim/150-deg_dot-right_royalblue.png,stimulus/viswhere_stim/blank_white.png,stimulus/viswhere_stim/line_box.png,stimulus/viswhere_stim/line_yes.png,stimulus/viswhere_stim/line_no.png,None,Line,None,Line,1,0.0,0,5.125,0,5.125,0,5.125,0,0.0,0.625,0,0.0,0,0.0,1,0.5,1,2.125,0,0.0,0,0.0,0,0.0,0,0.0,0,,,,,0,17,17,17,,,,,,,,,186.9670169579913,186.9670169579913,186.9670169579913,186.9670169579913,186.9670169579913,186.9670169579913,186.9670169579913,186.9670169579913,186.93251574997558,186.9670169579913,186.9670169579913,186.9670169579913,186.93251574997558,186.9670169579913,186.9670169579913,186.9670169579913,189.07306312496075,193.02960279100807,186.9670169579913,186.9670169579913,192.0899582079728,187.44861866597785,188.46228208299726,189.07306312496075,190.07554274995346,186.9670169579913,186.9670169579913,186.94918241664226,186.9670169579913,186.9670169579913,186.9670169579913,186.94918241664226,186.9670169579913,186.9670169579913,192.0899582079728,186.9670169579913,192.0899582079728,192.19088370795362,192.8148879579967,186.9670169579913,1,1,1.519569541036617,reldom2_s025,001,2025-03-07_09h48.22.058,Where-B-Scan_AC,2022.2.5,None,
14,First_Order,3.0,viswhere,stimulus/viswhere_stim/blank_white.png,stimulus/viswhere_stim/blank_white.png,stimulus/viswhere_stim/90-deg_dot-right_cyan.png,stimulus/viswhere_stim/90-deg_dot-left_turquoise.png,stimulus/viswhere_stim/blank_white.png,stimulus/viswhere_stim/line_box.png,stimulus/viswhere_stim/line_yes.png,stimulus/viswhere_stim/line_no.png,None,Line,None,Line,1,0.0,0,5.125,0,5.125,0,5.125,0,0.0,0.625,0,0.0,0,0.0,1,0.5,1,2.125,0,0.0,0,0.0,0,0.0,0,0.0,0,,,,,0,18,18,18,,,,,,,,,193.02960279100807,193.02960279100807,193.02960279100807,193.02960279100807,193.02960279100807,193.02960279100807,193.02960279100807,193.02960279100807,193.00905012428606,193.02960279100807,193.02960279100807,193.02960279100807,193.00905012428606,193.02960279100807,193.02960279100807,193.02960279100807,195.14199124998413,199.09731275000377,193.02960279100807,193.02960279100807,198.159470374987,193.50683070800733,194.5160013329587,195.14199124998413,196.15875108295586,193.02960279100807,193.02960279100807,193.02571679095274,193.02960279100807,193.02960279100807,193.02960279100807,193.02571679095274,193.02960279100807,193.02960279100807,198.159470374987,193.02960279100807,198.159470374987,198.25460729096085,198.88213445799192,193.02960279100807,1,1,0.9149422500631772,reldom2_s025,001,2025-03-07_09h48.22.058,Where-B-Scan_AC,2022.2.5,None,
15,First_Order,3.0,viswhere,stimulus/viswhere_stim/blank_white.png,stimulus/viswhere_stim/blank_white.png,stimulus/viswhere_stim/60-deg_dot-right_salmon.png,stimulus/viswhere_stim/150-deg_dot-right_turquoise.png,stimulus/viswhere_stim/blank_white.png,stimulus/viswhere_stim/dot_box.png,stimulus/viswhere_stim/dot_yes.png,stimulus/viswhere_stim/dot_no.png,None,Dot,None,Dot,1,0.0,0,5.125,0,5.125,0,5.125,0,0.0,0.625,0,0.0,0,0.0,1,0.5,1,2.125,0,0.0,0,0.0,0,0.0,0,0.0,0,,,,,0,19,19,19,,,,,,,,,199.09731275000377,199.09731275000377,199.09731275000377,199.09731275000377,199.09731275000377,199.09731275000377,199.09731275000377,199.09731275000377,199.07595079132201,199.09731275000377,199.09731275000377,199.09731275000377,199.07595079132201,199.09731275000377,199.09731275000377,199.09731275000377,201.21355004096404,205.16240054095397,199.09731275000377,199.09731275000377,204.2270740409731,199.57512795797084,200.58541429095203,201.21355004096404,202.2278822909575,199.09731275000377,199.09731275000377,199.0926174579887,199.09731275000377,199.09731275000377,199.09731275000377,199.0926174579887,199.09731275000377,199.09731275000377,204.2270740409731,199.09731275000377,204.2270740409731,204.32150195800932,204.94605624995893,199.09731275000377,1,1,1.1832934160484,reldom2_s025,001,2025-03-07_09h48.22.058,Where-B-Scan_AC,2022.2.5,None,
16,First_Order,3.0,viswhere,stimulus/viswhere_stim/blank_white.png,stimulus/viswhere_stim/blank_white.png,stimulus/viswhere_stim/120-deg_dot-left_peru.png,stimulus/viswhere_stim/120-deg_dot-right_royalblue.png,stimulus/viswhere_stim/blank_white.png,stimulus/viswhere_stim/dot_box.png,stimulus/viswhere_stim/dot_yes.png,stimulus/viswhere_stim/dot_no.png,None,Dot,None,Line,2,0.0,0,5.125,0,5.125,0,5.125,0,0.0,0.625,0,0.0,0,0.0,1,0.5,1,2.125,0,0.0,0,0.0,0,0.0,0,0.0,0,,,,,0,20,20,20,,,,,,,,,205.16240054095397,205.16240054095397,205.16240054095397,205.16240054095397,205.16240054095397,205.16240054095397,205.16240054095397,205.16240054095397,205.14311574931102,205.16240054095397,205.16240054095397,205.16240054095397,205.14311574931102,205.16240054095397,205.16240054095397,205.16240054095397,207.2663974579773,211.29974729096284,205.16240054095397,205.16240054095397,210.29897258296842,205.6370152499876,206.64097095798934,207.2663974579773,208.2756070829928,205.16240054095397,205.16240054095397,205.14311574931102,205.16240054095397,205.16240054095397,205.16240054095397,205.14311574931102,205.16240054095397,205.16240054095397,210.29897258296842,205.16240054095397,210.29897258296842,210.38547412498156,211.01338949997444,205.16240054095397,2,1,0.8182087080203928,reldom2_s025,001,2025-03-07_09h48.22.058,Where-B-Scan_AC,2022.2.5,None,
0,0.0,None,fixation,stimulus/audwhere_stim/blank_white.png,stimulus/audwhere_stim/blank_white.png,stimulus/viswhere_stim/blank_white.png,stimulus/viswhere_stim/blank_white.png,stimulus/audwhere_stim/blank_white.png,stimulus/audwhere_stim/blank_white.png,stimulus/audwhere_stim/blank_white.png,stimulus/audwhere_stim/blank_white.png,0.0,0.0,0.0,0.0,0,0.0,0,0.0,0,0.0,0,0.0,0,0.0,0.0,0,0.0,0,0.0,0,0.0,0,0.0,0,0.0,0,0.0,0,0.0,0,0.0,10,,,,,0,21,21,21,,,,,,,,,211.29974729096284,211.29974729096284,211.29974729096284,211.29974729096284,211.29974729096284,211.29974729096284,211.29974729096284,211.29974729096284,211.20342274931804,211.29974729096284,211.29974729096284,211.29974729096284,211.20342274931804,211.29974729096284,211.29974729096284,211.29974729096284,211.29974729096284,211.29974729096284,211.29974729096284,211.29974729096284,211.29974729096284,211.29974729096284,211.29974729096284,211.29974729096284,211.29974729096284,211.29974729096284,211.29974729096284,211.25342274931805,211.29974729096284,211.29974729096284,211.29974729096284,211.25342274931805,211.29974729096284,211.29974729096284,211.29974729096284,211.29974729096284,211.29974729096284,216.51477195799816,216.51477195799816,221.43173104099697,None,0,,reldom2_s025,001,2025-03-07_09h48.22.058,Where-B-Scan_AC,2022.2.5,None,
17,Second_Order,3.0,viswhere,stimulus/viswhere_stim/90-deg_dot-left_lightsseagreen.png,stimulus/viswhere_stim/90-deg_dot-right_lightsseagreen.png,stimulus/viswhere_stim/120-deg_dot-right_cyan.png,stimulus/viswhere_stim/60-deg_dot-right_royalblue.png,stimulus/audwhere_stim/match_blank.png,stimulus/audwhere_stim/match_box.png,stimulus/audwhere_stim/match_yes.png,stimulus/audwhere_stim/match_no.png,2.0,Match,Line,Dot,2,5.125,0,5.125,0,5.125,0,5.125,0,0.75,0.75,1,0.5,1,2.125,1,0.5,1,2.125,0,0.0,0,0.0,0,0.0,0,0.0,0,,,,,0,22,22,22,,,,,,,,,221.43173104099697,226.55478133296128,221.90809824998723,222.8958029159694,223.53271695796866,224.5288920829771,221.43173104099697,221.43173104099697,221.43062979166086,221.43173104099697,221.43173104099697,221.43173104099697,221.43062979166086,221.43173104099697,226.55478133296128,227.34751249995315,229.42258308298187,233.3203805409721,227.34751249995315,227.34751249995315,232.4859678329667,227.8060566659551,228.81387116597034,229.42258308298187,230.4334829999716,227.34751249995315,227.34751249995315,227.32186595828585,227.34751249995315,227.34751249995315,227.34751249995315,227.32186595828585,227.34751249995315,227.34751249995315,232.4859678329667,227.34751249995315,232.4859678329667,232.54018837498734,233.3203805409721,227.34751249995315,2,1,1.6029797090450302,reldom2_s025,001,2025-03-07_09h48.22.058,Where-B-Scan_AC,2022.2.5,None,
18,Second_Order,3.0,viswhere,stimulus/viswhere_stim/90-deg_dot-left_lightsseagreen.png,stimulus/viswhere_stim/60-deg_dot-left_mediumslateblue.png,stimulus/viswhere_stim/60-deg_dot-right_lightsseagreen.png,stimulus/viswhere_stim/30-deg_dot-right_goldenrod.png,stimulus/audwhere_stim/match_blank.png,stimulus/audwhere_stim/match_box.png,stimulus/audwhere_stim/match_yes.png,stimulus/audwhere_stim/match_no.png,1.0,Match,Dot,Dot,1,5.125,0,5.125,0,5.125,0,5.125,0,0.625,0.625,1,0.5,1,2.125,1,0.5,1,2.125,0,0.0,0,0.0,0,0.0,0,0.0,0,,,,,0,23,23,23,,,,,,,,,233.3203805409721,238.4321122909896,233.80251074995613,234.78935408295365,235.42499416600913,236.42293870798312,233.3203805409721,233.3203805409721,233.33416137496243,233.3203805409721,233.3203805409721,233.3203805409721,233.33416137496243,233.3203805409721,238.4321122909896,239.10359949996928,241.18717979098437,245.22179904096993,239.10359949996928,239.10359949996928,244.23466508300044,239.56162787496578,240.5643218329642,241.18717979098437,242.20349275000626,239.10359949996928,239.10359949996928,239.07942183333995,239.10359949996928,239.10359949996928,239.10359949996928,239.07942183333995,239.10359949996928,239.10359949996928,244.23466508300044,239.10359949996928,244.23466508300044,244.3041216660058,244.9420597080025,239.10359949996928,1,1,0.8589683750178665,reldom2_s025,001,2025-03-07_09h48.22.058,Where-B-Scan_AC,2022.2.5,None,
0,0.0,None,fixation,stimulus/audwhere_stim/blank_white.png,stimulus/audwhere_stim/blank_white.png,stimulus/viswhere_stim/blank_white.png,stimulus/viswhere_stim/blank_white.png,stimulus/audwhere_stim/blank_white.png,stimulus/audwhere_stim/blank_white.png,stimulus/audwhere_stim/blank_white.png,stimulus/audwhere_stim/blank_white.png,0.0,0.0,0.0,0.0,0,0.0,0,0.0,0,0.0,0,0.0,0,0.0,0.0,0,0.0,0,0.0,0,0.0,0,0.0,0,0.0,0,0.0,0,0.0,0,0.0,9,,,,,0,24,24,24,,,,,,,,,245.22179904096993,245.22179904096993,245.22179904096993,245.22179904096993,245.22179904096993,245.22179904096993,245.22179904096993,245.22179904096993,245.1254178332941,245.22179904096993,245.22179904096993,245.22179904096993,245.1254178332941,245.22179904096993,245.22179904096993,245.22179904096993,245.22179904096993,245.22179904096993,245.22179904096993,245.22179904096993,245.22179904096993,245.22179904096993,245.22179904096993,245.22179904096993,245.22179904096993,245.22179904096993,245.22179904096993,245.17541783329412,245.22179904096993,245.22179904096993,245.22179904096993,245.17541783329412,245.22179904096993,245.22179904096993,245.22179904096993,245.22179904096993,245.22179904096993,250.43788058299106,250.43788058299106,254.43973012495553,None,0,,reldom2_s025,001,2025-03-07_09h48.22.058,Where-B-Scan_AC,2022.2.5,None,
19,First_Order,4.0,viswhere,stimulus/viswhere_stim/blank_white.png,stimulus/viswhere_stim/blank_white.png,stimulus/viswhere_stim/90-deg_dot-left_seagreen.png,stimulus/viswhere_stim/150-deg_dot-left_lightsseagreen.png,stimulus/viswhere_stim/blank_white.png,stimulus/viswhere_stim/dot_box.png,stimulus/viswhere_stim/dot_yes.png,stimulus/viswhere_stim/dot_no.png,None,Dot,None,Dot,1,0.0,0,5.125,0,5.125,0,5.125,0,0.0,0.625,0,0.0,0,0.0,1,0.5,1,2.125,0,0.0,0,0.0,0,0.0,0,0.0,0,,,,,0,25,25,25,,,,,,,,,254.43973012495553,254.43973012495553,254.43973012495553,254.43973012495553,254.43973012495553,254.43973012495553,254.43973012495553,254.43973012495553,254.42212158264982,254.43973012495553,254.43973012495553,254.43973012495553,254.42212158264982,254.43973012495553,254.43973012495553,254.43973012495553,256.53900049999356,260.4941177080036,254.43973012495553,254.43973012495553,259.5783250829554,254.91644208296202,255.92967091599712,256.53900049999356,257.5555835829582,254.43973012495553,254.43973012495553,254.42212158264982,254.43973012495553,254.43973012495553,254.43973012495553,254.42212158264982,254.43973012495553,254.43973012495553,259.5783250829554,254.43973012495553,259.5783250829554,259.6620041659917,260.2938916659914,254.43973012495553,1,1,1.2354335830314085,reldom2_s025,001,2025-03-07_09h48.22.058,Where-B-Scan_AC,2022.2.5,None,
20,First_Order,4.0,viswhere,stimulus/viswhere_stim/blank_white.png,stimulus/viswhere_stim/blank_white.png,stimulus/viswhere_stim/30-deg_dot-left_peru.png,stimulus/viswhere_stim/30-deg_dot-right_salmon.png,stimulus/viswhere_stim/blank_white.png,stimulus/viswhere_stim/dot_box.png,stimulus/viswhere_stim/dot_yes.png,stimulus/viswhere_stim/dot_no.png,None,Dot,None,Line,2,0.0,0,5.125,0,5.125,0,5.125,0,0.0,0.625,0,0.0,0,0.0,1,0.5,1,2.125,0,0.0,0,0.0,0,0.0,0,0.0,0,,,,,0,26,26,26,,,,,,,,,260.4941177080036,260.4941177080036,260.4941177080036,260.4941177080036,260.4941177080036,260.4941177080036,260.4941177080036,260.4941177080036,260.4739783742892,260.4941177080036,260.4941177080036,260.4941177080036,260.4739783742892,260.4941177080036,260.4941177080036,260.4941177080036,262.59849237499293,266.5576915409765,260.4941177080036,260.4941177080036,265.6286298329942,260.96767199999886,261.97503949998645,262.59849237499293,263.6155549159739,260.4941177080036,260.4941177080036,260.4906450409558,260.4941177080036,260.4941177080036,260.4941177080036,260.4906450409558,260.4941177080036,260.4941177080036,265.6286298329942,260.4941177080036,265.6286298329942,265.7399427909986,266.3747114579892,260.4941177080036,2,1,0.6572067080414854,reldom2_s025,001,2025-03-07_09h48.22.058,Where-B-Scan_AC,2022.2.5,None,
21,First_Order,4.0,viswhere,stimulus/viswhere_stim/blank_white.png,stimulus/viswhere_stim/blank_white.png,stimulus/viswhere_stim/60-deg_dot-left_lightsseagreen.png,stimulus/viswhere_stim/30-deg_dot-left_slateblue.png,stimulus/viswhere_stim/blank_white.png,stimulus/viswhere_stim/line_box.png,stimulus/viswhere_stim/line_yes.png,stimulus/viswhere_stim/line_no.png,None,Line,None,Dot,2,0.0,0,5.125,0,5.125,0,5.125,0,0.0,0.625,0,0.0,0,0.0,1,0.5,1,2.125,0,0.0,0,0.0,0,0.0,0,0.0,0,,,,,0,27,27,27,,,,,,,,,266.5576915409765,266.5576915409765,266.5576915409765,266.5576915409765,266.5576915409765,266.5576915409765,266.5576915409765,266.5576915409765,266.5378939582927,266.5576915409765,266.5576915409765,266.5576915409765,266.5378939582927,266.5576915409765,266.5576915409765,266.5576915409765,268.6603916249587,272.6160636660061,266.5576915409765,266.5576915409765,271.6797881249804,267.0345951659838,268.05025370797375,268.6603916249587,269.67846129095415,266.5576915409765,266.5576915409765,266.5545606249594,266.5576915409765,266.5576915409765,266.5576915409765,266.5545606249594,266.5576915409765,266.5576915409765,271.6797881249804,266.5576915409765,271.6797881249804,271.8039547500084,272.4290589579614,266.5576915409765,2,1,0.8376965000061318,reldom2_s025,001,2025-03-07_09h48.22.058,Where-B-Scan_AC,2022.2.5,None,
22,First_Order,4.0,viswhere,stimulus/viswhere_stim/blank_white.png,stimulus/viswhere_stim/blank_white.png,stimulus/viswhere_stim/120-deg_dot-right_peru.png,stimulus/viswhere_stim/150-deg_dot-right_peru.png,stimulus/viswhere_stim/blank_white.png,stimulus/viswhere_stim/line_box.png,stimulus/viswhere_stim/line_yes.png,stimulus/viswhere_stim/line_no.png,None,Line,None,Dot,2,0.0,0,5.125,0,5.125,0,5.125,0,0.0,0.625,0,0.0,0,0.0,1,0.5,1,2.125,0,0.0,0,0.0,0,0.0,0,0.0,0,,,,,0,28,28,28,,,,,,,,,272.6160636660061,272.6160636660061,272.6160636660061,272.6160636660061,272.6160636660061,272.6160636660061,272.6160636660061,272.6160636660061,272.5957420832904,272.6160636660061,272.6160636660061,272.6160636660061,272.5957420832904,272.6160636660061,272.6160636660061,272.6160636660061,274.7189834580058,278.754129790992,272.6160636660061,272.6160636660061,277.7534060829785,273.09291474998463,274.1087004999863,274.7189834580058,275.7393458329607,272.6160636660061,272.6160636660061,272.61240874995707,272.6160636660061,272.6160636660061,272.6160636660061,272.61240874995707,272.6160636660061,272.6160636660061,277.7534060829785,272.6160636660061,277.7534060829785,277.83684695797274,278.4628855409683,272.6160636660061,1,0,1.6199238750268705,reldom2_s025,001,2025-03-07_09h48.22.058,Where-B-Scan_AC,2022.2.5,None,
0,0.0,None,fixation,stimulus/audwhere_stim/blank_white.png,stimulus/audwhere_stim/blank_white.png,stimulus/viswhere_stim/blank_white.png,stimulus/viswhere_stim/blank_white.png,stimulus/audwhere_stim/blank_white.png,stimulus/audwhere_stim/blank_white.png,stimulus/audwhere_stim/blank_white.png,stimulus/audwhere_stim/blank_white.png,0.0,0.0,0.0,0.0,0,0.0,0,0.0,0,0.0,0,0.0,0,0.0,0.0,0,0.0,0,0.0,0,0.0,0,0.0,0,0.0,0,0.0,0,0.0,0,0.0,10,,,,,0,29,29,29,,,,,,,,,278.754129790992,278.754129790992,278.754129790992,278.754129790992,278.754129790992,278.754129790992,278.754129790992,278.754129790992,278.6572944992998,278.754129790992,278.754129790992,278.754129790992,278.6572944992998,278.754129790992,278.754129790992,278.754129790992,278.754129790992,278.754129790992,278.754129790992,278.754129790992,278.754129790992,278.754129790992,278.754129790992,278.754129790992,278.754129790992,278.754129790992,278.754129790992,278.7072944992998,278.754129790992,278.754129790992,278.754129790992,278.7072944992998,278.754129790992,278.754129790992,278.754129790992,278.754129790992,278.754129790992,283.96273141598795,283.96273141598795,288.9068011659547,None,0,,reldom2_s025,001,2025-03-07_09h48.22.058,Where-B-Scan_AC,2022.2.5,None,
23,Second_Order,4.0,viswhere,stimulus/viswhere_stim/60-deg_dot-right_peru.png,stimulus/viswhere_stim/60-deg_dot-left_royalblue.png,stimulus/viswhere_stim/90-deg_dot-left_slateblue.png,stimulus/viswhere_stim/90-deg_dot-right_royalblue.png,stimulus/audwhere_stim/match_blank.png,stimulus/audwhere_stim/match_box.png,stimulus/audwhere_stim/match_yes.png,stimulus/audwhere_stim/match_no.png,1.0,Match,Line,Line,1,5.125,0,5.125,0,5.125,0,5.125,0,0.75,0.75,1,0.5,1,2.125,1,0.5,1,2.125,0,0.0,0,0.0,0,0.0,0,0.0,0,,,,,0,30,30,30,,,,,,,,,288.9068011659547,294.0270699999528,289.38234079099493,290.3808458329877,291.0156310829916,292.00487691600574,288.9068011659547,288.9068011659547,288.9211551242935,288.9068011659547,288.9068011659547,288.9068011659547,288.9211551242935,288.9068011659547,294.0270699999528,294.820230790996,296.89105074998224,300.7928637909936,294.820230790996,294.820230790996,299.94374674995197,295.26529891596874,296.2808841659571,296.89105074998224,297.8942814579932,294.820230790996,294.820230790996,294.7950803333156,294.820230790996,294.820230790996,294.820230790996,294.7950803333156,294.820230790996,294.820230790996,299.94374674995197,294.820230790996,299.94374674995197,300.01320695795584,300.7928637909936,294.820230790996,1,1,1.8576180840609595,reldom2_s025,001,2025-03-07_09h48.22.058,Where-B-Scan_AC,2022.2.5,None,
24,Second_Order,4.0,viswhere,stimulus/viswhere_stim/120-deg_dot-left_peru.png,stimulus/viswhere_stim/120-deg_dot-right_peru.png,stimulus/viswhere_stim/30-deg_dot-right_peru.png,stimulus/viswhere_stim/30-deg_dot-left_lightsseagreen.png,stimulus/audwhere_stim/match_blank.png,stimulus/audwhere_stim/match_box.png,stimulus/audwhere_stim/match_yes.png,stimulus/audwhere_stim/match_no.png,1.0,Match,Line,Line,1,5.125,0,5.125,0,5.125,0,5.125,0,0.625,0.625,1,0.5,1,2.125,1,0.5,1,2.125,0,0.0,0,0.0,0,0.0,0,0.0,0,,,,,0,31,31,31,,,,,,,,,300.7928637909936,305.9052821659716,301.2768004160025,302.26277483295416,302.89761945797363,303.89559770800406,300.7928637909936,300.7928637909936,300.8071895829751,300.7928637909936,300.7928637909936,300.7928637909936,300.8071895829751,300.7928637909936,305.9052821659716,306.5740738749737,308.6475216659601,312.6854719579569,306.5740738749737,306.5740738749737,311.7028336249641,307.0310789999785,308.03995574999135,308.6475216659601,309.6627413329552,306.5740738749737,306.5740738749737,306.55141341628814,306.5740738749737,306.5740738749737,306.5740738749737,306.55141341628814,306.5740738749737,306.5740738749737,311.7028336249641,306.5740738749737,311.7028336249641,311.7767849160009,312.4080380409723,306.5740738749737,1,1,1.198798125027679,reldom2_s025,001,2025-03-07_09h48.22.058,Where-B-Scan_AC,2022.2.5,None,
0,0.0,None,fixation,stimulus/audwhere_stim/blank_white.png,stimulus/audwhere_stim/blank_white.png,stimulus/viswhere_stim/blank_white.png,stimulus/viswhere_stim/blank_white.png,stimulus/audwhere_stim/blank_white.png,stimulus/audwhere_stim/blank_white.png,stimulus/audwhere_stim/blank_white.png,stimulus/audwhere_stim/blank_white.png,0.0,0.0,0.0,0.0,0,0.0,0,0.0,0,0.0,0,0.0,0,0.0,0.0,0,0.0,0,0.0,0,0.0,0,0.0,0,0.0,0,0.0,0,0.0,0,0.0,9,,,,,0,32,32,32,,,,,,,,,312.6854719579569,312.6854719579569,312.6854719579569,312.6854719579569,312.6854719579569,312.6854719579569,312.6854719579569,312.6854719579569,312.5879951243017,312.6854719579569,312.6854719579569,312.6854719579569,312.5879951243017,312.6854719579569,312.6854719579569,312.6854719579569,312.6854719579569,312.6854719579569,312.6854719579569,312.6854719579569,312.6854719579569,312.6854719579569,312.6854719579569,312.6854719579569,312.6854719579569,312.6854719579569,312.6854719579569,312.6379951243017,312.6854719579569,312.6854719579569,312.6854719579569,312.6379951243017,312.6854719579569,312.6854719579569,312.6854719579569,312.6854719579569,312.6854719579569,317.8680434579728,317.8680434579728,321.9408132499666,None,0,,reldom2_s025,001,2025-03-07_09h48.22.058,Where-B-Scan_AC,2022.2.5,None,
25,First_Order,5.0,audwhere,stimulus/audwhere_stim/dummy.wav,stimulus/audwhere_stim/dummy.wav,stimulus/audwhere_stim/right_toward_280h.wav,stimulus/audwhere_stim/right_away_290h.wav,stimulus/audwhere_stim/blank_white.png,stimulus/audwhere_stim/side_box.png,stimulus/audwhere_stim/side_yes.png,stimulus/audwhere_stim/side_no.png,None,Side,None,Side,1,0.0,0,5.125,0,5.125,0,5.125,0,0.0,0.625,0,0.0,0,0.0,0,0.0,0,0.0,0,0.0,0,0.0,1,0.5,1,2.125,0,,,,,0,33,33,33,,,,,,,,,321.9408132499666,321.9408132499666,321.9408132499666,321.9408132499666,321.9408132499666,321.9408132499666,321.9408132499666,321.9408132499666,321.8727411246315,321.9408132499666,321.9408132499666,321.9408132499666,321.8727411246315,321.9408132499666,321.9408132499666,321.9408132499666,324.0484749159659,,321.9408132499666,321.9408132499666,327.1133829159662,321.9408132499666,321.9408132499666,321.9408132499666,321.9408132499666,322.39935791597236,323.456137207977,322.3699396666527,,324.0484749159659,325.1016500829719,324.01949454163355,,321.9408132499666,327.1133829159662,321.9408132499666,327.1133829159662,327.15350983297685,327.83986545796506,321.9408132499666,1,1,0.9885801670025103,reldom2_s025,001,2025-03-07_09h48.22.058,Where-B-Scan_AC,2022.2.5,None,
26,First_Order,5.0,audwhere,stimulus/audwhere_stim/dummy.wav,stimulus/audwhere_stim/dummy.wav,stimulus/audwhere_stim/right_toward_300h.wav,stimulus/audwhere_stim/left_toward_270h.wav,stimulus/audwhere_stim/blank_white.png,stimulus/audwhere_stim/direction_box.png,stimulus/audwhere_stim/direction_yes.png,stimulus/audwhere_stim/direction_no.png,None,Direction,None,Direction,1,0.0,0,5.125,0,5.125,0,5.125,0,0.0,0.625,0,0.0,0,0.0,0,0.0,0,0.0,0,0.0,0,0.0,1,0.5,1,2.125,0,,,,,0,34,34,34,,,,,,,,,328.0506515830057,328.0506515830057,328.0506515830057,328.0506515830057,328.0506515830057,328.0506515830057,328.0506515830057,328.0506515830057,327.9731987912984,328.0506515830057,328.0506515830057,328.0506515830057,327.9731987912984,328.0506515830057,328.0506515830057,328.0506515830057,330.13117874995805,334.1741993749747,328.0506515830057,328.0506515830057,333.2306061660056,328.0506515830057,328.0506515830057,328.0506515830057,328.0506515830057,328.51371549995383,329.5767227499746,328.4847148326264,,330.13117874995805,331.20024262496736,330.1013302916583,,328.0506515830057,333.2306061660056,328.0506515830057,333.2306061660056,333.2715570409782,333.92270691599697,328.0506515830057,1,1,0.9329435420804657,reldom2_s025,001,2025-03-07_09h48.22.058,Where-B-Scan_AC,2022.2.5,None,
27,First_Order,5.0,audwhere,stimulus/audwhere_stim/dummy.wav,stimulus/audwhere_stim/dummy.wav,stimulus/audwhere_stim/left_toward_290h.wav,stimulus/audwhere_stim/left_away_300h.wav,stimulus/audwhere_stim/blank_white.png,stimulus/audwhere_stim/direction_box.png,stimulus/audwhere_stim/direction_yes.png,stimulus/audwhere_stim/direction_no.png,None,Direction,None,Side,2,0.0,0,5.125,0,5.125,0,5.125,0,0.0,0.625,0,0.0,0,0.0,0,0.0,0,0.0,0,0.0,0,0.0,1,0.5,1,2.125,0,,,,,0,35,35,35,,,,,,,,,334.1741993749747,334.1741993749747,334.1741993749747,334.1741993749747,334.1741993749747,334.1741993749747,334.1741993749747,334.1741993749747,334.0967716662873,334.1741993749747,334.1741993749747,334.1741993749747,334.0967716662873,334.1741993749747,334.1741993749747,334.1741993749747,336.25317483296385,340.29417041596025,334.1741993749747,334.1741993749747,339.3559438329539,334.1741993749747,334.1741993749747,334.1741993749747,334.1741993749747,334.6366159580066,335.6990016250056,334.6071705826364,,336.25317483296385,337.31967220798833,336.22326962463944,,334.1741993749747,339.3559438329539,334.1741993749747,339.3559438329539,339.39690854097717,340.083768624987,334.1741993749747,2,1,1.0410718340426683,reldom2_s025,001,2025-03-07_09h48.22.058,Where-B-Scan_AC,2022.2.5,None,
28,First_Order,5.0,audwhere,stimulus/audwhere_stim/dummy.wav,stimulus/audwhere_stim/dummy.wav,stimulus/audwhere_stim/right_away_300h.wav,stimulus/audwhere_stim/right_toward_290h.wav,stimulus/audwhere_stim/blank_white.png,stimulus/audwhere_stim/direction_box.png,stimulus/audwhere_stim/direction_yes.png,stimulus/audwhere_stim/direction_no.png,None,Direction,None,Side,2,0.0,0,5.125,0,5.125,0,5.125,0,0.0,0.625,0,0.0,0,0.0,0,0.0,0,0.0,0,0.0,0,0.0,1,0.5,1,2.125,0,,,,,0,36,36,36,,,,,,,,,340.29417041596025,340.29417041596025,340.29417041596025,340.29417041596025,340.29417041596025,340.29417041596025,340.29417041596025,340.29417041596025,340.2171019583203,340.29417041596025,340.29417041596025,340.29417041596025,340.2171019583203,340.29417041596025,340.29417041596025,340.29417041596025,342.3850114159868,,340.29417041596025,340.29417041596025,345.449526374985,340.29417041596025,340.29417041596025,340.29417041596025,340.29417041596025,340.75931562500773,341.8282907909597,340.72961445764327,,342.3850114159868,343.45534841599874,342.3555622496681,,340.29417041596025,345.449526374985,340.29417041596025,345.449526374985,345.4905988329556,346.14176229096483,340.29417041596025,2,1,1.3855727500631474,reldom2_s025,001,2025-03-07_09h48.22.058,Where-B-Scan_AC,2022.2.5,None,
0,0.0,None,fixation,stimulus/audwhere_stim/blank_white.png,stimulus/audwhere_stim/blank_white.png,stimulus/viswhere_stim/blank_white.png,stimulus/viswhere_stim/blank_white.png,stimulus/audwhere_stim/blank_white.png,stimulus/audwhere_stim/blank_white.png,stimulus/audwhere_stim/blank_white.png,stimulus/audwhere_stim/blank_white.png,0.0,0.0,0.0,0.0,0,0.0,0,0.0,0,0.0,0,0.0,0,0.0,0.0,0,0.0,0,0.0,0,0.0,0,0.0,0,0.0,0,0.0,0,0.0,0,0.0,10,,,,,0,37,37,37,,,,,,,,,346.4141551249777,346.4141551249777,346.4141551249777,346.4141551249777,346.4141551249777,346.4141551249777,346.4141551249777,346.4141551249777,346.3160929163297,346.4141551249777,346.4141551249777,346.4141551249777,346.3160929163297,346.4141551249777,346.4141551249777,346.4141551249777,346.4141551249777,346.4141551249777,346.4141551249777,346.4141551249777,346.4141551249777,346.4141551249777,346.4141551249777,346.4141551249777,346.4141551249777,346.4141551249777,346.4141551249777,346.3660929163297,346.4141551249777,346.4141551249777,346.4141551249777,346.3660929163297,346.4141551249777,346.4141551249777,346.4141551249777,346.4141551249777,346.4141551249777,351.6242403750075,351.6242403750075,356.5524864579784,None,0,,reldom2_s025,001,2025-03-07_09h48.22.058,Where-B-Scan_AC,2022.2.5,None,
29,Second_Order,5.0,audwhere,stimulus/audwhere_stim/right_toward_270h.wav,stimulus/audwhere_stim/right_away_280h.wav,stimulus/audwhere_stim/left_away_270h.wav,stimulus/audwhere_stim/right_away_300h.wav,stimulus/audwhere_stim/match_blank.png,stimulus/audwhere_stim/match_box.png,stimulus/audwhere_stim/match_yes.png,stimulus/audwhere_stim/match_no.png,2.0,Match,Side,Direction,2,5.125,0,5.125,0,5.125,0,5.125,0,0.75,0.75,0,0.0,0,0.0,0,0.0,0,0.0,1,0.5,1,2.125,1,0.5,1,2.125,0,,,,,0,38,38,38,,,,,,,,,356.5524864579784,361.66723754099803,356.5524864579784,356.5524864579784,356.5524864579784,356.5524864579784,357.00365458300803,357.99099229095737,357.0175947916616,,358.6263497080072,359.6241291659535,358.6385609996544,,361.66723754099803,362.51446066598874,364.5618879579706,368.5142564579728,362.51446066598874,362.51446066598874,367.67352604097687,362.51446066598874,362.51446066598874,362.51446066598874,362.51446066598874,362.96713437500875,364.0154511659639,362.9382779996415,,364.5618879579706,365.61631887499243,364.53255820763684,,362.51446066598874,367.67352604097687,362.51446066598874,367.67352604097687,367.71418700000504,,362.51446066598874,2,1,0.6758355410420336,reldom2_s025,001,2025-03-07_09h48.22.058,Where-B-Scan_AC,2022.2.5,None,
30,Second_Order,5.0,audwhere,stimulus/audwhere_stim/right_away_300h.wav,stimulus/audwhere_stim/right_toward_300h.wav,stimulus/audwhere_stim/left_toward_290h.wav,stimulus/audwhere_stim/left_away_270h.wav,stimulus/audwhere_stim/match_blank.png,stimulus/audwhere_stim/match_box.png,stimulus/audwhere_stim/match_yes.png,stimulus/audwhere_stim/match_no.png,1.0,Match,Side,Side,1,5.125,0,5.125,0,5.125,0,5.125,0,0.625,0.625,0,0.0,0,0.0,0,0.0,0,0.0,1,0.5,1,2.125,1,0.5,1,2.125,0,,,,,0,39,39,39,,,,,,,,,368.5142564579728,373.62829404097283,368.5142564579728,368.5142564579728,368.5142564579728,368.5142564579728,368.9646503329859,369.9514094159822,368.9789521246605,,370.59975854097866,371.5891640409827,370.60351183265834,,373.62829404097283,374.35294070799137,376.4379198749666,,374.35294070799137,374.35294070799137,379.5324306249968,374.35294070799137,374.35294070799137,374.35294070799137,374.35294070799137,374.80374816595577,375.8466724999598,374.77496045764224,,376.4379198749666,377.4855781249935,376.4088234576668,,374.35294070799137,379.5324306249968,374.35294070799137,379.5324306249968,379.5324306249968,380.21248787496006,374.35294070799137,1,1,0.7588970830547623,reldom2_s025,001,2025-03-07_09h48.22.058,Where-B-Scan_AC,2022.2.5,None,
0,0.0,None,fixation,stimulus/audwhere_stim/blank_white.png,stimulus/audwhere_stim/blank_white.png,stimulus/viswhere_stim/blank_white.png,stimulus/viswhere_stim/blank_white.png,stimulus/audwhere_stim/blank_white.png,stimulus/audwhere_stim/blank_white.png,stimulus/audwhere_stim/blank_white.png,stimulus/audwhere_stim/blank_white.png,0.0,0.0,0.0,0.0,0,0.0,0,0.0,0,0.0,0,0.0,0,0.0,0.0,0,0.0,0,0.0,0,0.0,0,0.0,0,0.0,0,0.0,0,0.0,0,0.0,8,,,,,0,40,40,40,,,,,,,,,380.44139508297667,380.44139508297667,380.44139508297667,380.44139508297667,380.44139508297667,380.44139508297667,380.44139508297667,380.44139508297667,380.3458212082934,380.44139508297667,380.44139508297667,380.44139508297667,380.3458212082934,380.44139508297667,380.44139508297667,380.44139508297667,380.44139508297667,380.44139508297667,380.44139508297667,380.44139508297667,380.44139508297667,380.44139508297667,380.44139508297667,380.44139508297667,380.44139508297667,380.44139508297667,380.44139508297667,380.3958212082934,380.44139508297667,380.44139508297667,380.44139508297667,380.3958212082934,380.44139508297667,380.44139508297667,380.44139508297667,380.44139508297667,380.44139508297667,385.6304063749849,385.6304063749849,388.70119545800844,None,0,,reldom2_s025,001,2025-03-07_09h48.22.058,Where-B-Scan_AC,2022.2.5,None,
31,First_Order,6.0,audwhere,stimulus/audwhere_stim/dummy.wav,stimulus/audwhere_stim/dummy.wav,stimulus/audwhere_stim/left_toward_270h.wav,stimulus/audwhere_stim/right_toward_280h.wav,stimulus/audwhere_stim/blank_white.png,stimulus/audwhere_stim/side_box.png,stimulus/audwhere_stim/side_yes.png,stimulus/audwhere_stim/side_no.png,None,Side,None,Direction,2,0.0,0,5.125,0,5.125,0,5.125,0,0.0,0.625,0,0.0,0,0.0,0,0.0,0,0.0,0,0.0,0,0.0,1,0.5,1,2.125,0,,,,,0,41,41,41,,,,,,,,,388.70119545800844,388.70119545800844,388.70119545800844,388.70119545800844,388.70119545800844,388.70119545800844,388.70119545800844,388.70119545800844,388.63204162466957,388.70119545800844,388.70119545800844,388.70119545800844,388.63204162466957,388.70119545800844,388.70119545800844,388.70119545800844,390.8070271249744,394.81140704097925,388.70119545800844,388.70119545800844,393.87757679098286,388.70119545800844,388.70119545800844,388.70119545800844,388.70119545800844,389.1588557079667,390.21165545796975,389.1299524576209,,390.8070271249744,391.8646568330005,390.77769491664753,,388.70119545800844,393.87757679098286,388.70119545800844,393.87757679098286,393.9180759579758,394.6031562910066,388.70119545800844,2,1,0.8460049590212293,reldom2_s025,001,2025-03-07_09h48.22.058,Where-B-Scan_AC,2022.2.5,None,
32,First_Order,6.0,audwhere,stimulus/audwhere_stim/dummy.wav,stimulus/audwhere_stim/dummy.wav,stimulus/audwhere_stim/right_toward_280h.wav,stimulus/audwhere_stim/left_toward_290h.wav,stimulus/audwhere_stim/blank_white.png,stimulus/audwhere_stim/direction_box.png,stimulus/audwhere_stim/direction_yes.png,stimulus/audwhere_stim/direction_no.png,None,Direction,None,Direction,1,0.0,0,5.125,0,5.125,0,5.125,0,0.0,0.625,0,0.0,0,0.0,0,0.0,0,0.0,0,0.0,0,0.0,1,0.5,1,2.125,0,,,,,0,42,42,42,,,,,,,,,394.81140704097925,394.81140704097925,394.81140704097925,394.81140704097925,394.81140704097925,394.81140704097925,394.81140704097925,394.81140704097925,394.7364896243399,394.81140704097925,394.81140704097925,394.81140704097925,394.7364896243399,394.81140704097925,394.81140704097925,394.81140704097925,396.8848619579803,,394.81140704097925,394.81140704097925,399.9780468749814,394.81140704097925,394.81140704097925,394.81140704097925,394.81140704097925,395.2740665409947,396.33235791599145,395.24456945766383,,396.8848619579803,397.94858145795297,396.85545524966824,,394.81140704097925,399.9780468749814,394.81140704097925,399.9780468749814,400.01863979100017,400.66822454100475,394.81140704097925,1,1,1.793753333040513,reldom2_s025,001,2025-03-07_09h48.22.058,Where-B-Scan_AC,2022.2.5,None,
33,First_Order,6.0,audwhere,stimulus/audwhere_stim/dummy.wav,stimulus/audwhere_stim/dummy.wav,stimulus/audwhere_stim/left_toward_270h.wav,stimulus/audwhere_stim/left_away_300h.wav,stimulus/audwhere_stim/blank_white.png,stimulus/audwhere_stim/side_box.png,stimulus/audwhere_stim/side_yes.png,stimulus/audwhere_stim/side_no.png,None,Side,None,Side,1,0.0,0,5.125,0,5.125,0,5.125,0,0.0,0.625,0,0.0,0,0.0,0,0.0,0,0.0,0,0.0,0,0.0,1,0.5,1,2.125,0,,,,,0,43,43,43,,,,,,,,,400.91952875000425,400.91952875000425,400.91952875000425,400.91952875000425,400.91952875000425,400.91952875000425,400.91952875000425,400.91952875000425,400.8418589163067,400.91952875000425,400.91952875000425,400.91952875000425,400.8418589163067,400.91952875000425,400.91952875000425,400.91952875000425,402.9950989999925,,400.91952875000425,400.91952875000425,406.08048212499125,400.91952875000425,400.91952875000425,400.91952875000425,400.91952875000425,401.381782582961,402.4431834159768,401.352036707631,,402.9950989999925,404.0552103749942,402.9653524996286,,400.91952875000425,406.08048212499125,400.91952875000425,406.08048212499125,406.1212892080075,406.8093476659851,400.91952875000425,1,1,1.1287757080281153,reldom2_s025,001,2025-03-07_09h48.22.058,Where-B-Scan_AC,2022.2.5,None,
34,First_Order,6.0,audwhere,stimulus/audwhere_stim/dummy.wav,stimulus/audwhere_stim/dummy.wav,stimulus/audwhere_stim/right_toward_300h.wav,stimulus/audwhere_stim/left_toward_290h.wav,stimulus/audwhere_stim/blank_white.png,stimulus/audwhere_stim/side_box.png,stimulus/audwhere_stim/side_yes.png,stimulus/audwhere_stim/side_no.png,None,Side,None,Direction,2,0.0,0,5.125,0,5.125,0,5.125,0,0.0,0.625,0,0.0,0,0.0,0,0.0,0,0.0,0,0.0,0,0.0,1,0.5,1,2.125,0,,,,,0,44,44,44,,,,,,,,,407.02084987499984,407.02084987499984,407.02084987499984,407.02084987499984,407.02084987499984,407.02084987499984,407.02084987499984,407.02084987499984,406.94268099931844,407.02084987499984,407.02084987499984,407.02084987499984,406.94268099931844,407.02084987499984,407.02084987499984,407.02084987499984,409.0935517079779,,407.02084987499984,407.02084987499984,412.18262337497436,407.02084987499984,407.02084987499984,407.02084987499984,407.02084987499984,407.48398062499473,408.54484320798656,407.4542689166303,,409.0935517079779,410.15932016598526,409.0638789576517,,407.02084987499984,412.18262337497436,407.02084987499984,412.18262337497436,412.2228872499545,412.9105588750099,407.02084987499984,2,1,2.143633250030689,reldom2_s025,001,2025-03-07_09h48.22.058,Where-B-Scan_AC,2022.2.5,None,
0,0.0,None,fixation,stimulus/audwhere_stim/blank_white.png,stimulus/audwhere_stim/blank_white.png,stimulus/viswhere_stim/blank_white.png,stimulus/viswhere_stim/blank_white.png,stimulus/audwhere_stim/blank_white.png,stimulus/audwhere_stim/blank_white.png,stimulus/audwhere_stim/blank_white.png,stimulus/audwhere_stim/blank_white.png,0.0,0.0,0.0,0.0,0,0.0,0,0.0,0,0.0,0,0.0,0,0.0,0.0,0,0.0,0,0.0,0,0.0,0,0.0,0,0.0,0,0.0,0,0.0,0,0.0,8,,,,,0,45,45,45,,,,,,,,,413.1424804579583,413.1424804579583,413.1424804579583,413.1424804579583,413.1424804579583,413.1424804579583,413.1424804579583,413.1424804579583,413.0438922083432,413.1424804579583,413.1424804579583,413.1424804579583,413.0438922083432,413.1424804579583,413.1424804579583,413.1424804579583,413.1424804579583,413.1424804579583,413.1424804579583,413.1424804579583,413.1424804579583,413.1424804579583,413.1424804579583,413.1424804579583,413.1424804579583,413.1424804579583,413.1424804579583,413.0938922083432,413.1424804579583,413.1424804579583,413.1424804579583,413.0938922083432,413.1424804579583,413.1424804579583,413.1424804579583,413.1424804579583,413.1424804579583,418.3549773329869,418.3549773329869,421.30837645800784,None,0,,reldom2_s025,001,2025-03-07_09h48.22.058,Where-B-Scan_AC,2022.2.5,None,
35,Second_Order,6.0,audwhere,stimulus/audwhere_stim/left_toward_280h.wav,stimulus/audwhere_stim/right_toward_270h.wav,stimulus/audwhere_stim/left_away_300h.wav,stimulus/audwhere_stim/right_away_280h.wav,stimulus/audwhere_stim/match_blank.png,stimulus/audwhere_stim/match_box.png,stimulus/audwhere_stim/match_yes.png,stimulus/audwhere_stim/match_no.png,1.0,Match,Direction,Direction,1,5.125,0,5.125,0,5.125,0,5.125,0,0.75,0.75,0,0.0,0,0.0,0,0.0,0,0.0,1,0.5,1,2.125,1,0.5,1,2.125,0,,,,,0,46,46,46,,,,,,,,,421.30837645800784,426.42855654098094,421.30837645800784,421.30837645800784,421.30837645800784,421.30837645800784,421.76725658297073,422.7577401250019,421.76978720765715,,423.3881630830001,424.37703812500695,423.39246958267563,,426.42855654098094,427.28249295800924,429.33690649998607,,427.28249295800924,427.28249295800924,432.4421400830033,427.28249295800924,427.28249295800924,427.28249295800924,427.28249295800924,427.73614224995254,428.7866772499983,427.7069871246388,,429.33690649998607,430.38844545796746,429.30775083264257,,427.28249295800924,432.4421400830033,427.28249295800924,432.4421400830033,432.4421400830033,,427.28249295800924,1,1,1.6569856670103036,reldom2_s025,001,2025-03-07_09h48.22.058,Where-B-Scan_AC,2022.2.5,None,
36,Second_Order,6.0,audwhere,stimulus/audwhere_stim/left_toward_300h.wav,stimulus/audwhere_stim/right_toward_280h.wav,stimulus/audwhere_stim/left_away_300h.wav,stimulus/audwhere_stim/right_away_300h.wav,stimulus/audwhere_stim/match_blank.png,stimulus/audwhere_stim/match_box.png,stimulus/audwhere_stim/match_yes.png,stimulus/audwhere_stim/match_no.png,1.0,Match,Direction,Direction,1,5.125,0,5.125,0,5.125,0,5.125,0,0.625,0.625,0,0.0,0,0.0,0,0.0,0,0.0,1,0.5,1,2.125,1,0.5,1,2.125,0,,,,,0,47,47,47,,,,,,,,,433.2450287909596,438.36029558297014,433.2450287909596,433.2450287909596,433.2450287909596,433.2450287909596,433.697709665983,434.6846112079802,433.71162008267515,,435.3209123329725,436.31820837495616,435.3326554166308,,438.36029558297014,439.0865084999823,441.16891233297065,,439.0865084999823,439.0865084999823,444.2697286659968,439.0865084999823,439.0865084999823,439.0865084999823,439.0865084999823,439.53862462495454,440.5810087909922,439.5100308326694,,441.16891233297065,442.2197590409778,441.1395524576694,,439.0865084999823,444.2697286659968,439.0865084999823,444.2697286659968,444.2697286659968,444.95076166599756,439.0865084999823,1,1,0.8085221670335159,reldom2_s025,001,2025-03-07_09h48.22.058,Where-B-Scan_AC,2022.2.5,None,
0,0.0,None,fixation,stimulus/audwhere_stim/blank_white.png,stimulus/audwhere_stim/blank_white.png,stimulus/viswhere_stim/blank_white.png,stimulus/viswhere_stim/blank_white.png,stimulus/audwhere_stim/blank_white.png,stimulus/audwhere_stim/blank_white.png,stimulus/audwhere_stim/blank_white.png,stimulus/audwhere_stim/blank_white.png,0.0,0.0,0.0,0.0,0,0.0,0,0.0,0,0.0,0,0.0,0,0.0,0.0,0,0.0,0,0.0,0,0.0,0,0.0,0,0.0,0,0.0,0,0.0,0,0.0,10,,,,,0,48,48,48,,,,,,,,,445.1799540409702,445.1799540409702,445.1799540409702,445.1799540409702,445.1799540409702,445.1799540409702,445.1799540409702,445.1799540409702,445.0840949993309,445.1799540409702,445.1799540409702,445.1799540409702,445.0840949993309,445.1799540409702,445.1799540409702,445.1799540409702,445.1799540409702,445.1799540409702,445.1799540409702,445.1799540409702,445.1799540409702,445.1799540409702,445.1799540409702,445.1799540409702,445.1799540409702,445.1799540409702,445.1799540409702,445.1340949993309,445.1799540409702,445.1799540409702,445.1799540409702,445.1340949993309,445.1799540409702,445.1799540409702,445.1799540409702,445.1799540409702,445.1799540409702,450.3732529159752,450.3732529159752,455.3977650000015,None,0,,reldom2_s025,001,2025-03-07_09h48.22.058,Where-B-Scan_AC,2022.2.5,None,
37,First_Order,7.0,viswhere,stimulus/viswhere_stim/blank_white.png,stimulus/viswhere_stim/blank_white.png,stimulus/viswhere_stim/150-deg_dot-left_turquoise.png,stimulus/viswhere_stim/120-deg_dot-left_mediumslateblue.png,stimulus/viswhere_stim/blank_white.png,stimulus/viswhere_stim/line_box.png,stimulus/viswhere_stim/line_yes.png,stimulus/viswhere_stim/line_no.png,None,Line,None,Dot,2,0.0,0,5.125,0,5.125,0,5.125,0,0.0,0.625,0,0.0,0,0.0,1,0.5,1,2.125,0,0.0,0,0.0,0,0.0,0,0.0,0,,,,,0,49,49,49,,,,,,,,,455.3977650000015,455.3977650000015,455.3977650000015,455.3977650000015,455.3977650000015,455.3977650000015,455.3977650000015,455.3977650000015,455.3784871246704,455.3977650000015,455.3977650000015,455.3977650000015,455.3784871246704,455.3977650000015,455.3977650000015,455.3977650000015,457.5047346659703,461.4524232909898,455.3977650000015,455.3977650000015,460.531649499957,455.8772314999951,456.8926146249869,457.5047346659703,458.52166345797013,455.3977650000015,455.3977650000015,455.3784871246704,455.3977650000015,455.3977650000015,455.3977650000015,455.3784871246704,455.3977650000015,455.3977650000015,460.531649499957,455.3977650000015,460.531649499957,460.62082199996803,461.25211262499215,455.3977650000015,2,1,2.809529625053983,reldom2_s025,001,2025-03-07_09h48.22.058,Where-B-Scan_AC,2022.2.5,None,
38,First_Order,7.0,viswhere,stimulus/viswhere_stim/blank_white.png,stimulus/viswhere_stim/blank_white.png,stimulus/viswhere_stim/120-deg_dot-left_mediumslateblue.png,stimulus/viswhere_stim/120-deg_dot-right_seagreen.png,stimulus/viswhere_stim/blank_white.png,stimulus/viswhere_stim/dot_box.png,stimulus/viswhere_stim/dot_yes.png,stimulus/viswhere_stim/dot_no.png,None,Dot,None,Line,2,0.0,0,5.125,0,5.125,0,5.125,0,0.0,0.625,0,0.0,0,0.0,1,0.5,1,2.125,0,0.0,0,0.0,0,0.0,0,0.0,0,,,,,0,50,50,50,,,,,,,,,461.4524232909898,461.4524232909898,461.4524232909898,461.4524232909898,461.4524232909898,461.4524232909898,461.4524232909898,461.4524232909898,461.43198770833743,461.4524232909898,461.4524232909898,461.4524232909898,461.43198770833743,461.4524232909898,461.4524232909898,461.4524232909898,463.55868991598254,467.52548845799174,461.4524232909898,461.4524232909898,466.5818743329728,461.92611295799725,462.93237670796225,463.55868991598254,464.5707122499589,461.4524232909898,461.4524232909898,461.4486543750041,461.4524232909898,461.4524232909898,461.4524232909898,461.4486543750041,461.4524232909898,461.4524232909898,466.5818743329728,461.4524232909898,466.5818743329728,466.6778688749764,467.2987028749776,461.4524232909898,2,1,0.7403757920255885,reldom2_s025,001,2025-03-07_09h48.22.058,Where-B-Scan_AC,2022.2.5,None,
39,First_Order,7.0,viswhere,stimulus/viswhere_stim/blank_white.png,stimulus/viswhere_stim/blank_white.png,stimulus/viswhere_stim/60-deg_dot-right_salmon.png,stimulus/viswhere_stim/60-deg_dot-left_peru.png,stimulus/viswhere_stim/blank_white.png,stimulus/viswhere_stim/line_box.png,stimulus/viswhere_stim/line_yes.png,stimulus/viswhere_stim/line_no.png,None,Line,None,Line,1,0.0,0,5.125,0,5.125,0,5.125,0,0.0,0.625,0,0.0,0,0.0,1,0.5,1,2.125,0,0.0,0,0.0,0,0.0,0,0.0,0,,,,,0,51,51,51,,,,,,,,,467.52548845799174,467.52548845799174,467.52548845799174,467.52548845799174,467.52548845799174,467.52548845799174,467.52548845799174,467.52548845799174,467.50587204129744,467.52548845799174,467.52548845799174,467.52548845799174,467.50587204129744,467.52548845799174,467.52548845799174,467.52548845799174,469.63877333299024,473.59458795795217,467.52548845799174,467.52548845799174,472.65561441599857,468.00284954096423,469.0113299159566,469.63877333299024,470.65487383300206,467.52548845799174,467.52548845799174,467.5225387079641,467.52548845799174,467.52548845799174,467.52548845799174,467.5225387079641,467.52548845799174,467.52548845799174,472.65561441599857,467.52548845799174,472.65561441599857,472.7541339159943,473.3766066249809,467.52548845799174,1,1,0.880394583044108,reldom2_s025,001,2025-03-07_09h48.22.058,Where-B-Scan_AC,2022.2.5,None,
40,First_Order,7.0,viswhere,stimulus/viswhere_stim/blank_white.png,stimulus/viswhere_stim/blank_white.png,stimulus/viswhere_stim/60-deg_dot-right_slateblue.png,stimulus/viswhere_stim/90-deg_dot-right_royalblue.png,stimulus/viswhere_stim/blank_white.png,stimulus/viswhere_stim/dot_box.png,stimulus/viswhere_stim/dot_yes.png,stimulus/viswhere_stim/dot_no.png,None,Dot,None,Dot,1,0.0,0,5.125,0,5.125,0,5.125,0,0.0,0.625,0,0.0,0,0.0,1,0.5,1,2.125,0,0.0,0,0.0,0,0.0,0,0.0,0,,,,,0,52,52,52,,,,,,,,,473.59458795795217,473.59458795795217,473.59458795795217,473.59458795795217,473.59458795795217,473.59458795795217,473.59458795795217,473.59458795795217,473.5739426243429,473.59458795795217,473.59458795795217,473.59458795795217,473.5739426243429,473.59458795795217,473.59458795795217,473.59458795795217,475.70905074995244,479.7374631660059,473.59458795795217,473.59458795795217,478.7234836249845,474.06990149995545,475.0800616249908,475.70905074995244,476.72149674996035,473.59458795795217,473.59458795795217,473.59060929100957,473.59458795795217,473.59458795795217,473.59458795795217,473.59060929100957,473.59458795795217,473.59458795795217,478.7234836249845,473.59458795795217,478.7234836249845,478.81949037499726,479.4472421659739,473.59458795795217,1,1,1.0326943330001086,reldom2_s025,001,2025-03-07_09h48.22.058,Where-B-Scan_AC,2022.2.5,None,
0,0.0,None,fixation,stimulus/audwhere_stim/blank_white.png,stimulus/audwhere_stim/blank_white.png,stimulus/viswhere_stim/blank_white.png,stimulus/viswhere_stim/blank_white.png,stimulus/audwhere_stim/blank_white.png,stimulus/audwhere_stim/blank_white.png,stimulus/audwhere_stim/blank_white.png,stimulus/audwhere_stim/blank_white.png,0.0,0.0,0.0,0.0,0,0.0,0,0.0,0,0.0,0,0.0,0,0.0,0.0,0,0.0,0,0.0,0,0.0,0,0.0,0,0.0,0,0.0,0,0.0,0,0.0,8,,,,,0,53,53,53,,,,,,,,,479.7374631660059,479.7374631660059,479.7374631660059,479.7374631660059,479.7374631660059,479.7374631660059,479.7374631660059,479.7374631660059,479.6409644583085,479.7374631660059,479.7374631660059,479.7374631660059,479.6409644583085,479.7374631660059,479.7374631660059,479.7374631660059,479.7374631660059,479.7374631660059,479.7374631660059,479.7374631660059,479.7374631660059,479.7374631660059,479.7374631660059,479.7374631660059,479.7374631660059,479.7374631660059,479.7374631660059,479.6909644583085,479.7374631660059,479.7374631660059,479.7374631660059,479.6909644583085,479.7374631660059,479.7374631660059,479.7374631660059,479.7374631660059,479.7374631660059,484.9545134159853,484.9545134159853,487.8419969579554,None,0,,reldom2_s025,001,2025-03-07_09h48.22.058,Where-B-Scan_AC,2022.2.5,None,
41,Second_Order,7.0,viswhere,stimulus/viswhere_stim/60-deg_dot-right_seagreen.png,stimulus/viswhere_stim/30-deg_dot-right_mediumslateblue.png,stimulus/viswhere_stim/60-deg_dot-left_mediumslateblue.png,stimulus/viswhere_stim/150-deg_dot-left_salmon.png,stimulus/audwhere_stim/match_blank.png,stimulus/audwhere_stim/match_box.png,stimulus/audwhere_stim/match_yes.png,stimulus/audwhere_stim/match_no.png,1.0,Match,Dot,Dot,1,5.125,0,5.125,0,5.125,0,5.125,0,0.75,0.75,1,0.5,1,2.125,1,0.5,1,2.125,0,0.0,0,0.0,0,0.0,0,0.0,0,,,,,0,54,54,54,,,,,,,,,487.8419969579554,492.9656784159597,488.32550091599114,489.3241032079677,489.94626670796424,490.94436658296036,487.8419969579554,487.8419969579554,487.8570056243062,487.8419969579554,487.8419969579554,487.8419969579554,487.8570056243062,487.8419969579554,492.9656784159597,493.76145699998597,495.83954637497663,499.6996736250003,493.76145699998597,493.76145699998597,498.8838415829814,494.2064661249751,495.22648358298466,495.83954637497663,496.84296099998755,493.76145699998597,493.76145699998597,493.7508728749934,493.76145699998597,493.76145699998597,493.76145699998597,493.7508728749934,493.76145699998597,493.76145699998597,498.8838415829814,493.76145699998597,498.8838415829814,498.95316841598833,499.73650554096093,493.76145699998597,1,1,1.4795537500176579,reldom2_s025,001,2025-03-07_09h48.22.058,Where-B-Scan_AC,2022.2.5,None,
42,Second_Order,7.0,viswhere,stimulus/viswhere_stim/90-deg_dot-right_goldenrod.png,stimulus/viswhere_stim/120-deg_dot-right_mediumslateblue.png,stimulus/viswhere_stim/60-deg_dot-right_peru.png,stimulus/viswhere_stim/60-deg_dot-left_mediumslateblue.png,stimulus/audwhere_stim/match_blank.png,stimulus/audwhere_stim/match_box.png,stimulus/audwhere_stim/match_yes.png,stimulus/audwhere_stim/match_no.png,2.0,Match,Dot,Line,2,5.125,0,5.125,0,5.125,0,5.125,0,0.625,0.625,1,0.5,1,2.125,1,0.5,1,2.125,0,0.0,0,0.0,0,0.0,0,0.0,0,,,,,0,55,55,55,,,,,,,,,499.73650554096093,504.85964941600105,500.22039708297234,501.2182133749593,501.8403659579926,502.8384033329785,499.73650554096093,499.73650554096093,499.7496736250003,499.73650554096093,499.73650554096093,499.73650554096093,499.7496736250003,499.73650554096093,504.85964941600105,505.5339420409873,507.60938191600144,511.64886445796583,505.5339420409873,505.5339420409873,510.6598960409756,505.99381549999816,507.0002648329828,507.60938191600144,508.6204678749782,505.5339420409873,505.5339420409873,505.5110329993263,505.5339420409873,505.5339420409873,505.5339420409873,505.5110329993263,505.5339420409873,505.5339420409873,510.6598960409756,505.5339420409873,510.6598960409756,510.72959224996157,511.3540418749908,505.5339420409873,2,1,1.82616258302005,reldom2_s025,001,2025-03-07_09h48.22.058,Where-B-Scan_AC,2022.2.5,None,
0,0.0,None,fixation,stimulus/audwhere_stim/blank_white.png,stimulus/audwhere_stim/blank_white.png,stimulus/viswhere_stim/blank_white.png,stimulus/viswhere_stim/blank_white.png,stimulus/audwhere_stim/blank_white.png,stimulus/audwhere_stim/blank_white.png,stimulus/audwhere_stim/blank_white.png,stimulus/audwhere_stim/blank_white.png,0.0,0.0,0.0,0.0,0,0.0,0,0.0,0,0.0,0,0.0,0,0.0,0.0,0,0.0,0,0.0,0,0.0,0,0.0,0,0.0,0,0.0,0,0.0,0,0.0,8,,,,,0,56,56,56,,,,,,,,,511.64886445796583,511.64886445796583,511.64886445796583,511.64886445796583,511.64886445796583,511.64886445796583,511.64886445796583,511.64886445796583,511.5510361663376,511.64886445796583,511.64886445796583,511.64886445796583,511.5510361663376,511.64886445796583,511.64886445796583,511.64886445796583,511.64886445796583,511.64886445796583,511.64886445796583,511.64886445796583,511.64886445796583,511.64886445796583,511.64886445796583,511.64886445796583,511.64886445796583,511.64886445796583,511.64886445796583,511.6010361663376,511.64886445796583,511.64886445796583,511.64886445796583,511.6010361663376,511.64886445796583,511.64886445796583,511.64886445796583,511.64886445796583,511.64886445796583,516.8608413749607,516.8608413749607,519.8398365409812,None,0,,reldom2_s025,001,2025-03-07_09h48.22.058,Where-B-Scan_AC,2022.2.5,None,
43,First_Order,8.0,viswhere,stimulus/viswhere_stim/blank_white.png,stimulus/viswhere_stim/blank_white.png,stimulus/viswhere_stim/120-deg_dot-left_lightsseagreen.png,stimulus/viswhere_stim/120-deg_dot-right_royalblue.png,stimulus/viswhere_stim/blank_white.png,stimulus/viswhere_stim/line_box.png,stimulus/viswhere_stim/line_yes.png,stimulus/viswhere_stim/line_no.png,None,Line,None,Line,1,0.0,0,5.125,0,5.125,0,5.125,0,0.0,0.625,0,0.0,0,0.0,1,0.5,1,2.125,0,0.0,0,0.0,0,0.0,0,0.0,0,,,,,0,57,57,57,,,,,,,,,519.8398365409812,519.8398365409812,519.8398365409812,519.8398365409812,519.8398365409812,519.8398365409812,519.8398365409812,519.8398365409812,519.8211465416631,519.8398365409812,519.8398365409812,519.8398365409812,519.8211465416631,519.8398365409812,519.8398365409812,519.8398365409812,521.9533864159603,525.9039319579606,519.8398365409812,519.8398365409812,524.9622124159941,520.3166499579675,521.3267507909914,521.9533864159603,522.9650262499927,519.8398365409812,519.8398365409812,519.8211465416631,519.8398365409812,519.8398365409812,519.8398365409812,519.8211465416631,519.8398365409812,519.8398365409812,524.9622124159941,519.8398365409812,524.9622124159941,525.0629150829627,525.6870057079941,519.8398365409812,1,1,1.1750006670481525,reldom2_s025,001,2025-03-07_09h48.22.058,Where-B-Scan_AC,2022.2.5,None,
44,First_Order,8.0,viswhere,stimulus/viswhere_stim/blank_white.png,stimulus/viswhere_stim/blank_white.png,stimulus/viswhere_stim/60-deg_dot-right_peru.png,stimulus/viswhere_stim/90-deg_dot-right_turquoise.png,stimulus/viswhere_stim/blank_white.png,stimulus/viswhere_stim/dot_box.png,stimulus/viswhere_stim/dot_yes.png,stimulus/viswhere_stim/dot_no.png,None,Dot,None,Dot,1,0.0,0,5.125,0,5.125,0,5.125,0,0.0,0.625,0,0.0,0,0.0,1,0.5,1,2.125,0,0.0,0,0.0,0,0.0,0,0.0,0,,,,,0,58,58,58,,,,,,,,,525.9039319579606,525.9039319579606,525.9039319579606,525.9039319579606,525.9039319579606,525.9039319579606,525.9039319579606,525.9039319579606,525.8841362082943,525.9039319579606,525.9039319579606,525.9039319579606,525.8841362082943,525.9039319579606,525.9039319579606,525.9039319579606,528.0019210829632,531.9686371249845,525.9039319579606,525.9039319579606,531.0386316250078,526.3802866250044,527.3930645409855,528.0019210829632,529.0155952500063,525.9039319579606,525.9039319579606,525.900802874961,525.9039319579606,525.9039319579606,525.9039319579606,525.900802874961,525.9039319579606,525.9039319579606,531.0386316250078,525.9039319579606,531.0386316250078,531.1531058329856,531.7813802079763,525.9039319579606,2,0,1.3928037920268252,reldom2_s025,001,2025-03-07_09h48.22.058,Where-B-Scan_AC,2022.2.5,None,
45,First_Order,8.0,viswhere,stimulus/viswhere_stim/blank_white.png,stimulus/viswhere_stim/blank_white.png,stimulus/viswhere_stim/150-deg_dot-right_lightsseagreen.png,stimulus/viswhere_stim/150-deg_dot-left_royalblue.png,stimulus/viswhere_stim/blank_white.png,stimulus/viswhere_stim/dot_box.png,stimulus/viswhere_stim/dot_yes.png,stimulus/viswhere_stim/dot_no.png,None,Dot,None,Line,2,0.0,0,5.125,0,5.125,0,5.125,0,0.0,0.625,0,0.0,0,0.0,1,0.5,1,2.125,0,0.0,0,0.0,0,0.0,0,0.0,0,,,,,0,59,59,59,,,,,,,,,531.9686371249845,531.9686371249845,531.9686371249845,531.9686371249845,531.9686371249845,531.9686371249845,531.9686371249845,531.9686371249845,531.9480739163313,531.9686371249845,531.9686371249845,531.9686371249845,531.9480739163313,531.9686371249845,531.9686371249845,531.9686371249845,534.0850133330096,538.0274103749543,531.9686371249845,531.9686371249845,537.0937731660088,532.4496654579998,533.470123957959,534.0850133330096,535.089712749992,531.9686371249845,531.9686371249845,531.9647405829979,531.9686371249845,531.9686371249845,531.9686371249845,531.9647405829979,531.9686371249845,531.9686371249845,537.0937731660088,531.9686371249845,537.0937731660088,537.1925447909744,537.8262210409739,531.9686371249845,2,1,1.884116500033997,reldom2_s025,001,2025-03-07_09h48.22.058,Where-B-Scan_AC,2022.2.5,None,
46,First_Order,8.0,viswhere,stimulus/viswhere_stim/blank_white.png,stimulus/viswhere_stim/blank_white.png,stimulus/viswhere_stim/30-deg_dot-left_salmon.png,stimulus/viswhere_stim/150-deg_dot-left_turquoise.png,stimulus/viswhere_stim/blank_white.png,stimulus/viswhere_stim/line_box.png,stimulus/viswhere_stim/line_yes.png,stimulus/viswhere_stim/line_no.png,None,Line,None,Dot,2,0.0,0,5.125,0,5.125,0,5.125,0,0.0,0.625,0,0.0,0,0.0,1,0.5,1,2.125,0,0.0,0,0.0,0,0.0,0,0.0,0,,,,,0,60,60,60,,,,,,,,,538.0274103749543,538.0274103749543,538.0274103749543,538.0274103749543,538.0274103749543,538.0274103749543,538.0274103749543,538.0274103749543,538.0065019583175,538.0274103749543,538.0274103749543,538.0274103749543,538.0065019583175,538.0274103749543,538.0274103749543,538.0274103749543,540.1417471249588,544.1661414579721,538.0274103749543,538.0274103749543,543.1664044579957,538.5080572079751,539.5275901659625,540.1417471249588,541.1453606659779,538.0274103749543,538.0274103749543,538.0231686249841,538.0274103749543,538.0274103749543,538.0274103749543,538.0231686249841,538.0274103749543,538.0274103749543,543.1664044579957,538.0274103749543,543.1664044579957,543.2510017500026,543.8731129159569,538.0274103749543,1,0,2.4933582080411725,reldom2_s025,001,2025-03-07_09h48.22.058,Where-B-Scan_AC,2022.2.5,None,
0,0.0,None,fixation,stimulus/audwhere_stim/blank_white.png,stimulus/audwhere_stim/blank_white.png,stimulus/viswhere_stim/blank_white.png,stimulus/viswhere_stim/blank_white.png,stimulus/audwhere_stim/blank_white.png,stimulus/audwhere_stim/blank_white.png,stimulus/audwhere_stim/blank_white.png,stimulus/audwhere_stim/blank_white.png,0.0,0.0,0.0,0.0,0,0.0,0,0.0,0,0.0,0,0.0,0,0.0,0.0,0,0.0,0,0.0,0,0.0,0,0.0,0,0.0,0,0.0,0,0.0,0,0.0,9,,,,,0,61,61,61,,,,,,,,,544.1661414579721,544.1661414579721,544.1661414579721,544.1661414579721,544.1661414579721,544.1661414579721,544.1661414579721,544.1661414579721,544.0686814162958,544.1661414579721,544.1661414579721,544.1661414579721,544.0686814162958,544.1661414579721,544.1661414579721,544.1661414579721,544.1661414579721,544.1661414579721,544.1661414579721,544.1661414579721,544.1661414579721,544.1661414579721,544.1661414579721,544.1661414579721,544.1661414579721,544.1661414579721,544.1661414579721,544.1186814162958,544.1661414579721,544.1661414579721,544.1661414579721,544.1186814162958,544.1661414579721,544.1661414579721,544.1661414579721,544.1661414579721,544.1661414579721,549.3975703750039,549.3975703750039,553.3055882909684,None,0,,reldom2_s025,001,2025-03-07_09h48.22.058,Where-B-Scan_AC,2022.2.5,None,
47,Second_Order,8.0,viswhere,stimulus/viswhere_stim/90-deg_dot-left_lightsseagreen.png,stimulus/viswhere_stim/120-deg_dot-left_royalblue.png,stimulus/viswhere_stim/30-deg_dot-right_mediumslateblue.png,stimulus/viswhere_stim/60-deg_dot-right_lightsseagreen.png,stimulus/audwhere_stim/match_blank.png,stimulus/audwhere_stim/match_box.png,stimulus/audwhere_stim/match_yes.png,stimulus/audwhere_stim/match_no.png,1.0,Match,Dot,Dot,1,5.125,0,5.125,0,5.125,0,5.125,0,0.75,0.75,1,0.5,1,2.125,1,0.5,1,2.125,0,0.0,0,0.0,0,0.0,0,0.0,0,,,,,0,62,62,62,,,,,,,,,553.3055882909684,558.4212821659748,553.7766037079855,554.7754313329933,555.4148196660099,556.4123937079567,553.3055882909684,553.3055882909684,553.3182015833173,553.3055882909684,553.3055882909684,553.3055882909684,553.3182015833173,553.3055882909684,558.4212821659748,559.2163498749724,561.2854069579626,565.1901347499806,559.2163498749724,559.2163498749724,564.3541865829611,559.6585462079966,560.6725787079777,561.2854069579626,562.3049726249883,559.2163498749724,559.2163498749724,559.1888204583161,559.2163498749724,559.2163498749724,559.2163498749724,559.1888204583161,559.2163498749724,559.2163498749724,564.3541865829611,559.2163498749724,564.3541865829611,564.4103417909937,565.1901347499806,559.2163498749724,2,0,0.885309791075997,reldom2_s025,001,2025-03-07_09h48.22.058,Where-B-Scan_AC,2022.2.5,None,
48,Second_Order,8.0,viswhere,stimulus/viswhere_stim/60-deg_dot-left_seagreen.png,stimulus/viswhere_stim/90-deg_dot-left_peru.png,stimulus/viswhere_stim/30-deg_dot-right_turquoise.png,stimulus/viswhere_stim/30-deg_dot-left_lightsseagreen.png,stimulus/audwhere_stim/match_blank.png,stimulus/audwhere_stim/match_box.png,stimulus/audwhere_stim/match_yes.png,stimulus/audwhere_stim/match_no.png,2.0,Match,Dot,Line,2,5.125,0,5.125,0,5.125,0,5.125,0,0.625,0.625,1,0.5,1,2.125,1,0.5,1,2.125,0,0.0,0,0.0,0,0.0,0,0.0,0,,,,,0,63,63,63,,,,,,,,,565.1901347499806,570.3108535829815,565.6692226660089,566.6570262080058,567.2919207079685,568.2892432909575,565.1901347499806,565.1901347499806,565.2023704580031,565.1901347499806,565.1901347499806,565.1901347499806,565.2023704580031,565.1901347499806,570.3108535829815,570.9854754160042,573.0673210409586,577.0999936249573,570.9854754160042,570.9854754160042,576.1133896659594,571.4478847080027,572.4578257499961,573.0673210409586,574.0867144999793,570.9854754160042,570.9854754160042,570.9625031662949,570.9854754160042,570.9854754160042,570.9854754160042,570.9625031662949,570.9854754160042,570.9854754160042,576.1133896659594,570.9854754160042,576.1133896659594,576.1874608329963,576.8187251659692,570.9854754160042,2,1,0.8773515830398537,reldom2_s025,001,2025-03-07_09h48.22.058,Where-B-Scan_AC,2022.2.5,None,
0,0.0,None,fixation,stimulus/audwhere_stim/blank_white.png,stimulus/audwhere_stim/blank_white.png,stimulus/viswhere_stim/blank_white.png,stimulus/viswhere_stim/blank_white.png,stimulus/audwhere_stim/blank_white.png,stimulus/audwhere_stim/blank_white.png,stimulus/audwhere_stim/blank_white.png,stimulus/audwhere_stim/blank_white.png,0.0,0.0,0.0,0.0,0,0.0,0,0.0,0,0.0,0,0.0,0,0.0,0.0,0,0.0,0,0.0,0,0.0,0,0.0,0,0.0,0,0.0,0,0.0,0,0.0,16,,,,,0,64,64,64,,,,,,,,,577.0999936249573,577.0999936249573,577.0999936249573,577.0999936249573,577.0999936249573,577.0999936249573,577.0999936249573,577.0999936249573,577.0021525413225,577.0999936249573,577.0999936249573,577.0999936249573,577.0021525413225,577.0999936249573,577.0999936249573,577.0999936249573,577.0999936249573,577.0999936249573,577.0999936249573,577.0999936249573,577.0999936249573,577.0999936249573,577.0999936249573,577.0999936249573,577.0999936249573,577.0999936249573,577.0999936249573,577.0521525413225,577.0999936249573,577.0999936249573,577.0999936249573,577.0521525413225,577.0999936249573,577.0999936249573,577.0999936249573,577.0999936249573,577.0999936249573,582.3301572499913,582.3301572499913,593.2359715829953,None,0,,reldom2_s025,001,2025-03-07_09h48.22.058,Where-B-Scan_AC,2022.2.5,None,
