Trial,Order,Block,Type,Stimuli_File1,Stimuli_File2,Stimuli_File3,Stimuli_File4,Cue_File1,Cue_File2,Response_File_Yes,Response_File_No,Match,Cue_Dimension,Pair1_Dimension,Pair2_Dimension,Key,Cue1_Duration,Cue1_Onset,Cue2_Duration,Cue2_Onset,ResponseYes_Duration,ResponseYes_Onset,ResponseNo_Duration,ResponseNo_Onset,ITI_Within,ITI_Between,Image1_Duration,Image1_Onset,Image2_Duration,Image2_Onset,Image3_Duration,Image3_Onset,Image4_Duration,Image4_Onset,Sound1_Duration,Sound1_Onset,Sound2_Duration,Sound2_Onset,Sound3_Duration,Sound3_Onset,Sound4_Duration,Sound4_Onset,Fixation_Duration,trials_2.thisRepN,trials_2.thisTrialN,trials_2.thisN,trials_2.thisIndex,trials.thisRepN,trials.thisTrialN,trials.thisN,trials.thisIndex,text_start.started,key_resp_start.started,key_resp_start.keys,key_resp_start.rt,text2.started,key_resp_2.started,key_resp_2.keys,key_resp_2.rt,cue_file1.started,cue_file1.stopped,image_1.started,image_1.stopped,image_2.started,image_2.stopped,sound_icon1.started,sound_icon1.stopped,sound_1.started,sound_1.stopped,sound_icon2.started,sound_icon2.stopped,sound_2.started,sound_2.stopped,image_blank_1.started,image_blank_1.stopped,key_press.started,key_press.stopped,fixation_text.started,cue_file2.started,cue_file2.stopped,image_3.started,image_3.stopped,image_4.started,image_4.stopped,sound_icon3.started,sound_icon3.stopped,sound_3.started,sound_3.stopped,sound_icon4.started,sound_icon4.stopped,sound_4.started,sound_4.stopped,response_yes.started,response_yes.stopped,response_no.started,response_no.stopped,iti_blank.started,iti_blank.stopped,fixation_text.stopped,key_press.keys,key_press.corr,key_press.rt,participant,session,date,expName,psychopyVersion,frameRate,
,,,,,,,,,,,,,,,,,,,,,,,,,,,,,,,,,,,,,,,,,,,,,,,,,,,,14.37580204202095,14.37580204202095,2,6.502617040940095,,,,,,,,,,,,,,,,,,,,,,,,,,,,,,,,,,,,,,,,,,,,,,,,reldom2_s025,001,2025-03-07_10h10.58.238,Vis-B-Scan_AC,2022.2.5,None,
,,,,,,,,,,,,,,,,,,,,,,,,,,,,,,,,,,,,,,,,,,,,0,0,0,0,,,,,,,,,20.896191750012804,20.896191750012804,5,18.197841499990318,,,,,,,,,,,,,,,,,,,,,,,,,,,,,,,,,,,,,,,,,,,,reldom2_s025,001,2025-03-07_10h10.58.238,Vis-B-Scan_AC,2022.2.5,None,
,,,,,,,,,,,,,,,,,,,,,,,,,,,,,,,,,,,,,,,,,,,,1,0,1,0,,,,,,,,,39.10536183300428,39.10536183300428,5,1.9873804159578867,,,,,,,,,,,,,,,,,,,,,,,,,,,,,,,,,,,,,,,,,,,,reldom2_s025,001,2025-03-07_10h10.58.238,Vis-B-Scan_AC,2022.2.5,None,
,,,,,,,,,,,,,,,,,,,,,,,,,,,,,,,,,,,,,,,,,,,,2,0,2,0,,,,,,,,,41.10557791701285,41.10557791701285,5,1.987281207984779,,,,,,,,,,,,,,,,,,,,,,,,,,,,,,,,,,,,,,,,,,,,reldom2_s025,001,2025-03-07_10h10.58.238,Vis-B-Scan_AC,2022.2.5,None,
,,,,,,,,,,,,,,,,,,,,,,,,,,,,,,,,,,,,,,,,,,,,3,0,3,0,,,,,,,,,43.11141679197317,43.11141679197317,5,1.9842268329812214,,,,,,,,,,,,,,,,,,,,,,,,,,,,,,,,,,,,,,,,,,,,reldom2_s025,001,2025-03-07_10h10.58.238,Vis-B-Scan_AC,2022.2.5,None,
0,0.0,None,fixation,stimulus/viswhere_stim/blank_white.png,stimulus/viswhere_stim/blank_white.png,stimulus/viswhat_stim/blank_white.png,stimulus/viswhat_stim/blank_white.png,stimulus/viswhere_stim/blank_white.png,stimulus/viswhere_stim/blank_white.png,stimulus/viswhere_stim/blank_white.png,stimulus/viswhere_stim/blank_white.png,0.0,0.0,0.0,0.0,0,0.0,0,0.0,0,0.0,0,0.0,0,0.0,0.0,0,0.0,0,0.0,0,0.0,0,0.0,0,0,0,0,0,0,0,0,16,,,,,0,0,0,0,,,,,,,,,45.30424529197626,45.30424529197626,45.30424529197626,45.30424529197626,45.30424529197626,45.30424529197626,45.30424529197626,45.30424529197626,45.21452749965635,45.30424529197626,45.30424529197626,45.30424529197626,45.21452749965635,45.30424529197626,45.30424529197626,45.30424529197626,45.30424529197626,45.30424529197626,45.30424529197626,45.30424529197626,45.30424529197626,45.30424529197626,45.30424529197626,45.30424529197626,45.30424529197626,45.30424529197626,45.30424529197626,45.264527499656346,45.30424529197626,45.30424529197626,45.30424529197626,45.264527499656346,45.30424529197626,45.30424529197626,45.30424529197626,45.30424529197626,45.30424529197626,50.488970750011504,50.488970750011504,61.46668195800157,None,0,,reldom2_s025,001,2025-03-07_10h10.58.238,Vis-B-Scan_AC,2022.2.5,None,
1,First_Order,1.0,viswhere,stimulus/viswhere_stim/blank_white.png,stimulus/viswhere_stim/blank_white.png,stimulus/viswhere_stim/150-deg_dot-left_royalblue.png,stimulus/viswhere_stim/150-deg_dot-right_peru.png,stimulus/viswhere_stim/blank_white.png,stimulus/viswhere_stim/dot_box.png,stimulus/viswhere_stim/dot_yes.png,stimulus/viswhere_stim/dot_no.png,None,Dot,None,Line,2,0.0,0,5.125,0,5.125,0,5.125,0,0.0,0.625,0,0.0,0,0.0,1,0.5,1,2.125,0,0,0,0,0,0,0,0,0,,,,,0,1,1,1,,,,,,,,,61.46668195800157,61.46668195800157,61.46668195800157,61.46668195800157,61.46668195800157,61.46668195800157,61.46668195800157,61.46668195800157,61.44868491698289,61.46668195800157,61.46668195800157,61.46668195800157,61.44868491698289,61.46668195800157,61.46668195800157,61.46668195800157,63.56932687497465,67.54361366701778,61.46668195800157,61.46668195800157,66.58749695797451,61.954298082971945,62.96689837501617,63.56932687497465,64.57175020797877,61.46668195800157,61.46668195800157,61.46535158364956,61.46668195800157,61.46668195800157,61.46668195800157,61.46535158364956,61.46668195800157,61.46668195800157,66.58749695797451,61.46668195800157,66.58749695797451,66.69531516701682,67.3197932500043,61.46668195800157,2,1,1.877413207956124,reldom2_s025,001,2025-03-07_10h10.58.238,Vis-B-Scan_AC,2022.2.5,None,
2,First_Order,1.0,viswhere,stimulus/viswhere_stim/blank_white.png,stimulus/viswhere_stim/blank_white.png,stimulus/viswhere_stim/30-deg_dot-left_salmon.png,stimulus/viswhere_stim/30-deg_dot-right_seagreen.png,stimulus/viswhere_stim/blank_white.png,stimulus/viswhere_stim/dot_box.png,stimulus/viswhere_stim/dot_yes.png,stimulus/viswhere_stim/dot_no.png,None,Dot,None,Line,2,0.0,0,5.125,0,5.125,0,5.125,0,0.0,0.625,0,0.0,0,0.0,1,0.5,1,2.125,0,0,0,0,0,0,0,0,0,,,,,0,2,2,2,,,,,,,,,67.54361366701778,67.54361366701778,67.54361366701778,67.54361366701778,67.54361366701778,67.54361366701778,67.54361366701778,67.54361366701778,67.52692354134827,67.54361366701778,67.54361366701778,67.54361366701778,67.52692354134827,67.54361366701778,67.54361366701778,67.54361366701778,69.64144091698108,73.60753183299676,67.54361366701778,67.54361366701778,72.665201833006,68.02963104197988,69.04138424998382,69.64144091698108,70.6574454579968,67.54361366701778,67.54361366701778,67.52692354134827,67.54361366701778,67.54361366701778,67.54361366701778,67.52692354134827,67.54361366701778,67.54361366701778,72.665201833006,67.54361366701778,72.665201833006,72.77233983296901,73.39407070801826,67.54361366701778,2,1,3.2634146659402177,reldom2_s025,001,2025-03-07_10h10.58.238,Vis-B-Scan_AC,2022.2.5,None,
3,First_Order,1.0,viswhere,stimulus/viswhere_stim/blank_white.png,stimulus/viswhere_stim/blank_white.png,stimulus/viswhere_stim/120-deg_dot-left_goldenrod.png,stimulus/viswhere_stim/30-deg_dot-left_slateblue.png,stimulus/viswhere_stim/blank_white.png,stimulus/viswhere_stim/dot_box.png,stimulus/viswhere_stim/dot_yes.png,stimulus/viswhere_stim/dot_no.png,None,Dot,None,Dot,1,0.0,0,5.125,0,5.125,0,5.125,0,0.0,0.625,0,0.0,0,0.0,1,0.5,1,2.125,0,0,0,0,0,0,0,0,0,,,,,0,3,3,3,,,,,,,,,73.60753183299676,73.60753183299676,73.60753183299676,73.60753183299676,73.60753183299676,73.60753183299676,73.60753183299676,73.60753183299676,73.59075029132266,73.60753183299676,73.60753183299676,73.60753183299676,73.59075029132266,73.60753183299676,73.60753183299676,73.60753183299676,75.71350837498903,79.6691736250068,73.60753183299676,73.60753183299676,78.73650687502231,74.09726633300306,75.11251883301884,75.71350837498903,76.71812199999113,73.60753183299676,73.60753183299676,73.59075029132266,73.60753183299676,73.60753183299676,73.60753183299676,73.59075029132266,73.60753183299676,73.60753183299676,78.73650687502231,73.60753183299676,78.73650687502231,78.82997600000817,79.46124866697937,73.60753183299676,1,1,0.9198605829733424,reldom2_s025,001,2025-03-07_10h10.58.238,Vis-B-Scan_AC,2022.2.5,None,
4,First_Order,1.0,viswhere,stimulus/viswhere_stim/blank_white.png,stimulus/viswhere_stim/blank_white.png,stimulus/viswhere_stim/150-deg_dot-right_royalblue.png,stimulus/viswhere_stim/30-deg_dot-right_salmon.png,stimulus/viswhere_stim/blank_white.png,stimulus/viswhere_stim/line_box.png,stimulus/viswhere_stim/line_yes.png,stimulus/viswhere_stim/line_no.png,None,Line,None,Dot,2,0.0,0,5.125,0,5.125,0,5.125,0,0.0,0.625,0,0.0,0,0.0,1,0.5,1,2.125,0,0,0,0,0,0,0,0,0,,,,,0,4,4,4,,,,,,,,,79.6691736250068,79.6691736250068,79.6691736250068,79.6691736250068,79.6691736250068,79.6691736250068,79.6691736250068,79.6691736250068,79.65142000031967,79.6691736250068,79.6691736250068,79.6691736250068,79.65142000031967,79.6691736250068,79.6691736250068,79.6691736250068,81.78620829200372,85.80234183301218,79.6691736250068,79.6691736250068,84.80254279199289,80.14618320798036,81.15814058302203,81.78620829200372,82.8007033750182,79.6691736250068,79.6691736250068,79.65142000031967,79.6691736250068,79.6691736250068,79.6691736250068,79.65142000031967,79.6691736250068,79.6691736250068,84.80254279199289,79.6691736250068,84.80254279199289,84.90045020799153,85.52887895802269,79.6691736250068,2,1,1.036377165990416,reldom2_s025,001,2025-03-07_10h10.58.238,Vis-B-Scan_AC,2022.2.5,None,
0,0.0,None,fixation,stimulus/viswhere_stim/blank_white.png,stimulus/viswhere_stim/blank_white.png,stimulus/viswhat_stim/blank_white.png,stimulus/viswhat_stim/blank_white.png,stimulus/viswhere_stim/blank_white.png,stimulus/viswhere_stim/blank_white.png,stimulus/viswhere_stim/blank_white.png,stimulus/viswhere_stim/blank_white.png,0.0,0.0,0.0,0.0,0,0.0,0,0.0,0,0.0,0,0.0,0,0.0,0.0,0,0.0,0,0.0,0,0.0,0,0.0,0,0,0,0,0,0,0,0,9,,,,,0,5,5,5,,,,,,,,,85.80234183301218,85.80234183301218,85.80234183301218,85.80234183301218,85.80234183301218,85.80234183301218,85.80234183301218,85.80234183301218,85.7089037913441,85.80234183301218,85.80234183301218,85.80234183301218,85.7089037913441,85.80234183301218,85.80234183301218,85.80234183301218,85.80234183301218,85.80234183301218,85.80234183301218,85.80234183301218,85.80234183301218,85.80234183301218,85.80234183301218,85.80234183301218,85.80234183301218,85.80234183301218,85.80234183301218,85.7589037913441,85.80234183301218,85.80234183301218,85.80234183301218,85.7589037913441,85.80234183301218,85.80234183301218,85.80234183301218,85.80234183301218,85.80234183301218,91.02044370799558,91.02044370799558,94.90565987501759,None,0,,reldom2_s025,001,2025-03-07_10h10.58.238,Vis-B-Scan_AC,2022.2.5,None,
5,Second_Order,1.0,viswhere,stimulus/viswhere_stim/90-deg_dot-left_mediumslateblue.png,stimulus/viswhere_stim/30-deg_dot-left_slateblue.png,stimulus/viswhere_stim/90-deg_dot-left_royalblue.png,stimulus/viswhere_stim/90-deg_dot-right_goldenrod.png,stimulus/viswhere_stim/match_blank.png,stimulus/viswhere_stim/match_box.png,stimulus/viswhere_stim/match_yes.png,stimulus/viswhere_stim/match_no.png,2.0,Match,Dot,Line,2,5.125,0,5.125,0,5.125,0,5.125,0,0.75,0.75,1,0.5,1,2.125,1,0.5,1,2.125,0,0,0,0,0,0,0,0,0,,,,,0,6,6,6,,,,,,,,,94.90565987501759,100.02452375000576,95.37969741702545,96.37794712500181,97.01248129201122,98.00200887501705,94.90565987501759,94.90565987501759,94.90421091668928,94.90565987501759,94.90565987501759,94.90565987501759,94.90421091668928,94.90565987501759,100.02452375000576,100.82023637497332,102.90429924998898,106.78368054202292,100.82023637497332,100.82023637497332,105.95335000002524,101.262743416999,102.27463129197713,102.90429924998898,103.90733870799886,100.82023637497332,100.82023637497332,100.80815583299845,100.82023637497332,100.82023637497332,100.82023637497332,100.80815583299845,100.82023637497332,100.82023637497332,105.95335000002524,100.82023637497332,105.95335000002524,106.00983308302239,106.78368054202292,100.82023637497332,2,1,0.6277474159724079,reldom2_s025,001,2025-03-07_10h10.58.238,Vis-B-Scan_AC,2022.2.5,None,
6,Second_Order,1.0,viswhere,stimulus/viswhere_stim/30-deg_dot-right_turquoise.png,stimulus/viswhere_stim/30-deg_dot-left_goldenrod.png,stimulus/viswhere_stim/60-deg_dot-left_salmon.png,stimulus/viswhere_stim/60-deg_dot-right_slateblue.png,stimulus/viswhere_stim/match_blank.png,stimulus/viswhere_stim/match_box.png,stimulus/viswhere_stim/match_yes.png,stimulus/viswhere_stim/match_no.png,1.0,Match,Line,Line,1,5.125,0,5.125,0,5.125,0,5.125,0,0.625,0.625,1,0.5,1,2.125,1,0.5,1,2.125,0,0,0,0,0,0,0,0,0,,,,,0,7,7,7,,,,,,,,,106.78368054202292,111.90178075002041,107.26931549998699,108.25890583300497,108.89480975002516,109.89226633298676,106.78368054202292,106.78368054202292,106.79767479201546,106.78368054202292,106.78368054202292,106.78368054202292,106.79767479201546,106.78368054202292,111.90178075002041,112.56735149997985,114.65243875002488,118.68054179201135,112.56735149997985,112.56735149997985,117.69786620797822,113.0231405000086,114.02833554201061,114.65243875002488,115.66472125001019,112.56735149997985,112.56735149997985,112.54863404134133,112.56735149997985,112.56735149997985,112.56735149997985,112.54863404134133,112.56735149997985,112.56735149997985,117.69786620797822,112.56735149997985,117.69786620797822,117.76683983299881,118.38806120801019,112.56735149997985,1,1,0.8676619160105474,reldom2_s025,001,2025-03-07_10h10.58.238,Vis-B-Scan_AC,2022.2.5,None,
0,0.0,None,fixation,stimulus/viswhere_stim/blank_white.png,stimulus/viswhere_stim/blank_white.png,stimulus/viswhat_stim/blank_white.png,stimulus/viswhat_stim/blank_white.png,stimulus/viswhere_stim/blank_white.png,stimulus/viswhere_stim/blank_white.png,stimulus/viswhere_stim/blank_white.png,stimulus/viswhere_stim/blank_white.png,0.0,0.0,0.0,0.0,0,0.0,0,0.0,0,0.0,0,0.0,0,0.0,0.0,0,0.0,0,0.0,0,0.0,0,0.0,0,0,0,0,0,0,0,0,9,,,,,0,8,8,8,,,,,,,,,118.68054179201135,118.68054179201135,118.68054179201135,118.68054179201135,118.68054179201135,118.68054179201135,118.68054179201135,118.68054179201135,118.58473245830585,118.68054179201135,118.68054179201135,118.68054179201135,118.58473245830585,118.68054179201135,118.68054179201135,118.68054179201135,118.68054179201135,118.68054179201135,118.68054179201135,118.68054179201135,118.68054179201135,118.68054179201135,118.68054179201135,118.68054179201135,118.68054179201135,118.68054179201135,118.68054179201135,118.63473245830585,118.68054179201135,118.68054179201135,118.68054179201135,118.63473245830585,118.68054179201135,118.68054179201135,118.68054179201135,118.68054179201135,118.68054179201135,123.8960415420006,123.8960415420006,127.85240924998652,None,0,,reldom2_s025,001,2025-03-07_10h10.58.238,Vis-B-Scan_AC,2022.2.5,None,
7,First_Order,2.0,viswhere,stimulus/viswhere_stim/blank_white.png,stimulus/viswhere_stim/blank_white.png,stimulus/viswhere_stim/60-deg_dot-right_peru.png,stimulus/viswhere_stim/120-deg_dot-right_goldenrod.png,stimulus/viswhere_stim/blank_white.png,stimulus/viswhere_stim/line_box.png,stimulus/viswhere_stim/line_yes.png,stimulus/viswhere_stim/line_no.png,None,Line,None,Dot,2,0.0,0,5.125,0,5.125,0,5.125,0,0.0,0.625,0,0.0,0,0.0,1,0.5,1,2.125,0,0,0,0,0,0,0,0,0,,,,,0,9,9,9,,,,,,,,,127.85240924998652,127.85240924998652,127.85240924998652,127.85240924998652,127.85240924998652,127.85240924998652,127.85240924998652,127.85240924998652,127.83433783366733,127.85240924998652,127.85240924998652,127.85240924998652,127.83433783366733,127.85240924998652,127.85240924998652,127.85240924998652,129.9622620830196,133.90673837502254,127.85240924998652,127.85240924998652,132.99509616702562,128.32791624998208,129.33686195797054,129.9622620830196,130.97739000001457,127.85240924998652,127.85240924998652,127.83433783366733,127.85240924998652,127.85240924998652,127.85240924998652,127.83433783366733,127.85240924998652,127.85240924998652,132.99509616702562,127.85240924998652,132.99509616702562,133.08121779200155,133.70331445802003,127.85240924998652,2,1,0.5812867499771528,reldom2_s025,001,2025-03-07_10h10.58.238,Vis-B-Scan_AC,2022.2.5,None,
8,First_Order,2.0,viswhere,stimulus/viswhere_stim/blank_white.png,stimulus/viswhere_stim/blank_white.png,stimulus/viswhere_stim/90-deg_dot-left_turquoise.png,stimulus/viswhere_stim/90-deg_dot-right_peru.png,stimulus/viswhere_stim/blank_white.png,stimulus/viswhere_stim/line_box.png,stimulus/viswhere_stim/line_yes.png,stimulus/viswhere_stim/line_no.png,None,Line,None,Line,1,0.0,0,5.125,0,5.125,0,5.125,0,0.0,0.625,0,0.0,0,0.0,1,0.5,1,2.125,0,0,0,0,0,0,0,0,0,,,,,0,10,10,10,,,,,,,,,133.90673837502254,133.90673837502254,133.90673837502254,133.90673837502254,133.90673837502254,133.90673837502254,133.90673837502254,133.90673837502254,133.88692091634343,133.90673837502254,133.90673837502254,133.90673837502254,133.88692091634343,133.90673837502254,133.90673837502254,133.90673837502254,136.00502849998884,139.96803670801455,133.90673837502254,133.90673837502254,139.03010070801247,134.38246216700645,135.39598887501052,136.00502849998884,137.02237391698873,133.90673837502254,133.90673837502254,133.9035875830101,133.90673837502254,133.90673837502254,133.90673837502254,133.9035875830101,133.90673837502254,133.90673837502254,139.03010070801247,133.90673837502254,139.03010070801247,139.12861658300972,139.75441004202003,133.90673837502254,2,0,1.476564957993105,reldom2_s025,001,2025-03-07_10h10.58.238,Vis-B-Scan_AC,2022.2.5,None,
9,First_Order,2.0,viswhere,stimulus/viswhere_stim/blank_white.png,stimulus/viswhere_stim/blank_white.png,stimulus/viswhere_stim/60-deg_dot-right_seagreen.png,stimulus/viswhere_stim/120-deg_dot-right_salmon.png,stimulus/viswhere_stim/blank_white.png,stimulus/viswhere_stim/dot_box.png,stimulus/viswhere_stim/dot_yes.png,stimulus/viswhere_stim/dot_no.png,None,Dot,None,Dot,1,0.0,0,5.125,0,5.125,0,5.125,0,0.0,0.625,0,0.0,0,0.0,1,0.5,1,2.125,0,0,0,0,0,0,0,0,0,,,,,0,11,11,11,,,,,,,,,139.96803670801455,139.96803670801455,139.96803670801455,139.96803670801455,139.96803670801455,139.96803670801455,139.96803670801455,139.96803670801455,139.9477141663277,139.96803670801455,139.96803670801455,139.96803670801455,139.9477141663277,139.96803670801455,139.96803670801455,139.96803670801455,142.0827360000112,146.02500920800958,139.96803670801455,139.96803670801455,145.09472070797347,140.44481424998958,141.45595258299727,142.0827360000112,143.09528649999993,139.96803670801455,139.96803670801455,139.96438083299438,139.96803670801455,139.96803670801455,139.96803670801455,139.96438083299438,139.96803670801455,139.96803670801455,145.09472070797347,139.96803670801455,145.09472070797347,145.19243345799623,145.82481641700724,139.96803670801455,1,1,1.1170359160169028,reldom2_s025,001,2025-03-07_10h10.58.238,Vis-B-Scan_AC,2022.2.5,None,
10,First_Order,2.0,viswhere,stimulus/viswhere_stim/blank_white.png,stimulus/viswhere_stim/blank_white.png,stimulus/viswhere_stim/120-deg_dot-right_cyan.png,stimulus/viswhere_stim/120-deg_dot-left_turquoise.png,stimulus/viswhere_stim/blank_white.png,stimulus/viswhere_stim/line_box.png,stimulus/viswhere_stim/line_yes.png,stimulus/viswhere_stim/line_no.png,None,Line,None,Line,1,0.0,0,5.125,0,5.125,0,5.125,0,0.0,0.625,0,0.0,0,0.0,1,0.5,1,2.125,0,0,0,0,0,0,0,0,0,,,,,0,12,12,12,,,,,,,,,146.02500920800958,146.02500920800958,146.02500920800958,146.02500920800958,146.02500920800958,146.02500920800958,146.02500920800958,146.02500920800958,146.00470337535566,146.02500920800958,146.02500920800958,146.02500920800958,146.00470337535566,146.02500920800958,146.02500920800958,146.02500920800958,148.123361749982,152.16970062500332,146.02500920800958,146.02500920800958,151.1622907500132,146.50330516701797,147.5153405420133,148.123361749982,149.14023070799885,146.02500920800958,146.02500920800958,146.02137004202234,146.02500920800958,146.02500920800958,146.02500920800958,146.02137004202234,146.02500920800958,146.02500920800958,151.1622907500132,146.02500920800958,151.1622907500132,151.24469891696936,151.88856345799286,146.02500920800958,1,1,0.7508041239343584,reldom2_s025,001,2025-03-07_10h10.58.238,Vis-B-Scan_AC,2022.2.5,None,
0,0.0,None,fixation,stimulus/viswhere_stim/blank_white.png,stimulus/viswhere_stim/blank_white.png,stimulus/viswhat_stim/blank_white.png,stimulus/viswhat_stim/blank_white.png,stimulus/viswhere_stim/blank_white.png,stimulus/viswhere_stim/blank_white.png,stimulus/viswhere_stim/blank_white.png,stimulus/viswhere_stim/blank_white.png,0.0,0.0,0.0,0.0,0,0.0,0,0.0,0,0.0,0,0.0,0,0.0,0.0,0,0.0,0,0.0,0,0.0,0,0.0,0,0,0,0,0,0,0,0,8,,,,,0,13,13,13,,,,,,,,,152.16970062500332,152.16970062500332,152.16970062500332,152.16970062500332,152.16970062500332,152.16970062500332,152.16970062500332,152.16970062500332,152.07210483334106,152.16970062500332,152.16970062500332,152.16970062500332,152.07210483334106,152.16970062500332,152.16970062500332,152.16970062500332,152.16970062500332,152.16970062500332,152.16970062500332,152.16970062500332,152.16970062500332,152.16970062500332,152.16970062500332,152.16970062500332,152.16970062500332,152.16970062500332,152.16970062500332,152.12210483334107,152.16970062500332,152.16970062500332,152.16970062500332,152.12210483334107,152.16970062500332,152.16970062500332,152.16970062500332,152.16970062500332,152.16970062500332,157.3918490000069,157.3918490000069,160.27744562498992,None,0,,reldom2_s025,001,2025-03-07_10h10.58.238,Vis-B-Scan_AC,2022.2.5,None,
11,Second_Order,2.0,viswhere,stimulus/viswhere_stim/120-deg_dot-left_slateblue.png,stimulus/viswhere_stim/60-deg_dot-left_seagreen.png,stimulus/viswhere_stim/90-deg_dot-right_seagreen.png,stimulus/viswhere_stim/30-deg_dot-right_mediumslateblue.png,stimulus/viswhere_stim/match_blank.png,stimulus/viswhere_stim/match_box.png,stimulus/viswhere_stim/match_yes.png,stimulus/viswhere_stim/match_no.png,1.0,Match,Dot,Dot,1,5.125,0,5.125,0,5.125,0,5.125,0,0.75,0.75,1,0.5,1,2.125,1,0.5,1,2.125,0,0,0,0,0,0,0,0,0,,,,,0,14,14,14,,,,,,,,,160.27744562498992,165.3932917920174,160.75927824998507,161.74966154200956,162.38470125000458,163.38267287501367,160.27744562498992,160.27744562498992,160.29222875033352,160.27744562498992,160.27744562498992,160.27744562498992,160.29222875033352,160.27744562498992,165.3932917920174,166.18312658299692,168.25376395799685,172.15554349997547,166.18312658299692,166.18312658299692,171.31008579197805,166.64514354197308,167.66217575001065,168.25376395799685,169.25676883297274,166.18312658299692,166.18312658299692,166.15911033331264,166.18312658299692,166.18312658299692,166.18312658299692,166.15911033331264,166.18312658299692,166.18312658299692,171.31008579197805,166.18312658299692,171.31008579197805,171.380743583024,172.15554349997547,166.18312658299692,1,1,1.4492850419483148,reldom2_s025,001,2025-03-07_10h10.58.238,Vis-B-Scan_AC,2022.2.5,None,
12,Second_Order,2.0,viswhere,stimulus/viswhere_stim/90-deg_dot-right_cyan.png,stimulus/viswhere_stim/90-deg_dot-left_salmon.png,stimulus/viswhere_stim/30-deg_dot-left_goldenrod.png,stimulus/viswhere_stim/60-deg_dot-left_turquoise.png,stimulus/viswhere_stim/match_blank.png,stimulus/viswhere_stim/match_box.png,stimulus/viswhere_stim/match_yes.png,stimulus/viswhere_stim/match_no.png,2.0,Match,Line,Dot,2,5.125,0,5.125,0,5.125,0,5.125,0,0.625,0.625,1,0.5,1,2.125,1,0.5,1,2.125,0,0,0,0,0,0,0,0,0,,,,,0,15,15,15,,,,,,,,,172.15554349997547,177.26955099997576,172.63956245797453,173.62689345801482,174.26224779197946,175.26003399997717,172.15554349997547,172.15554349997547,172.16858112498886,172.15554349997547,172.15554349997547,172.15554349997547,172.16858112498886,172.15554349997547,177.26955099997576,177.93906716699712,180.02028229198186,184.0536317920196,177.93906716699712,177.93906716699712,183.0637810420012,178.39951691700844,179.4102079999866,180.02028229198186,181.03608150000218,177.93906716699712,177.93906716699712,177.91618716630234,177.93906716699712,177.93906716699712,177.93906716699712,177.91618716630234,177.93906716699712,177.93906716699712,183.0637810420012,177.93906716699712,183.0637810420012,183.1328558329842,183.76209291699342,177.93906716699712,2,1,2.0285701669636182,reldom2_s025,001,2025-03-07_10h10.58.238,Vis-B-Scan_AC,2022.2.5,None,
0,0.0,None,fixation,stimulus/viswhere_stim/blank_white.png,stimulus/viswhere_stim/blank_white.png,stimulus/viswhat_stim/blank_white.png,stimulus/viswhat_stim/blank_white.png,stimulus/viswhere_stim/blank_white.png,stimulus/viswhere_stim/blank_white.png,stimulus/viswhere_stim/blank_white.png,stimulus/viswhere_stim/blank_white.png,0.0,0.0,0.0,0.0,0,0.0,0,0.0,0,0.0,0,0.0,0,0.0,0.0,0,0.0,0,0.0,0,0.0,0,0.0,0,0,0,0,0,0,0,0,10,,,,,0,16,16,16,,,,,,,,,184.0536317920196,184.0536317920196,184.0536317920196,184.0536317920196,184.0536317920196,184.0536317920196,184.0536317920196,184.0536317920196,183.9561685413549,184.0536317920196,184.0536317920196,184.0536317920196,183.9561685413549,184.0536317920196,184.0536317920196,184.0536317920196,184.0536317920196,184.0536317920196,184.0536317920196,184.0536317920196,184.0536317920196,184.0536317920196,184.0536317920196,184.0536317920196,184.0536317920196,184.0536317920196,184.0536317920196,184.00616854135492,184.0536317920196,184.0536317920196,184.0536317920196,184.00616854135492,184.0536317920196,184.0536317920196,184.0536317920196,184.0536317920196,184.0536317920196,189.23937137500616,189.23937137500616,194.3447933329735,None,0,,reldom2_s025,001,2025-03-07_10h10.58.238,Vis-B-Scan_AC,2022.2.5,None,
13,First_Order,3.0,viswhat,stimulus/viswhat_stim/blank_white.png,stimulus/viswhat_stim/blank_white.png,stimulus/viswhat_stim/land_animal-moose.png,stimulus/viswhat_stim/water_animal-whale (1).png,stimulus/viswhat_stim/blank_white.png,stimulus/viswhat_stim/type_box.png,stimulus/viswhat_stim/type_yes.png,stimulus/viswhat_stim/type_no.png,None,Type,None,Type,1,0.0,0,5.125,0,5.125,0,5.125,0,0.0,0.625,0,0.0,0,0.0,1,0.5,1,2.125,0,0,0,0,0,0,0,0,0,,,,,0,17,17,17,,,,,,,,,194.3447933329735,194.3447933329735,194.3447933329735,194.3447933329735,194.3447933329735,194.3447933329735,194.3447933329735,194.3447933329735,194.24222587466164,194.3447933329735,194.3447933329735,194.3447933329735,194.24222587466164,194.3447933329735,194.3447933329735,194.3447933329735,196.4503021669807,,194.3447933329735,194.3447933329735,199.54941495798994,194.8116941669723,195.86536608298775,196.4503021669807,197.50828354200348,194.3447933329735,194.3447933329735,194.29222587466163,194.3447933329735,194.3447933329735,194.3447933329735,194.29222587466163,194.3447933329735,194.3447933329735,199.54941495798994,194.3447933329735,199.54941495798994,199.54941495798994,200.38039216701873,194.3447933329735,1,1,1.0328932919655927,reldom2_s025,001,2025-03-07_10h10.58.238,Vis-B-Scan_AC,2022.2.5,None,
14,First_Order,3.0,viswhat,stimulus/viswhat_stim/blank_white.png,stimulus/viswhat_stim/blank_white.png,stimulus/viswhat_stim/land_vehicle-trolley.png,stimulus/viswhat_stim/water_vehicle-jetski.png,stimulus/viswhat_stim/blank_white.png,stimulus/viswhat_stim/location_box.png,stimulus/viswhat_stim/location_yes.png,stimulus/viswhat_stim/location_no.png,None,Location,None,Type,2,0.0,0,5.125,0,5.125,0,5.125,0,0.0,0.625,0,0.0,0,0.0,1,0.5,1,2.125,0,0,0,0,0,0,0,0,0,,,,,0,18,18,18,,,,,,,,,200.38039216701873,200.38039216701873,200.38039216701873,200.38039216701873,200.38039216701873,200.38039216701873,200.38039216701873,200.38039216701873,200.3494111246934,200.38039216701873,200.38039216701873,200.38039216701873,200.3494111246934,200.38039216701873,200.38039216701873,200.38039216701873,202.4900052919984,206.4463483329746,200.38039216701873,200.38039216701873,205.50761500000954,200.85810691700317,201.889565917023,202.4900052919984,203.5223102499731,200.38039216701873,200.38039216701873,200.36607779136006,200.38039216701873,200.38039216701873,200.38039216701873,200.36607779136006,200.38039216701873,200.38039216701873,205.50761500000954,200.38039216701873,205.50761500000954,205.6045577499899,206.24395620799623,200.38039216701873,2,1,1.1592464579734951,reldom2_s025,001,2025-03-07_10h10.58.238,Vis-B-Scan_AC,2022.2.5,None,
15,First_Order,3.0,viswhat,stimulus/viswhat_stim/blank_white.png,stimulus/viswhat_stim/blank_white.png,stimulus/viswhat_stim/land_animal-ostrich.png,stimulus/viswhat_stim/land_vehicle-train.png,stimulus/viswhat_stim/blank_white.png,stimulus/viswhat_stim/location_box.png,stimulus/viswhat_stim/location_yes.png,stimulus/viswhat_stim/location_no.png,None,Location,None,Location,1,0.0,0,5.125,0,5.125,0,5.125,0,0.0,0.625,0,0.0,0,0.0,1,0.5,1,2.125,0,0,0,0,0,0,0,0,0,,,,,0,19,19,19,,,,,,,,,206.4463483329746,206.4463483329746,206.4463483329746,206.4463483329746,206.4463483329746,206.4463483329746,206.4463483329746,206.4463483329746,206.4212375000003,206.4463483329746,206.4463483329746,206.4463483329746,206.4212375000003,206.4463483329746,206.4463483329746,206.4463483329746,208.54177933296887,212.85227558301995,206.4463483329746,206.4463483329746,211.58610795799177,206.93048649997218,207.9454472080106,208.54177933296887,209.56046516698552,206.4463483329746,206.4463483329746,206.43790416666695,206.4463483329746,206.4463483329746,206.4463483329746,206.43790416666695,206.4463483329746,206.4463483329746,211.58610795799177,206.4463483329746,211.58610795799177,211.67272929201135,212.312332624977,206.4463483329746,1,1,1.0959377079852857,reldom2_s025,001,2025-03-07_10h10.58.238,Vis-B-Scan_AC,2022.2.5,None,
16,First_Order,3.0,viswhat,stimulus/viswhat_stim/blank_white.png,stimulus/viswhat_stim/blank_white.png,stimulus/viswhat_stim/water_animal-lobster.png,stimulus/viswhat_stim/land_animal-moose.png,stimulus/viswhat_stim/blank_white.png,stimulus/viswhat_stim/location_box.png,stimulus/viswhat_stim/location_yes.png,stimulus/viswhat_stim/location_no.png,None,Location,None,Type,2,0.0,0,5.125,0,5.125,0,5.125,0,0.0,0.625,0,0.0,0,0.0,1,0.5,1,2.125,0,0,0,0,0,0,0,0,0,,,,,0,20,20,20,,,,,,,,,212.85227558301995,212.85227558301995,212.85227558301995,212.85227558301995,212.85227558301995,212.85227558301995,212.85227558301995,212.85227558301995,212.48314787530884,212.85227558301995,212.85227558301995,212.85227558301995,212.48314787530884,212.85227558301995,212.85227558301995,212.85227558301995,214.823964582989,,212.85227558301995,212.85227558301995,218.22427145799156,213.213031375024,214.46621266700095,214.823964582989,216.08102683298057,212.85227558301995,212.85227558301995,212.66648120864218,212.85227558301995,212.85227558301995,212.85227558301995,212.66648120864218,212.85227558301995,212.85227558301995,218.22427145799156,212.85227558301995,218.22427145799156,218.05102487502154,,212.85227558301995,2,1,0.9430175829911605,reldom2_s025,001,2025-03-07_10h10.58.238,Vis-B-Scan_AC,2022.2.5,None,
0,0.0,None,fixation,stimulus/viswhere_stim/blank_white.png,stimulus/viswhere_stim/blank_white.png,stimulus/viswhat_stim/blank_white.png,stimulus/viswhat_stim/blank_white.png,stimulus/viswhere_stim/blank_white.png,stimulus/viswhere_stim/blank_white.png,stimulus/viswhere_stim/blank_white.png,stimulus/viswhere_stim/blank_white.png,0.0,0.0,0.0,0.0,0,0.0,0,0.0,0,0.0,0,0.0,0,0.0,0.0,0,0.0,0,0.0,0,0.0,0,0.0,0,0,0,0,0,0,0,0,8,,,,,0,21,21,21,,,,,,,,,218.90067687502597,218.90067687502597,218.90067687502597,218.90067687502597,218.90067687502597,218.90067687502597,218.90067687502597,218.90067687502597,218.7976558750146,218.90067687502597,218.90067687502597,218.90067687502597,218.7976558750146,218.90067687502597,218.90067687502597,218.90067687502597,218.90067687502597,218.90067687502597,218.90067687502597,218.90067687502597,218.90067687502597,218.90067687502597,218.90067687502597,218.90067687502597,218.90067687502597,218.90067687502597,218.90067687502597,218.84765587501462,218.90067687502597,218.90067687502597,218.90067687502597,218.84765587501462,218.90067687502597,218.90067687502597,218.90067687502597,218.90067687502597,218.90067687502597,224.09174275002442,224.09174275002442,227.07080300000962,None,0,,reldom2_s025,001,2025-03-07_10h10.58.238,Vis-B-Scan_AC,2022.2.5,None,
17,Second_Order,3.0,viswhat,stimulus/viswhat_stim/land_animal-giraffe.png,stimulus/viswhat_stim/water_animal-stingray.png,stimulus/viswhat_stim/water_animal-squid.png,stimulus/viswhat_stim/water_vehicle-yacht.png,stimulus/viswhere_stim/match_blank.png,stimulus/viswhere_stim/match_box.png,stimulus/viswhere_stim/match_yes.png,stimulus/viswhere_stim/match_no.png,2.0,Match,Type,Location,2,5.125,0,5.125,0,5.125,0,5.125,0,0.75,0.75,1,0.5,1,2.125,1,0.5,1,2.125,0,0,0,0,0,0,0,0,0,,,,,0,22,22,22,,,,,,,,,227.07080300000962,232.19153554202057,227.51625495799817,228.50423529196996,229.15106666699285,230.1407587499707,227.07080300000962,227.07080300000962,227.07321099998663,227.07080300000962,227.07080300000962,227.07080300000962,227.07321099998663,227.07080300000962,232.19153554202057,233.03052587498678,235.100408667,239.01898666698253,233.03052587498678,233.03052587498678,238.18837512499886,233.48060337500647,234.5358622079948,235.100408667,236.12183891702443,233.03052587498678,233.03052587498678,232.99318687467994,233.03052587498678,233.03052587498678,233.03052587498678,232.99318687467994,233.03052587498678,233.03052587498678,238.18837512499886,233.03052587498678,238.18837512499886,238.22033004200784,,233.03052587498678,2,1,0.8541453329962678,reldom2_s025,001,2025-03-07_10h10.58.238,Vis-B-Scan_AC,2022.2.5,None,
18,Second_Order,3.0,viswhat,stimulus/viswhat_stim/water_animal-whale (1).png,stimulus/viswhat_stim/land_animal-tiger.png,stimulus/viswhat_stim/water_animal-orka.png,stimulus/viswhat_stim/water_vehicle-cargoboat.png,stimulus/viswhere_stim/match_blank.png,stimulus/viswhere_stim/match_box.png,stimulus/viswhere_stim/match_yes.png,stimulus/viswhere_stim/match_no.png,2.0,Match,Type,Location,2,5.125,0,5.125,0,5.125,0,5.125,0,0.625,0.625,1,0.5,1,2.125,1,0.5,1,2.125,0,0,0,0,0,0,0,0,0,,,,,0,23,23,23,,,,,,,,,239.01898666698253,244.14077670802362,239.47800883301534,240.46465312497457,241.10387029201956,242.10216675000265,239.01898666698253,239.01898666698253,239.02345433298035,239.01898666698253,239.01898666698253,239.01898666698253,239.02345433298035,239.01898666698253,244.14077670802362,244.91158695798367,246.95492300001206,,244.91158695798367,244.91158695798367,250.12174929201137,245.3071934999898,246.36058991699247,246.95492300001206,248.0151582499966,244.91158695798367,244.91158695798367,244.85384791701802,244.91158695798367,244.91158695798367,244.91158695798367,244.85384791701802,244.91158695798367,244.91158695798367,250.12174929201137,244.91158695798367,250.12174929201137,250.06133320799563,251.00452895800117,244.91158695798367,2,1,0.6936438329867087,reldom2_s025,001,2025-03-07_10h10.58.238,Vis-B-Scan_AC,2022.2.5,None,
0,0.0,None,fixation,stimulus/viswhere_stim/blank_white.png,stimulus/viswhere_stim/blank_white.png,stimulus/viswhat_stim/blank_white.png,stimulus/viswhat_stim/blank_white.png,stimulus/viswhere_stim/blank_white.png,stimulus/viswhere_stim/blank_white.png,stimulus/viswhere_stim/blank_white.png,stimulus/viswhere_stim/blank_white.png,0.0,0.0,0.0,0.0,0,0.0,0,0.0,0,0.0,0,0.0,0,0.0,0.0,0,0.0,0,0.0,0,0.0,0,0.0,0,0,0,0,0,0,0,0,9,,,,,0,24,24,24,,,,,,,,,251.00452895800117,251.00452895800117,251.00452895800117,251.00452895800117,251.00452895800117,251.00452895800117,251.00452895800117,251.00452895800117,250.90995220832605,251.00452895800117,251.00452895800117,251.00452895800117,250.90995220832605,251.00452895800117,251.00452895800117,251.00452895800117,251.00452895800117,251.00452895800117,251.00452895800117,251.00452895800117,251.00452895800117,251.00452895800117,251.00452895800117,251.00452895800117,251.00452895800117,251.00452895800117,251.00452895800117,250.95995220832606,251.00452895800117,251.00452895800117,251.00452895800117,250.95995220832606,251.00452895800117,251.00452895800117,251.00452895800117,251.00452895800117,251.00452895800117,256.20328858302673,256.20328858302673,260.2379334170255,None,0,,reldom2_s025,001,2025-03-07_10h10.58.238,Vis-B-Scan_AC,2022.2.5,None,
19,First_Order,4.0,viswhat,stimulus/viswhat_stim/blank_white.png,stimulus/viswhat_stim/blank_white.png,stimulus/viswhat_stim/water_animal-dolphin.png,stimulus/viswhat_stim/water_vehicle-canoe.png,stimulus/viswhat_stim/blank_white.png,stimulus/viswhat_stim/type_box.png,stimulus/viswhat_stim/type_yes.png,stimulus/viswhat_stim/type_no.png,None,Type,None,Location,2,0.0,0,5.125,0,5.125,0,5.125,0,0.0,0.625,0,0.0,0,0.0,1,0.5,1,2.125,0,0,0,0,0,0,0,0,0,,,,,0,25,25,25,,,,,,,,,260.2379334170255,260.2379334170255,260.2379334170255,260.2379334170255,260.2379334170255,260.2379334170255,260.2379334170255,260.2379334170255,260.1972089996367,260.2379334170255,260.2379334170255,260.2379334170255,260.1972089996367,260.2379334170255,260.2379334170255,260.2379334170255,262.3467967499746,266.38490766700124,260.2379334170255,260.2379334170255,265.38311570801307,260.6998804169707,261.71270408300916,262.3467967499746,263.3601550000021,260.2379334170255,260.2379334170255,260.2138756663034,260.2379334170255,260.2379334170255,260.2379334170255,260.2138756663034,260.2379334170255,260.2379334170255,265.38311570801307,260.2379334170255,265.38311570801307,265.453917249979,266.10667416697834,260.2379334170255,2,1,2.0009629579726607,reldom2_s025,001,2025-03-07_10h10.58.238,Vis-B-Scan_AC,2022.2.5,None,
20,First_Order,4.0,viswhat,stimulus/viswhat_stim/blank_white.png,stimulus/viswhat_stim/blank_white.png,stimulus/viswhat_stim/land_animal-elephant.png,stimulus/viswhat_stim/land_vehicle-pickuptruck.png,stimulus/viswhat_stim/blank_white.png,stimulus/viswhat_stim/type_box.png,stimulus/viswhat_stim/type_yes.png,stimulus/viswhat_stim/type_no.png,None,Type,None,Location,2,0.0,0,5.125,0,5.125,0,5.125,0,0.0,0.625,0,0.0,0,0.0,1,0.5,1,2.125,0,0,0,0,0,0,0,0,0,,,,,0,26,26,26,,,,,,,,,266.38490766700124,266.38490766700124,266.38490766700124,266.38490766700124,266.38490766700124,266.38490766700124,266.38490766700124,266.38490766700124,266.2767075419775,266.38490766700124,266.38490766700124,266.38490766700124,266.2767075419775,266.38490766700124,266.38490766700124,266.38490766700124,268.462437707989,,266.38490766700124,266.38490766700124,271.5466518329922,266.8609258750221,267.93039479199797,268.462437707989,269.53255633299705,266.38490766700124,266.38490766700124,266.3267075419775,266.38490766700124,266.38490766700124,266.38490766700124,266.3267075419775,266.38490766700124,266.38490766700124,271.5466518329922,266.38490766700124,271.5466518329922,271.60088129201904,272.63915954198455,266.38490766700124,2,1,1.3022432499565184,reldom2_s025,001,2025-03-07_10h10.58.238,Vis-B-Scan_AC,2022.2.5,None,
21,First_Order,4.0,viswhat,stimulus/viswhat_stim/blank_white.png,stimulus/viswhat_stim/blank_white.png,stimulus/viswhat_stim/water_vehicle-cruiseship.png,stimulus/viswhat_stim/land_vehicle-oldcar.png,stimulus/viswhat_stim/blank_white.png,stimulus/viswhat_stim/type_box.png,stimulus/viswhat_stim/type_yes.png,stimulus/viswhat_stim/type_no.png,None,Type,None,Type,1,0.0,0,5.125,0,5.125,0,5.125,0,0.0,0.625,0,0.0,0,0.0,1,0.5,1,2.125,0,0,0,0,0,0,0,0,0,,,,,0,27,27,27,,,,,,,,,272.63915954198455,272.63915954198455,272.63915954198455,272.63915954198455,272.63915954198455,272.63915954198455,272.63915954198455,272.63915954198455,272.4112265836835,272.63915954198455,272.63915954198455,272.63915954198455,272.4112265836835,272.63915954198455,272.63915954198455,272.63915954198455,274.7212949579698,278.7964070829912,272.63915954198455,272.63915954198455,277.9559887080104,273.1034476669738,274.2595119170146,274.7212949579698,275.87869987497106,272.63915954198455,272.63915954198455,272.5278932503502,272.63915954198455,272.63915954198455,272.63915954198455,272.5278932503502,272.63915954198455,272.63915954198455,277.9559887080104,272.63915954198455,277.9559887080104,277.84606666699983,,272.63915954198455,1,1,2.431284374964889,reldom2_s025,001,2025-03-07_10h10.58.238,Vis-B-Scan_AC,2022.2.5,None,
22,First_Order,4.0,viswhat,stimulus/viswhat_stim/blank_white.png,stimulus/viswhat_stim/blank_white.png,stimulus/viswhat_stim/water_vehicle-pirateship.png,stimulus/viswhat_stim/water_animal-orka.png,stimulus/viswhat_stim/blank_white.png,stimulus/viswhat_stim/location_box.png,stimulus/viswhat_stim/location_yes.png,stimulus/viswhat_stim/location_no.png,None,Location,None,Location,1,0.0,0,5.125,0,5.125,0,5.125,0,0.0,0.625,0,0.0,0,0.0,1,0.5,1,2.125,0,0,0,0,0,0,0,0,0,,,,,0,28,28,28,,,,,,,,,278.7964070829912,278.7964070829912,278.7964070829912,278.7964070829912,278.7964070829912,278.7964070829912,278.7964070829912,278.7964070829912,278.6799299163472,278.7964070829912,278.7964070829912,278.7964070829912,278.6799299163472,278.7964070829912,278.7964070829912,278.7964070829912,280.87590074999025,,278.7964070829912,278.7964070829912,283.9694044580101,279.26461541699246,280.33807404199615,280.87590074999025,281.9570295420126,278.7964070829912,278.7964070829912,278.7299299163472,278.7964070829912,278.7964070829912,278.7964070829912,278.7299299163472,278.7964070829912,278.7964070829912,283.9694044580101,278.7964070829912,283.9694044580101,283.9694044580101,284.6443118749885,278.7964070829912,1,1,0.9152207499719225,reldom2_s025,001,2025-03-07_10h10.58.238,Vis-B-Scan_AC,2022.2.5,None,
0,0.0,None,fixation,stimulus/viswhere_stim/blank_white.png,stimulus/viswhere_stim/blank_white.png,stimulus/viswhat_stim/blank_white.png,stimulus/viswhat_stim/blank_white.png,stimulus/viswhere_stim/blank_white.png,stimulus/viswhere_stim/blank_white.png,stimulus/viswhere_stim/blank_white.png,stimulus/viswhere_stim/blank_white.png,0.0,0.0,0.0,0.0,0,0.0,0,0.0,0,0.0,0,0.0,0,0.0,0.0,0,0.0,0,0.0,0,0.0,0,0.0,0,0,0,0,0,0,0,0,10,,,,,0,29,29,29,,,,,,,,,284.92347849998623,284.92347849998623,284.92347849998623,284.92347849998623,284.92347849998623,284.92347849998623,284.92347849998623,284.92347849998623,284.8276452083218,284.92347849998623,284.92347849998623,284.92347849998623,284.8276452083218,284.92347849998623,284.92347849998623,284.92347849998623,284.92347849998623,284.92347849998623,284.92347849998623,284.92347849998623,284.92347849998623,284.92347849998623,284.92347849998623,284.92347849998623,284.92347849998623,284.92347849998623,284.92347849998623,284.8776452083218,284.92347849998623,284.92347849998623,284.92347849998623,284.8776452083218,284.92347849998623,284.92347849998623,284.92347849998623,284.92347849998623,284.92347849998623,290.11631574999774,290.11631574999774,295.0753525000182,None,0,,reldom2_s025,001,2025-03-07_10h10.58.238,Vis-B-Scan_AC,2022.2.5,None,
23,Second_Order,4.0,viswhat,stimulus/viswhat_stim/land_vehicle-pickuptruck.png,stimulus/viswhat_stim/land_animal-lion.png,stimulus/viswhat_stim/water_animal-jellyfish.png,stimulus/viswhat_stim/water_vehicle-cabincruiser.png,stimulus/viswhere_stim/match_blank.png,stimulus/viswhere_stim/match_box.png,stimulus/viswhere_stim/match_yes.png,stimulus/viswhere_stim/match_no.png,1.0,Match,Location,Location,1,5.125,0,5.125,0,5.125,0,5.125,0,0.75,0.75,1,0.5,1,2.125,1,0.5,1,2.125,0,0,0,0,0,0,0,0,0,,,,,0,30,30,30,,,,,,,,,295.0753525000182,300.198920542025,295.5396517079789,296.5276665419806,297.16274433297804,298.16076875000726,295.0753525000182,295.0753525000182,295.0742797913573,295.0753525000182,295.0753525000182,295.0753525000182,295.0742797913573,295.0753525000182,300.198920542025,301.0398214170127,303.1105005830177,,301.0398214170127,301.0398214170127,306.1838007919723,301.47725887497654,302.5115213749814,303.1105005830177,304.1509781249915,301.0398214170127,301.0398214170127,301.00012441667883,301.0398214170127,301.0398214170127,301.0398214170127,301.00012441667883,301.0398214170127,301.0398214170127,306.1838007919723,301.0398214170127,306.1838007919723,306.2184266250115,,301.0398214170127,1,1,1.6001979999709874,reldom2_s025,001,2025-03-07_10h10.58.238,Vis-B-Scan_AC,2022.2.5,None,
24,Second_Order,4.0,viswhat,stimulus/viswhat_stim/water_vehicle-pirateship.png,stimulus/viswhat_stim/land_vehicle-oldcar.png,stimulus/viswhat_stim/land_animal-zebra.png,stimulus/viswhat_stim/water_animal-seahorse.png,stimulus/viswhere_stim/match_blank.png,stimulus/viswhere_stim/match_box.png,stimulus/viswhere_stim/match_yes.png,stimulus/viswhere_stim/match_no.png,1.0,Match,Type,Type,1,5.125,0,5.125,0,5.125,0,5.125,0,0.625,0.625,1,0.5,1,2.125,1,0.5,1,2.125,0,0,0,0,0,0,0,0,0,,,,,0,31,31,31,,,,,,,,,307.0061268749996,312.1262479579891,307.47015279199695,308.4674326669774,309.09060754202073,310.0881702079787,307.0061268749996,307.0061268749996,307.0207718746659,307.0061268749996,307.0061268749996,307.0061268749996,307.0207718746659,307.0061268749996,312.1262479579891,312.81657083297614,314.87690554198343,318.93933187500807,312.81657083297614,312.81657083297614,317.9624239580007,313.25530854199314,314.27248570800293,314.87690554198343,315.9032978329924,312.81657083297614,312.81657083297614,312.7944326669793,312.81657083297614,312.81657083297614,312.81657083297614,312.7944326669793,312.81657083297614,312.81657083297614,317.9624239580007,312.81657083297614,317.9624239580007,317.99983470799634,318.63365308300126,312.81657083297614,1,1,0.5788723739678971,reldom2_s025,001,2025-03-07_10h10.58.238,Vis-B-Scan_AC,2022.2.5,None,
0,0.0,None,fixation,stimulus/viswhere_stim/blank_white.png,stimulus/viswhere_stim/blank_white.png,stimulus/viswhat_stim/blank_white.png,stimulus/viswhat_stim/blank_white.png,stimulus/viswhere_stim/blank_white.png,stimulus/viswhere_stim/blank_white.png,stimulus/viswhere_stim/blank_white.png,stimulus/viswhere_stim/blank_white.png,0.0,0.0,0.0,0.0,0,0.0,0,0.0,0,0.0,0,0.0,0,0.0,0.0,0,0.0,0,0.0,0,0.0,0,0.0,0,0,0,0,0,0,0,0,9,,,,,0,32,32,32,,,,,,,,,318.93933187500807,318.93933187500807,318.93933187500807,318.93933187500807,318.93933187500807,318.93933187500807,318.93933187500807,318.93933187500807,318.845446417015,318.93933187500807,318.93933187500807,318.93933187500807,318.845446417015,318.93933187500807,318.93933187500807,318.93933187500807,318.93933187500807,318.93933187500807,318.93933187500807,318.93933187500807,318.93933187500807,318.93933187500807,318.93933187500807,318.93933187500807,318.93933187500807,318.93933187500807,318.93933187500807,318.895446417015,318.93933187500807,318.93933187500807,318.93933187500807,318.895446417015,318.93933187500807,318.93933187500807,318.93933187500807,318.93933187500807,318.93933187500807,324.15053487499245,324.15053487499245,328.11985462502344,None,0,,reldom2_s025,001,2025-03-07_10h10.58.238,Vis-B-Scan_AC,2022.2.5,None,
25,First_Order,5.0,viswhere,stimulus/viswhere_stim/blank_white.png,stimulus/viswhere_stim/blank_white.png,stimulus/viswhere_stim/90-deg_dot-right_seagreen.png,stimulus/viswhere_stim/150-deg_dot-right_turquoise.png,stimulus/viswhere_stim/blank_white.png,stimulus/viswhere_stim/line_box.png,stimulus/viswhere_stim/line_yes.png,stimulus/viswhere_stim/line_no.png,None,Line,None,Dot,2,0.0,0,5.125,0,5.125,0,5.125,0,0.0,0.625,0,0.0,0,0.0,1,0.5,1,2.125,0,0,0,0,0,0,0,0,0,,,,,0,33,33,33,,,,,,,,,328.11985462502344,328.11985462502344,328.11985462502344,328.11985462502344,328.11985462502344,328.11985462502344,328.11985462502344,328.11985462502344,328.1012988746903,328.11985462502344,328.11985462502344,328.11985462502344,328.1012988746903,328.11985462502344,328.11985462502344,328.11985462502344,330.2291963750031,334.1856528330245,328.11985462502344,328.11985462502344,333.26002408302156,328.60069074999774,329.615898500022,330.2291963750031,331.2353234170005,328.11985462502344,328.11985462502344,328.1012988746903,328.11985462502344,328.11985462502344,328.11985462502344,328.1012988746903,328.11985462502344,328.11985462502344,333.26002408302156,328.11985462502344,333.26002408302156,333.3435944580124,333.96991824998986,328.11985462502344,2,1,1.1731550830299966,reldom2_s025,001,2025-03-07_10h10.58.238,Vis-B-Scan_AC,2022.2.5,None,
26,First_Order,5.0,viswhere,stimulus/viswhere_stim/blank_white.png,stimulus/viswhere_stim/blank_white.png,stimulus/viswhere_stim/150-deg_dot-left_seagreen.png,stimulus/viswhere_stim/150-deg_dot-right_seagreen.png,stimulus/viswhere_stim/blank_white.png,stimulus/viswhere_stim/dot_box.png,stimulus/viswhere_stim/dot_yes.png,stimulus/viswhere_stim/dot_no.png,None,Dot,None,Line,2,0.0,0,5.125,0,5.125,0,5.125,0,0.0,0.625,0,0.0,0,0.0,1,0.5,1,2.125,0,0,0,0,0,0,0,0,0,,,,,0,34,34,34,,,,,,,,,334.1856528330245,334.1856528330245,334.1856528330245,334.1856528330245,334.1856528330245,334.1856528330245,334.1856528330245,334.1856528330245,334.1637725413505,334.1856528330245,334.1856528330245,334.1856528330245,334.1637725413505,334.1856528330245,334.1856528330245,334.1856528330245,336.28976974997204,340.2474500000244,334.1856528330245,334.1856528330245,339.3216999580036,334.6687615829869,335.67374987498624,336.28976974997204,337.2977800000226,334.1856528330245,334.1856528330245,334.18043920801716,334.1856528330245,334.1856528330245,334.1856528330245,334.18043920801716,334.1856528330245,334.1856528330245,339.3216999580036,334.1856528330245,339.3216999580036,339.405007207999,340.0307576250052,334.1856528330245,None,0,,reldom2_s025,001,2025-03-07_10h10.58.238,Vis-B-Scan_AC,2022.2.5,None,
27,First_Order,5.0,viswhere,stimulus/viswhere_stim/blank_white.png,stimulus/viswhere_stim/blank_white.png,stimulus/viswhere_stim/90-deg_dot-left_turquoise.png,stimulus/viswhere_stim/90-deg_dot-right_seagreen.png,stimulus/viswhere_stim/blank_white.png,stimulus/viswhere_stim/line_box.png,stimulus/viswhere_stim/line_yes.png,stimulus/viswhere_stim/line_no.png,None,Line,None,Line,1,0.0,0,5.125,0,5.125,0,5.125,0,0.0,0.625,0,0.0,0,0.0,1,0.5,1,2.125,0,0,0,0,0,0,0,0,0,,,,,0,35,35,35,,,,,,,,,340.2474500000244,340.2474500000244,340.2474500000244,340.2474500000244,340.2474500000244,340.2474500000244,340.2474500000244,340.2474500000244,340.22598600034445,340.2474500000244,340.2474500000244,340.2474500000244,340.22598600034445,340.2474500000244,340.2474500000244,340.2474500000244,342.3583401250071,346.3125387079781,340.2474500000244,340.2474500000244,345.3753966669901,340.72681487497175,341.7453525419696,342.3583401250071,343.3618352920166,340.2474500000244,340.2474500000244,340.2426526670111,340.2474500000244,340.2474500000244,340.2474500000244,340.2426526670111,340.2474500000244,340.2474500000244,345.3753966669901,340.2474500000244,345.3753966669901,345.4765516669722,346.09792533301516,340.2474500000244,1,1,0.9846154999686405,reldom2_s025,001,2025-03-07_10h10.58.238,Vis-B-Scan_AC,2022.2.5,None,
28,First_Order,5.0,viswhere,stimulus/viswhere_stim/blank_white.png,stimulus/viswhere_stim/blank_white.png,stimulus/viswhere_stim/120-deg_dot-right_mediumslateblue.png,stimulus/viswhere_stim/90-deg_dot-right_lightsseagreen.png,stimulus/viswhere_stim/blank_white.png,stimulus/viswhere_stim/dot_box.png,stimulus/viswhere_stim/dot_yes.png,stimulus/viswhere_stim/dot_no.png,None,Dot,None,Dot,1,0.0,0,5.125,0,5.125,0,5.125,0,0.0,0.625,0,0.0,0,0.0,1,0.5,1,2.125,0,0,0,0,0,0,0,0,0,,,,,0,36,36,36,,,,,,,,,346.3125387079781,346.3125387079781,346.3125387079781,346.3125387079781,346.3125387079781,346.3125387079781,346.3125387079781,346.3125387079781,346.2917084583508,346.3125387079781,346.3125387079781,346.3125387079781,346.2917084583508,346.3125387079781,346.3125387079781,346.3125387079781,348.4169692079886,352.46029337501386,346.3125387079781,346.3125387079781,351.4432232499821,346.7902905829833,347.8064360420103,348.4169692079886,349.4358871669974,346.3125387079781,346.3125387079781,346.30837512501745,346.3125387079781,346.3125387079781,346.3125387079781,346.30837512501745,346.3125387079781,346.3125387079781,351.4432232499821,346.3125387079781,351.4432232499821,351.54073979199165,352.16783754201606,346.3125387079781,1,1,1.1305395410163328,reldom2_s025,001,2025-03-07_10h10.58.238,Vis-B-Scan_AC,2022.2.5,None,
0,0.0,None,fixation,stimulus/viswhere_stim/blank_white.png,stimulus/viswhere_stim/blank_white.png,stimulus/viswhat_stim/blank_white.png,stimulus/viswhat_stim/blank_white.png,stimulus/viswhere_stim/blank_white.png,stimulus/viswhere_stim/blank_white.png,stimulus/viswhere_stim/blank_white.png,stimulus/viswhere_stim/blank_white.png,0.0,0.0,0.0,0.0,0,0.0,0,0.0,0,0.0,0,0.0,0,0.0,0.0,0,0.0,0,0.0,0,0.0,0,0.0,0,0,0,0,0,0,0,0,10,,,,,0,37,37,37,,,,,,,,,352.46029337501386,352.46029337501386,352.46029337501386,352.46029337501386,352.46029337501386,352.46029337501386,352.46029337501386,352.46029337501386,352.36184704131057,352.46029337501386,352.46029337501386,352.46029337501386,352.36184704131057,352.46029337501386,352.46029337501386,352.46029337501386,352.46029337501386,352.46029337501386,352.46029337501386,352.46029337501386,352.46029337501386,352.46029337501386,352.46029337501386,352.46029337501386,352.46029337501386,352.46029337501386,352.46029337501386,352.4118470413106,352.46029337501386,352.46029337501386,352.46029337501386,352.4118470413106,352.46029337501386,352.46029337501386,352.46029337501386,352.46029337501386,352.46029337501386,357.6577034579823,357.6577034579823,362.59824062499683,None,0,,reldom2_s025,001,2025-03-07_10h10.58.238,Vis-B-Scan_AC,2022.2.5,None,
29,Second_Order,5.0,viswhere,stimulus/viswhere_stim/30-deg_dot-right_peru.png,stimulus/viswhere_stim/120-deg_dot-right_royalblue.png,stimulus/viswhere_stim/120-deg_dot-left_lightsseagreen.png,stimulus/viswhere_stim/90-deg_dot-left_seagreen.png,stimulus/viswhere_stim/match_blank.png,stimulus/viswhere_stim/match_box.png,stimulus/viswhere_stim/match_yes.png,stimulus/viswhere_stim/match_no.png,1.0,Match,Dot,Dot,1,5.125,0,5.125,0,5.125,0,5.125,0,0.75,0.75,1,0.5,1,2.125,1,0.5,1,2.125,0,0,0,0,0,0,0,0,0,,,,,0,38,38,38,,,,,,,,,362.59824062499683,367.72125370800495,363.08074766700156,364.06637424998917,364.70193408301566,365.7000520420261,362.59824062499683,362.59824062499683,362.61265600033414,362.59824062499683,362.59824062499683,362.59824062499683,362.61265600033414,362.59824062499683,367.72125370800495,368.51619612501236,370.5937526670168,374.4832603749819,368.51619612501236,368.51619612501236,373.6532842919696,368.96217395801796,369.98068916698685,370.5937526670168,371.60047483298695,368.51619612501236,368.51619612501236,368.4896743333161,368.51619612501236,368.51619612501236,368.51619612501236,368.4896743333161,368.51619612501236,368.51619612501236,373.6532842919696,368.51619612501236,373.6532842919696,373.70886045799125,374.4832603749819,368.51619612501236,1,1,0.6408105409936979,reldom2_s025,001,2025-03-07_10h10.58.238,Vis-B-Scan_AC,2022.2.5,None,
30,Second_Order,5.0,viswhere,stimulus/viswhere_stim/60-deg_dot-right_seagreen.png,stimulus/viswhere_stim/60-deg_dot-left_slateblue.png,stimulus/viswhere_stim/120-deg_dot-left_seagreen.png,stimulus/viswhere_stim/30-deg_dot-left_cyan.png,stimulus/viswhere_stim/match_blank.png,stimulus/viswhere_stim/match_box.png,stimulus/viswhere_stim/match_yes.png,stimulus/viswhere_stim/match_no.png,2.0,Match,Line,Dot,2,5.125,0,5.125,0,5.125,0,5.125,0,0.625,0.625,1,0.5,1,2.125,1,0.5,1,2.125,0,0,0,0,0,0,0,0,0,,,,,0,39,39,39,,,,,,,,,374.4832603749819,379.6037282500183,374.9585881669773,375.95737700001337,376.5917449580156,377.5814349579741,374.4832603749819,374.4832603749819,374.4967847920023,374.4832603749819,374.4832603749819,374.4832603749819,374.4967847920023,374.4832603749819,379.6037282500183,380.274275416974,382.34649408300174,386.3929582500132,380.274275416974,380.274275416974,385.40292500000214,380.7368925830233,381.75486745801754,382.34649408300174,383.35062695801025,380.274275416974,380.274275416974,380.2502872083064,380.274275416974,380.274275416974,380.274275416974,380.2502872083064,380.274275416974,380.274275416974,385.40292500000214,380.274275416974,385.40292500000214,385.4722681249841,386.0988613750087,380.274275416974,2,1,0.8984038750058971,reldom2_s025,001,2025-03-07_10h10.58.238,Vis-B-Scan_AC,2022.2.5,None,
0,0.0,None,fixation,stimulus/viswhere_stim/blank_white.png,stimulus/viswhere_stim/blank_white.png,stimulus/viswhat_stim/blank_white.png,stimulus/viswhat_stim/blank_white.png,stimulus/viswhere_stim/blank_white.png,stimulus/viswhere_stim/blank_white.png,stimulus/viswhere_stim/blank_white.png,stimulus/viswhere_stim/blank_white.png,0.0,0.0,0.0,0.0,0,0.0,0,0.0,0,0.0,0,0.0,0,0.0,0.0,0,0.0,0,0.0,0,0.0,0,0.0,0,0,0,0,0,0,0,0,9,,,,,0,40,40,40,,,,,,,,,386.3929582500132,386.3929582500132,386.3929582500132,386.3929582500132,386.3929582500132,386.3929582500132,386.3929582500132,386.3929582500132,386.29323266634793,386.3929582500132,386.3929582500132,386.3929582500132,386.29323266634793,386.3929582500132,386.3929582500132,386.3929582500132,386.3929582500132,386.3929582500132,386.3929582500132,386.3929582500132,386.3929582500132,386.3929582500132,386.3929582500132,386.3929582500132,386.3929582500132,386.3929582500132,386.3929582500132,386.34323266634794,386.3929582500132,386.3929582500132,386.3929582500132,386.34323266634794,386.3929582500132,386.3929582500132,386.3929582500132,386.3929582500132,386.3929582500132,391.6201416249969,391.6201416249969,395.59412229200825,None,0,,reldom2_s025,001,2025-03-07_10h10.58.238,Vis-B-Scan_AC,2022.2.5,None,
31,First_Order,6.0,viswhere,stimulus/viswhere_stim/blank_white.png,stimulus/viswhere_stim/blank_white.png,stimulus/viswhere_stim/120-deg_dot-left_royalblue.png,stimulus/viswhere_stim/30-deg_dot-left_goldenrod.png,stimulus/viswhere_stim/blank_white.png,stimulus/viswhere_stim/dot_box.png,stimulus/viswhere_stim/dot_yes.png,stimulus/viswhere_stim/dot_no.png,None,Dot,None,Dot,1,0.0,0,5.125,0,5.125,0,5.125,0,0.0,0.625,0,0.0,0,0.0,1,0.5,1,2.125,0,0,0,0,0,0,0,0,0,,,,,0,41,41,41,,,,,,,,,395.59412229200825,395.59412229200825,395.59412229200825,395.59412229200825,395.59412229200825,395.59412229200825,395.59412229200825,395.59412229200825,395.5752097916362,395.59412229200825,395.59412229200825,395.59412229200825,395.5752097916362,395.59412229200825,395.59412229200825,395.59412229200825,397.6912782500149,401.66314558300655,395.59412229200825,395.59412229200825,400.73027370800264,396.07098395802313,397.08153583301464,397.6912782500149,398.7057434580056,395.59412229200825,395.59412229200825,395.5752097916362,395.59412229200825,395.59412229200825,395.59412229200825,395.5752097916362,395.59412229200825,395.59412229200825,400.73027370800264,395.59412229200825,400.73027370800264,400.8302882920252,401.4621220420231,395.59412229200825,1,1,2.4819196659955196,reldom2_s025,001,2025-03-07_10h10.58.238,Vis-B-Scan_AC,2022.2.5,None,
32,First_Order,6.0,viswhere,stimulus/viswhere_stim/blank_white.png,stimulus/viswhere_stim/blank_white.png,stimulus/viswhere_stim/150-deg_dot-left_salmon.png,stimulus/viswhere_stim/150-deg_dot-right_salmon.png,stimulus/viswhere_stim/blank_white.png,stimulus/viswhere_stim/dot_box.png,stimulus/viswhere_stim/dot_yes.png,stimulus/viswhere_stim/dot_no.png,None,Dot,None,Line,2,0.0,0,5.125,0,5.125,0,5.125,0,0.0,0.625,0,0.0,0,0.0,1,0.5,1,2.125,0,0,0,0,0,0,0,0,0,,,,,0,42,42,42,,,,,,,,,401.66314558300655,401.66314558300655,401.66314558300655,401.66314558300655,401.66314558300655,401.66314558300655,401.66314558300655,401.66314558300655,401.6422334583088,401.66314558300655,401.66314558300655,401.66314558300655,401.6422334583088,401.66314558300655,401.66314558300655,401.66314558300655,403.7650049169897,407.7222750830115,401.66314558300655,401.66314558300655,406.80285375000676,402.1452477920102,403.1494929579785,403.7650049169897,404.77126445801696,401.66314558300655,401.66314558300655,401.65890012497545,401.66314558300655,401.66314558300655,401.66314558300655,401.65890012497545,401.66314558300655,401.66314558300655,406.80285375000676,401.66314558300655,406.80285375000676,406.88584337499924,407.51989487500396,401.66314558300655,2,1,1.0792489989544265,reldom2_s025,001,2025-03-07_10h10.58.238,Vis-B-Scan_AC,2022.2.5,None,
33,First_Order,6.0,viswhere,stimulus/viswhere_stim/blank_white.png,stimulus/viswhere_stim/blank_white.png,stimulus/viswhere_stim/150-deg_dot-left_cyan.png,stimulus/viswhere_stim/150-deg_dot-right_seagreen.png,stimulus/viswhere_stim/blank_white.png,stimulus/viswhere_stim/line_box.png,stimulus/viswhere_stim/line_yes.png,stimulus/viswhere_stim/line_no.png,None,Line,None,Line,1,0.0,0,5.125,0,5.125,0,5.125,0,0.0,0.625,0,0.0,0,0.0,1,0.5,1,2.125,0,0,0,0,0,0,0,0,0,,,,,0,43,43,43,,,,,,,,,407.7222750830115,407.7222750830115,407.7222750830115,407.7222750830115,407.7222750830115,407.7222750830115,407.7222750830115,407.7222750830115,407.70064300032874,407.7222750830115,407.7222750830115,407.7222750830115,407.70064300032874,407.7222750830115,407.7222750830115,407.7222750830115,409.82980133302044,413.7924810000113,407.7222750830115,407.7222750830115,412.85842687496915,408.2053527079988,409.2125425420236,409.82980133302044,410.8420181670226,407.7222750830115,407.7222750830115,407.7173096669954,407.7222750830115,407.7222750830115,407.7222750830115,407.7173096669954,407.7222750830115,407.7222750830115,412.85842687496915,407.7222750830115,412.85842687496915,412.9416544580017,413.576423874998,407.7222750830115,2,0,1.20982104097493,reldom2_s025,001,2025-03-07_10h10.58.238,Vis-B-Scan_AC,2022.2.5,None,
34,First_Order,6.0,viswhere,stimulus/viswhere_stim/blank_white.png,stimulus/viswhere_stim/blank_white.png,stimulus/viswhere_stim/150-deg_dot-right_cyan.png,stimulus/viswhere_stim/120-deg_dot-right_cyan.png,stimulus/viswhere_stim/blank_white.png,stimulus/viswhere_stim/line_box.png,stimulus/viswhere_stim/line_yes.png,stimulus/viswhere_stim/line_no.png,None,Line,None,Dot,2,0.0,0,5.125,0,5.125,0,5.125,0,0.0,0.625,0,0.0,0,0.0,1,0.5,1,2.125,0,0,0,0,0,0,0,0,0,,,,,0,44,44,44,,,,,,,,,413.7924810000113,413.7924810000113,413.7924810000113,413.7924810000113,413.7924810000113,413.7924810000113,413.7924810000113,413.7924810000113,413.7708673753271,413.7924810000113,413.7924810000113,413.7924810000113,413.7708673753271,413.7924810000113,413.7924810000113,413.7924810000113,415.9077694580192,419.9298700420186,413.7924810000113,413.7924810000113,418.9154654169688,414.27284412499284,415.2747311249841,415.9077694580192,416.91401954198955,413.7924810000113,413.7924810000113,413.78753404199375,413.7924810000113,413.7924810000113,413.7924810000113,413.78753404199375,413.7924810000113,413.7924810000113,418.9154654169688,413.7924810000113,418.9154654169688,419.01329466700554,419.6372394579812,413.7924810000113,2,1,0.8539439989835955,reldom2_s025,001,2025-03-07_10h10.58.238,Vis-B-Scan_AC,2022.2.5,None,
0,0.0,None,fixation,stimulus/viswhere_stim/blank_white.png,stimulus/viswhere_stim/blank_white.png,stimulus/viswhat_stim/blank_white.png,stimulus/viswhat_stim/blank_white.png,stimulus/viswhere_stim/blank_white.png,stimulus/viswhere_stim/blank_white.png,stimulus/viswhere_stim/blank_white.png,stimulus/viswhere_stim/blank_white.png,0.0,0.0,0.0,0.0,0,0.0,0,0.0,0,0.0,0,0.0,0,0.0,0.0,0,0.0,0,0.0,0,0.0,0,0.0,0,0,0,0,0,0,0,0,8,,,,,0,45,45,45,,,,,,,,,419.9298700420186,419.9298700420186,419.9298700420186,419.9298700420186,419.9298700420186,419.9298700420186,419.9298700420186,419.9298700420186,419.831683708316,419.9298700420186,419.9298700420186,419.9298700420186,419.831683708316,419.9298700420186,419.9298700420186,419.9298700420186,419.9298700420186,419.9298700420186,419.9298700420186,419.9298700420186,419.9298700420186,419.9298700420186,419.9298700420186,419.9298700420186,419.9298700420186,419.9298700420186,419.9298700420186,419.881683708316,419.9298700420186,419.9298700420186,419.9298700420186,419.881683708316,419.9298700420186,419.9298700420186,419.9298700420186,419.9298700420186,419.9298700420186,425.12951629201416,425.12951629201416,428.0348508330062,None,0,,reldom2_s025,001,2025-03-07_10h10.58.238,Vis-B-Scan_AC,2022.2.5,None,
35,Second_Order,6.0,viswhere,stimulus/viswhere_stim/60-deg_dot-right_cyan.png,stimulus/viswhere_stim/60-deg_dot-left_goldenrod.png,stimulus/viswhere_stim/150-deg_dot-left_salmon.png,stimulus/viswhere_stim/150-deg_dot-right_goldenrod.png,stimulus/viswhere_stim/match_blank.png,stimulus/viswhere_stim/match_box.png,stimulus/viswhere_stim/match_yes.png,stimulus/viswhere_stim/match_no.png,1.0,Match,Line,Line,1,5.125,0,5.125,0,5.125,0,5.125,0,0.75,0.75,1,0.5,1,2.125,1,0.5,1,2.125,0,0,0,0,0,0,0,0,0,,,,,0,46,46,46,,,,,,,,,428.0348508330062,433.15614612499485,428.51567566697486,429.5143434170168,430.1377473750035,431.13465379201807,428.0348508330062,428.0348508330062,428.04820129132906,428.0348508330062,428.0348508330062,428.0348508330062,428.04820129132906,428.0348508330062,433.15614612499485,433.9551117499941,436.0351227920037,439.9213292080094,433.9551117499941,433.9551117499941,439.093699457997,434.4052020420204,435.4155800419976,436.0351227920037,437.0516485000262,433.9551117499941,433.9551117499941,433.9409741669777,433.9551117499941,433.9551117499941,433.9551117499941,433.9409741669777,433.9551117499941,433.9551117499941,439.093699457997,433.9551117499941,439.093699457997,439.16927245800616,,433.9551117499941,1,1,0.8783954989630729,reldom2_s025,001,2025-03-07_10h10.58.238,Vis-B-Scan_AC,2022.2.5,None,
36,Second_Order,6.0,viswhere,stimulus/viswhere_stim/120-deg_dot-right_slateblue.png,stimulus/viswhere_stim/120-deg_dot-left_royalblue.png,stimulus/viswhere_stim/150-deg_dot-right_royalblue.png,stimulus/viswhere_stim/150-deg_dot-left_salmon.png,stimulus/viswhere_stim/match_blank.png,stimulus/viswhere_stim/match_box.png,stimulus/viswhere_stim/match_yes.png,stimulus/viswhere_stim/match_no.png,1.0,Match,Line,Line,1,5.125,0,5.125,0,5.125,0,5.125,0,0.625,0.625,1,0.5,1,2.125,1,0.5,1,2.125,0,0,0,0,0,0,0,0,0,,,,,0,47,47,47,,,,,,,,,439.9213292080094,445.03824154200265,440.4087017499842,441.3947902499931,442.0324200419709,443.0285299579846,439.9213292080094,439.9213292080094,439.9342853329843,439.9213292080094,439.9213292080094,439.9213292080094,439.9342853329843,439.9213292080094,445.03824154200265,445.7065439579892,447.7834780419944,451.83220287499717,445.7065439579892,445.7065439579892,450.8349222919787,446.1548900830094,447.16509245801717,447.7834780419944,448.7955367079703,445.7065439579892,445.7065439579892,445.6846823753517,445.7065439579892,445.7065439579892,445.7065439579892,445.6846823753517,445.7065439579892,445.7065439579892,450.8349222919787,445.7065439579892,450.8349222919787,450.9103543750243,451.56423629197525,445.7065439579892,1,1,1.0648121659760363,reldom2_s025,001,2025-03-07_10h10.58.238,Vis-B-Scan_AC,2022.2.5,None,
0,0.0,None,fixation,stimulus/viswhere_stim/blank_white.png,stimulus/viswhere_stim/blank_white.png,stimulus/viswhat_stim/blank_white.png,stimulus/viswhat_stim/blank_white.png,stimulus/viswhere_stim/blank_white.png,stimulus/viswhere_stim/blank_white.png,stimulus/viswhere_stim/blank_white.png,stimulus/viswhere_stim/blank_white.png,0.0,0.0,0.0,0.0,0,0.0,0,0.0,0,0.0,0,0.0,0,0.0,0.0,0,0.0,0,0.0,0,0.0,0,0.0,0,0,0,0,0,0,0,0,10,,,,,0,48,48,48,,,,,,,,,451.83220287499717,451.83220287499717,451.83220287499717,451.83220287499717,451.83220287499717,451.83220287499717,451.83220287499717,451.83220287499717,451.731049125335,451.83220287499717,451.83220287499717,451.83220287499717,451.731049125335,451.83220287499717,451.83220287499717,451.83220287499717,451.83220287499717,451.83220287499717,451.83220287499717,451.83220287499717,451.83220287499717,451.83220287499717,451.83220287499717,451.83220287499717,451.83220287499717,451.83220287499717,451.83220287499717,451.781049125335,451.83220287499717,451.83220287499717,451.83220287499717,451.781049125335,451.83220287499717,451.83220287499717,451.83220287499717,451.83220287499717,451.83220287499717,457.0174354999908,457.0174354999908,462.0950648749713,None,0,,reldom2_s025,001,2025-03-07_10h10.58.238,Vis-B-Scan_AC,2022.2.5,None,
37,First_Order,7.0,viswhat,stimulus/viswhat_stim/blank_white.png,stimulus/viswhat_stim/blank_white.png,stimulus/viswhat_stim/water_vehicle-sailboat.png,stimulus/viswhat_stim/land_vehicle-bus.png,stimulus/viswhat_stim/blank_white.png,stimulus/viswhat_stim/location_box.png,stimulus/viswhat_stim/location_yes.png,stimulus/viswhat_stim/location_no.png,None,Location,None,Type,2,0.0,0,5.125,0,5.125,0,5.125,0,0.0,0.625,0,0.0,0,0.0,1,0.5,1,2.125,0,0,0,0,0,0,0,0,0,,,,,0,49,49,49,,,,,,,,,462.0950648749713,462.0950648749713,462.0950648749713,462.0950648749713,462.0950648749713,462.0950648749713,462.0950648749713,462.0950648749713,462.0033334586575,462.0950648749713,462.0950648749713,462.0950648749713,462.0033334586575,462.0950648749713,462.0950648749713,462.0950648749713,464.1696887079743,,462.0950648749713,462.0950648749713,467.251696249994,462.5753657919704,463.6400414999807,464.1696887079743,465.2346862499835,462.0950648749713,462.0950648749713,462.0533334586575,462.0950648749713,462.0950648749713,462.0950648749713,462.0533334586575,462.0950648749713,462.0950648749713,467.251696249994,462.0950648749713,467.251696249994,467.29905124998186,467.9610712499707,462.0950648749713,2,1,1.091138832969591,reldom2_s025,001,2025-03-07_10h10.58.238,Vis-B-Scan_AC,2022.2.5,None,
38,First_Order,7.0,viswhat,stimulus/viswhat_stim/blank_white.png,stimulus/viswhat_stim/blank_white.png,stimulus/viswhat_stim/land_vehicle-tank.png,stimulus/viswhat_stim/land_animal-elephant.png,stimulus/viswhat_stim/blank_white.png,stimulus/viswhat_stim/type_box.png,stimulus/viswhat_stim/type_yes.png,stimulus/viswhat_stim/type_no.png,None,Type,None,Location,2,0.0,0,5.125,0,5.125,0,5.125,0,0.0,0.625,0,0.0,0,0.0,1,0.5,1,2.125,0,0,0,0,0,0,0,0,0,,,,,0,50,50,50,,,,,,,,,468.21333508298267,468.21333508298267,468.21333508298267,468.21333508298267,468.21333508298267,468.21333508298267,468.21333508298267,468.21333508298267,468.1110712499707,468.21333508298267,468.21333508298267,468.21333508298267,468.1110712499707,468.21333508298267,468.21333508298267,468.21333508298267,470.2889324579737,,468.21333508298267,468.21333508298267,473.4070682079764,468.67415441700723,469.7690363749862,470.2889324579737,471.3319886670215,468.21333508298267,468.21333508298267,468.1610712499707,468.21333508298267,468.21333508298267,468.21333508298267,468.1610712499707,468.21333508298267,468.21333508298267,473.4070682079764,468.21333508298267,473.4070682079764,473.4070682079764,474.08518666698365,468.21333508298267,2,1,1.225003374973312,reldom2_s025,001,2025-03-07_10h10.58.238,Vis-B-Scan_AC,2022.2.5,None,
39,First_Order,7.0,viswhat,stimulus/viswhat_stim/blank_white.png,stimulus/viswhat_stim/blank_white.png,stimulus/viswhat_stim/land_animal-ostrich.png,stimulus/viswhat_stim/water_animal-whale.png,stimulus/viswhat_stim/blank_white.png,stimulus/viswhat_stim/location_box.png,stimulus/viswhat_stim/location_yes.png,stimulus/viswhat_stim/location_no.png,None,Location,None,Type,2,0.0,0,5.125,0,5.125,0,5.125,0,0.0,0.625,0,0.0,0,0.0,1,0.5,1,2.125,0,0,0,0,0,0,0,0,0,,,,,0,51,51,51,,,,,,,,,474.28552012500586,474.28552012500586,474.28552012500586,474.28552012500586,474.28552012500586,474.28552012500586,474.28552012500586,474.28552012500586,474.2518533336503,474.28552012500586,474.28552012500586,474.28552012500586,474.2518533336503,474.28552012500586,474.28552012500586,474.28552012500586,476.3759674580069,480.3596397920046,474.28552012500586,474.28552012500586,479.4415383330197,474.7530206249794,475.7709118750063,476.3759674580069,477.4049841670203,474.28552012500586,474.28552012500586,474.268520000317,474.28552012500586,474.28552012500586,474.28552012500586,474.268520000317,474.28552012500586,474.28552012500586,479.4415383330197,474.28552012500586,479.4415383330197,479.50717341701966,480.1411546249874,474.28552012500586,2,1,0.704110040969681,reldom2_s025,001,2025-03-07_10h10.58.238,Vis-B-Scan_AC,2022.2.5,None,
40,First_Order,7.0,viswhat,stimulus/viswhat_stim/blank_white.png,stimulus/viswhat_stim/blank_white.png,stimulus/viswhat_stim/land_vehicle-truck.png,stimulus/viswhat_stim/land_animal-fox.png,stimulus/viswhat_stim/blank_white.png,stimulus/viswhat_stim/location_box.png,stimulus/viswhat_stim/location_yes.png,stimulus/viswhat_stim/location_no.png,None,Location,None,Location,1,0.0,0,5.125,0,5.125,0,5.125,0,0.0,0.625,0,0.0,0,0.0,1,0.5,1,2.125,0,0,0,0,0,0,0,0,0,,,,,0,52,52,52,,,,,,,,,480.3596397920046,480.3596397920046,480.3596397920046,480.3596397920046,480.3596397920046,480.3596397920046,480.3596397920046,480.3596397920046,480.32820625000164,480.3596397920046,480.3596397920046,480.3596397920046,480.32820625000164,480.3596397920046,480.3596397920046,480.3596397920046,482.47077816701494,486.49271220801165,480.3596397920046,480.3596397920046,485.4985457499861,480.82945162500255,481.8396079170052,482.47077816701494,483.4830297919689,480.3596397920046,480.3596397920046,480.34487291666835,480.3596397920046,480.3596397920046,480.3596397920046,480.34487291666835,480.3596397920046,480.3596397920046,485.4985457499861,480.3596397920046,485.4985457499861,485.5875456670183,486.2314763329923,480.3596397920046,1,1,1.8261332499678247,reldom2_s025,001,2025-03-07_10h10.58.238,Vis-B-Scan_AC,2022.2.5,None,
0,0.0,None,fixation,stimulus/viswhere_stim/blank_white.png,stimulus/viswhere_stim/blank_white.png,stimulus/viswhat_stim/blank_white.png,stimulus/viswhat_stim/blank_white.png,stimulus/viswhere_stim/blank_white.png,stimulus/viswhere_stim/blank_white.png,stimulus/viswhere_stim/blank_white.png,stimulus/viswhere_stim/blank_white.png,0.0,0.0,0.0,0.0,0,0.0,0,0.0,0,0.0,0,0.0,0,0.0,0.0,0,0.0,0,0.0,0,0.0,0,0.0,0,0,0,0,0,0,0,0,8,,,,,0,53,53,53,,,,,,,,,486.49271220801165,486.49271220801165,486.49271220801165,486.49271220801165,486.49271220801165,486.49271220801165,486.49271220801165,486.49271220801165,486.3858427083081,486.49271220801165,486.49271220801165,486.49271220801165,486.3858427083081,486.49271220801165,486.49271220801165,486.49271220801165,486.49271220801165,486.49271220801165,486.49271220801165,486.49271220801165,486.49271220801165,486.49271220801165,486.49271220801165,486.49271220801165,486.49271220801165,486.49271220801165,486.49271220801165,486.45250937497474,486.49271220801165,486.49271220801165,486.49271220801165,486.45250937497474,486.49271220801165,486.49271220801165,486.49271220801165,486.49271220801165,486.49271220801165,491.70680404198356,491.70680404198356,494.6259223750094,None,0,,reldom2_s025,001,2025-03-07_10h10.58.238,Vis-B-Scan_AC,2022.2.5,None,
41,Second_Order,7.0,viswhat,stimulus/viswhat_stim/water_animal-whale (1).png,stimulus/viswhat_stim/water_vehicle-canoe(1).png,stimulus/viswhat_stim/land_animal-tiger.png,stimulus/viswhat_stim/land_vehicle-train.png,stimulus/viswhere_stim/match_blank.png,stimulus/viswhere_stim/match_box.png,stimulus/viswhere_stim/match_yes.png,stimulus/viswhere_stim/match_no.png,1.0,Match,Location,Location,1,5.125,0,5.125,0,5.125,0,5.125,0,0.75,0.75,1,0.5,1,2.125,1,0.5,1,2.125,0,0,0,0,0,0,0,0,0,,,,,0,54,54,54,,,,,,,,,494.6259223750094,499.74793358298484,495.1034065000131,496.1014488749788,496.7239406249719,497.7217217920115,494.6259223750094,494.6259223750094,494.6321823753261,494.6259223750094,494.6259223750094,494.6259223750094,494.6321823753261,494.6259223750094,499.74793358298484,500.5735094170086,502.6558717919979,506.5497120830114,500.5735094170086,500.5735094170086,505.7115518330247,501.00875212502433,502.0513386250241,502.6558717919979,503.7018863330013,500.5735094170086,500.5735094170086,500.5493116666485,500.5735094170086,500.5735094170086,500.5735094170086,500.5493116666485,500.5735094170086,500.5735094170086,505.7115518330247,500.5735094170086,505.7115518330247,505.76726770802634,,500.5735094170086,1,1,0.787275165959727,reldom2_s025,001,2025-03-07_10h10.58.238,Vis-B-Scan_AC,2022.2.5,None,
42,Second_Order,7.0,viswhat,stimulus/viswhat_stim/land_vehicle-buldozer.png,stimulus/viswhat_stim/water_vehicle-jetski.png,stimulus/viswhat_stim/water_animal-whale.png,stimulus/viswhat_stim/land_animal-fox.png,stimulus/viswhere_stim/match_blank.png,stimulus/viswhere_stim/match_box.png,stimulus/viswhere_stim/match_yes.png,stimulus/viswhere_stim/match_no.png,1.0,Match,Type,Type,1,5.125,0,5.125,0,5.125,0,5.125,0,0.625,0.625,1,0.5,1,2.125,1,0.5,1,2.125,0,0,0,0,0,0,0,0,0,,,,,0,55,55,55,,,,,,,,,506.5497120830114,511.6710476669832,507.0138593330048,508.01193683297606,508.6348344999715,509.63226145796943,506.5497120830114,506.5497120830114,506.54909733335563,506.5497120830114,506.5497120830114,506.5497120830114,506.54909733335563,506.5497120830114,511.6710476669832,512.3645970830112,514.4429556669784,518.4814232499921,512.3645970830112,512.3645970830112,517.4981764170225,512.8117185420124,513.8400194169953,514.4429556669784,515.4725137919886,512.3645970830112,512.3645970830112,512.3387906249961,512.3645970830112,512.3645970830112,512.3645970830112,512.3387906249961,512.3645970830112,512.3645970830112,517.4981764170225,512.3645970830112,517.4981764170225,517.5601390419761,518.2010800829739,512.3645970830112,1,1,0.4110259579611011,reldom2_s025,001,2025-03-07_10h10.58.238,Vis-B-Scan_AC,2022.2.5,None,
0,0.0,None,fixation,stimulus/viswhere_stim/blank_white.png,stimulus/viswhere_stim/blank_white.png,stimulus/viswhat_stim/blank_white.png,stimulus/viswhat_stim/blank_white.png,stimulus/viswhere_stim/blank_white.png,stimulus/viswhere_stim/blank_white.png,stimulus/viswhere_stim/blank_white.png,stimulus/viswhere_stim/blank_white.png,0.0,0.0,0.0,0.0,0,0.0,0,0.0,0,0.0,0,0.0,0,0.0,0.0,0,0.0,0,0.0,0,0.0,0,0.0,0,0,0,0,0,0,0,0,9,,,,,0,56,56,56,,,,,,,,,518.4814232499921,518.4814232499921,518.4814232499921,518.4814232499921,518.4814232499921,518.4814232499921,518.4814232499921,518.4814232499921,518.3827513749944,518.4814232499921,518.4814232499921,518.4814232499921,518.3827513749944,518.4814232499921,518.4814232499921,518.4814232499921,518.4814232499921,518.4814232499921,518.4814232499921,518.4814232499921,518.4814232499921,518.4814232499921,518.4814232499921,518.4814232499921,518.4814232499921,518.4814232499921,518.4814232499921,518.4327513749944,518.4814232499921,518.4814232499921,518.4814232499921,518.4327513749944,518.4814232499921,518.4814232499921,518.4814232499921,518.4814232499921,518.4814232499921,523.6714755420107,523.6714755420107,527.6781205420266,None,0,,reldom2_s025,001,2025-03-07_10h10.58.238,Vis-B-Scan_AC,2022.2.5,None,
43,First_Order,8.0,viswhat,stimulus/viswhat_stim/blank_white.png,stimulus/viswhat_stim/blank_white.png,stimulus/viswhat_stim/land_animal-fox.png,stimulus/viswhat_stim/land_vehicle-motorcycle.png,stimulus/viswhat_stim/blank_white.png,stimulus/viswhat_stim/type_box.png,stimulus/viswhat_stim/type_yes.png,stimulus/viswhat_stim/type_no.png,None,Type,None,Location,2,0.0,0,5.125,0,5.125,0,5.125,0,0.0,0.625,0,0.0,0,0.0,1,0.5,1,2.125,0,0,0,0,0,0,0,0,0,,,,,0,57,57,57,,,,,,,,,527.6781205420266,527.6781205420266,527.6781205420266,527.6781205420266,527.6781205420266,527.6781205420266,527.6781205420266,527.6781205420266,527.6352708746368,527.6781205420266,527.6781205420266,527.6781205420266,527.6352708746368,527.6781205420266,527.6781205420266,527.6781205420266,529.766590083018,,527.6781205420266,527.6781205420266,532.836914125015,528.1620135830017,529.1917380829691,529.766590083018,530.7998887919821,527.6781205420266,527.6781205420266,527.6519375413035,527.6781205420266,527.6781205420266,527.6781205420266,527.6519375413035,527.6781205420266,527.6781205420266,532.836914125015,527.6781205420266,532.836914125015,532.8858300829888,533.5287113329978,527.6781205420266,2,1,1.121182915987447,reldom2_s025,001,2025-03-07_10h10.58.238,Vis-B-Scan_AC,2022.2.5,None,
44,First_Order,8.0,viswhat,stimulus/viswhat_stim/blank_white.png,stimulus/viswhat_stim/blank_white.png,stimulus/viswhat_stim/land_animal-pig.png,stimulus/viswhat_stim/land_vehicle-firetruck.png,stimulus/viswhat_stim/blank_white.png,stimulus/viswhat_stim/location_box.png,stimulus/viswhat_stim/location_yes.png,stimulus/viswhat_stim/location_no.png,None,Location,None,Location,1,0.0,0,5.125,0,5.125,0,5.125,0,0.0,0.625,0,0.0,0,0.0,1,0.5,1,2.125,0,0,0,0,0,0,0,0,0,,,,,0,58,58,58,,,,,,,,,533.7400431249989,533.7400431249989,533.7400431249989,533.7400431249989,533.7400431249989,533.7400431249989,533.7400431249989,533.7400431249989,533.7023891670048,533.7400431249989,533.7400431249989,533.7400431249989,533.7023891670048,533.7400431249989,533.7400431249989,533.7400431249989,535.846864207997,539.8634156250046,533.7400431249989,533.7400431249989,538.8712572500226,534.2079671249958,535.2147268329863,535.846864207997,536.8594425829942,533.7400431249989,533.7400431249989,533.7190558336714,533.7400431249989,533.7400431249989,533.7400431249989,533.7190558336714,533.7400431249989,533.7400431249989,538.8712572500226,533.7400431249989,538.8712572500226,538.9594628330087,539.6003014579765,533.7400431249989,1,1,2.142993540968746,reldom2_s025,001,2025-03-07_10h10.58.238,Vis-B-Scan_AC,2022.2.5,None,
45,First_Order,8.0,viswhat,stimulus/viswhat_stim/blank_white.png,stimulus/viswhat_stim/blank_white.png,stimulus/viswhat_stim/land_vehicle-trolley.png,stimulus/viswhat_stim/water_vehicle-sailboat.png,stimulus/viswhat_stim/blank_white.png,stimulus/viswhat_stim/type_box.png,stimulus/viswhat_stim/type_yes.png,stimulus/viswhat_stim/type_no.png,None,Type,None,Type,1,0.0,0,5.125,0,5.125,0,5.125,0,0.0,0.625,0,0.0,0,0.0,1,0.5,1,2.125,0,0,0,0,0,0,0,0,0,,,,,0,59,59,59,,,,,,,,,539.8634156250046,539.8634156250046,539.8634156250046,539.8634156250046,539.8634156250046,539.8634156250046,539.8634156250046,539.8634156250046,539.7731592083195,539.8634156250046,539.8634156250046,539.8634156250046,539.7731592083195,539.8634156250046,539.8634156250046,539.8634156250046,541.9540076670237,,539.8634156250046,539.8634156250046,545.0604468749953,540.3505989999976,541.4211204170133,541.9540076670237,543.0282216669875,539.8634156250046,539.8634156250046,539.8231592083195,539.8634156250046,539.8634156250046,539.8634156250046,539.8231592083195,539.8634156250046,539.8634156250046,545.0604468749953,539.8634156250046,545.0604468749953,545.0604468749953,545.7479671249748,539.8634156250046,1,1,0.5483481669798493,reldom2_s025,001,2025-03-07_10h10.58.238,Vis-B-Scan_AC,2022.2.5,None,
46,First_Order,8.0,viswhat,stimulus/viswhat_stim/blank_white.png,stimulus/viswhat_stim/blank_white.png,stimulus/viswhat_stim/water_vehicle-canoe(1).png,stimulus/viswhat_stim/land_vehicle-truck.png,stimulus/viswhat_stim/blank_white.png,stimulus/viswhat_stim/type_box.png,stimulus/viswhat_stim/type_yes.png,stimulus/viswhat_stim/type_no.png,None,Type,None,Type,1,0.0,0,5.125,0,5.125,0,5.125,0,0.0,0.625,0,0.0,0,0.0,1,0.5,1,2.125,0,0,0,0,0,0,0,0,0,,,,,0,60,60,60,,,,,,,,,545.9179068329977,545.9179068329977,545.9179068329977,545.9179068329977,545.9179068329977,545.9179068329977,545.9179068329977,545.9179068329977,545.8979671249748,545.9179068329977,545.9179068329977,545.9179068329977,545.8979671249748,545.9179068329977,545.9179068329977,545.9179068329977,548.0155367080006,552.0522219999693,545.9179068329977,545.9179068329977,551.0512134999735,546.3987183329882,547.4059949999792,548.0155367080006,549.0239370000199,545.9179068329977,545.9179068329977,545.8979671249748,545.9179068329977,545.9179068329977,545.9179068329977,545.8979671249748,545.9179068329977,545.9179068329977,551.0512134999735,545.9179068329977,551.0512134999735,551.1343089580187,551.7647009170032,545.9179068329977,1,1,1.210342042031698,reldom2_s025,001,2025-03-07_10h10.58.238,Vis-B-Scan_AC,2022.2.5,None,
0,0.0,None,fixation,stimulus/viswhere_stim/blank_white.png,stimulus/viswhere_stim/blank_white.png,stimulus/viswhat_stim/blank_white.png,stimulus/viswhat_stim/blank_white.png,stimulus/viswhere_stim/blank_white.png,stimulus/viswhere_stim/blank_white.png,stimulus/viswhere_stim/blank_white.png,stimulus/viswhere_stim/blank_white.png,0.0,0.0,0.0,0.0,0,0.0,0,0.0,0,0.0,0,0.0,0,0.0,0.0,0,0.0,0,0.0,0,0.0,0,0.0,0,0,0,0,0,0,0,0,9,,,,,0,61,61,61,,,,,,,,,552.0522219999693,552.0522219999693,552.0522219999693,552.0522219999693,552.0522219999693,552.0522219999693,552.0522219999693,552.0522219999693,551.9483479583481,552.0522219999693,552.0522219999693,552.0522219999693,551.9483479583481,552.0522219999693,552.0522219999693,552.0522219999693,552.0522219999693,552.0522219999693,552.0522219999693,552.0522219999693,552.0522219999693,552.0522219999693,552.0522219999693,552.0522219999693,552.0522219999693,552.0522219999693,552.0522219999693,551.9983479583481,552.0522219999693,552.0522219999693,552.0522219999693,551.9983479583481,552.0522219999693,552.0522219999693,552.0522219999693,552.0522219999693,552.0522219999693,557.2525984579697,557.2525984579697,561.1902969169896,None,0,,reldom2_s025,001,2025-03-07_10h10.58.238,Vis-B-Scan_AC,2022.2.5,None,
47,Second_Order,8.0,viswhat,stimulus/viswhat_stim/water_animal-seaturtle.png,stimulus/viswhat_stim/water_vehicle-kayak.png,stimulus/viswhat_stim/water_vehicle-motorboatraft.png,stimulus/viswhat_stim/land_vehicle-tank.png,stimulus/viswhere_stim/match_blank.png,stimulus/viswhere_stim/match_box.png,stimulus/viswhere_stim/match_yes.png,stimulus/viswhere_stim/match_no.png,2.0,Match,Location,Type,2,5.125,0,5.125,0,5.125,0,5.125,0,0.75,0.75,1,0.5,1,2.125,1,0.5,1,2.125,0,0,0,0,0,0,0,0,0,,,,,0,62,62,62,,,,,,,,,561.1902969169896,566.3136935000075,561.6549002919928,562.6428921669722,563.2778427919839,564.2750980419805,561.1902969169896,561.1902969169896,561.1912016253065,561.1902969169896,561.1902969169896,561.1902969169896,561.1912016253065,561.1902969169896,566.3136935000075,567.1139129999792,569.1896476669936,573.0806627920247,567.1139129999792,567.1139129999792,572.2526403330266,567.5693100829958,568.5740383749944,569.1896476669936,570.2020945000113,567.1139129999792,567.1139129999792,567.0984784169821,567.1139129999792,567.1139129999792,567.1139129999792,567.0984784169821,567.1139129999792,567.1139129999792,572.2526403330266,567.1139129999792,572.2526403330266,572.2974062919966,573.0806627920247,567.1139129999792,2,1,0.917644165980164,reldom2_s025,001,2025-03-07_10h10.58.238,Vis-B-Scan_AC,2022.2.5,None,
48,Second_Order,8.0,viswhat,stimulus/viswhat_stim/land_vehicle-rv.png,stimulus/viswhat_stim/water_vehicle-cargoboat.png,stimulus/viswhat_stim/water_animal-squid.png,stimulus/viswhat_stim/land_animal-dog.png,stimulus/viswhere_stim/match_blank.png,stimulus/viswhere_stim/match_box.png,stimulus/viswhere_stim/match_yes.png,stimulus/viswhere_stim/match_no.png,1.0,Match,Type,Type,1,5.125,0,5.125,0,5.125,0,5.125,0,0.625,0.625,1,0.5,1,2.125,1,0.5,1,2.125,0,0,0,0,0,0,0,0,0,,,,,0,63,63,63,,,,,,,,,573.0806627920247,578.1958486249787,573.5497491669958,574.5360302079935,575.1837900829851,576.1729045829852,573.0806627920247,573.0806627920247,573.085381374997,573.0806627920247,573.0806627920247,573.0806627920247,573.085381374997,573.0806627920247,578.1958486249787,578.8955459580175,580.9747020420036,,578.8955459580175,578.8955459580175,584.0507251669769,579.3312906249776,580.3552684999886,580.9747020420036,582.0052112920093,578.8955459580175,578.8955459580175,578.8590354580199,578.8955459580175,578.8955459580175,578.8955459580175,578.8590354580199,578.8955459580175,578.8955459580175,584.0507251669769,578.8955459580175,584.0507251669769,584.076576624997,584.7120921249734,578.8955459580175,1,1,0.5094492919743061,reldom2_s025,001,2025-03-07_10h10.58.238,Vis-B-Scan_AC,2022.2.5,None,
0,0.0,None,fixation,stimulus/viswhere_stim/blank_white.png,stimulus/viswhere_stim/blank_white.png,stimulus/viswhat_stim/blank_white.png,stimulus/viswhat_stim/blank_white.png,stimulus/viswhere_stim/blank_white.png,stimulus/viswhere_stim/blank_white.png,stimulus/viswhere_stim/blank_white.png,stimulus/viswhere_stim/blank_white.png,0.0,0.0,0.0,0.0,0,0.0,0,0.0,0,0.0,0,0.0,0,0.0,0.0,0,0.0,0,0.0,0,0.0,0,0.0,0,0,0,0,0,0,0,0,16,,,,,0,64,64,64,,,,,,,,,584.9959191670059,584.9959191670059,584.9959191670059,584.9959191670059,584.9959191670059,584.9959191670059,584.9959191670059,584.9959191670059,584.9050344586411,584.9959191670059,584.9959191670059,584.9959191670059,584.9050344586411,584.9959191670059,584.9959191670059,584.9959191670059,584.9959191670059,584.9959191670059,584.9959191670059,584.9959191670059,584.9959191670059,584.9959191670059,584.9959191670059,584.9959191670059,584.9959191670059,584.9959191670059,584.9959191670059,584.9550344586411,584.9959191670059,584.9959191670059,584.9959191670059,584.9550344586411,584.9959191670059,584.9959191670059,584.9959191670059,584.9959191670059,584.9959191670059,590.1841765830177,590.1841765830177,601.1311317079817,None,0,,reldom2_s025,001,2025-03-07_10h10.58.238,Vis-B-Scan_AC,2022.2.5,None,
