Trial,Order,Block,Type,Stimuli_File1,Stimuli_File2,Stimuli_File3,Stimuli_File4,Cue_File1,Cue_File2,Response_File_Yes,Response_File_No,Match,Cue_Dimension,Pair1_Dimension,Pair2_Dimension,Key,Cue1_Duration,Cue1_Onset,Cue2_Duration,Cue2_Onset,ResponseYes_Duration,ResponseYes_Onset,ResponseNo_Duration,ResponseNo_Onset,ITI_Within,ITI_Between,Image1_Duration,Image1_Onset,Image2_Duration,Image2_Onset,Image3_Duration,Image3_Onset,Image4_Duration,Image4_Onset,Sound1_Duration,Sound1_Onset,Sound2_Duration,Sound2_Onset,Sound3_Duration,Sound3_Onset,Sound4_Duration,Sound4_Onset,Fixation_Duration,trials_2.thisRepN,trials_2.thisTrialN,trials_2.thisN,trials_2.thisIndex,trials.thisRepN,trials.thisTrialN,trials.thisN,trials.thisIndex,text_start.started,key_resp_start.started,key_resp_start.keys,key_resp_start.rt,text2.started,key_resp_2.started,key_resp_2.keys,key_resp_2.rt,cue_file1.started,cue_file1.stopped,image_1.started,image_1.stopped,image_2.started,image_2.stopped,sound_icon1.started,sound_icon1.stopped,sound_1.started,sound_1.stopped,sound_icon2.started,sound_icon2.stopped,sound_2.started,sound_2.stopped,image_blank_1.started,image_blank_1.stopped,key_press.started,key_press.stopped,fixation_text.started,cue_file2.started,cue_file2.stopped,image_3.started,image_3.stopped,image_4.started,image_4.stopped,sound_icon3.started,sound_icon3.stopped,sound_3.started,sound_3.stopped,sound_icon4.started,sound_icon4.stopped,sound_4.started,sound_4.stopped,response_yes.started,response_yes.stopped,response_no.started,response_no.stopped,iti_blank.started,iti_blank.stopped,fixation_text.stopped,key_press.keys,key_press.corr,key_press.rt,participant,session,date,expName,psychopyVersion,frameRate,
,,,,,,,,,,,,,,,,,,,,,,,,,,,,,,,,,,,,,,,,,,,,,,,,,,,,8.415527792007197,8.415527792007197,2,1.2256635839585215,,,,,,,,,,,,,,,,,,,,,,,,,,,,,,,,,,,,,,,,,,,,,,,,reldom2_s024,001,2025-02-27_11h45.18.360,Where-A-Scan_AC,2022.2.5,None,
,,,,,,,,,,,,,,,,,,,,,,,,,,,,,,,,,,,,,,,,,,,,0,0,0,0,,,,,,,,,9.679330834012944,9.679330834012944,5,17.024809499969706,,,,,,,,,,,,,,,,,,,,,,,,,,,,,,,,,,,,,,,,,,,,reldom2_s024,001,2025-02-27_11h45.18.360,Where-A-Scan_AC,2022.2.5,None,
,,,,,,,,,,,,,,,,,,,,,,,,,,,,,,,,,,,,,,,,,,,,1,0,1,0,,,,,,,,,26.71795154202846,26.71795154202846,5,1.9843179159797728,,,,,,,,,,,,,,,,,,,,,,,,,,,,,,,,,,,,,,,,,,,,reldom2_s024,001,2025-02-27_11h45.18.360,Where-A-Scan_AC,2022.2.5,None,
,,,,,,,,,,,,,,,,,,,,,,,,,,,,,,,,,,,,,,,,,,,,2,0,2,0,,,,,,,,,28.72287550001056,28.72287550001056,5,1.9797289169800933,,,,,,,,,,,,,,,,,,,,,,,,,,,,,,,,,,,,,,,,,,,,reldom2_s024,001,2025-02-27_11h45.18.360,Where-A-Scan_AC,2022.2.5,None,
,,,,,,,,,,,,,,,,,,,,,,,,,,,,,,,,,,,,,,,,,,,,3,0,3,0,,,,,,,,,30.719856459007133,30.719856459007133,5,1.9819112919503823,,,,,,,,,,,,,,,,,,,,,,,,,,,,,,,,,,,,,,,,,,,,reldom2_s024,001,2025-02-27_11h45.18.360,Where-A-Scan_AC,2022.2.5,None,
0,0.0,None,fixation,stimulus/viswhere_stim/blank_white.png,stimulus/viswhere_stim/blank_white.png,stimulus/audwhere_stim/blank_white.png,stimulus/audwhere_stim/blank_white.png,stimulus/viswhere_stim/blank_white.png,stimulus/viswhere_stim/blank_white.png,stimulus/viswhere_stim/blank_white.png,stimulus/viswhere_stim/blank_white.png,0.0,0.0,0.0,0.0,0,0.0,0,0.0,0,0.0,0,0.0,0,0.0,0.0,0,0.0,0,0.0,0,0.0,0,0.0,0,0.0,0,0.0,0,0.0,0,0.0,16,,,,,0,0,0,0,,,,,,,,,32.92506012500962,32.92506012500962,32.92506012500962,32.92506012500962,32.92506012500962,32.92506012500962,32.92506012500962,32.92506012500962,32.814927500026535,32.92506012500962,32.92506012500962,32.92506012500962,32.814927500026535,32.92506012500962,32.92506012500962,32.92506012500962,32.92506012500962,32.92506012500962,32.92506012500962,32.92506012500962,32.92506012500962,32.92506012500962,32.92506012500962,32.92506012500962,32.92506012500962,32.92506012500962,32.92506012500962,32.8815941666932,32.92506012500962,32.92506012500962,32.92506012500962,32.8815941666932,32.92506012500962,32.92506012500962,32.92506012500962,32.92506012500962,32.92506012500962,38.13916008401429,38.13916008401429,49.09480308400816,None,0,,reldom2_s024,001,2025-02-27_11h45.18.360,Where-A-Scan_AC,2022.2.5,None,
1,First_Order,1.0,viswhere,stimulus/viswhere_stim/blank_white.png,stimulus/viswhere_stim/blank_white.png,stimulus/viswhere_stim/60-deg_dot-left_peru.png,stimulus/viswhere_stim/60-deg_dot-right_turquoise.png,stimulus/viswhere_stim/blank_white.png,stimulus/viswhere_stim/dot_box.png,stimulus/viswhere_stim/dot_yes.png,stimulus/viswhere_stim/dot_no.png,None,Dot,None,Line,2,0.0,0,5.125,0,5.125,0,5.125,0,0.0,0.625,0,0.0,0,0.0,1,0.5,1,2.125,0,0.0,0,0.0,0,0.0,0,0.0,0,,,,,0,1,1,1,,,,,,,,,49.09480308400816,49.09480308400816,49.09480308400816,49.09480308400816,49.09480308400816,49.09480308400816,49.09480308400816,49.09480308400816,49.07670975002693,49.09480308400816,49.09480308400816,49.09480308400816,49.07670975002693,49.09480308400816,49.09480308400816,49.09480308400816,51.20381683402229,55.160335000022314,49.09480308400816,49.09480308400816,54.22672616702039,49.58504829200683,50.60099645901937,51.20381683402229,52.20935370901134,49.09480308400816,49.09480308400816,49.093376416693594,49.09480308400816,49.09480308400816,49.09480308400816,49.093376416693594,49.09480308400816,49.09480308400816,54.22672616702039,49.09480308400816,54.22672616702039,54.32099095900776,54.952332584012765,49.09480308400816,2,1,0.6314181249763351,reldom2_s024,001,2025-02-27_11h45.18.360,Where-A-Scan_AC,2022.2.5,None,
2,First_Order,1.0,viswhere,stimulus/viswhere_stim/blank_white.png,stimulus/viswhere_stim/blank_white.png,stimulus/viswhere_stim/60-deg_dot-right_turquoise.png,stimulus/viswhere_stim/60-deg_dot-left_turquoise.png,stimulus/viswhere_stim/blank_white.png,stimulus/viswhere_stim/line_box.png,stimulus/viswhere_stim/line_yes.png,stimulus/viswhere_stim/line_no.png,None,Line,None,Line,1,0.0,0,5.125,0,5.125,0,5.125,0,0.0,0.625,0,0.0,0,0.0,1,0.5,1,2.125,0,0.0,0,0.0,0,0.0,0,0.0,0,,,,,0,2,2,2,,,,,,,,,55.160335000022314,55.160335000022314,55.160335000022314,55.160335000022314,55.160335000022314,55.160335000022314,55.160335000022314,55.160335000022314,55.142042583339695,55.160335000022314,55.160335000022314,55.160335000022314,55.142042583339695,55.160335000022314,55.160335000022314,55.160335000022314,57.263597875018604,61.225281750026625,55.160335000022314,55.160335000022314,60.28276845900109,55.63387300001341,56.63814279201324,57.263597875018604,58.27438558402355,55.160335000022314,55.160335000022314,55.142042583339695,55.160335000022314,55.160335000022314,55.160335000022314,55.142042583339695,55.160335000022314,55.160335000022314,60.28276845900109,55.160335000022314,60.28276845900109,60.37814204202732,61.00308445902192,55.160335000022314,1,1,0.8930725409591105,reldom2_s024,001,2025-02-27_11h45.18.360,Where-A-Scan_AC,2022.2.5,None,
3,First_Order,1.0,viswhere,stimulus/viswhere_stim/blank_white.png,stimulus/viswhere_stim/blank_white.png,stimulus/viswhere_stim/30-deg_dot-left_salmon.png,stimulus/viswhere_stim/120-deg_dot-left_royalblue.png,stimulus/viswhere_stim/blank_white.png,stimulus/viswhere_stim/line_box.png,stimulus/viswhere_stim/line_yes.png,stimulus/viswhere_stim/line_no.png,None,Line,None,Dot,2,0.0,0,5.125,0,5.125,0,5.125,0,0.0,0.625,0,0.0,0,0.0,1,0.5,1,2.125,0,0.0,0,0.0,0,0.0,0,0.0,0,,,,,0,3,3,3,,,,,,,,,61.225281750026625,61.225281750026625,61.225281750026625,61.225281750026625,61.225281750026625,61.225281750026625,61.225281750026625,61.225281750026625,61.20621512535339,61.225281750026625,61.225281750026625,61.225281750026625,61.20621512535339,61.225281750026625,61.225281750026625,61.225281750026625,63.3301017920021,67.28448933400796,61.225281750026625,61.225281750026625,66.35402233400964,61.6999207920162,62.70426870902884,63.3301017920021,64.34267658402678,61.225281750026625,61.225281750026625,61.20621512535339,61.225281750026625,61.225281750026625,61.225281750026625,61.20621512535339,61.225281750026625,61.225281750026625,66.35402233400964,61.225281750026625,66.35402233400964,66.44924845901551,67.07368100000895,61.225281750026625,2,1,0.6658262909913901,reldom2_s024,001,2025-02-27_11h45.18.360,Where-A-Scan_AC,2022.2.5,None,
4,First_Order,1.0,viswhere,stimulus/viswhere_stim/blank_white.png,stimulus/viswhere_stim/blank_white.png,stimulus/viswhere_stim/150-deg_dot-right_salmon.png,stimulus/viswhere_stim/90-deg_dot-right_goldenrod.png,stimulus/viswhere_stim/blank_white.png,stimulus/viswhere_stim/line_box.png,stimulus/viswhere_stim/line_yes.png,stimulus/viswhere_stim/line_no.png,None,Line,None,Dot,2,0.0,0,5.125,0,5.125,0,5.125,0,0.0,0.625,0,0.0,0,0.0,1,0.5,1,2.125,0,0.0,0,0.0,0,0.0,0,0.0,0,,,,,0,4,4,4,,,,,,,,,67.28448933400796,67.28448933400796,67.28448933400796,67.28448933400796,67.28448933400796,67.28448933400796,67.28448933400796,67.28448933400796,67.26410991735368,67.28448933400796,67.28448933400796,67.28448933400796,67.26410991735368,67.28448933400796,67.28448933400796,67.28448933400796,69.39048208401073,73.41898237500573,67.28448933400796,67.28448933400796,72.42647575002047,67.76275133402669,68.7789464170055,69.39048208401073,70.39308387500932,67.28448933400796,67.28448933400796,67.28077658402034,67.28448933400796,67.28448933400796,67.28448933400796,67.28077658402034,67.28448933400796,67.28448933400796,72.42647575002047,67.28448933400796,72.42647575002047,72.51412808400346,73.14103891700506,67.28448933400796,2,1,0.6701131669688039,reldom2_s024,001,2025-02-27_11h45.18.360,Where-A-Scan_AC,2022.2.5,None,
0,0.0,None,fixation,stimulus/viswhere_stim/blank_white.png,stimulus/viswhere_stim/blank_white.png,stimulus/audwhere_stim/blank_white.png,stimulus/audwhere_stim/blank_white.png,stimulus/viswhere_stim/blank_white.png,stimulus/viswhere_stim/blank_white.png,stimulus/viswhere_stim/blank_white.png,stimulus/viswhere_stim/blank_white.png,0.0,0.0,0.0,0.0,0,0.0,0,0.0,0,0.0,0,0.0,0,0.0,0.0,0,0.0,0,0.0,0,0.0,0,0.0,0,0.0,0,0.0,0,0.0,0,0.0,9,,,,,0,5,5,5,,,,,,,,,73.41898237500573,73.41898237500573,73.41898237500573,73.41898237500573,73.41898237500573,73.41898237500573,73.41898237500573,73.41898237500573,73.32141358334532,73.41898237500573,73.41898237500573,73.41898237500573,73.32141358334532,73.41898237500573,73.41898237500573,73.41898237500573,73.41898237500573,73.41898237500573,73.41898237500573,73.41898237500573,73.41898237500573,73.41898237500573,73.41898237500573,73.41898237500573,73.41898237500573,73.41898237500573,73.41898237500573,73.37141358334532,73.41898237500573,73.41898237500573,73.41898237500573,73.37141358334532,73.41898237500573,73.41898237500573,73.41898237500573,73.41898237500573,73.41898237500573,78.61552937500528,78.61552937500528,82.55035650002537,None,0,,reldom2_s024,001,2025-02-27_11h45.18.360,Where-A-Scan_AC,2022.2.5,None,
5,Second_Order,1.0,viswhere,stimulus/viswhere_stim/90-deg_dot-right_mediumslateblue.png,stimulus/viswhere_stim/90-deg_dot-left_peru.png,stimulus/viswhere_stim/150-deg_dot-left_seagreen.png,stimulus/viswhere_stim/120-deg_dot-left_mediumslateblue.png,stimulus/viswhere_stim/match_blank.png,stimulus/viswhere_stim/match_box.png,stimulus/viswhere_stim/match_yes.png,stimulus/viswhere_stim/match_no.png,2.0,Match,Line,Dot,2,5.125,0,5.125,0,5.125,0,5.125,0,0.75,0.75,1,0.5,1,2.125,1,0.5,1,2.125,0,0.0,0,0.0,0,0.0,0,0.0,0,,,,,0,6,6,6,,,,,,,,,82.55035650002537,87.66347112500807,83.03485379202175,84.033502959006,84.6565832090273,85.65412475002813,82.55035650002537,82.55035650002537,82.56516129235581,82.55035650002537,82.55035650002537,82.55035650002537,82.56516129235581,82.55035650002537,87.66347112500807,88.45680262500537,90.5305488340091,94.42057341701002,88.45680262500537,88.45680262500537,93.59088166701258,88.90299858400249,89.91897637501825,90.5305488340091,91.53820216702297,88.45680262500537,88.45680262500537,88.43176179234482,88.45680262500537,88.45680262500537,88.45680262500537,88.43176179234482,88.45680262500537,88.45680262500537,93.59088166701258,88.45680262500537,93.59088166701258,93.64605566702085,94.42057341701002,88.45680262500537,2,1,0.5470811249688268,reldom2_s024,001,2025-02-27_11h45.18.360,Where-A-Scan_AC,2022.2.5,None,
6,Second_Order,1.0,viswhere,stimulus/viswhere_stim/60-deg_dot-right_salmon.png,stimulus/viswhere_stim/150-deg_dot-right_cyan.png,stimulus/viswhere_stim/120-deg_dot-left_lightsseagreen.png,stimulus/viswhere_stim/90-deg_dot-left_goldenrod.png,stimulus/viswhere_stim/match_blank.png,stimulus/viswhere_stim/match_box.png,stimulus/viswhere_stim/match_yes.png,stimulus/viswhere_stim/match_no.png,1.0,Match,Dot,Dot,1,5.125,0,5.125,0,5.125,0,5.125,0,0.625,0.625,1,0.5,1,2.125,1,0.5,1,2.125,0,0.0,0,0.0,0,0.0,0,0.0,0,,,,,0,7,7,7,,,,,,,,,94.42057341701002,99.54100483402726,94.89557462502853,95.88223712501349,96.5342364590033,97.53206454202882,94.42057341701002,94.42057341701002,94.4338707920222,94.42057341701002,94.42057341701002,94.42057341701002,94.4338707920222,94.42057341701002,99.54100483402726,100.21303191702464,102.29179570902488,106.34876183400047,100.21303191702464,100.21303191702464,105.35173266701167,100.67150900000706,101.68319908401463,102.29179570902488,103.31075179201434,100.21303191702464,100.21303191702464,100.18768375035918,100.21303191702464,100.21303191702464,100.21303191702464,100.18768375035918,100.21303191702464,100.21303191702464,105.35173266701167,100.21303191702464,105.35173266701167,105.40602229200886,106.02730970902485,100.21303191702464,1,1,0.5895293749927077,reldom2_s024,001,2025-02-27_11h45.18.360,Where-A-Scan_AC,2022.2.5,None,
0,0.0,None,fixation,stimulus/viswhere_stim/blank_white.png,stimulus/viswhere_stim/blank_white.png,stimulus/audwhere_stim/blank_white.png,stimulus/audwhere_stim/blank_white.png,stimulus/viswhere_stim/blank_white.png,stimulus/viswhere_stim/blank_white.png,stimulus/viswhere_stim/blank_white.png,stimulus/viswhere_stim/blank_white.png,0.0,0.0,0.0,0.0,0,0.0,0,0.0,0,0.0,0,0.0,0,0.0,0.0,0,0.0,0,0.0,0,0.0,0,0.0,0,0.0,0,0.0,0,0.0,0,0.0,8,,,,,0,8,8,8,,,,,,,,,106.34876183400047,106.34876183400047,106.34876183400047,106.34876183400047,106.34876183400047,106.34876183400047,106.34876183400047,106.34876183400047,106.25086183335709,106.34876183400047,106.34876183400047,106.34876183400047,106.25086183335709,106.34876183400047,106.34876183400047,106.34876183400047,106.34876183400047,106.34876183400047,106.34876183400047,106.34876183400047,106.34876183400047,106.34876183400047,106.34876183400047,106.34876183400047,106.34876183400047,106.34876183400047,106.34876183400047,106.30086183335709,106.34876183400047,106.34876183400047,106.34876183400047,106.30086183335709,106.34876183400047,106.34876183400047,106.34876183400047,106.34876183400047,106.34876183400047,111.5620941670204,111.5620941670204,114.54723854199983,None,0,,reldom2_s024,001,2025-02-27_11h45.18.360,Where-A-Scan_AC,2022.2.5,None,
7,First_Order,2.0,viswhere,stimulus/viswhere_stim/blank_white.png,stimulus/viswhere_stim/blank_white.png,stimulus/viswhere_stim/30-deg_dot-right_cyan.png,stimulus/viswhere_stim/30-deg_dot-left_cyan.png,stimulus/viswhere_stim/blank_white.png,stimulus/viswhere_stim/line_box.png,stimulus/viswhere_stim/line_yes.png,stimulus/viswhere_stim/line_no.png,None,Line,None,Line,1,0.0,0,5.125,0,5.125,0,5.125,0,0.0,0.625,0,0.0,0,0.0,1,0.5,1,2.125,0,0.0,0,0.0,0,0.0,0,0.0,0,,,,,0,9,9,9,,,,,,,,,114.54723854199983,114.54723854199983,114.54723854199983,114.54723854199983,114.54723854199983,114.54723854199983,114.54723854199983,114.54723854199983,114.52739812568568,114.54723854199983,114.54723854199983,114.54723854199983,114.52739812568568,114.54723854199983,114.54723854199983,114.54723854199983,116.65885700000217,120.60476162499981,114.54723854199983,114.54723854199983,119.6751768340182,115.02432704201783,116.03330391700729,116.65885700000217,117.67617658400559,114.54723854199983,114.54723854199983,114.52739812568568,114.54723854199983,114.54723854199983,114.54723854199983,114.52739812568568,114.54723854199983,114.54723854199983,119.6751768340182,114.54723854199983,119.6751768340182,119.76962733402615,120.4168867500266,114.54723854199983,1,1,0.5968467919738032,reldom2_s024,001,2025-02-27_11h45.18.360,Where-A-Scan_AC,2022.2.5,None,
8,First_Order,2.0,viswhere,stimulus/viswhere_stim/blank_white.png,stimulus/viswhere_stim/blank_white.png,stimulus/viswhere_stim/60-deg_dot-right_slateblue.png,stimulus/viswhere_stim/60-deg_dot-left_goldenrod.png,stimulus/viswhere_stim/blank_white.png,stimulus/viswhere_stim/dot_box.png,stimulus/viswhere_stim/dot_yes.png,stimulus/viswhere_stim/dot_no.png,None,Dot,None,Line,2,0.0,0,5.125,0,5.125,0,5.125,0,0.0,0.625,0,0.0,0,0.0,1,0.5,1,2.125,0,0.0,0,0.0,0,0.0,0,0.0,0,,,,,0,10,10,10,,,,,,,,,120.60476162499981,120.60476162499981,120.60476162499981,120.60476162499981,120.60476162499981,120.60476162499981,120.60476162499981,120.60476162499981,120.58380258335576,120.60476162499981,120.60476162499981,120.60476162499981,120.58380258335576,120.60476162499981,120.60476162499981,120.60476162499981,122.71541537501616,126.67397233401425,120.60476162499981,120.60476162499981,125.72919437501696,121.08162504201755,122.0887227920175,122.71541537501616,123.72949345901725,120.60476162499981,120.60476162499981,120.60046925002243,120.60476162499981,120.60476162499981,120.60476162499981,120.60046925002243,120.60476162499981,120.60476162499981,125.72919437501696,120.60476162499981,125.72919437501696,125.82964570901822,126.46429166701273,120.60476162499981,2,1,0.9904519169649575,reldom2_s024,001,2025-02-27_11h45.18.360,Where-A-Scan_AC,2022.2.5,None,
9,First_Order,2.0,viswhere,stimulus/viswhere_stim/blank_white.png,stimulus/viswhere_stim/blank_white.png,stimulus/viswhere_stim/90-deg_dot-right_cyan.png,stimulus/viswhere_stim/60-deg_dot-right_slateblue.png,stimulus/viswhere_stim/blank_white.png,stimulus/viswhere_stim/dot_box.png,stimulus/viswhere_stim/dot_yes.png,stimulus/viswhere_stim/dot_no.png,None,Dot,None,Dot,1,0.0,0,5.125,0,5.125,0,5.125,0,0.0,0.625,0,0.0,0,0.0,1,0.5,1,2.125,0,0.0,0,0.0,0,0.0,0,0.0,0,,,,,0,11,11,11,,,,,,,,,126.67397233401425,126.67397233401425,126.67397233401425,126.67397233401425,126.67397233401425,126.67397233401425,126.67397233401425,126.67397233401425,126.65435958335486,126.67397233401425,126.67397233401425,126.67397233401425,126.65435958335486,126.67397233401425,126.67397233401425,126.67397233401425,128.79009762502392,132.75023654202232,126.67397233401425,126.67397233401425,131.80477125002653,127.15108337500715,128.16063500000746,128.79009762502392,129.80604445902281,126.67397233401425,126.67397233401425,126.67102625002153,126.67397233401425,126.67397233401425,126.67397233401425,126.67102625002153,126.67397233401425,126.67397233401425,131.80477125002653,126.67397233401425,131.80477125002653,131.90051258401945,132.53239954201854,126.67397233401425,1,1,0.8402244999597315,reldom2_s024,001,2025-02-27_11h45.18.360,Where-A-Scan_AC,2022.2.5,None,
10,First_Order,2.0,viswhere,stimulus/viswhere_stim/blank_white.png,stimulus/viswhere_stim/blank_white.png,stimulus/viswhere_stim/60-deg_dot-left_mediumslateblue.png,stimulus/viswhere_stim/150-deg_dot-left_peru.png,stimulus/viswhere_stim/blank_white.png,stimulus/viswhere_stim/dot_box.png,stimulus/viswhere_stim/dot_yes.png,stimulus/viswhere_stim/dot_no.png,None,Dot,None,Dot,1,0.0,0,5.125,0,5.125,0,5.125,0,0.0,0.625,0,0.0,0,0.0,1,0.5,1,2.125,0,0.0,0,0.0,0,0.0,0,0.0,0,,,,,0,12,12,12,,,,,,,,,132.75023654202232,132.75023654202232,132.75023654202232,132.75023654202232,132.75023654202232,132.75023654202232,132.75023654202232,132.75023654202232,132.72876562535143,132.75023654202232,132.75023654202232,132.75023654202232,132.72876562535143,132.75023654202232,132.75023654202232,132.75023654202232,134.85209112500888,138.89872366702184,132.75023654202232,132.75023654202232,137.87768891701126,133.22792533400934,134.2404855840141,134.85209112500888,135.87039104200085,132.75023654202232,132.75023654202232,132.7454322920181,132.75023654202232,132.75023654202232,132.75023654202232,132.7454322920181,132.75023654202232,132.75023654202232,137.87768891701126,132.75023654202232,137.87768891701126,137.97890900002676,138.6057639589999,132.75023654202232,1,1,0.9101344159862492,reldom2_s024,001,2025-02-27_11h45.18.360,Where-A-Scan_AC,2022.2.5,None,
0,0.0,None,fixation,stimulus/viswhere_stim/blank_white.png,stimulus/viswhere_stim/blank_white.png,stimulus/audwhere_stim/blank_white.png,stimulus/audwhere_stim/blank_white.png,stimulus/viswhere_stim/blank_white.png,stimulus/viswhere_stim/blank_white.png,stimulus/viswhere_stim/blank_white.png,stimulus/viswhere_stim/blank_white.png,0.0,0.0,0.0,0.0,0,0.0,0,0.0,0,0.0,0,0.0,0,0.0,0.0,0,0.0,0,0.0,0,0.0,0,0.0,0,0.0,0,0.0,0,0.0,0,0.0,10,,,,,0,13,13,13,,,,,,,,,138.89872366702184,138.89872366702184,138.89872366702184,138.89872366702184,138.89872366702184,138.89872366702184,138.89872366702184,138.89872366702184,138.80051108335223,138.89872366702184,138.89872366702184,138.89872366702184,138.80051108335223,138.89872366702184,138.89872366702184,138.89872366702184,138.89872366702184,138.89872366702184,138.89872366702184,138.89872366702184,138.89872366702184,138.89872366702184,138.89872366702184,138.89872366702184,138.89872366702184,138.89872366702184,138.89872366702184,138.85051108335225,138.89872366702184,138.89872366702184,138.89872366702184,138.85051108335225,138.89872366702184,138.89872366702184,138.89872366702184,138.89872366702184,138.89872366702184,144.0783360840287,144.0783360840287,149.0021074170072,None,0,,reldom2_s024,001,2025-02-27_11h45.18.360,Where-A-Scan_AC,2022.2.5,None,
11,Second_Order,2.0,viswhere,stimulus/viswhere_stim/120-deg_dot-right_turquoise.png,stimulus/viswhere_stim/120-deg_dot-left_goldenrod.png,stimulus/viswhere_stim/60-deg_dot-left_turquoise.png,stimulus/viswhere_stim/150-deg_dot-left_seagreen.png,stimulus/viswhere_stim/match_blank.png,stimulus/viswhere_stim/match_box.png,stimulus/viswhere_stim/match_yes.png,stimulus/viswhere_stim/match_no.png,2.0,Match,Line,Dot,2,5.125,0,5.125,0,5.125,0,5.125,0,0.75,0.75,1,0.5,1,2.125,1,0.5,1,2.125,0,0.0,0,0.0,0,0.0,0,0.0,0,,,,,0,14,14,14,,,,,,,,,149.0021074170072,154.11776612501126,149.4871552500117,150.4746514170256,151.10927304200595,152.10788958400371,149.0021074170072,149.0021074170072,149.0007287916941,149.0021074170072,149.0021074170072,149.0021074170072,149.0007287916941,149.0021074170072,154.11776612501126,154.90845712501323,156.98690062502283,160.88276066700928,154.90845712501323,154.90845712501323,160.03361283402774,155.372591500025,156.39097720902646,156.98690062502283,157.99532604200067,154.90845712501323,154.90845712501323,154.88451495834357,154.90845712501323,154.90845712501323,154.90845712501323,154.88451495834357,154.90845712501323,154.90845712501323,160.03361283402774,154.90845712501323,160.03361283402774,160.1027005840151,160.88276066700928,154.90845712501323,2,1,0.7263567089976277,reldom2_s024,001,2025-02-27_11h45.18.360,Where-A-Scan_AC,2022.2.5,None,
12,Second_Order,2.0,viswhere,stimulus/viswhere_stim/30-deg_dot-right_mediumslateblue.png,stimulus/viswhere_stim/30-deg_dot-left_seagreen.png,stimulus/viswhere_stim/120-deg_dot-right_goldenrod.png,stimulus/viswhere_stim/120-deg_dot-left_salmon.png,stimulus/viswhere_stim/match_blank.png,stimulus/viswhere_stim/match_box.png,stimulus/viswhere_stim/match_yes.png,stimulus/viswhere_stim/match_no.png,1.0,Match,Line,Line,1,5.125,0,5.125,0,5.125,0,5.125,0,0.625,0.625,1,0.5,1,2.125,1,0.5,1,2.125,0,0.0,0,0.0,0,0.0,0,0.0,0,,,,,0,15,15,15,,,,,,,,,160.88276066700928,166.00665775002562,161.36563816701528,162.35163616700447,162.9872251250199,163.985334625002,160.88276066700928,160.88276066700928,160.8962169590057,160.88276066700928,160.88276066700928,160.88276066700928,160.8962169590057,160.88276066700928,166.00665775002562,166.6793235000223,168.7607232920127,172.79124308400787,166.6793235000223,166.6793235000223,171.81911358400248,167.14210704201832,168.15118441701634,168.7607232920127,169.77658454200719,166.6793235000223,166.6793235000223,166.6577633753555,166.6793235000223,166.6793235000223,166.6793235000223,166.6577633753555,166.6793235000223,166.6793235000223,171.81911358400248,166.6793235000223,171.81911358400248,171.87292125000386,172.4941759170033,166.6793235000223,1,1,0.6098341669712681,reldom2_s024,001,2025-02-27_11h45.18.360,Where-A-Scan_AC,2022.2.5,None,
0,0.0,None,fixation,stimulus/viswhere_stim/blank_white.png,stimulus/viswhere_stim/blank_white.png,stimulus/audwhere_stim/blank_white.png,stimulus/audwhere_stim/blank_white.png,stimulus/viswhere_stim/blank_white.png,stimulus/viswhere_stim/blank_white.png,stimulus/viswhere_stim/blank_white.png,stimulus/viswhere_stim/blank_white.png,0.0,0.0,0.0,0.0,0,0.0,0,0.0,0,0.0,0,0.0,0,0.0,0.0,0,0.0,0,0.0,0,0.0,0,0.0,0,0.0,0,0.0,0,0.0,0,0.0,8,,,,,0,16,16,16,,,,,,,,,172.79124308400787,172.79124308400787,172.79124308400787,172.79124308400787,172.79124308400787,172.79124308400787,172.79124308400787,172.79124308400787,172.69112366733802,172.79124308400787,172.79124308400787,172.79124308400787,172.69112366733802,172.79124308400787,172.79124308400787,172.79124308400787,172.79124308400787,172.79124308400787,172.79124308400787,172.79124308400787,172.79124308400787,172.79124308400787,172.79124308400787,172.79124308400787,172.79124308400787,172.79124308400787,172.79124308400787,172.74112366733803,172.79124308400787,172.79124308400787,172.79124308400787,172.74112366733803,172.79124308400787,172.79124308400787,172.79124308400787,172.79124308400787,172.79124308400787,177.98786945900065,177.98786945900065,181.04078204202233,None,0,,reldom2_s024,001,2025-02-27_11h45.18.360,Where-A-Scan_AC,2022.2.5,None,
13,First_Order,3.0,audwhere,stimulus/audwhere_stim/dummy.wav,stimulus/audwhere_stim/dummy.wav,stimulus/audwhere_stim/right_away_290h.wav,stimulus/audwhere_stim/right_toward_280h.wav,stimulus/audwhere_stim/blank_white.png,stimulus/audwhere_stim/side_box.png,stimulus/audwhere_stim/side_yes.png,stimulus/audwhere_stim/side_no.png,None,Side,None,Side,1,0.0,0,5.125,0,5.125,0,5.125,0,0.0,0.625,0,0.0,0,0.0,0,0.0,0,0.0,0,0.0,0,0.0,1,0.5,1,2.125,0,,,,,0,17,17,17,,,,,,,,,181.04078204202233,181.04078204202233,181.04078204202233,181.04078204202233,181.04078204202233,181.04078204202233,181.04078204202233,181.04078204202233,180.9717152506734,181.04078204202233,181.04078204202233,181.04078204202233,180.9717152506734,181.04078204202233,181.04078204202233,181.04078204202233,183.11773195900605,187.160027542006,181.04078204202233,181.04078204202233,186.21554395902785,181.04078204202233,181.04078204202233,181.04078204202233,181.04078204202233,181.5016529590066,182.56406070900266,181.4722528756868,,183.11773195900605,184.18399529202725,183.08798541667446,,181.04078204202233,186.21554395902785,181.04078204202233,186.21554395902785,186.25612820900278,186.90823666701908,181.04078204202233,1,1,0.884846208995441,reldom2_s024,001,2025-02-27_11h45.18.360,Where-A-Scan_AC,2022.2.5,None,
14,First_Order,3.0,audwhere,stimulus/audwhere_stim/dummy.wav,stimulus/audwhere_stim/dummy.wav,stimulus/audwhere_stim/right_away_300h.wav,stimulus/audwhere_stim/left_away_300h.wav,stimulus/audwhere_stim/blank_white.png,stimulus/audwhere_stim/side_box.png,stimulus/audwhere_stim/side_yes.png,stimulus/audwhere_stim/side_no.png,None,Side,None,Direction,2,0.0,0,5.125,0,5.125,0,5.125,0,0.0,0.625,0,0.0,0,0.0,0,0.0,0,0.0,0,0.0,0,0.0,1,0.5,1,2.125,0,,,,,0,18,18,18,,,,,,,,,187.160027542006,187.160027542006,187.160027542006,187.160027542006,187.160027542006,187.160027542006,187.160027542006,187.160027542006,187.08194145834037,187.160027542006,187.160027542006,187.160027542006,187.08194145834037,187.160027542006,187.160027542006,187.160027542006,189.23762591701234,193.2818257920153,187.160027542006,187.160027542006,192.33409179202863,187.160027542006,187.160027542006,187.160027542006,187.160027542006,187.6225060840079,188.68365570902824,187.59313904168474,,189.23762591701234,190.30271770901163,189.20791650069103,,187.160027542006,192.33409179202863,187.160027542006,192.33409179202863,192.3750025840127,193.0291362090211,187.160027542006,2,1,0.7104025829758029,reldom2_s024,001,2025-02-27_11h45.18.360,Where-A-Scan_AC,2022.2.5,None,
15,First_Order,3.0,audwhere,stimulus/audwhere_stim/dummy.wav,stimulus/audwhere_stim/dummy.wav,stimulus/audwhere_stim/left_away_290h.wav,stimulus/audwhere_stim/right_away_280h.wav,stimulus/audwhere_stim/blank_white.png,stimulus/audwhere_stim/direction_box.png,stimulus/audwhere_stim/direction_yes.png,stimulus/audwhere_stim/direction_no.png,None,Direction,None,Direction,1,0.0,0,5.125,0,5.125,0,5.125,0,0.0,0.625,0,0.0,0,0.0,0,0.0,0,0.0,0,0.0,0,0.0,1,0.5,1,2.125,0,,,,,0,19,19,19,,,,,,,,,193.2818257920153,193.2818257920153,193.2818257920153,193.2818257920153,193.2818257920153,193.2818257920153,193.2818257920153,193.2818257920153,193.20332100035935,193.2818257920153,193.2818257920153,193.2818257920153,193.20332100035935,193.2818257920153,193.2818257920153,193.2818257920153,195.37686983402818,199.39915204202407,193.2818257920153,193.2818257920153,198.44806987501215,193.2818257920153,193.2818257920153,193.2818257920153,193.2818257920153,193.7480062090035,194.81976583402138,193.71768075068056,,195.37686983402818,196.4506083750166,195.3466984166919,,193.2818257920153,198.44806987501215,193.2818257920153,198.44806987501215,198.4892048750189,199.145606459002,193.2818257920153,1,1,0.9358419999771286,reldom2_s024,001,2025-02-27_11h45.18.360,Where-A-Scan_AC,2022.2.5,None,
16,First_Order,3.0,audwhere,stimulus/audwhere_stim/dummy.wav,stimulus/audwhere_stim/dummy.wav,stimulus/audwhere_stim/right_toward_270h.wav,stimulus/audwhere_stim/right_away_300h.wav,stimulus/audwhere_stim/blank_white.png,stimulus/audwhere_stim/direction_box.png,stimulus/audwhere_stim/direction_yes.png,stimulus/audwhere_stim/direction_no.png,None,Direction,None,Side,2,0.0,0,5.125,0,5.125,0,5.125,0,0.0,0.625,0,0.0,0,0.0,0,0.0,0,0.0,0,0.0,0,0.0,1,0.5,1,2.125,0,,,,,0,20,20,20,,,,,,,,,199.39915204202407,199.39915204202407,199.39915204202407,199.39915204202407,199.39915204202407,199.39915204202407,199.39915204202407,199.39915204202407,199.3198324583374,199.39915204202407,199.39915204202407,199.39915204202407,199.3198324583374,199.39915204202407,199.39915204202407,199.39915204202407,201.49714012502227,205.5449695000134,199.39915204202407,199.39915204202407,204.57492383400677,199.39915204202407,199.39915204202407,199.39915204202407,199.39915204202407,199.86535300000105,200.93847079202533,199.83519112569437,,201.49714012502227,202.57254279201152,201.4670325416703,,199.39915204202407,204.57492383400677,199.39915204202407,204.57492383400677,204.61592945901793,205.27159304200904,199.39915204202407,2,1,0.9271059579623397,reldom2_s024,001,2025-02-27_11h45.18.360,Where-A-Scan_AC,2022.2.5,None,
0,0.0,None,fixation,stimulus/viswhere_stim/blank_white.png,stimulus/viswhere_stim/blank_white.png,stimulus/audwhere_stim/blank_white.png,stimulus/audwhere_stim/blank_white.png,stimulus/viswhere_stim/blank_white.png,stimulus/viswhere_stim/blank_white.png,stimulus/viswhere_stim/blank_white.png,stimulus/viswhere_stim/blank_white.png,0.0,0.0,0.0,0.0,0,0.0,0,0.0,0,0.0,0,0.0,0,0.0,0.0,0,0.0,0,0.0,0,0.0,0,0.0,0,0.0,0,0.0,0,0.0,0,0.0,9,,,,,0,21,21,21,,,,,,,,,205.5449695000134,205.5449695000134,205.5449695000134,205.5449695000134,205.5449695000134,205.5449695000134,205.5449695000134,205.5449695000134,205.44577829234382,205.5449695000134,205.5449695000134,205.5449695000134,205.44577829234382,205.5449695000134,205.5449695000134,205.5449695000134,205.5449695000134,205.5449695000134,205.5449695000134,205.5449695000134,205.5449695000134,205.5449695000134,205.5449695000134,205.5449695000134,205.5449695000134,205.5449695000134,205.5449695000134,205.4957782923438,205.5449695000134,205.5449695000134,205.5449695000134,205.4957782923438,205.5449695000134,205.5449695000134,205.5449695000134,205.5449695000134,205.5449695000134,210.73077620900585,210.73077620900585,214.72387716700905,None,0,,reldom2_s024,001,2025-02-27_11h45.18.360,Where-A-Scan_AC,2022.2.5,None,
17,Second_Order,3.0,audwhere,stimulus/audwhere_stim/right_away_270h.wav,stimulus/audwhere_stim/left_away_270h.wav,stimulus/audwhere_stim/right_toward_280h.wav,stimulus/audwhere_stim/left_toward_280h.wav,stimulus/viswhere_stim/match_blank.png,stimulus/audwhere_stim/match_box.png,stimulus/viswhere_stim/match_yes.png,stimulus/viswhere_stim/match_no.png,1.0,Match,Direction,Direction,1,5.125,0,5.125,0,5.125,0,5.125,0,0.75,0.75,0,0.0,0,0.0,0,0.0,0,0.0,1,0.5,1,2.125,1,0.5,1,2.125,0,,,,,0,22,22,22,,,,,,,,,214.72387716700905,219.84764495902346,214.72387716700905,214.72387716700905,214.72387716700905,214.72387716700905,215.17393662501127,216.17243008402875,215.18694883367087,,216.80693158402573,217.79707125001005,216.8104692506934,217.79707125001005,219.84764495902346,220.69907658401644,222.7699863750022,,220.69907658401644,220.69907658401644,225.86788608401548,220.69907658401644,220.69907658401644,220.69907658401644,220.69907658401644,221.11153812502744,222.1688156670134,221.0830622916731,,222.7699863750022,223.83567895900342,222.73946312567958,,220.69907658401644,225.86788608401548,220.69907658401644,225.86788608401548,225.86788608401548,,220.69907658401644,1,1,0.929698957974324,reldom2_s024,001,2025-02-27_11h45.18.360,Where-A-Scan_AC,2022.2.5,None,
18,Second_Order,3.0,audwhere,stimulus/audwhere_stim/left_away_300h.wav,stimulus/audwhere_stim/right_away_290h.wav,stimulus/audwhere_stim/left_toward_300h.wav,stimulus/audwhere_stim/left_away_290h.wav,stimulus/viswhere_stim/match_blank.png,stimulus/audwhere_stim/match_box.png,stimulus/viswhere_stim/match_yes.png,stimulus/viswhere_stim/match_no.png,2.0,Match,Direction,Side,2,5.125,0,5.125,0,5.125,0,5.125,0,0.625,0.625,0,0.0,0,0.0,0,0.0,0,0.0,1,0.5,1,2.125,1,0.5,1,2.125,0,,,,,0,23,23,23,,,,,,,,,226.67612254200503,231.7961494170013,226.67612254200503,226.67612254200503,226.67612254200503,226.67612254200503,227.13488995900843,228.13353883402306,227.1478953336812,228.13694862500415,228.75578591701924,229.7535565420112,228.76820091667858,,231.7961494170013,232.5251826250169,234.58302700001514,,232.5251826250169,232.5251826250169,237.70080308400793,232.5251826250169,232.5251826250169,232.5251826250169,232.5251826250169,232.98201370902825,234.03405812502024,232.9529889166918,,234.58302700001514,235.64002433401765,234.55386108367045,,232.5251826250169,237.70080308400793,232.5251826250169,237.70080308400793,237.70080308400793,238.349410542025,232.5251826250169,2,1,0.8939245829824358,reldom2_s024,001,2025-02-27_11h45.18.360,Where-A-Scan_AC,2022.2.5,None,
0,0.0,None,fixation,stimulus/viswhere_stim/blank_white.png,stimulus/viswhere_stim/blank_white.png,stimulus/audwhere_stim/blank_white.png,stimulus/audwhere_stim/blank_white.png,stimulus/viswhere_stim/blank_white.png,stimulus/viswhere_stim/blank_white.png,stimulus/viswhere_stim/blank_white.png,stimulus/viswhere_stim/blank_white.png,0.0,0.0,0.0,0.0,0,0.0,0,0.0,0,0.0,0,0.0,0,0.0,0.0,0,0.0,0,0.0,0,0.0,0,0.0,0,0.0,0,0.0,0,0.0,0,0.0,9,,,,,0,24,24,24,,,,,,,,,238.6214151250024,238.6214151250024,238.6214151250024,238.6214151250024,238.6214151250024,238.6214151250024,238.6214151250024,238.6214151250024,238.523437667349,238.6214151250024,238.6214151250024,238.6214151250024,238.523437667349,238.6214151250024,238.6214151250024,238.6214151250024,238.6214151250024,238.6214151250024,238.6214151250024,238.6214151250024,238.6214151250024,238.6214151250024,238.6214151250024,238.6214151250024,238.6214151250024,238.6214151250024,238.6214151250024,238.57343766734897,238.6214151250024,238.6214151250024,238.6214151250024,238.57343766734897,238.6214151250024,238.6214151250024,238.6214151250024,238.6214151250024,238.6214151250024,243.8204943340097,243.8204943340097,247.88295866700355,None,0,,reldom2_s024,001,2025-02-27_11h45.18.360,Where-A-Scan_AC,2022.2.5,None,
19,First_Order,4.0,audwhere,stimulus/audwhere_stim/dummy.wav,stimulus/audwhere_stim/dummy.wav,stimulus/audwhere_stim/right_away_300h.wav,stimulus/audwhere_stim/left_away_280h.wav,stimulus/audwhere_stim/blank_white.png,stimulus/audwhere_stim/direction_box.png,stimulus/audwhere_stim/direction_yes.png,stimulus/audwhere_stim/direction_no.png,None,Direction,None,Direction,1,0.0,0,5.125,0,5.125,0,5.125,0,0.0,0.625,0,0.0,0,0.0,0,0.0,0,0.0,0,0.0,0,0.0,1,0.5,1,2.125,0,,,,,0,25,25,25,,,,,,,,,247.88295866700355,247.88295866700355,247.88295866700355,247.88295866700355,247.88295866700355,247.88295866700355,247.88295866700355,247.88295866700355,247.81076004167943,247.88295866700355,247.88295866700355,247.88295866700355,247.81076004167943,247.88295866700355,247.88295866700355,247.88295866700355,249.97325516701676,,247.88295866700355,247.88295866700355,253.0414289170003,247.88295866700355,247.88295866700355,247.88295866700355,247.88295866700355,248.34811729201465,249.41810254202574,248.318368166689,,249.97325516701676,251.04556358401896,249.94336270867305,,247.88295866700355,253.0414289170003,247.88295866700355,253.0414289170003,253.08261195902014,253.73634358402342,247.88295866700355,1,1,1.473501624976052,reldom2_s024,001,2025-02-27_11h45.18.360,Where-A-Scan_AC,2022.2.5,None,
20,First_Order,4.0,audwhere,stimulus/audwhere_stim/dummy.wav,stimulus/audwhere_stim/dummy.wav,stimulus/audwhere_stim/right_toward_270h.wav,stimulus/audwhere_stim/right_away_280h.wav,stimulus/audwhere_stim/blank_white.png,stimulus/audwhere_stim/direction_box.png,stimulus/audwhere_stim/direction_yes.png,stimulus/audwhere_stim/direction_no.png,None,Direction,None,Side,2,0.0,0,5.125,0,5.125,0,5.125,0,0.0,0.625,0,0.0,0,0.0,0,0.0,0,0.0,0,0.0,0,0.0,1,0.5,1,2.125,0,,,,,0,26,26,26,,,,,,,,,253.9893281670229,253.9893281670229,253.9893281670229,253.9893281670229,253.9893281670229,253.9893281670229,253.9893281670229,253.9893281670229,253.91055687534586,253.9893281670229,253.9893281670229,253.9893281670229,253.91055687534586,253.9893281670229,253.9893281670229,253.9893281670229,256.07833670900436,260.1178835420287,253.9893281670229,253.9893281670229,259.1669779170188,253.9893281670229,253.9893281670229,253.9893281670229,253.9893281670229,254.45446950002224,255.52309316702303,254.42410966667038,,256.07833670900436,257.10775354201905,256.0483612086721,,253.9893281670229,259.1669779170188,253.9893281670229,259.1669779170188,259.2082834170142,259.8644773750275,253.9893281670229,2,1,0.9227103329612873,reldom2_s024,001,2025-02-27_11h45.18.360,Where-A-Scan_AC,2022.2.5,None,
21,First_Order,4.0,audwhere,stimulus/audwhere_stim/dummy.wav,stimulus/audwhere_stim/dummy.wav,stimulus/audwhere_stim/left_toward_300h.wav,stimulus/audwhere_stim/left_away_300h.wav,stimulus/audwhere_stim/blank_white.png,stimulus/audwhere_stim/side_box.png,stimulus/audwhere_stim/side_yes.png,stimulus/audwhere_stim/side_no.png,None,Side,None,Side,1,0.0,0,5.125,0,5.125,0,5.125,0,0.0,0.625,0,0.0,0,0.0,0,0.0,0,0.0,0,0.0,0,0.0,1,0.5,1,2.125,0,,,,,0,27,27,27,,,,,,,,,260.1178835420287,260.1178835420287,260.1178835420287,260.1178835420287,260.1178835420287,260.1178835420287,260.1178835420287,260.1178835420287,260.0385699173513,260.1178835420287,260.1178835420287,260.1178835420287,260.0385699173513,260.1178835420287,260.1178835420287,260.1178835420287,262.20374087500386,,260.1178835420287,260.1178835420287,265.30586795901763,260.1178835420287,260.1178835420287,260.1178835420287,260.1178835420287,260.58210995901027,261.64870258400333,260.55218979169535,,262.20374087500386,263.2742061250028,262.1738944586871,,260.1178835420287,265.30586795901763,260.1178835420287,265.30586795901763,265.346951250016,265.9984352500178,260.1178835420287,1,1,0.7087138749484438,reldom2_s024,001,2025-02-27_11h45.18.360,Where-A-Scan_AC,2022.2.5,None,
22,First_Order,4.0,audwhere,stimulus/audwhere_stim/dummy.wav,stimulus/audwhere_stim/dummy.wav,stimulus/audwhere_stim/right_away_270h.wav,stimulus/audwhere_stim/left_away_300h.wav,stimulus/audwhere_stim/blank_white.png,stimulus/audwhere_stim/side_box.png,stimulus/audwhere_stim/side_yes.png,stimulus/audwhere_stim/side_no.png,None,Side,None,Direction,2,0.0,0,5.125,0,5.125,0,5.125,0,0.0,0.625,0,0.0,0,0.0,0,0.0,0,0.0,0,0.0,0,0.0,1,0.5,1,2.125,0,,,,,0,28,28,28,,,,,,,,,266.2107401670073,266.2107401670073,266.2107401670073,266.2107401670073,266.2107401670073,266.2107401670073,266.2107401670073,266.2107401670073,266.1317685833511,266.2107401670073,266.2107401670073,266.2107401670073,266.1317685833511,266.2107401670073,266.2107401670073,266.2107401670073,268.29673095900216,,266.2107401670073,266.2107401670073,271.4022210420226,266.2107401670073,266.2107401670073,266.2107401670073,266.2107401670073,266.6740643340163,267.7414051250089,266.6444102506832,,268.29673095900216,269.3672776670137,268.2667460836858,,266.2107401670073,271.4022210420226,266.2107401670073,271.4022210420226,271.4022210420226,272.05536091700196,266.2107401670073,2,1,0.5190907499636523,reldom2_s024,001,2025-02-27_11h45.18.360,Where-A-Scan_AC,2022.2.5,None,
0,0.0,None,fixation,stimulus/viswhere_stim/blank_white.png,stimulus/viswhere_stim/blank_white.png,stimulus/audwhere_stim/blank_white.png,stimulus/audwhere_stim/blank_white.png,stimulus/viswhere_stim/blank_white.png,stimulus/viswhere_stim/blank_white.png,stimulus/viswhere_stim/blank_white.png,stimulus/viswhere_stim/blank_white.png,0.0,0.0,0.0,0.0,0,0.0,0,0.0,0,0.0,0,0.0,0,0.0,0.0,0,0.0,0,0.0,0,0.0,0,0.0,0,0.0,0,0.0,0,0.0,0,0.0,9,,,,,0,29,29,29,,,,,,,,,272.3282290000061,272.3282290000061,272.3282290000061,272.3282290000061,272.3282290000061,272.3282290000061,272.3282290000061,272.3282290000061,272.2294487083583,272.3282290000061,272.3282290000061,272.3282290000061,272.2294487083583,272.3282290000061,272.3282290000061,272.3282290000061,272.3282290000061,272.3282290000061,272.3282290000061,272.3282290000061,272.3282290000061,272.3282290000061,272.3282290000061,272.3282290000061,272.3282290000061,272.3282290000061,272.3282290000061,272.2794487083583,272.3282290000061,272.3282290000061,272.3282290000061,272.2794487083583,272.3282290000061,272.3282290000061,272.3282290000061,272.3282290000061,272.3282290000061,277.56269791701925,277.56269791701925,281.4981143750192,None,0,,reldom2_s024,001,2025-02-27_11h45.18.360,Where-A-Scan_AC,2022.2.5,None,
23,Second_Order,4.0,audwhere,stimulus/audwhere_stim/left_away_270h.wav,stimulus/audwhere_stim/left_toward_290h.wav,stimulus/audwhere_stim/left_toward_300h.wav,stimulus/audwhere_stim/right_toward_280h.wav,stimulus/viswhere_stim/match_blank.png,stimulus/audwhere_stim/match_box.png,stimulus/viswhere_stim/match_yes.png,stimulus/viswhere_stim/match_no.png,2.0,Match,Side,Direction,2,5.125,0,5.125,0,5.125,0,5.125,0,0.75,0.75,0,0.0,0,0.0,0,0.0,0,0.0,1,0.5,1,2.125,1,0.5,1,2.125,0,,,,,0,30,30,30,,,,,,,,,281.4981143750192,286.61852179202833,281.4981143750192,281.4981143750192,281.4981143750192,281.4981143750192,281.94426566699985,282.93149825002183,281.95767262566756,,283.5820650840178,284.580554959015,283.5945784586695,,286.61852179202833,287.470140334015,289.54805100001977,293.4599597500055,287.470140334015,287.470140334015,292.6493707500049,287.470140334015,287.470140334015,287.470140334015,287.470140334015,287.8828073340119,288.9471386250225,287.85352916666693,,289.54805100001977,290.61624712502817,289.5182137916893,,287.470140334015,292.6493707500049,287.470140334015,292.6493707500049,292.6493707500049,,287.470140334015,2,1,0.5070750409795437,reldom2_s024,001,2025-02-27_11h45.18.360,Where-A-Scan_AC,2022.2.5,None,
24,Second_Order,4.0,audwhere,stimulus/audwhere_stim/right_toward_290h.wav,stimulus/audwhere_stim/right_away_290h.wav,stimulus/audwhere_stim/left_away_300h.wav,stimulus/audwhere_stim/left_toward_270h.wav,stimulus/viswhere_stim/match_blank.png,stimulus/audwhere_stim/match_box.png,stimulus/viswhere_stim/match_yes.png,stimulus/viswhere_stim/match_no.png,1.0,Match,Side,Side,1,5.125,0,5.125,0,5.125,0,5.125,0,0.625,0.625,0,0.0,0,0.0,0,0.0,0,0.0,1,0.5,1,2.125,1,0.5,1,2.125,0,,,,,0,31,31,31,,,,,,,,,293.4599597500055,298.584470709,293.4599597500055,293.4599597500055,293.4599597500055,293.4599597500055,293.91914587502833,294.9079697500274,293.9214470416812,,295.5436976670171,296.54165995900985,295.5557533756694,,298.584470709,299.31251700001303,301.37534712502384,305.4240542090265,299.31251700001303,299.31251700001303,304.5002456670045,299.31251700001303,299.31251700001303,299.31251700001303,299.31251700001303,299.76797679200536,300.82489775001886,299.7386690836904,,301.37534712502384,302.43533950002166,301.34617545869355,,299.31251700001303,304.5002456670045,299.31251700001303,304.5002456670045,304.5002456670045,305.1515049590089,299.31251700001303,1,1,0.4553122919751331,reldom2_s024,001,2025-02-27_11h45.18.360,Where-A-Scan_AC,2022.2.5,None,
0,0.0,None,fixation,stimulus/viswhere_stim/blank_white.png,stimulus/viswhere_stim/blank_white.png,stimulus/audwhere_stim/blank_white.png,stimulus/audwhere_stim/blank_white.png,stimulus/viswhere_stim/blank_white.png,stimulus/viswhere_stim/blank_white.png,stimulus/viswhere_stim/blank_white.png,stimulus/viswhere_stim/blank_white.png,0.0,0.0,0.0,0.0,0,0.0,0,0.0,0,0.0,0,0.0,0,0.0,0.0,0,0.0,0,0.0,0,0.0,0,0.0,0,0.0,0,0.0,0,0.0,0,0.0,10,,,,,0,32,32,32,,,,,,,,,305.4240542090265,305.4240542090265,305.4240542090265,305.4240542090265,305.4240542090265,305.4240542090265,305.4240542090265,305.4240542090265,305.3251194583446,305.4240542090265,305.4240542090265,305.4240542090265,305.3251194583446,305.4240542090265,305.4240542090265,305.4240542090265,305.4240542090265,305.4240542090265,305.4240542090265,305.4240542090265,305.4240542090265,305.4240542090265,305.4240542090265,305.4240542090265,305.4240542090265,305.4240542090265,305.4240542090265,305.3751194583446,305.4240542090265,305.4240542090265,305.4240542090265,305.3751194583446,305.4240542090265,305.4240542090265,305.4240542090265,305.4240542090265,305.4240542090265,310.62748933400144,310.62748933400144,315.6023668750131,None,0,,reldom2_s024,001,2025-02-27_11h45.18.360,Where-A-Scan_AC,2022.2.5,None,
25,First_Order,5.0,viswhere,stimulus/viswhere_stim/blank_white.png,stimulus/viswhere_stim/blank_white.png,stimulus/viswhere_stim/120-deg_dot-right_goldenrod.png,stimulus/viswhere_stim/150-deg_dot-right_turquoise.png,stimulus/viswhere_stim/blank_white.png,stimulus/viswhere_stim/dot_box.png,stimulus/viswhere_stim/dot_yes.png,stimulus/viswhere_stim/dot_no.png,None,Dot,None,Dot,1,0.0,0,5.125,0,5.125,0,5.125,0,0.0,0.625,0,0.0,0,0.0,1,0.5,1,2.125,0,0.0,0,0.0,0,0.0,0,0.0,0,,,,,0,33,33,33,,,,,,,,,315.6023668750131,315.6023668750131,315.6023668750131,315.6023668750131,315.6023668750131,315.6023668750131,315.6023668750131,315.6023668750131,315.58262812568375,315.6023668750131,315.6023668750131,315.6023668750131,315.58262812568375,315.6023668750131,315.6023668750131,315.6023668750131,317.70939975001966,321.66525537500274,315.6023668750131,315.6023668750131,320.742376292008,316.0805782090174,317.09770466701593,317.70939975001966,318.7312602090242,315.6023668750131,315.6023668750131,315.58262812568375,315.6023668750131,315.6023668750131,315.6023668750131,315.58262812568375,315.6023668750131,315.6023668750131,320.742376292008,315.6023668750131,320.742376292008,320.8241491250228,321.45065558401984,315.6023668750131,1,1,0.6160143749730196,reldom2_s024,001,2025-02-27_11h45.18.360,Where-A-Scan_AC,2022.2.5,None,
26,First_Order,5.0,viswhere,stimulus/viswhere_stim/blank_white.png,stimulus/viswhere_stim/blank_white.png,stimulus/viswhere_stim/90-deg_dot-right_royalblue.png,stimulus/viswhere_stim/120-deg_dot-right_seagreen.png,stimulus/viswhere_stim/blank_white.png,stimulus/viswhere_stim/line_box.png,stimulus/viswhere_stim/line_yes.png,stimulus/viswhere_stim/line_no.png,None,Line,None,Dot,2,0.0,0,5.125,0,5.125,0,5.125,0,0.0,0.625,0,0.0,0,0.0,1,0.5,1,2.125,0,0.0,0,0.0,0,0.0,0,0.0,0,,,,,0,34,34,34,,,,,,,,,321.66525537500274,321.66525537500274,321.66525537500274,321.66525537500274,321.66525537500274,321.66525537500274,321.66525537500274,321.66525537500274,321.6450455833595,321.66525537500274,321.66525537500274,321.66525537500274,321.6450455833595,321.66525537500274,321.66525537500274,321.66525537500274,323.7693783750001,327.72308341701864,321.66525537500274,321.66525537500274,326.79629587501404,322.1444852500281,323.1600841250038,323.7693783750001,324.78969025000697,321.66525537500274,321.66525537500274,321.66171225002614,321.66525537500274,321.66525537500274,321.66525537500274,321.66171225002614,321.66525537500274,321.66525537500274,326.79629587501404,321.66525537500274,326.79629587501404,326.8938138340018,327.522373542015,321.66525537500274,2,1,0.5894697079784237,reldom2_s024,001,2025-02-27_11h45.18.360,Where-A-Scan_AC,2022.2.5,None,
27,First_Order,5.0,viswhere,stimulus/viswhere_stim/blank_white.png,stimulus/viswhere_stim/blank_white.png,stimulus/viswhere_stim/60-deg_dot-left_lightsseagreen.png,stimulus/viswhere_stim/60-deg_dot-right_slateblue.png,stimulus/viswhere_stim/blank_white.png,stimulus/viswhere_stim/line_box.png,stimulus/viswhere_stim/line_yes.png,stimulus/viswhere_stim/line_no.png,None,Line,None,Line,1,0.0,0,5.125,0,5.125,0,5.125,0,0.0,0.625,0,0.0,0,0.0,1,0.5,1,2.125,0,0.0,0,0.0,0,0.0,0,0.0,0,,,,,0,35,35,35,,,,,,,,,327.72308341701864,327.72308341701864,327.72308341701864,327.72308341701864,327.72308341701864,327.72308341701864,327.72308341701864,327.72308341701864,327.7025904583473,327.72308341701864,327.72308341701864,327.72308341701864,327.7025904583473,327.72308341701864,327.72308341701864,327.72308341701864,329.82381491700653,333.79326720902463,327.72308341701864,327.72308341701864,332.8443231670244,328.2000830420002,329.2122057500237,329.82381491700653,330.8423653340142,327.72308341701864,327.72308341701864,327.71925712501394,327.72308341701864,327.72308341701864,327.72308341701864,327.71925712501394,327.72308341701864,327.72308341701864,332.8443231670244,327.72308341701864,332.8443231670244,332.9452441250032,333.57609020901145,327.72308341701864,1,1,0.5686302499671001,reldom2_s024,001,2025-02-27_11h45.18.360,Where-A-Scan_AC,2022.2.5,None,
28,First_Order,5.0,viswhere,stimulus/viswhere_stim/blank_white.png,stimulus/viswhere_stim/blank_white.png,stimulus/viswhere_stim/120-deg_dot-right_slateblue.png,stimulus/viswhere_stim/90-deg_dot-right_cyan.png,stimulus/viswhere_stim/blank_white.png,stimulus/viswhere_stim/dot_box.png,stimulus/viswhere_stim/dot_yes.png,stimulus/viswhere_stim/dot_no.png,None,Dot,None,Dot,1,0.0,0,5.125,0,5.125,0,5.125,0,0.0,0.625,0,0.0,0,0.0,1,0.5,1,2.125,0,0.0,0,0.0,0,0.0,0,0.0,0,,,,,0,36,36,36,,,,,,,,,333.79326720902463,333.79326720902463,333.79326720902463,333.79326720902463,333.79326720902463,333.79326720902463,333.79326720902463,333.79326720902463,333.7730860423374,333.79326720902463,333.79326720902463,333.79326720902463,333.7730860423374,333.79326720902463,333.79326720902463,333.79326720902463,335.8940395840036,339.9320638340141,333.79326720902463,333.79326720902463,338.9176122500212,334.27077054200345,335.2847364170011,335.8940395840036,336.91141466700356,333.79326720902463,333.79326720902463,333.78975270900406,333.79326720902463,333.79326720902463,333.79326720902463,333.78975270900406,333.79326720902463,333.79326720902463,338.9176122500212,333.79326720902463,338.9176122500212,339.0127394590236,339.63998195901513,333.79326720902463,1,1,1.196830915985629,reldom2_s024,001,2025-02-27_11h45.18.360,Where-A-Scan_AC,2022.2.5,None,
0,0.0,None,fixation,stimulus/viswhere_stim/blank_white.png,stimulus/viswhere_stim/blank_white.png,stimulus/audwhere_stim/blank_white.png,stimulus/audwhere_stim/blank_white.png,stimulus/viswhere_stim/blank_white.png,stimulus/viswhere_stim/blank_white.png,stimulus/viswhere_stim/blank_white.png,stimulus/viswhere_stim/blank_white.png,0.0,0.0,0.0,0.0,0,0.0,0,0.0,0,0.0,0,0.0,0,0.0,0.0,0,0.0,0,0.0,0,0.0,0,0.0,0,0.0,0,0.0,0,0.0,0,0.0,9,,,,,0,37,37,37,,,,,,,,,339.9320638340141,339.9320638340141,339.9320638340141,339.9320638340141,339.9320638340141,339.9320638340141,339.9320638340141,339.9320638340141,339.8339789173527,339.9320638340141,339.9320638340141,339.9320638340141,339.8339789173527,339.9320638340141,339.9320638340141,339.9320638340141,339.9320638340141,339.9320638340141,339.9320638340141,339.9320638340141,339.9320638340141,339.9320638340141,339.9320638340141,339.9320638340141,339.9320638340141,339.9320638340141,339.9320638340141,339.8839789173527,339.9320638340141,339.9320638340141,339.9320638340141,339.8839789173527,339.9320638340141,339.9320638340141,339.9320638340141,339.9320638340141,339.9320638340141,345.1260994170152,345.1260994170152,349.04312145902077,None,0,,reldom2_s024,001,2025-02-27_11h45.18.360,Where-A-Scan_AC,2022.2.5,None,
29,Second_Order,5.0,viswhere,stimulus/viswhere_stim/150-deg_dot-right_cyan.png,stimulus/viswhere_stim/150-deg_dot-left_peru.png,stimulus/viswhere_stim/90-deg_dot-left_goldenrod.png,stimulus/viswhere_stim/90-deg_dot-right_mediumslateblue.png,stimulus/viswhere_stim/match_blank.png,stimulus/viswhere_stim/match_box.png,stimulus/viswhere_stim/match_yes.png,stimulus/viswhere_stim/match_no.png,1.0,Match,Line,Line,1,5.125,0,5.125,0,5.125,0,5.125,0,0.75,0.75,1,0.5,1,2.125,1,0.5,1,2.125,0,0.0,0,0.0,0,0.0,0,0.0,0,,,,,0,38,38,38,,,,,,,,,349.04312145902077,354.1628827920067,349.51768050002283,350.5158866670099,351.15108116701595,352.1395990840101,349.04312145902077,349.04312145902077,349.05787441734185,349.04312145902077,349.04312145902077,349.04312145902077,349.05787441734185,349.04312145902077,354.1628827920067,354.95546350002405,357.03746762502124,360.9257394170272,354.95546350002405,354.95546350002405,360.0825910840067,355.4009720000031,356.42158920902875,357.03746762502124,358.0446519170073,354.95546350002405,354.95546350002405,354.92985479234676,354.95546350002405,354.95546350002405,354.95546350002405,354.92985479234676,354.95546350002405,354.95546350002405,360.0825910840067,354.95546350002405,360.0825910840067,360.1514873340202,360.9257394170272,354.95546350002405,1,1,0.5514002919953782,reldom2_s024,001,2025-02-27_11h45.18.360,Where-A-Scan_AC,2022.2.5,None,
30,Second_Order,5.0,viswhere,stimulus/viswhere_stim/90-deg_dot-right_royalblue.png,stimulus/viswhere_stim/60-deg_dot-right_peru.png,stimulus/viswhere_stim/30-deg_dot-left_slateblue.png,stimulus/viswhere_stim/90-deg_dot-left_seagreen.png,stimulus/viswhere_stim/match_blank.png,stimulus/viswhere_stim/match_box.png,stimulus/viswhere_stim/match_yes.png,stimulus/viswhere_stim/match_no.png,1.0,Match,Dot,Dot,1,5.125,0,5.125,0,5.125,0,5.125,0,0.625,0.625,1,0.5,1,2.125,1,0.5,1,2.125,0,0.0,0,0.0,0,0.0,0,0.0,0,,,,,0,39,39,39,,,,,,,,,360.9257394170272,366.0401605000079,361.41139479202684,362.41036100001656,363.033861584001,364.03123845902155,360.9257394170272,360.9257394170272,360.9392394170107,360.9257394170272,360.9257394170272,360.9257394170272,360.9392394170107,360.9257394170272,366.0401605000079,366.71219395901426,368.7860938750091,372.83432600001106,366.71219395901426,366.71219395901426,371.8412222500192,367.15802787500434,368.17365595902083,368.7860938750091,369.78976150002563,366.71219395901426,366.71219395901426,366.6867121673499,366.71219395901426,366.71219395901426,366.71219395901426,366.6867121673499,366.71219395901426,366.71219395901426,371.8412222500192,366.71219395901426,371.8412222500192,371.91190054200706,372.5367632920097,366.71219395901426,1,1,0.4630514999735169,reldom2_s024,001,2025-02-27_11h45.18.360,Where-A-Scan_AC,2022.2.5,None,
0,0.0,None,fixation,stimulus/viswhere_stim/blank_white.png,stimulus/viswhere_stim/blank_white.png,stimulus/audwhere_stim/blank_white.png,stimulus/audwhere_stim/blank_white.png,stimulus/viswhere_stim/blank_white.png,stimulus/viswhere_stim/blank_white.png,stimulus/viswhere_stim/blank_white.png,stimulus/viswhere_stim/blank_white.png,0.0,0.0,0.0,0.0,0,0.0,0,0.0,0,0.0,0,0.0,0,0.0,0.0,0,0.0,0,0.0,0,0.0,0,0.0,0,0.0,0,0.0,0,0.0,0,0.0,8,,,,,0,40,40,40,,,,,,,,,372.83432600001106,372.83432600001106,372.83432600001106,372.83432600001106,372.83432600001106,372.83432600001106,372.83432600001106,372.83432600001106,372.7329732083502,372.83432600001106,372.83432600001106,372.83432600001106,372.7329732083502,372.83432600001106,372.83432600001106,372.83432600001106,372.83432600001106,372.83432600001106,372.83432600001106,372.83432600001106,372.83432600001106,372.83432600001106,372.83432600001106,372.83432600001106,372.83432600001106,372.83432600001106,372.83432600001106,372.7829732083502,372.83432600001106,372.83432600001106,372.83432600001106,372.7829732083502,372.83432600001106,372.83432600001106,372.83432600001106,372.83432600001106,372.83432600001106,378.05211416701786,378.05211416701786,381.01008016700507,None,0,,reldom2_s024,001,2025-02-27_11h45.18.360,Where-A-Scan_AC,2022.2.5,None,
31,First_Order,6.0,viswhere,stimulus/viswhere_stim/blank_white.png,stimulus/viswhere_stim/blank_white.png,stimulus/viswhere_stim/90-deg_dot-right_lightsseagreen.png,stimulus/viswhere_stim/90-deg_dot-left_turquoise.png,stimulus/viswhere_stim/blank_white.png,stimulus/viswhere_stim/line_box.png,stimulus/viswhere_stim/line_yes.png,stimulus/viswhere_stim/line_no.png,None,Line,None,Line,1,0.0,0,5.125,0,5.125,0,5.125,0,0.0,0.625,0,0.0,0,0.0,1,0.5,1,2.125,0,0.0,0,0.0,0,0.0,0,0.0,0,,,,,0,41,41,41,,,,,,,,,381.01008016700507,381.01008016700507,381.01008016700507,381.01008016700507,381.01008016700507,381.01008016700507,381.01008016700507,381.01008016700507,380.98977345869446,381.01008016700507,381.01008016700507,381.01008016700507,380.98977345869446,381.01008016700507,381.01008016700507,381.01008016700507,383.11673145901295,387.06682137501775,381.01008016700507,381.01008016700507,386.13479545901646,381.48831683400203,382.5037392920058,383.11673145901295,384.1204240420193,381.01008016700507,381.01008016700507,381.00644012536117,381.01008016700507,381.01008016700507,381.01008016700507,381.00644012536117,381.01008016700507,381.01008016700507,386.13479545901646,381.01008016700507,386.13479545901646,386.23358716702205,386.8657245420036,381.01008016700507,1,1,0.6199760409654118,reldom2_s024,001,2025-02-27_11h45.18.360,Where-A-Scan_AC,2022.2.5,None,
32,First_Order,6.0,viswhere,stimulus/viswhere_stim/blank_white.png,stimulus/viswhere_stim/blank_white.png,stimulus/viswhere_stim/30-deg_dot-right_goldenrod.png,stimulus/viswhere_stim/30-deg_dot-left_seagreen.png,stimulus/viswhere_stim/blank_white.png,stimulus/viswhere_stim/dot_box.png,stimulus/viswhere_stim/dot_yes.png,stimulus/viswhere_stim/dot_no.png,None,Dot,None,Line,2,0.0,0,5.125,0,5.125,0,5.125,0,0.0,0.625,0,0.0,0,0.0,1,0.5,1,2.125,0,0.0,0,0.0,0,0.0,0,0.0,0,,,,,0,42,42,42,,,,,,,,,387.06682137501775,387.06682137501775,387.06682137501775,387.06682137501775,387.06682137501775,387.06682137501775,387.06682137501775,387.06682137501775,387.04617345835624,387.06682137501775,387.06682137501775,387.06682137501775,387.04617345835624,387.06682137501775,387.06682137501775,387.06682137501775,389.1675387090072,393.1337012500153,387.06682137501775,387.06682137501775,392.20496191701386,387.54463345900876,388.5562062920071,389.1675387090072,390.1838837090181,387.06682137501775,387.06682137501775,387.0628401250229,387.06682137501775,387.06682137501775,387.06682137501775,387.0628401250229,387.06682137501775,387.06682137501775,392.20496191701386,387.06682137501775,392.20496191701386,392.28886962501565,392.9170930000255,387.06682137501775,2,1,0.5841091669572052,reldom2_s024,001,2025-02-27_11h45.18.360,Where-A-Scan_AC,2022.2.5,None,
33,First_Order,6.0,viswhere,stimulus/viswhere_stim/blank_white.png,stimulus/viswhere_stim/blank_white.png,stimulus/viswhere_stim/150-deg_dot-left_lightsseagreen.png,stimulus/viswhere_stim/150-deg_dot-right_royalblue.png,stimulus/viswhere_stim/blank_white.png,stimulus/viswhere_stim/dot_box.png,stimulus/viswhere_stim/dot_yes.png,stimulus/viswhere_stim/dot_no.png,None,Dot,None,Line,2,0.0,0,5.125,0,5.125,0,5.125,0,0.0,0.625,0,0.0,0,0.0,1,0.5,1,2.125,0,0.0,0,0.0,0,0.0,0,0.0,0,,,,,0,43,43,43,,,,,,,,,393.1337012500153,393.1337012500153,393.1337012500153,393.1337012500153,393.1337012500153,393.1337012500153,393.1337012500153,393.1337012500153,393.11351704235614,393.1337012500153,393.1337012500153,393.1337012500153,393.11351704235614,393.1337012500153,393.1337012500153,393.1337012500153,395.2506360420084,399.192937875021,393.1337012500153,393.1337012500153,398.2612625420152,393.6147686250042,394.63502087502275,395.2506360420084,396.25706091700704,393.1337012500153,393.1337012500153,393.1301837090228,393.1337012500153,393.1337012500153,393.1337012500153,393.1301837090228,393.1337012500153,393.1337012500153,398.2612625420152,393.1337012500153,398.2612625420152,398.35906700001215,398.99089491702034,393.1337012500153,2,1,0.6555446669808589,reldom2_s024,001,2025-02-27_11h45.18.360,Where-A-Scan_AC,2022.2.5,None,
34,First_Order,6.0,viswhere,stimulus/viswhere_stim/blank_white.png,stimulus/viswhere_stim/blank_white.png,stimulus/viswhere_stim/120-deg_dot-left_peru.png,stimulus/viswhere_stim/90-deg_dot-left_royalblue.png,stimulus/viswhere_stim/blank_white.png,stimulus/viswhere_stim/line_box.png,stimulus/viswhere_stim/line_yes.png,stimulus/viswhere_stim/line_no.png,None,Line,None,Dot,2,0.0,0,5.125,0,5.125,0,5.125,0,0.0,0.625,0,0.0,0,0.0,1,0.5,1,2.125,0,0.0,0,0.0,0,0.0,0,0.0,0,,,,,0,44,44,44,,,,,,,,,399.192937875021,399.192937875021,399.192937875021,399.192937875021,399.192937875021,399.192937875021,399.192937875021,399.192937875021,399.17147162535304,399.192937875021,399.192937875021,399.192937875021,399.17147162535304,399.192937875021,399.192937875021,399.192937875021,401.29918633401394,405.3402233750094,399.192937875021,399.192937875021,404.3299155840068,399.6721572090173,400.6879836670123,401.29918633401394,402.3189678340277,399.192937875021,399.192937875021,399.1881382920197,399.192937875021,399.192937875021,399.192937875021,399.1881382920197,399.192937875021,399.192937875021,404.3299155840068,399.192937875021,404.3299155840068,404.41409470900544,405.04568475001724,399.192937875021,2,1,0.709471374982968,reldom2_s024,001,2025-02-27_11h45.18.360,Where-A-Scan_AC,2022.2.5,None,
0,0.0,None,fixation,stimulus/viswhere_stim/blank_white.png,stimulus/viswhere_stim/blank_white.png,stimulus/audwhere_stim/blank_white.png,stimulus/audwhere_stim/blank_white.png,stimulus/viswhere_stim/blank_white.png,stimulus/viswhere_stim/blank_white.png,stimulus/viswhere_stim/blank_white.png,stimulus/viswhere_stim/blank_white.png,0.0,0.0,0.0,0.0,0,0.0,0,0.0,0,0.0,0,0.0,0,0.0,0.0,0,0.0,0,0.0,0,0.0,0,0.0,0,0.0,0,0.0,0,0.0,0,0.0,10,,,,,0,45,45,45,,,,,,,,,405.3402233750094,405.3402233750094,405.3402233750094,405.3402233750094,405.3402233750094,405.3402233750094,405.3402233750094,405.3402233750094,405.2412839583606,405.3402233750094,405.3402233750094,405.3402233750094,405.2412839583606,405.3402233750094,405.3402233750094,405.3402233750094,405.3402233750094,405.3402233750094,405.3402233750094,405.3402233750094,405.3402233750094,405.3402233750094,405.3402233750094,405.3402233750094,405.3402233750094,405.3402233750094,405.3402233750094,405.2912839583606,405.3402233750094,405.3402233750094,405.3402233750094,405.2912839583606,405.3402233750094,405.3402233750094,405.3402233750094,405.3402233750094,405.3402233750094,410.53794575002394,410.53794575002394,415.47968937500264,None,0,,reldom2_s024,001,2025-02-27_11h45.18.360,Where-A-Scan_AC,2022.2.5,None,
35,Second_Order,6.0,viswhere,stimulus/viswhere_stim/60-deg_dot-right_mediumslateblue.png,stimulus/viswhere_stim/150-deg_dot-right_turquoise.png,stimulus/viswhere_stim/90-deg_dot-right_slateblue.png,stimulus/viswhere_stim/90-deg_dot-left_seagreen.png,stimulus/viswhere_stim/match_blank.png,stimulus/viswhere_stim/match_box.png,stimulus/viswhere_stim/match_yes.png,stimulus/viswhere_stim/match_no.png,2.0,Match,Dot,Line,2,5.125,0,5.125,0,5.125,0,5.125,0,0.75,0.75,1,0.5,1,2.125,1,0.5,1,2.125,0,0.0,0,0.0,0,0.0,0,0.0,0,,,,,0,46,46,46,,,,,,,,,415.47968937500264,420.5988260000013,415.954726750002,416.9529738750134,417.5877931250143,418.57679079202353,415.47968937500264,415.47968937500264,415.49317462535885,415.47968937500264,415.47968937500264,415.47968937500264,415.49317462535885,415.47968937500264,420.5988260000013,421.39370520901866,423.4747530000168,427.36298120900756,421.39370520901866,421.39370520901866,426.5186588750221,421.8406553750101,422.8425852500077,423.4747530000168,424.4805652089999,421.39370520901866,421.39370520901866,421.367659875345,421.39370520901866,421.39370520901866,421.39370520901866,421.367659875345,421.39370520901866,421.39370520901866,426.5186588750221,421.39370520901866,426.5186588750221,426.5883571250015,427.36298120900756,421.39370520901866,2,1,0.4958679999981541,reldom2_s024,001,2025-02-27_11h45.18.360,Where-A-Scan_AC,2022.2.5,None,
36,Second_Order,6.0,viswhere,stimulus/viswhere_stim/120-deg_dot-left_royalblue.png,stimulus/viswhere_stim/120-deg_dot-right_cyan.png,stimulus/viswhere_stim/90-deg_dot-left_slateblue.png,stimulus/viswhere_stim/90-deg_dot-right_turquoise.png,stimulus/viswhere_stim/match_blank.png,stimulus/viswhere_stim/match_box.png,stimulus/viswhere_stim/match_yes.png,stimulus/viswhere_stim/match_no.png,1.0,Match,Line,Line,1,5.125,0,5.125,0,5.125,0,5.125,0,0.625,0.625,1,0.5,1,2.125,1,0.5,1,2.125,0,0.0,0,0.0,0,0.0,0,0.0,0,,,,,0,47,47,47,,,,,,,,,427.36298120900756,432.4771194590139,427.84811679201084,428.8471320840181,429.46927366702585,430.46745745901717,427.36298120900756,427.36298120900756,427.3759960420255,427.36298120900756,427.36298120900756,427.36298120900756,427.3759960420255,427.36298120900756,432.4771194590139,433.14445920902654,435.2213258750271,439.2702898340067,433.14445920902654,433.14445920902654,438.2813847500074,433.60880850002286,434.6262504590268,435.2213258750271,436.2262562920223,433.14445920902654,433.14445920902654,433.1234510003492,433.14445920902654,433.14445920902654,433.14445920902654,433.1234510003492,433.14445920902654,433.14445920902654,438.2813847500074,433.14445920902654,438.2813847500074,438.35140250000404,438.97403587502777,433.14445920902654,1,1,0.41277816696674563,reldom2_s024,001,2025-02-27_11h45.18.360,Where-A-Scan_AC,2022.2.5,None,
0,0.0,None,fixation,stimulus/viswhere_stim/blank_white.png,stimulus/viswhere_stim/blank_white.png,stimulus/audwhere_stim/blank_white.png,stimulus/audwhere_stim/blank_white.png,stimulus/viswhere_stim/blank_white.png,stimulus/viswhere_stim/blank_white.png,stimulus/viswhere_stim/blank_white.png,stimulus/viswhere_stim/blank_white.png,0.0,0.0,0.0,0.0,0,0.0,0,0.0,0,0.0,0,0.0,0,0.0,0.0,0,0.0,0,0.0,0,0.0,0,0.0,0,0.0,0,0.0,0,0.0,0,0.0,9,,,,,0,48,48,48,,,,,,,,,439.2702898340067,439.2702898340067,439.2702898340067,439.2702898340067,439.2702898340067,439.2702898340067,439.2702898340067,439.2702898340067,439.1698226673373,439.2702898340067,439.2702898340067,439.2702898340067,439.1698226673373,439.2702898340067,439.2702898340067,439.2702898340067,439.2702898340067,439.2702898340067,439.2702898340067,439.2702898340067,439.2702898340067,439.2702898340067,439.2702898340067,439.2702898340067,439.2702898340067,439.2702898340067,439.2702898340067,439.2198226673373,439.2702898340067,439.2702898340067,439.2702898340067,439.2198226673373,439.2702898340067,439.2702898340067,439.2702898340067,439.2702898340067,439.2702898340067,444.493992417003,444.493992417003,448.52273795902147,None,0,,reldom2_s024,001,2025-02-27_11h45.18.360,Where-A-Scan_AC,2022.2.5,None,
37,First_Order,7.0,audwhere,stimulus/audwhere_stim/dummy.wav,stimulus/audwhere_stim/dummy.wav,stimulus/audwhere_stim/left_toward_280h.wav,stimulus/audwhere_stim/left_away_290h.wav,stimulus/audwhere_stim/blank_white.png,stimulus/audwhere_stim/direction_box.png,stimulus/audwhere_stim/direction_yes.png,stimulus/audwhere_stim/direction_no.png,None,Direction,None,Side,2,0.0,0,5.125,0,5.125,0,5.125,0,0.0,0.625,0,0.0,0,0.0,0,0.0,0,0.0,0,0.0,0,0.0,1,0.5,1,2.125,0,,,,,0,49,49,49,,,,,,,,,448.52273795902147,448.52273795902147,448.52273795902147,448.52273795902147,448.52273795902147,448.52273795902147,448.52273795902147,448.52273795902147,448.4504276666945,448.52273795902147,448.52273795902147,448.52273795902147,448.4504276666945,448.52273795902147,448.52273795902147,448.52273795902147,450.62108366700704,454.64575145900017,448.52273795902147,448.52273795902147,453.6966730840213,448.52273795902147,448.52273795902147,448.52273795902147,448.52273795902147,448.9902442090097,450.0625662500097,448.95978850068445,,450.62108366700704,451.69572833401617,450.59104891668926,,448.52273795902147,453.6966730840213,448.52273795902147,453.6966730840213,453.7377951670205,454.3927707920084,448.52273795902147,2,1,0.9206350409658626,reldom2_s024,001,2025-02-27_11h45.18.360,Where-A-Scan_AC,2022.2.5,None,
38,First_Order,7.0,audwhere,stimulus/audwhere_stim/dummy.wav,stimulus/audwhere_stim/dummy.wav,stimulus/audwhere_stim/left_away_300h.wav,stimulus/audwhere_stim/right_away_280h.wav,stimulus/audwhere_stim/blank_white.png,stimulus/audwhere_stim/side_box.png,stimulus/audwhere_stim/side_yes.png,stimulus/audwhere_stim/side_no.png,None,Side,None,Direction,2,0.0,0,5.125,0,5.125,0,5.125,0,0.0,0.625,0,0.0,0,0.0,0,0.0,0,0.0,0,0.0,0,0.0,1,0.5,1,2.125,0,,,,,0,50,50,50,,,,,,,,,454.64575145900017,454.64575145900017,454.64575145900017,454.64575145900017,454.64575145900017,454.64575145900017,454.64575145900017,454.64575145900017,454.5667587083609,454.64575145900017,454.64575145900017,454.64575145900017,454.5667587083609,454.64575145900017,454.64575145900017,454.64575145900017,456.73543241701555,,454.64575145900017,454.64575145900017,459.7974311670114,454.64575145900017,454.64575145900017,454.64575145900017,454.64575145900017,455.111415167019,456.1780519170279,455.0816512916683,,456.73543241701555,457.8041445000272,456.70400633369377,,454.64575145900017,459.7974311670114,454.64575145900017,459.7974311670114,459.8382525840134,460.4909427500097,454.64575145900017,2,1,0.46172716695582494,reldom2_s024,001,2025-02-27_11h45.18.360,Where-A-Scan_AC,2022.2.5,None,
39,First_Order,7.0,audwhere,stimulus/audwhere_stim/dummy.wav,stimulus/audwhere_stim/dummy.wav,stimulus/audwhere_stim/right_toward_280h.wav,stimulus/audwhere_stim/right_away_300h.wav,stimulus/audwhere_stim/blank_white.png,stimulus/audwhere_stim/side_box.png,stimulus/audwhere_stim/side_yes.png,stimulus/audwhere_stim/side_no.png,None,Side,None,Side,1,0.0,0,5.125,0,5.125,0,5.125,0,0.0,0.625,0,0.0,0,0.0,0,0.0,0,0.0,0,0.0,0,0.0,1,0.5,1,2.125,0,,,,,0,51,51,51,,,,,,,,,460.7441046250169,460.7441046250169,460.7441046250169,460.7441046250169,460.7441046250169,460.7441046250169,460.7441046250169,460.7441046250169,460.6645675423516,460.7441046250169,460.7441046250169,460.7441046250169,460.6645675423516,460.7441046250169,460.7441046250169,460.7441046250169,462.8306168750278,,460.7441046250169,460.7441046250169,465.9363855840056,460.7441046250169,460.7441046250169,460.7441046250169,460.7441046250169,461.2076708340028,462.2733687920263,461.1780136666823,,462.8306168750278,463.90077354200184,462.8007478336842,,460.7441046250169,465.9363855840056,460.7441046250169,465.9363855840056,465.9363855840056,466.5911145420105,460.7441046250169,1,1,0.849294083978748,reldom2_s024,001,2025-02-27_11h45.18.360,Where-A-Scan_AC,2022.2.5,None,
40,First_Order,7.0,audwhere,stimulus/audwhere_stim/dummy.wav,stimulus/audwhere_stim/dummy.wav,stimulus/audwhere_stim/left_away_280h.wav,stimulus/audwhere_stim/left_toward_300h.wav,stimulus/audwhere_stim/blank_white.png,stimulus/audwhere_stim/side_box.png,stimulus/audwhere_stim/side_yes.png,stimulus/audwhere_stim/side_no.png,None,Side,None,Side,1,0.0,0,5.125,0,5.125,0,5.125,0,0.0,0.625,0,0.0,0,0.0,0,0.0,0,0.0,0,0.0,0,0.0,1,0.5,1,2.125,0,,,,,0,52,52,52,,,,,,,,,466.8477779170207,466.8477779170207,466.8477779170207,466.8477779170207,466.8477779170207,466.8477779170207,466.8477779170207,466.8477779170207,466.7665852083611,466.8477779170207,466.8477779170207,466.8477779170207,466.7665852083611,466.8477779170207,466.8477779170207,466.8477779170207,468.93633170900284,,466.8477779170207,466.8477779170207,472.00139545902493,466.8477779170207,466.8477779170207,466.8477779170207,466.8477779170207,467.31390808400465,468.3791252920055,467.283987291685,,468.93633170900284,470.0066581670253,468.90623066667854,,466.8477779170207,472.00139545902493,466.8477779170207,472.00139545902493,472.04219270902104,472.6953939590021,466.8477779170207,1,1,0.8896922499698121,reldom2_s024,001,2025-02-27_11h45.18.360,Where-A-Scan_AC,2022.2.5,None,
0,0.0,None,fixation,stimulus/viswhere_stim/blank_white.png,stimulus/viswhere_stim/blank_white.png,stimulus/audwhere_stim/blank_white.png,stimulus/audwhere_stim/blank_white.png,stimulus/viswhere_stim/blank_white.png,stimulus/viswhere_stim/blank_white.png,stimulus/viswhere_stim/blank_white.png,stimulus/viswhere_stim/blank_white.png,0.0,0.0,0.0,0.0,0,0.0,0,0.0,0,0.0,0,0.0,0,0.0,0.0,0,0.0,0,0.0,0,0.0,0,0.0,0,0.0,0,0.0,0,0.0,0,0.0,8,,,,,0,53,53,53,,,,,,,,,472.9710583750275,472.9710583750275,472.9710583750275,472.9710583750275,472.9710583750275,472.9710583750275,472.9710583750275,472.9710583750275,472.8709490003549,472.9710583750275,472.9710583750275,472.9710583750275,472.8709490003549,472.9710583750275,472.9710583750275,472.9710583750275,472.9710583750275,472.9710583750275,472.9710583750275,472.9710583750275,472.9710583750275,472.9710583750275,472.9710583750275,472.9710583750275,472.9710583750275,472.9710583750275,472.9710583750275,472.92094900035494,472.9710583750275,472.9710583750275,472.9710583750275,472.92094900035494,472.9710583750275,472.9710583750275,472.9710583750275,472.9710583750275,472.9710583750275,478.195326459012,478.195326459012,481.1162240000267,None,0,,reldom2_s024,001,2025-02-27_11h45.18.360,Where-A-Scan_AC,2022.2.5,None,
41,Second_Order,7.0,audwhere,stimulus/audwhere_stim/left_away_300h.wav,stimulus/audwhere_stim/left_toward_300h.wav,stimulus/audwhere_stim/right_away_290h.wav,stimulus/audwhere_stim/right_toward_290h.wav,stimulus/viswhere_stim/match_blank.png,stimulus/audwhere_stim/match_box.png,stimulus/viswhere_stim/match_yes.png,stimulus/viswhere_stim/match_no.png,1.0,Match,Side,Side,1,5.125,0,5.125,0,5.125,0,5.125,0,0.75,0.75,0,0.0,0,0.0,0,0.0,0,0.0,1,0.5,1,2.125,1,0.5,1,2.125,0,,,,,0,54,54,54,,,,,,,,,481.1162240000267,486.23435445901123,481.1162240000267,481.1162240000267,481.1162240000267,481.1162240000267,481.572216792003,482.5582184170198,481.58519887569514,,483.1931214170181,484.19138983401353,483.2058093336857,,486.23435445901123,487.0829572500079,489.161423417012,493.0813275000255,487.0829572500079,487.0829572500079,492.2676608750189,487.0829572500079,487.0829572500079,487.0829572500079,487.0829572500079,487.49808787502116,488.55867100000614,487.4681354166862,,489.161423417012,490.233010667027,489.131769541684,,487.0829572500079,492.2676608750189,487.0829572500079,492.2676608750189,492.2676608750189,,487.0829572500079,1,1,0.5184944589564111,reldom2_s024,001,2025-02-27_11h45.18.360,Where-A-Scan_AC,2022.2.5,None,
42,Second_Order,7.0,audwhere,stimulus/audwhere_stim/left_away_280h.wav,stimulus/audwhere_stim/right_away_270h.wav,stimulus/audwhere_stim/right_toward_270h.wav,stimulus/audwhere_stim/left_toward_280h.wav,stimulus/viswhere_stim/match_blank.png,stimulus/audwhere_stim/match_box.png,stimulus/viswhere_stim/match_yes.png,stimulus/viswhere_stim/match_no.png,1.0,Match,Direction,Direction,1,5.125,0,5.125,0,5.125,0,5.125,0,0.625,0.625,0,0.0,0,0.0,0,0.0,0,0.0,1,0.5,1,2.125,1,0.5,1,2.125,0,,,,,0,55,55,55,,,,,,,,,493.0813275000255,498.19557858401095,493.0813275000255,493.0813275000255,493.0813275000255,493.0813275000255,493.53180466699996,494.5195781670045,493.5461621666948,,495.1542201670236,496.1526003750041,495.16694141668654,,498.19557858401095,498.9173085420043,500.98394412500784,,498.9173085420043,498.9173085420043,504.0773502920056,498.9173085420043,498.9173085420043,498.9173085420043,498.9173085420043,499.3728645420051,500.42908350002836,499.34350233368264,,500.98394412500784,502.0466282920097,500.95411704166713,,498.9173085420043,504.0773502920056,498.9173085420043,504.0773502920056,504.11825779202627,504.77072333401884,498.9173085420043,1,1,0.6743189999833703,reldom2_s024,001,2025-02-27_11h45.18.360,Where-A-Scan_AC,2022.2.5,None,
0,0.0,None,fixation,stimulus/viswhere_stim/blank_white.png,stimulus/viswhere_stim/blank_white.png,stimulus/audwhere_stim/blank_white.png,stimulus/audwhere_stim/blank_white.png,stimulus/viswhere_stim/blank_white.png,stimulus/viswhere_stim/blank_white.png,stimulus/viswhere_stim/blank_white.png,stimulus/viswhere_stim/blank_white.png,0.0,0.0,0.0,0.0,0,0.0,0,0.0,0,0.0,0,0.0,0,0.0,0.0,0,0.0,0,0.0,0,0.0,0,0.0,0,0.0,0,0.0,0,0.0,0,0.0,10,,,,,0,56,56,56,,,,,,,,,505.0030307090201,505.0030307090201,505.0030307090201,505.0030307090201,505.0030307090201,505.0030307090201,505.0030307090201,505.0030307090201,504.90405666735217,505.0030307090201,505.0030307090201,505.0030307090201,504.90405666735217,505.0030307090201,505.0030307090201,505.0030307090201,505.0030307090201,505.0030307090201,505.0030307090201,505.0030307090201,505.0030307090201,505.0030307090201,505.0030307090201,505.0030307090201,505.0030307090201,505.0030307090201,505.0030307090201,504.9540566673522,505.0030307090201,505.0030307090201,505.0030307090201,504.9540566673522,505.0030307090201,505.0030307090201,505.0030307090201,505.0030307090201,505.0030307090201,510.21578604201204,510.21578604201204,515.2519479170151,None,0,,reldom2_s024,001,2025-02-27_11h45.18.360,Where-A-Scan_AC,2022.2.5,None,
43,First_Order,8.0,audwhere,stimulus/audwhere_stim/dummy.wav,stimulus/audwhere_stim/dummy.wav,stimulus/audwhere_stim/left_away_270h.wav,stimulus/audwhere_stim/right_away_300h.wav,stimulus/audwhere_stim/blank_white.png,stimulus/audwhere_stim/direction_box.png,stimulus/audwhere_stim/direction_yes.png,stimulus/audwhere_stim/direction_no.png,None,Direction,None,Direction,1,0.0,0,5.125,0,5.125,0,5.125,0,0.0,0.625,0,0.0,0,0.0,0,0.0,0,0.0,0,0.0,0,0.0,1,0.5,1,2.125,0,,,,,0,57,57,57,,,,,,,,,515.2519479170151,515.2519479170151,515.2519479170151,515.2519479170151,515.2519479170151,515.2519479170151,515.2519479170151,515.2519479170151,515.179430625673,515.2519479170151,515.2519479170151,515.2519479170151,515.179430625673,515.2519479170151,515.2519479170151,515.2519479170151,517.3495247920218,,515.2519479170151,515.2519479170151,520.4346077090013,515.2519479170151,515.2519479170151,515.2519479170151,515.2519479170151,515.7190085000184,516.7908764170134,515.688823750683,,517.3495247920218,518.4210194590269,517.3195243756675,,515.2519479170151,520.4346077090013,515.2519479170151,520.4346077090013,520.4759047500265,521.132865209016,515.2519479170151,1,1,1.058514791977359,reldom2_s024,001,2025-02-27_11h45.18.360,Where-A-Scan_AC,2022.2.5,None,
44,First_Order,8.0,audwhere,stimulus/audwhere_stim/dummy.wav,stimulus/audwhere_stim/dummy.wav,stimulus/audwhere_stim/left_toward_300h.wav,stimulus/audwhere_stim/left_away_280h.wav,stimulus/audwhere_stim/blank_white.png,stimulus/audwhere_stim/direction_box.png,stimulus/audwhere_stim/direction_yes.png,stimulus/audwhere_stim/direction_no.png,None,Direction,None,Side,2,0.0,0,5.125,0,5.125,0,5.125,0,0.0,0.625,0,0.0,0,0.0,0,0.0,0,0.0,0,0.0,0,0.0,1,0.5,1,2.125,0,,,,,0,58,58,58,,,,,,,,,521.3462645420223,521.3462645420223,521.3462645420223,521.3462645420223,521.3462645420223,521.3462645420223,521.3462645420223,521.3462645420223,521.2661985423493,521.3462645420223,521.3462645420223,521.3462645420223,521.2661985423493,521.3462645420223,521.3462645420223,521.3462645420223,523.4440207090229,527.4735675840057,521.3462645420223,521.3462645420223,526.5202965000062,521.3462645420223,521.3462645420223,521.3462645420223,521.3462645420223,521.8122628340207,522.8842316250084,521.7823376666677,,523.4440207090229,524.5173729590024,523.4136279586858,,521.3462645420223,526.5202965000062,521.3462645420223,526.5202965000062,526.5615941670258,527.2194184170221,521.3462645420223,2,1,0.730380624969257,reldom2_s024,001,2025-02-27_11h45.18.360,Where-A-Scan_AC,2022.2.5,None,
45,First_Order,8.0,audwhere,stimulus/audwhere_stim/dummy.wav,stimulus/audwhere_stim/dummy.wav,stimulus/audwhere_stim/right_away_290h.wav,stimulus/audwhere_stim/left_away_280h.wav,stimulus/audwhere_stim/blank_white.png,stimulus/audwhere_stim/side_box.png,stimulus/audwhere_stim/side_yes.png,stimulus/audwhere_stim/side_no.png,None,Side,None,Direction,2,0.0,0,5.125,0,5.125,0,5.125,0,0.0,0.625,0,0.0,0,0.0,0,0.0,0,0.0,0,0.0,0,0.0,1,0.5,1,2.125,0,,,,,0,59,59,59,,,,,,,,,527.4735675840057,527.4735675840057,527.4735675840057,527.4735675840057,527.4735675840057,527.4735675840057,527.4735675840057,527.4735675840057,527.3937178753569,527.4735675840057,527.4735675840057,527.4735675840057,527.3937178753569,527.4735675840057,527.4735675840057,527.4735675840057,529.560932042019,,527.4735675840057,527.4735675840057,532.6671045420226,527.4735675840057,527.4735675840057,527.4735675840057,527.4735675840057,527.9374370420119,529.0058134170249,527.9080309586755,,529.560932042019,530.6306198340026,529.5310524166891,,527.4735675840057,532.6671045420226,527.4735675840057,532.6671045420226,532.6671045420226,533.3217745000147,527.4735675840057,2,1,0.6328592499776278,reldom2_s024,001,2025-02-27_11h45.18.360,Where-A-Scan_AC,2022.2.5,None,
46,First_Order,8.0,audwhere,stimulus/audwhere_stim/dummy.wav,stimulus/audwhere_stim/dummy.wav,stimulus/audwhere_stim/left_away_270h.wav,stimulus/audwhere_stim/right_away_290h.wav,stimulus/audwhere_stim/blank_white.png,stimulus/audwhere_stim/direction_box.png,stimulus/audwhere_stim/direction_yes.png,stimulus/audwhere_stim/direction_no.png,None,Direction,None,Direction,1,0.0,0,5.125,0,5.125,0,5.125,0,0.0,0.625,0,0.0,0,0.0,0,0.0,0,0.0,0,0.0,0,0.0,1,0.5,1,2.125,0,,,,,0,60,60,60,,,,,,,,,533.5748689170287,533.5748689170287,533.5748689170287,533.5748689170287,533.5748689170287,533.5748689170287,533.5748689170287,533.5748689170287,533.4958277503339,533.5748689170287,533.5748689170287,533.5748689170287,533.4958277503339,533.5748689170287,533.5748689170287,533.5748689170287,535.6741020420159,,533.5748689170287,533.5748689170287,538.7558285420237,533.5748689170287,533.5748689170287,533.5748689170287,533.5748689170287,534.04063695902,535.1147111250029,534.010721791685,,535.6741020420159,536.7046974590048,535.6437943756794,,533.5748689170287,538.7558285420237,533.5748689170287,538.7558285420237,538.7970992090122,539.4526815840218,533.5748689170287,1,1,0.8299767089483794,reldom2_s024,001,2025-02-27_11h45.18.360,Where-A-Scan_AC,2022.2.5,None,
0,0.0,None,fixation,stimulus/viswhere_stim/blank_white.png,stimulus/viswhere_stim/blank_white.png,stimulus/audwhere_stim/blank_white.png,stimulus/audwhere_stim/blank_white.png,stimulus/viswhere_stim/blank_white.png,stimulus/viswhere_stim/blank_white.png,stimulus/viswhere_stim/blank_white.png,stimulus/viswhere_stim/blank_white.png,0.0,0.0,0.0,0.0,0,0.0,0,0.0,0,0.0,0,0.0,0,0.0,0.0,0,0.0,0,0.0,0,0.0,0,0.0,0,0.0,0,0.0,0,0.0,0,0.0,9,,,,,0,61,61,61,,,,,,,,,539.685813750024,539.685813750024,539.685813750024,539.685813750024,539.685813750024,539.685813750024,539.685813750024,539.685813750024,539.5860149173551,539.685813750024,539.685813750024,539.685813750024,539.5860149173551,539.685813750024,539.685813750024,539.685813750024,539.685813750024,539.685813750024,539.685813750024,539.685813750024,539.685813750024,539.685813750024,539.685813750024,539.685813750024,539.685813750024,539.685813750024,539.685813750024,539.636014917355,539.685813750024,539.685813750024,539.685813750024,539.636014917355,539.685813750024,539.685813750024,539.685813750024,539.685813750024,539.685813750024,544.8861910000269,544.8861910000269,548.8362173750065,None,0,,reldom2_s024,001,2025-02-27_11h45.18.360,Where-A-Scan_AC,2022.2.5,None,
47,Second_Order,8.0,audwhere,stimulus/audwhere_stim/right_away_280h.wav,stimulus/audwhere_stim/left_away_290h.wav,stimulus/audwhere_stim/right_toward_300h.wav,stimulus/audwhere_stim/right_away_300h.wav,stimulus/viswhere_stim/match_blank.png,stimulus/audwhere_stim/match_box.png,stimulus/viswhere_stim/match_yes.png,stimulus/viswhere_stim/match_no.png,2.0,Match,Direction,Side,2,5.125,0,5.125,0,5.125,0,5.125,0,0.75,0.75,0,0.0,0,0.0,0,0.0,0,0.0,1,0.5,1,2.125,1,0.5,1,2.125,0,,,,,0,62,62,62,,,,,,,,,548.8362173750065,553.9570392920286,548.8362173750065,548.8362173750065,548.8362173750065,548.8362173750065,549.295912792004,550.2939325420011,549.3088842916807,,550.9172254170117,551.914629625011,550.9293833756858,551.9181918340037,553.9570392920286,554.8089006670052,556.8872823340062,560.8046765420004,554.8089006670052,554.8089006670052,559.9955878340115,554.8089006670052,554.8089006670052,554.8089006670052,554.8089006670052,555.2224529170198,556.2853817090217,555.1927195006904,,556.8872823340062,557.9570830840094,556.8575230836907,,554.8089006670052,559.9955878340115,554.8089006670052,559.9955878340115,559.9955878340115,,554.8089006670052,2,1,0.7284506249707192,reldom2_s024,001,2025-02-27_11h45.18.360,Where-A-Scan_AC,2022.2.5,None,
48,Second_Order,8.0,audwhere,stimulus/audwhere_stim/left_away_280h.wav,stimulus/audwhere_stim/right_away_290h.wav,stimulus/audwhere_stim/left_toward_280h.wav,stimulus/audwhere_stim/right_toward_300h.wav,stimulus/viswhere_stim/match_blank.png,stimulus/audwhere_stim/match_box.png,stimulus/viswhere_stim/match_yes.png,stimulus/viswhere_stim/match_no.png,1.0,Match,Direction,Direction,1,5.125,0,5.125,0,5.125,0,5.125,0,0.625,0.625,0,0.0,0,0.0,0,0.0,0,0.0,1,0.5,1,2.125,1,0.5,1,2.125,0,,,,,0,63,63,63,,,,,,,,,560.8046765420004,565.9193657920114,560.8046765420004,560.8046765420004,560.8046765420004,560.8046765420004,561.2563549590122,562.2432106670167,561.2694606666666,,562.877628584014,563.8757908340194,562.8898370416757,,565.9193657920114,566.6462969590211,568.7115530420269,572.7645784590277,566.6462969590211,566.6462969590211,571.8000728750194,566.6462969590211,566.6462969590211,566.6462969590211,566.6462969590211,567.1056616670103,568.1604509590252,567.0761532916842,,568.7115530420269,569.7731540420209,568.6805713756805,,566.6462969590211,571.8000728750194,566.6462969590211,571.8000728750194,571.8411412500136,572.4901999170252,566.6462969590211,1,1,0.8330800409603398,reldom2_s024,001,2025-02-27_11h45.18.360,Where-A-Scan_AC,2022.2.5,None,
0,0.0,None,fixation,stimulus/viswhere_stim/blank_white.png,stimulus/viswhere_stim/blank_white.png,stimulus/audwhere_stim/blank_white.png,stimulus/audwhere_stim/blank_white.png,stimulus/viswhere_stim/blank_white.png,stimulus/viswhere_stim/blank_white.png,stimulus/viswhere_stim/blank_white.png,stimulus/viswhere_stim/blank_white.png,0.0,0.0,0.0,0.0,0,0.0,0,0.0,0,0.0,0,0.0,0,0.0,0.0,0,0.0,0,0.0,0,0.0,0,0.0,0,0.0,0,0.0,0,0.0,0,0.0,16,,,,,0,64,64,64,,,,,,,,,572.7645784590277,572.7645784590277,572.7645784590277,572.7645784590277,572.7645784590277,572.7645784590277,572.7645784590277,572.7645784590277,572.6636202083338,572.7645784590277,572.7645784590277,572.7645784590277,572.6636202083338,572.7645784590277,572.7645784590277,572.7645784590277,572.7645784590277,572.7645784590277,572.7645784590277,572.7645784590277,572.7645784590277,572.7645784590277,572.7645784590277,572.7645784590277,572.7645784590277,572.7645784590277,572.7645784590277,572.7136202083337,572.7645784590277,572.7645784590277,572.7645784590277,572.7136202083337,572.7645784590277,572.7645784590277,572.7645784590277,572.7645784590277,572.7645784590277,577.9741315000283,577.9741315000283,588.9227286670066,None,0,,reldom2_s024,001,2025-02-27_11h45.18.360,Where-A-Scan_AC,2022.2.5,None,
