Trial,Order,Block,Type,Stimuli_File1,Stimuli_File2,Stimuli_File3,Stimuli_File4,Cue_File1,Cue_File2,Response_File_Yes,Response_File_No,Match,Cue_Dimension,Pair1_Dimension,Pair2_Dimension,Key,Cue1_Duration,Cue1_Onset,Cue2_Duration,Cue2_Onset,ResponseYes_Duration,ResponseYes_Onset,ResponseNo_Duration,ResponseNo_Onset,ITI_Within,ITI_Between,Image1_Duration,Image1_Onset,Image2_Duration,Image2_Onset,Image3_Duration,Image3_Onset,Image4_Duration,Image4_Onset,Sound1_Duration,Sound1_Onset,Sound2_Duration,Sound2_Onset,Sound3_Duration,Sound3_Onset,Sound4_Duration,Sound4_Onset,Fixation_Duration,trials_2.thisRepN,trials_2.thisTrialN,trials_2.thisN,trials_2.thisIndex,trials.thisRepN,trials.thisTrialN,trials.thisN,trials.thisIndex,text_start.started,key_resp_start.started,key_resp_start.keys,key_resp_start.rt,text2.started,key_resp_2.started,key_resp_2.keys,key_resp_2.rt,cue_file1.started,cue_file1.stopped,image_1.started,image_1.stopped,image_2.started,image_2.stopped,sound_icon1.started,sound_icon1.stopped,sound_1.started,sound_1.stopped,sound_icon2.started,sound_icon2.stopped,sound_2.started,sound_2.stopped,image_blank_1.started,image_blank_1.stopped,key_press.started,key_press.stopped,fixation_text.started,cue_file2.started,cue_file2.stopped,image_3.started,image_3.stopped,image_4.started,image_4.stopped,sound_icon3.started,sound_icon3.stopped,sound_3.started,sound_3.stopped,sound_icon4.started,sound_icon4.stopped,sound_4.started,sound_4.stopped,response_yes.started,response_yes.stopped,response_no.started,response_no.stopped,iti_blank.started,iti_blank.stopped,fixation_text.stopped,key_press.keys,key_press.corr,key_press.rt,participant,session,date,expName,psychopyVersion,frameRate,
,,,,,,,,,,,,,,,,,,,,,,,,,,,,,,,,,,,,,,,,,,,,,,,,,,,,8.166201292013284,8.166201292013284,2,1.190595249994658,,,,,,,,,,,,,,,,,,,,,,,,,,,,,,,,,,,,,,,,,,,,,,,,reldom2_s024,001,2025-02-27_11h33.37.364,What-A-Scan_AC,2022.2.5,None,
,,,,,,,,,,,,,,,,,,,,,,,,,,,,,,,,,,,,,,,,,,,,0,0,0,0,,,,,,,,,9.390302791987779,9.390302791987779,5,17.85818566699163,,,,,,,,,,,,,,,,,,,,,,,,,,,,,,,,,,,,,,,,,,,,reldom2_s024,001,2025-02-27_11h33.37.364,What-A-Scan_AC,2022.2.5,None,
,,,,,,,,,,,,,,,,,,,,,,,,,,,,,,,,,,,,,,,,,,,,1,0,1,0,,,,,,,,,27.26203691700357,27.26203691700357,5,1.9852947920153383,,,,,,,,,,,,,,,,,,,,,,,,,,,,,,,,,,,,,,,,,,,,reldom2_s024,001,2025-02-27_11h33.37.364,What-A-Scan_AC,2022.2.5,None,
,,,,,,,,,,,,,,,,,,,,,,,,,,,,,,,,,,,,,,,,,,,,2,0,2,0,,,,,,,,,29.264842292002868,29.264842292002868,5,1.984520875994349,,,,,,,,,,,,,,,,,,,,,,,,,,,,,,,,,,,,,,,,,,,,reldom2_s024,001,2025-02-27_11h33.37.364,What-A-Scan_AC,2022.2.5,None,
,,,,,,,,,,,,,,,,,,,,,,,,,,,,,,,,,,,,,,,,,,,,3,0,3,0,,,,,,,,,31.270096332998946,31.270096332998946,5,1.9775307080126368,,,,,,,,,,,,,,,,,,,,,,,,,,,,,,,,,,,,,,,,,,,,reldom2_s024,001,2025-02-27_11h33.37.364,What-A-Scan_AC,2022.2.5,None,
0,0.0,None,fixation,stimulus/audwhat_stim/blank_white.png,stimulus/audwhat_stim/blank_white.png,stimulus/viswhat_stim/blank_white.png,stimulus/viswhat_stim/blank_white.png,stimulus/audwhat_stim/blank_white.png,stimulus/audwhat_stim/blank_white.png,stimulus/audwhat_stim/blank_white.png,stimulus/audwhat_stim/blank_white.png,0.0,0.0,0.0,0.0,0,0.0,0,0.0,0,0.0,0,0.0,0,0.0,0.0,0,0.0,0,0.0,0,0.0,0,0.0,0,0.0,0,0.0,0,0.0,0,0.0,16,,,,,0,0,0,0,,,,,,,,,33.46415337501094,33.46415337501094,33.46415337501094,33.46415337501094,33.46415337501094,33.46415337501094,33.46415337501094,33.46415337501094,33.36625766666645,33.46415337501094,33.46415337501094,33.46415337501094,33.36625766666645,33.46415337501094,33.46415337501094,33.46415337501094,33.46415337501094,33.46415337501094,33.46415337501094,33.46415337501094,33.46415337501094,33.46415337501094,33.46415337501094,33.46415337501094,33.46415337501094,33.46415337501094,33.46415337501094,33.416257666666446,33.46415337501094,33.46415337501094,33.46415337501094,33.416257666666446,33.46415337501094,33.46415337501094,33.46415337501094,33.46415337501094,33.46415337501094,38.68412679200992,38.68412679200992,49.68152920799912,None,0,,reldom2_s024,001,2025-02-27_11h33.37.364,What-A-Scan_AC,2022.2.5,None,
1,First_Order,1.0,audwhat,stimulus/audwhat_stim/dummy.wav,stimulus/audwhat_stim/dummy.wav,stimulus/audwhat_stim/percussion mallet_low-pitch_Dtri_loud.wav,stimulus/audwhat_stim/percussion xylophone_high-pitch_F_loud.wav,stimulus/audwhat_stim/blank_white.png,stimulus/audwhat_stim/pitch_box.png,stimulus/audwhat_stim/pitch_yes.png,stimulus/audwhat_stim/pitch_no.png,None,Pitch,None,Category,2,0.0,0,5.125,0,5.125,0,5.125,0,0.0,0.625,0,0.0,0,0.0,0,0.0,0,0.0,0,0.0,0,0.0,1,0.5,1,2.125,0,,,,,0,1,1,1,,,,,,,,,49.68152920799912,49.68152920799912,49.68152920799912,49.68152920799912,49.68152920799912,49.68152920799912,49.68152920799912,49.68152920799912,49.60986350000021,49.68152920799912,49.68152920799912,49.68152920799912,49.60986350000021,49.68152920799912,49.68152920799912,49.68152920799912,51.76744804199552,,49.68152920799912,49.68152920799912,54.85406279200106,49.68152920799912,49.68152920799912,49.68152920799912,49.68152920799912,50.13472170798923,51.1770768330025,50.10575874968005,,51.76744804199552,52.81329795799684,51.73873212468267,52.76778412499698,49.68152920799912,54.85406279200106,49.68152920799912,54.85406279200106,54.89383733298746,55.575048667000374,49.68152920799912,1,0,1.941266584006371,reldom2_s024,001,2025-02-27_11h33.37.364,What-A-Scan_AC,2022.2.5,None,
2,First_Order,1.0,audwhat,stimulus/audwhat_stim/dummy.wav,stimulus/audwhat_stim/dummy.wav,stimulus/audwhat_stim/percussion xylophone_high-pitch_Dtri_loud.wav,stimulus/audwhat_stim/percussion mallet_low-pitch_D_loud.wav,stimulus/audwhat_stim/blank_white.png,stimulus/audwhat_stim/pitch_box.png,stimulus/audwhat_stim/pitch_yes.png,stimulus/audwhat_stim/pitch_no.png,None,Pitch,None,Category,2,0.0,0,5.125,0,5.125,0,5.125,0,0.0,0.625,0,0.0,0,0.0,0,0.0,0,0.0,0,0.0,0,0.0,1,0.5,1,2.125,0,,,,,0,2,2,2,,,,,,,,,55.786362916987855,55.786362916987855,55.786362916987855,55.786362916987855,55.786362916987855,55.786362916987855,55.786362916987855,55.786362916987855,55.70838200033371,55.786362916987855,55.786362916987855,55.786362916987855,55.70838200033371,55.786362916987855,55.786362916987855,55.786362916987855,57.87894095800584,61.90733937500045,55.786362916987855,55.786362916987855,60.97447474999353,55.786362916987855,55.786362916987855,55.786362916987855,55.786362916987855,56.240888667001855,57.28702670801431,56.21179095865615,57.24023020800087,57.87894095800584,58.92961970801116,57.85020587465648,,55.786362916987855,60.97447474999353,55.786362916987855,60.97447474999353,60.97447474999353,61.65701420800178,55.786362916987855,2,1,0.5903733329905663,reldom2_s024,001,2025-02-27_11h33.37.364,What-A-Scan_AC,2022.2.5,None,
3,First_Order,1.0,audwhat,stimulus/audwhat_stim/dummy.wav,stimulus/audwhat_stim/dummy.wav,stimulus/audwhat_stim/percussion mallet_low-pitch_F_loud.wav,stimulus/audwhat_stim/percussion xylophone_high-pitch_Ftri_loud.wav,stimulus/audwhat_stim/blank_white.png,stimulus/audwhat_stim/category_box.png,stimulus/audwhat_stim/category_yes.png,stimulus/audwhat_stim/category_no.png,None,Category,None,Category,1,0.0,0,5.125,0,5.125,0,5.125,0,0.0,0.625,0,0.0,0,0.0,0,0.0,0,0.0,0,0.0,0,0.0,1,0.5,1,2.125,0,,,,,0,3,3,3,,,,,,,,,61.90733937500045,61.90733937500045,61.90733937500045,61.90733937500045,61.90733937500045,61.90733937500045,61.90733937500045,61.90733937500045,61.83049916633366,61.90733937500045,61.90733937500045,61.90733937500045,61.83049916633366,61.90733937500045,61.90733937500045,61.90733937500045,64.02037933300016,,61.90733937500045,61.90733937500045,67.09996462499839,61.90733937500045,61.90733937500045,61.90733937500045,61.90733937500045,62.365642499993555,63.42431779199978,62.33602166668085,,64.02037933300016,65.0790231669962,63.99085562467032,65.03327195800375,61.90733937500045,67.09996462499839,61.90733937500045,67.09996462499839,67.09996462499839,67.74803258301108,61.90733937500045,1,1,0.7944394169899169,reldom2_s024,001,2025-02-27_11h33.37.364,What-A-Scan_AC,2022.2.5,None,
4,First_Order,1.0,audwhat,stimulus/audwhat_stim/dummy.wav,stimulus/audwhat_stim/dummy.wav,stimulus/audwhat_stim/percussion mallet_low-pitch_Dtri_loud.wav,stimulus/audwhat_stim/percussion mallet_high-pitch_F_loud.wav,stimulus/audwhat_stim/blank_white.png,stimulus/audwhat_stim/category_box.png,stimulus/audwhat_stim/category_yes.png,stimulus/audwhat_stim/category_no.png,None,Category,None,Category,1,0.0,0,5.125,0,5.125,0,5.125,0,0.0,0.625,0,0.0,0,0.0,0,0.0,0,0.0,0,0.0,0,0.0,1,0.5,1,2.125,0,,,,,0,4,4,4,,,,,,,,,67.9981486670149,67.9981486670149,67.9981486670149,67.9981486670149,67.9981486670149,67.9981486670149,67.9981486670149,67.9981486670149,67.92122683333776,67.9981486670149,67.9981486670149,67.9981486670149,67.92122683333776,67.9981486670149,67.9981486670149,67.9981486670149,70.06961933299317,74.13096491701435,67.9981486670149,67.9981486670149,73.15876424999442,67.9981486670149,67.9981486670149,67.9981486670149,67.9981486670149,68.4582022500108,69.51803295800346,68.42858491666654,,70.06961933299317,71.1316432080057,70.03988570865864,,67.9981486670149,73.15876424999442,67.9981486670149,73.15876424999442,73.20172754200757,73.8576975830074,67.9981486670149,1,1,1.381227666977793,reldom2_s024,001,2025-02-27_11h33.37.364,What-A-Scan_AC,2022.2.5,None,
0,0.0,None,fixation,stimulus/audwhat_stim/blank_white.png,stimulus/audwhat_stim/blank_white.png,stimulus/viswhat_stim/blank_white.png,stimulus/viswhat_stim/blank_white.png,stimulus/audwhat_stim/blank_white.png,stimulus/audwhat_stim/blank_white.png,stimulus/audwhat_stim/blank_white.png,stimulus/audwhat_stim/blank_white.png,0.0,0.0,0.0,0.0,0,0.0,0,0.0,0,0.0,0,0.0,0,0.0,0.0,0,0.0,0,0.0,0,0.0,0,0.0,0,0.0,0,0.0,0,0.0,0,0.0,10,,,,,0,5,5,5,,,,,,,,,74.13096491701435,74.13096491701435,74.13096491701435,74.13096491701435,74.13096491701435,74.13096491701435,74.13096491701435,74.13096491701435,74.03208016633482,74.13096491701435,74.13096491701435,74.13096491701435,74.03208016633482,74.13096491701435,74.13096491701435,74.13096491701435,74.13096491701435,74.13096491701435,74.13096491701435,74.13096491701435,74.13096491701435,74.13096491701435,74.13096491701435,74.13096491701435,74.13096491701435,74.13096491701435,74.13096491701435,74.08208016633483,74.13096491701435,74.13096491701435,74.13096491701435,74.08208016633483,74.13096491701435,74.13096491701435,74.13096491701435,74.13096491701435,74.13096491701435,79.33475012501003,79.33475012501003,84.30050379200839,None,0,,reldom2_s024,001,2025-02-27_11h33.37.364,What-A-Scan_AC,2022.2.5,None,
5,Second_Order,1.0,audwhat,stimulus/audwhat_stim/string cello_low-pitch_D_loud.wav,stimulus/audwhat_stim/string viola_high-pitch_Dtri_loud.wav,stimulus/audwhat_stim/percussion mallet_low-pitch_D_loud.wav,stimulus/audwhat_stim/string viola_low-pitch_D_loud.wav,stimulus/audwhat_stim/match_blank.png,stimulus/audwhat_stim/match_box.png,stimulus/audwhat_stim/match_yes.png,stimulus/audwhat_stim/match_no.png,2.0,Match,Category,Pitch,2,5.125,0,5.125,0,5.125,0,5.125,0,0.75,0.75,0,0.0,0,0.0,0,0.0,0,0.0,1,0.5,1,2.125,1,0.5,1,2.125,0,,,,,0,6,6,6,,,,,,,,,84.30050379200839,89.41639008300263,84.30050379200839,84.30050379200839,84.30050379200839,84.30050379200839,84.75630041700788,85.75429391700891,84.7684834586728,,86.37646566701005,87.3744362500147,86.38846766666781,,89.41639008300263,90.26705479199882,92.31324195800698,,90.26705479199882,90.26705479199882,95.42748516699066,90.26705479199882,90.26705479199882,90.26705479199882,90.26705479199882,90.72043087499333,91.7668682920048,90.69127608367513,91.7211140000145,92.31324195800698,93.37173379200976,92.28386833367792,,90.26705479199882,95.42748516699066,90.26705479199882,95.42748516699066,95.42748516699066,,90.26705479199882,2,1,0.8311346669797786,reldom2_s024,001,2025-02-27_11h33.37.364,What-A-Scan_AC,2022.2.5,None,
6,Second_Order,1.0,audwhat,stimulus/audwhat_stim/string cello_high-pitch_Dtri_loud.wav,stimulus/audwhat_stim/percussion mallet_high-pitch_Dtri_loud.wav,stimulus/audwhat_stim/percussion mallet_low-pitch_Ftri_loud.wav,stimulus/audwhat_stim/string cello_low-pitch_Ftri_loud.wav,stimulus/audwhat_stim/match_blank.png,stimulus/audwhat_stim/match_box.png,stimulus/audwhat_stim/match_yes.png,stimulus/audwhat_stim/match_no.png,1.0,Match,Pitch,Pitch,1,5.125,0,5.125,0,5.125,0,5.125,0,0.625,0.625,0,0.0,0,0.0,0,0.0,0,0.0,1,0.5,1,2.125,1,0.5,1,2.125,0,,,,,0,7,7,7,,,,,,,,,96.22935220799991,101.34471249999478,96.22935220799991,96.22935220799991,96.22935220799991,96.22935220799991,96.68333866700414,97.68169712499366,96.69605670866828,,98.30458554200595,99.30205349999596,98.3168460416821,,101.34471249999478,102.07674179199967,104.11892133299261,108.17313008301426,102.07674179199967,102.07674179199967,107.260671541997,102.07674179199967,102.07674179199967,102.07674179199967,102.07674179199967,102.52756112499628,103.57406987500144,102.49905083366708,,104.11892133299261,105.16633845798788,104.08980091667424,,102.07674179199967,107.260671541997,102.07674179199967,107.260671541997,107.260671541997,107.94411933299853,102.07674179199967,1,1,0.928199209010927,reldom2_s024,001,2025-02-27_11h33.37.364,What-A-Scan_AC,2022.2.5,None,
0,0.0,None,fixation,stimulus/audwhat_stim/blank_white.png,stimulus/audwhat_stim/blank_white.png,stimulus/viswhat_stim/blank_white.png,stimulus/viswhat_stim/blank_white.png,stimulus/audwhat_stim/blank_white.png,stimulus/audwhat_stim/blank_white.png,stimulus/audwhat_stim/blank_white.png,stimulus/audwhat_stim/blank_white.png,0.0,0.0,0.0,0.0,0,0.0,0,0.0,0,0.0,0,0.0,0,0.0,0.0,0,0.0,0,0.0,0,0.0,0,0.0,0,0.0,0,0.0,0,0.0,0,0.0,9,,,,,0,8,8,8,,,,,,,,,108.17313008301426,108.17313008301426,108.17313008301426,108.17313008301426,108.17313008301426,108.17313008301426,108.17313008301426,108.17313008301426,108.07745266633185,108.17313008301426,108.17313008301426,108.17313008301426,108.07745266633185,108.17313008301426,108.17313008301426,108.17313008301426,108.17313008301426,108.17313008301426,108.17313008301426,108.17313008301426,108.17313008301426,108.17313008301426,108.17313008301426,108.17313008301426,108.17313008301426,108.17313008301426,108.17313008301426,108.12745266633186,108.17313008301426,108.17313008301426,108.17313008301426,108.12745266633186,108.17313008301426,108.17313008301426,108.17313008301426,108.17313008301426,108.17313008301426,113.36772495799232,113.36772495799232,117.43935791699914,None,0,,reldom2_s024,001,2025-02-27_11h33.37.364,What-A-Scan_AC,2022.2.5,None,
7,First_Order,2.0,audwhat,stimulus/audwhat_stim/dummy.wav,stimulus/audwhat_stim/dummy.wav,stimulus/audwhat_stim/string cello_low-pitch_F_loud.wav,stimulus/audwhat_stim/percussion mallet_low-pitch_F_loud.wav,stimulus/audwhat_stim/blank_white.png,stimulus/audwhat_stim/pitch_box.png,stimulus/audwhat_stim/pitch_yes.png,stimulus/audwhat_stim/pitch_no.png,None,Pitch,None,Pitch,1,0.0,0,5.125,0,5.125,0,5.125,0,0.0,0.625,0,0.0,0,0.0,0,0.0,0,0.0,0,0.0,0,0.0,1,0.5,1,2.125,0,,,,,0,9,9,9,,,,,,,,,117.43935791699914,117.43935791699914,117.43935791699914,117.43935791699914,117.43935791699914,117.43935791699914,117.43935791699914,117.43935791699914,117.36760987467521,117.43935791699914,117.43935791699914,117.43935791699914,117.36760987467521,117.43935791699914,117.43935791699914,117.43935791699914,119.55363400001079,,117.43935791699914,117.43935791699914,122.59483345798799,117.43935791699914,117.43935791699914,117.43935791699914,117.43935791699914,117.89829824998742,118.95484095800202,117.86953879165618,,119.55363400001079,120.61665708301007,119.52394916667642,,117.43935791699914,122.59483345798799,117.43935791699914,122.59483345798799,122.6356792919978,123.28415491699707,117.43935791699914,1,1,0.8491590839985292,reldom2_s024,001,2025-02-27_11h33.37.364,What-A-Scan_AC,2022.2.5,None,
8,First_Order,2.0,audwhat,stimulus/audwhat_stim/dummy.wav,stimulus/audwhat_stim/dummy.wav,stimulus/audwhat_stim/string cello_low-pitch_Dtri_loud.wav,stimulus/audwhat_stim/percussion mallet_low-pitch_Dtri_loud.wav,stimulus/audwhat_stim/blank_white.png,stimulus/audwhat_stim/category_box.png,stimulus/audwhat_stim/category_yes.png,stimulus/audwhat_stim/category_no.png,None,Category,None,Pitch,2,0.0,0,5.125,0,5.125,0,5.125,0,0.0,0.625,0,0.0,0,0.0,0,0.0,0,0.0,0,0.0,0,0.0,1,0.5,1,2.125,0,,,,,0,10,10,10,,,,,,,,,123.53904925001552,123.53904925001552,123.53904925001552,123.53904925001552,123.53904925001552,123.53904925001552,123.53904925001552,123.53904925001552,123.45812404132641,123.53904925001552,123.53904925001552,123.53904925001552,123.45812404132641,123.53904925001552,123.53904925001552,123.53904925001552,125.62360749999061,,123.53904925001552,123.53904925001552,128.72852295800112,123.53904925001552,123.53904925001552,123.53904925001552,123.53904925001552,124.003125541989,125.06635504201404,123.97331449966102,,125.62360749999061,126.69149287499022,125.59415120867585,,123.53904925001552,128.72852295800112,123.53904925001552,128.72852295800112,128.72852295800112,129.3813000000082,123.53904925001552,1,0,0.9105838329996914,reldom2_s024,001,2025-02-27_11h33.37.364,What-A-Scan_AC,2022.2.5,None,
9,First_Order,2.0,audwhat,stimulus/audwhat_stim/dummy.wav,stimulus/audwhat_stim/dummy.wav,stimulus/audwhat_stim/string cello_high-pitch_F_loud.wav,stimulus/audwhat_stim/percussion mallet_high-pitch_F_loud.wav,stimulus/audwhat_stim/blank_white.png,stimulus/audwhat_stim/pitch_box.png,stimulus/audwhat_stim/pitch_yes.png,stimulus/audwhat_stim/pitch_no.png,None,Pitch,None,Pitch,1,0.0,0,5.125,0,5.125,0,5.125,0,0.0,0.625,0,0.0,0,0.0,0,0.0,0,0.0,0,0.0,0,0.0,1,0.5,1,2.125,0,,,,,0,11,11,11,,,,,,,,,129.63461058298708,129.63461058298708,129.63461058298708,129.63461058298708,129.63461058298708,129.63461058298708,129.63461058298708,129.63461058298708,129.555543375349,129.63461058298708,129.63461058298708,129.63461058298708,129.555543375349,129.63461058298708,129.63461058298708,129.63461058298708,131.71208683299483,135.75275754200993,129.63461058298708,129.63461058298708,134.80870024999604,129.63461058298708,129.63461058298708,129.63461058298708,129.63461058298708,130.0966087919951,131.15722516700043,130.06677845865877,,131.71208683299483,132.7768823330116,131.68260999967268,,129.63461058298708,134.80870024999604,129.63461058298708,134.80870024999604,134.84980941700633,135.50015149998944,129.63461058298708,1,1,0.6480662089888938,reldom2_s024,001,2025-02-27_11h33.37.364,What-A-Scan_AC,2022.2.5,None,
10,First_Order,2.0,audwhat,stimulus/audwhat_stim/dummy.wav,stimulus/audwhat_stim/dummy.wav,stimulus/audwhat_stim/percussion xylophone_high-pitch_D_loud.wav,stimulus/audwhat_stim/string cello_high-pitch_D_loud.wav,stimulus/audwhat_stim/blank_white.png,stimulus/audwhat_stim/category_box.png,stimulus/audwhat_stim/category_yes.png,stimulus/audwhat_stim/category_no.png,None,Category,None,Pitch,2,0.0,0,5.125,0,5.125,0,5.125,0,0.0,0.625,0,0.0,0,0.0,0,0.0,0,0.0,0,0.0,0,0.0,1,0.5,1,2.125,0,,,,,0,12,12,12,,,,,,,,,135.75275754200993,135.75275754200993,135.75275754200993,135.75275754200993,135.75275754200993,135.75275754200993,135.75275754200993,135.75275754200993,135.6740000833253,135.75275754200993,135.75275754200993,135.75275754200993,135.6740000833253,135.75275754200993,135.75275754200993,135.75275754200993,137.84130995799205,,135.75275754200993,135.75275754200993,140.9066011669929,135.75275754200993,135.75275754200993,135.75275754200993,135.75275754200993,136.2153878750105,137.283348958008,136.18573283366666,137.23526024998864,137.84130995799205,138.91410037499736,137.81128116665448,,135.75275754200993,140.9066011669929,135.75275754200993,140.9066011669929,140.948116457992,141.6032856249949,135.75275754200993,2,1,0.5453081669984385,reldom2_s024,001,2025-02-27_11h33.37.364,What-A-Scan_AC,2022.2.5,None,
0,0.0,None,fixation,stimulus/audwhat_stim/blank_white.png,stimulus/audwhat_stim/blank_white.png,stimulus/viswhat_stim/blank_white.png,stimulus/viswhat_stim/blank_white.png,stimulus/audwhat_stim/blank_white.png,stimulus/audwhat_stim/blank_white.png,stimulus/audwhat_stim/blank_white.png,stimulus/audwhat_stim/blank_white.png,0.0,0.0,0.0,0.0,0,0.0,0,0.0,0,0.0,0,0.0,0,0.0,0.0,0,0.0,0,0.0,0,0.0,0,0.0,0,0.0,0,0.0,0,0.0,0,0.0,10,,,,,0,13,13,13,,,,,,,,,141.8756595000159,141.8756595000159,141.8756595000159,141.8756595000159,141.8756595000159,141.8756595000159,141.8756595000159,141.8756595000159,141.7771657503346,141.8756595000159,141.8756595000159,141.8756595000159,141.7771657503346,141.8756595000159,141.8756595000159,141.8756595000159,141.8756595000159,141.8756595000159,141.8756595000159,141.8756595000159,141.8756595000159,141.8756595000159,141.8756595000159,141.8756595000159,141.8756595000159,141.8756595000159,141.8756595000159,141.8271657503346,141.8756595000159,141.8756595000159,141.8756595000159,141.8271657503346,141.8756595000159,141.8756595000159,141.8756595000159,141.8756595000159,141.8756595000159,147.09348512499128,147.09348512499128,152.03737229199032,None,0,,reldom2_s024,001,2025-02-27_11h33.37.364,What-A-Scan_AC,2022.2.5,None,
11,Second_Order,2.0,audwhat,stimulus/audwhat_stim/string viola_high-pitch_D_loud.wav,stimulus/audwhat_stim/percussion xylophone_high-pitch_D_loud.wav,stimulus/audwhat_stim/percussion mallet_low-pitch_F_loud.wav,stimulus/audwhat_stim/string viola_low-pitch_F_loud.wav,stimulus/audwhat_stim/match_blank.png,stimulus/audwhat_stim/match_box.png,stimulus/audwhat_stim/match_yes.png,stimulus/audwhat_stim/match_no.png,1.0,Match,Pitch,Pitch,1,5.125,0,5.125,0,5.125,0,5.125,0,0.75,0.75,0,0.0,0,0.0,0,0.0,0,0.0,1,0.5,1,2.125,1,0.5,1,2.125,0,,,,,0,14,14,14,,,,,,,,,152.03737229199032,157.1565324169933,152.03737229199032,152.03737229199032,152.03737229199032,152.03737229199032,152.49499291699613,153.49404070799937,152.5082415836553,,154.11673570799758,155.1144432919973,154.12842958365607,155.11819199999445,157.1565324169933,158.00720683299005,160.07335012499243,164.00812358301482,158.00720683299005,158.00720683299005,163.15958637499716,158.00720683299005,158.00720683299005,158.00720683299005,158.00720683299005,158.4645726250019,159.52375316701364,158.43520070866023,,160.07335012499243,161.13501699999324,160.04395637466612,,158.00720683299005,163.15958637499716,158.00720683299005,163.15958637499716,163.20057104199077,,158.00720683299005,1,1,1.1634265840111766,reldom2_s024,001,2025-02-27_11h33.37.364,What-A-Scan_AC,2022.2.5,None,
12,Second_Order,2.0,audwhat,stimulus/audwhat_stim/percussion mallet_high-pitch_Dtri_loud.wav,stimulus/audwhat_stim/string viola_high-pitch_Dtri_loud.wav,stimulus/audwhat_stim/string viola_low-pitch_Dtri_loud.wav,stimulus/audwhat_stim/percussion mallet_low-pitch_Dtri_loud.wav,stimulus/audwhat_stim/match_blank.png,stimulus/audwhat_stim/match_box.png,stimulus/audwhat_stim/match_yes.png,stimulus/audwhat_stim/match_no.png,1.0,Match,Pitch,Pitch,1,5.125,0,5.125,0,5.125,0,5.125,0,0.625,0.625,0,0.0,0,0.0,0,0.0,0,0.0,1,0.5,1,2.125,1,0.5,1,2.125,0,,,,,0,15,15,15,,,,,,,,,164.00812358301482,169.12995945799048,164.00812358301482,164.00812358301482,164.00812358301482,164.00812358301482,164.45651608300977,165.45507708299556,164.46965787467005,,166.09395912499167,167.092184832989,166.1063007916712,,169.12995945799048,169.8666222920001,171.91663987500942,,169.8666222920001,169.8666222920001,175.03095949999988,169.8666222920001,169.8666222920001,169.8666222920001,169.8666222920001,170.32210004198714,171.37071358299,170.29288704166927,,171.91663987500942,172.96926716700546,171.887464249656,,169.8666222920001,175.03095949999988,169.8666222920001,175.03095949999988,175.03095949999988,175.68032462499104,169.8666222920001,1,1,0.944921542017255,reldom2_s024,001,2025-02-27_11h33.37.364,What-A-Scan_AC,2022.2.5,None,
0,0.0,None,fixation,stimulus/audwhat_stim/blank_white.png,stimulus/audwhat_stim/blank_white.png,stimulus/viswhat_stim/blank_white.png,stimulus/viswhat_stim/blank_white.png,stimulus/audwhat_stim/blank_white.png,stimulus/audwhat_stim/blank_white.png,stimulus/audwhat_stim/blank_white.png,stimulus/audwhat_stim/blank_white.png,0.0,0.0,0.0,0.0,0,0.0,0,0.0,0,0.0,0,0.0,0,0.0,0.0,0,0.0,0,0.0,0,0.0,0,0.0,0,0.0,0,0.0,0,0.0,0,0.0,8,,,,,0,16,16,16,,,,,,,,,175.95229520800058,175.95229520800058,175.95229520800058,175.95229520800058,175.95229520800058,175.95229520800058,175.95229520800058,175.95229520800058,175.8540668333318,175.95229520800058,175.95229520800058,175.95229520800058,175.8540668333318,175.95229520800058,175.95229520800058,175.95229520800058,175.95229520800058,175.95229520800058,175.95229520800058,175.95229520800058,175.95229520800058,175.95229520800058,175.95229520800058,175.95229520800058,175.95229520800058,175.95229520800058,175.95229520800058,175.9040668333318,175.95229520800058,175.95229520800058,175.95229520800058,175.9040668333318,175.95229520800058,175.95229520800058,175.95229520800058,175.95229520800058,175.95229520800058,181.18271550000645,181.18271550000645,184.29785837500822,None,0,,reldom2_s024,001,2025-02-27_11h33.37.364,What-A-Scan_AC,2022.2.5,None,
13,First_Order,3.0,viswhat,stimulus/viswhat_stim/blank_white.png,stimulus/viswhat_stim/blank_white.png,stimulus/viswhat_stim/water_vehicle-cruiseship.png,stimulus/viswhat_stim/land_vehicle-pickuptruck.png,stimulus/viswhat_stim/blank_white.png,stimulus/viswhat_stim/type_box.png,stimulus/viswhat_stim/type_yes.png,stimulus/viswhat_stim/type_no.png,None,Type,None,Type,1,0.0,0,5.125,0,5.125,0,5.125,0,0.0,0.625,0,0.0,0,0.0,1,0.5,1,2.125,0,0.0,0,0.0,0,0.0,0,0.0,0,,,,,0,17,17,17,,,,,,,,,184.29785837500822,184.29785837500822,184.29785837500822,184.29785837500822,184.29785837500822,184.29785837500822,184.29785837500822,184.29785837500822,184.10659474967787,184.29785837500822,184.29785837500822,184.29785837500822,184.10659474967787,184.29785837500822,184.29785837500822,184.29785837500822,186.32241370799602,,184.29785837500822,184.29785837500822,189.5000570419943,184.6834885420103,185.84115916700102,186.32241370799602,187.48228245798964,184.29785837500822,184.29785837500822,184.20659474967786,184.29785837500822,184.29785837500822,184.29785837500822,184.20659474967786,184.29785837500822,184.29785837500822,189.5000570419943,184.29785837500822,189.5000570419943,189.5000570419943,,184.29785837500822,1,1,0.7788105829968117,reldom2_s024,001,2025-02-27_11h33.37.364,What-A-Scan_AC,2022.2.5,None,
14,First_Order,3.0,viswhat,stimulus/viswhat_stim/blank_white.png,stimulus/viswhat_stim/blank_white.png,stimulus/viswhat_stim/water_animal-lobster.png,stimulus/viswhat_stim/water_vehicle-cruiseship.png,stimulus/viswhat_stim/blank_white.png,stimulus/viswhat_stim/location_box.png,stimulus/viswhat_stim/location_yes.png,stimulus/viswhat_stim/location_no.png,None,Location,None,Location,1,0.0,0,5.125,0,5.125,0,5.125,0,0.0,0.625,0,0.0,0,0.0,1,0.5,1,2.125,0,0.0,0,0.0,0,0.0,0,0.0,0,,,,,0,18,18,18,,,,,,,,,190.71926750001148,190.71926750001148,190.71926750001148,190.71926750001148,190.71926750001148,190.71926750001148,190.71926750001148,190.71926750001148,190.27798645832422,190.71926750001148,190.71926750001148,190.71926750001148,190.27798645832422,190.71926750001148,190.71926750001148,190.71926750001148,192.70127062499523,,190.71926750001148,190.71926750001148,196.22507650000625,191.16051012498792,192.48089695800445,192.70127062499523,194.0244699580071,190.71926750001148,190.71926750001148,190.4946531249909,190.71926750001148,190.71926750001148,190.71926750001148,190.4946531249909,190.71926750001148,190.71926750001148,196.22507650000625,190.71926750001148,196.22507650000625,195.78874816698954,,190.71926750001148,1,1,0.6329196669976227,reldom2_s024,001,2025-02-27_11h33.37.364,What-A-Scan_AC,2022.2.5,None,
15,First_Order,3.0,viswhat,stimulus/viswhat_stim/blank_white.png,stimulus/viswhat_stim/blank_white.png,stimulus/viswhat_stim/water_vehicle-cruiseship.png,stimulus/viswhat_stim/land_vehicle-bus.png,stimulus/viswhat_stim/blank_white.png,stimulus/viswhat_stim/location_box.png,stimulus/viswhat_stim/location_yes.png,stimulus/viswhat_stim/location_no.png,None,Location,None,Type,2,0.0,0,5.125,0,5.125,0,5.125,0,0.0,0.625,0,0.0,0,0.0,1,0.5,1,2.125,0,0.0,0,0.0,0,0.0,0,0.0,0,,,,,0,19,19,19,,,,,,,,,196.90154316701228,196.90154316701228,196.90154316701228,196.90154316701228,196.90154316701228,196.90154316701228,196.90154316701228,196.90154316701228,196.7084098333396,196.90154316701228,196.90154316701228,196.90154316701228,196.7084098333396,196.90154316701228,196.90154316701228,196.90154316701228,198.91998733300716,,196.90154316701228,196.90154316701228,202.14253079201444,197.30686183299986,198.41662358300528,198.91998733300716,200.03168541699415,196.90154316701228,196.90154316701228,196.8084098333396,196.90154316701228,196.90154316701228,196.90154316701228,196.8084098333396,196.90154316701228,196.90154316701228,202.14253079201444,196.90154316701228,202.14253079201444,202.04772929201135,,196.90154316701228,2,1,0.7774970839964226,reldom2_s024,001,2025-02-27_11h33.37.364,What-A-Scan_AC,2022.2.5,None,
16,First_Order,3.0,viswhat,stimulus/viswhat_stim/blank_white.png,stimulus/viswhat_stim/blank_white.png,stimulus/viswhat_stim/land_vehicle-oldcar.png,stimulus/viswhat_stim/water_vehicle-pirateship.png,stimulus/viswhat_stim/blank_white.png,stimulus/viswhat_stim/type_box.png,stimulus/viswhat_stim/type_yes.png,stimulus/viswhat_stim/type_no.png,None,Type,None,Type,1,0.0,0,5.125,0,5.125,0,5.125,0,0.0,0.625,0,0.0,0,0.0,1,0.5,1,2.125,0,0.0,0,0.0,0,0.0,0,0.0,0,,,,,0,20,20,20,,,,,,,,,202.93470800001523,202.93470800001523,202.93470800001523,202.93470800001523,202.93470800001523,202.93470800001523,202.93470800001523,202.93470800001523,202.86755204200745,202.93470800001523,202.93470800001523,202.93470800001523,202.86755204200745,202.93470800001523,202.93470800001523,202.93470800001523,205.03064158299821,,202.93470800001523,202.93470800001523,208.1154324579984,203.40670024999417,204.4338182079955,205.03064158299821,206.05821325001307,202.93470800001523,202.93470800001523,202.9008853753408,202.93470800001523,202.93470800001523,202.93470800001523,202.9008853753408,202.93470800001523,202.93470800001523,208.1154324579984,202.93470800001523,208.1154324579984,208.152849917009,208.82179570800508,202.93470800001523,1,1,1.1386735010019038,reldom2_s024,001,2025-02-27_11h33.37.364,What-A-Scan_AC,2022.2.5,None,
0,0.0,None,fixation,stimulus/audwhat_stim/blank_white.png,stimulus/audwhat_stim/blank_white.png,stimulus/viswhat_stim/blank_white.png,stimulus/viswhat_stim/blank_white.png,stimulus/audwhat_stim/blank_white.png,stimulus/audwhat_stim/blank_white.png,stimulus/audwhat_stim/blank_white.png,stimulus/audwhat_stim/blank_white.png,0.0,0.0,0.0,0.0,0,0.0,0,0.0,0,0.0,0,0.0,0,0.0,0.0,0,0.0,0,0.0,0,0.0,0,0.0,0,0.0,0,0.0,0,0.0,0,0.0,9,,,,,0,21,21,21,,,,,,,,,209.05106237501604,209.05106237501604,209.05106237501604,209.05106237501604,209.05106237501604,209.05106237501604,209.05106237501604,209.05106237501604,208.95512904133844,209.05106237501604,209.05106237501604,209.05106237501604,208.95512904133844,209.05106237501604,209.05106237501604,209.05106237501604,209.05106237501604,209.05106237501604,209.05106237501604,209.05106237501604,209.05106237501604,209.05106237501604,209.05106237501604,209.05106237501604,209.05106237501604,209.05106237501604,209.05106237501604,209.00512904133842,209.05106237501604,209.05106237501604,209.05106237501604,209.00512904133842,209.05106237501604,209.05106237501604,209.05106237501604,209.05106237501604,209.05106237501604,214.28075608299696,214.28075608299696,218.207445750013,None,0,,reldom2_s024,001,2025-02-27_11h33.37.364,What-A-Scan_AC,2022.2.5,None,
17,Second_Order,3.0,viswhat,stimulus/viswhat_stim/water_animal-shark.png,stimulus/viswhat_stim/water_vehicle-pirateship.png,stimulus/viswhat_stim/water_animal-squid.png,stimulus/viswhat_stim/land_animal-elephant.png,stimulus/audwhat_stim/match_blank.png,stimulus/audwhat_stim/match_box.png,stimulus/audwhat_stim/match_yes.png,stimulus/audwhat_stim/match_no.png,2.0,Match,Location,Type,2,5.125,0,5.125,0,5.125,0,5.125,0,0.75,0.75,1,0.5,1,2.125,1,0.5,1,2.125,0,0.0,0,0.0,0,0.0,0,0.0,0,,,,,0,22,22,22,,,,,,,,,218.207445750013,223.3260524169891,218.66349916701438,219.64991595799802,220.28699716701522,221.28401624999242,218.207445750013,218.207445750013,218.21836233299692,218.207445750013,218.207445750013,218.207445750013,218.21836233299692,218.207445750013,223.3260524169891,224.21889204200124,226.28479062500992,,224.21889204200124,224.21889204200124,229.42073025001446,224.61754800000926,225.68359887500992,226.28479062500992,227.35680895799305,224.21889204200124,224.21889204200124,224.16043308301016,224.21889204200124,224.21889204200124,224.21889204200124,224.16043308301016,224.21889204200124,224.21889204200124,229.42073025001446,224.21889204200124,229.42073025001446,229.42073025001446,,224.21889204200124,2,1,0.6108318339975085,reldom2_s024,001,2025-02-27_11h33.37.364,What-A-Scan_AC,2022.2.5,None,
18,Second_Order,3.0,viswhat,stimulus/viswhat_stim/land_vehicle-pickuptruck.png,stimulus/viswhat_stim/water_vehicle-pirateship.png,stimulus/viswhat_stim/water_animal-jellyfish.png,stimulus/viswhat_stim/land_animal-snake.png,stimulus/audwhat_stim/match_blank.png,stimulus/audwhat_stim/match_box.png,stimulus/audwhat_stim/match_yes.png,stimulus/audwhat_stim/match_no.png,1.0,Match,Type,Type,1,5.125,0,5.125,0,5.125,0,5.125,0,0.625,0.625,1,0.5,1,2.125,1,0.5,1,2.125,0,0.0,0,0.0,0,0.0,0,0.0,0,,,,,0,23,23,23,,,,,,,,,230.16983004199574,235.28848991700215,230.64249383300194,231.64107795798918,232.26374629201018,233.26156991699827,230.16983004199574,230.16983004199574,230.1818744170072,230.16983004199574,230.16983004199574,230.16983004199574,230.1818744170072,230.16983004199574,235.28848991700215,235.98065745801432,238.0613865419873,,235.98065745801432,235.98065745801432,241.11643741698936,236.4173099999898,237.43208091700217,238.0613865419873,239.08317791699665,235.98065745801432,235.98065745801432,235.9505540419894,235.98065745801432,235.98065745801432,235.98065745801432,235.9505540419894,235.98065745801432,235.98065745801432,241.11643741698936,235.98065745801432,241.11643741698936,241.160214500007,241.7964137920062,235.98065745801432,1,1,0.7003312919987366,reldom2_s024,001,2025-02-27_11h33.37.364,What-A-Scan_AC,2022.2.5,None,
0,0.0,None,fixation,stimulus/audwhat_stim/blank_white.png,stimulus/audwhat_stim/blank_white.png,stimulus/viswhat_stim/blank_white.png,stimulus/viswhat_stim/blank_white.png,stimulus/audwhat_stim/blank_white.png,stimulus/audwhat_stim/blank_white.png,stimulus/audwhat_stim/blank_white.png,stimulus/audwhat_stim/blank_white.png,0.0,0.0,0.0,0.0,0,0.0,0,0.0,0,0.0,0,0.0,0,0.0,0.0,0,0.0,0,0.0,0,0.0,0,0.0,0,0.0,0,0.0,0,0.0,0,0.0,8,,,,,0,24,24,24,,,,,,,,,242.0823526669992,242.0823526669992,242.0823526669992,242.0823526669992,242.0823526669992,242.0823526669992,242.0823526669992,242.0823526669992,241.98288708298935,242.0823526669992,242.0823526669992,242.0823526669992,241.98288708298935,242.0823526669992,242.0823526669992,242.0823526669992,242.0823526669992,242.0823526669992,242.0823526669992,242.0823526669992,242.0823526669992,242.0823526669992,242.0823526669992,242.0823526669992,242.0823526669992,242.0823526669992,242.0823526669992,242.03288708298933,242.0823526669992,242.0823526669992,242.0823526669992,242.03288708298933,242.0823526669992,242.0823526669992,242.0823526669992,242.0823526669992,242.0823526669992,247.2998610420036,247.2998610420036,250.32047562499065,None,0,,reldom2_s024,001,2025-02-27_11h33.37.364,What-A-Scan_AC,2022.2.5,None,
19,First_Order,4.0,viswhat,stimulus/viswhat_stim/blank_white.png,stimulus/viswhat_stim/blank_white.png,stimulus/viswhat_stim/land_animal-wolf.png,stimulus/viswhat_stim/water_animal-squid.png,stimulus/viswhat_stim/blank_white.png,stimulus/viswhat_stim/location_box.png,stimulus/viswhat_stim/location_yes.png,stimulus/viswhat_stim/location_no.png,None,Location,None,Type,2,0.0,0,5.125,0,5.125,0,5.125,0,0.0,0.625,0,0.0,0,0.0,1,0.5,1,2.125,0,0.0,0,0.0,0,0.0,0,0.0,0,,,,,0,25,25,25,,,,,,,,,250.32047562499065,250.32047562499065,250.32047562499065,250.32047562499065,250.32047562499065,250.32047562499065,250.32047562499065,250.32047562499065,250.2787123336554,250.32047562499065,250.32047562499065,250.32047562499065,250.2787123336554,250.32047562499065,250.32047562499065,250.32047562499065,252.41829516700818,256.3951223329932,250.32047562499065,250.32047562499065,255.4615621670091,250.80669050000142,251.84218462501303,252.41829516700818,253.45721704201424,250.32047562499065,250.32047562499065,250.29537900032204,250.32047562499065,250.32047562499065,250.32047562499065,250.29537900032204,250.32047562499065,250.32047562499065,255.4615621670091,250.32047562499065,255.4615621670091,255.5359907920065,256.1786930419912,250.32047562499065,2,1,1.279574042011518,reldom2_s024,001,2025-02-27_11h33.37.364,What-A-Scan_AC,2022.2.5,None,
20,First_Order,4.0,viswhat,stimulus/viswhat_stim/blank_white.png,stimulus/viswhat_stim/blank_white.png,stimulus/viswhat_stim/water_animal-jellyfish.png,stimulus/viswhat_stim/water_vehicle-motorboatraft.png,stimulus/viswhat_stim/blank_white.png,stimulus/viswhat_stim/location_box.png,stimulus/viswhat_stim/location_yes.png,stimulus/viswhat_stim/location_no.png,None,Location,None,Location,1,0.0,0,5.125,0,5.125,0,5.125,0,0.0,0.625,0,0.0,0,0.0,1,0.5,1,2.125,0,0.0,0,0.0,0,0.0,0,0.0,0,,,,,0,26,26,26,,,,,,,,,256.3951223329932,256.3951223329932,256.3951223329932,256.3951223329932,256.3951223329932,256.3951223329932,256.3951223329932,256.3951223329932,256.35250904200944,256.3951223329932,256.3951223329932,256.3951223329932,256.35250904200944,256.3951223329932,256.3951223329932,256.3951223329932,258.4899733749917,262.5649535830016,256.3951223329932,256.3951223329932,261.54770754199126,256.88458562499727,257.91988037500414,258.4899733749917,259.5020310000109,256.3951223329932,256.3951223329932,256.36917570867615,256.3951223329932,256.3951223329932,256.3951223329932,256.36917570867615,256.3951223329932,256.3951223329932,261.54770754199126,256.3951223329932,261.54770754199126,261.6120565420133,262.2568085420062,256.3951223329932,1,1,1.0601558750204276,reldom2_s024,001,2025-02-27_11h33.37.364,What-A-Scan_AC,2022.2.5,None,
21,First_Order,4.0,viswhat,stimulus/viswhat_stim/blank_white.png,stimulus/viswhat_stim/blank_white.png,stimulus/viswhat_stim/land_animal-elephant.png,stimulus/viswhat_stim/land_vehicle-buldozer.png,stimulus/viswhat_stim/blank_white.png,stimulus/viswhat_stim/type_box.png,stimulus/viswhat_stim/type_yes.png,stimulus/viswhat_stim/type_no.png,None,Type,None,Location,2,0.0,0,5.125,0,5.125,0,5.125,0,0.0,0.625,0,0.0,0,0.0,1,0.5,1,2.125,0,0.0,0,0.0,0,0.0,0,0.0,0,,,,,0,27,27,27,,,,,,,,,262.5649535830016,262.5649535830016,262.5649535830016,262.5649535830016,262.5649535830016,262.5649535830016,262.5649535830016,262.5649535830016,262.44316566699996,262.5649535830016,262.5649535830016,262.5649535830016,262.44316566699996,262.5649535830016,262.5649535830016,262.5649535830016,264.6513151249965,268.6898435000039,262.5649535830016,262.5649535830016,267.7834774169896,263.05080600001384,264.16513612499693,264.6513151249965,265.76849849999417,262.5649535830016,262.5649535830016,262.5098323336666,262.5649535830016,262.5649535830016,262.5649535830016,262.5098323336666,262.5649535830016,262.5649535830016,267.7834774169896,262.5649535830016,267.7834774169896,267.7834774169896,268.6898435000039,262.5649535830016,2,1,1.0723836669931188,reldom2_s024,001,2025-02-27_11h33.37.364,What-A-Scan_AC,2022.2.5,None,
22,First_Order,4.0,viswhat,stimulus/viswhat_stim/blank_white.png,stimulus/viswhat_stim/blank_white.png,stimulus/viswhat_stim/water_animal-shark.png,stimulus/viswhat_stim/water_vehicle-cabincruiser.png,stimulus/viswhat_stim/blank_white.png,stimulus/viswhat_stim/type_box.png,stimulus/viswhat_stim/type_yes.png,stimulus/viswhat_stim/type_no.png,None,Type,None,Location,2,0.0,0,5.125,0,5.125,0,5.125,0,0.0,0.625,0,0.0,0,0.0,1,0.5,1,2.125,0,0.0,0,0.0,0,0.0,0,0.0,0,,,,,0,28,28,28,,,,,,,,,268.6898435000039,268.6898435000039,268.6898435000039,268.6898435000039,268.6898435000039,268.6898435000039,268.6898435000039,268.6898435000039,268.607789958346,268.6898435000039,268.6898435000039,268.6898435000039,268.607789958346,268.6898435000039,268.6898435000039,268.6898435000039,270.78584100000444,274.83664566700463,268.6898435000039,268.6898435000039,273.88399358300376,269.16492191699217,270.21585170799517,270.78584100000444,271.84031229201355,268.6898435000039,268.6898435000039,268.657789958346,268.6898435000039,268.6898435000039,268.6898435000039,268.657789958346,268.6898435000039,268.6898435000039,273.88399358300376,268.6898435000039,273.88399358300376,273.88399358300376,274.5561617919884,268.6898435000039,2,1,0.933294541988289,reldom2_s024,001,2025-02-27_11h33.37.364,What-A-Scan_AC,2022.2.5,None,
0,0.0,None,fixation,stimulus/audwhat_stim/blank_white.png,stimulus/audwhat_stim/blank_white.png,stimulus/viswhat_stim/blank_white.png,stimulus/viswhat_stim/blank_white.png,stimulus/audwhat_stim/blank_white.png,stimulus/audwhat_stim/blank_white.png,stimulus/audwhat_stim/blank_white.png,stimulus/audwhat_stim/blank_white.png,0.0,0.0,0.0,0.0,0,0.0,0,0.0,0,0.0,0,0.0,0,0.0,0.0,0,0.0,0,0.0,0,0.0,0,0.0,0,0.0,0,0.0,0,0.0,0,0.0,9,,,,,0,29,29,29,,,,,,,,,274.83664566700463,274.83664566700463,274.83664566700463,274.83664566700463,274.83664566700463,274.83664566700463,274.83664566700463,274.83664566700463,274.73113833333093,274.83664566700463,274.83664566700463,274.83664566700463,274.73113833333093,274.83664566700463,274.83664566700463,274.83664566700463,274.83664566700463,274.83664566700463,274.83664566700463,274.83664566700463,274.83664566700463,274.83664566700463,274.83664566700463,274.83664566700463,274.83664566700463,274.83664566700463,274.83664566700463,274.7978049999976,274.83664566700463,274.83664566700463,274.83664566700463,274.7978049999976,274.83664566700463,274.83664566700463,274.83664566700463,274.83664566700463,274.83664566700463,280.019216582994,280.019216582994,283.9925019580114,None,0,,reldom2_s024,001,2025-02-27_11h33.37.364,What-A-Scan_AC,2022.2.5,None,
23,Second_Order,4.0,viswhat,stimulus/viswhat_stim/water_vehicle-canoe(1).png,stimulus/viswhat_stim/land_vehicle-vespa.png,stimulus/viswhat_stim/land_animal-dog.png,stimulus/viswhat_stim/water_animal-jellyfish.png,stimulus/audwhat_stim/match_blank.png,stimulus/audwhat_stim/match_box.png,stimulus/audwhat_stim/match_yes.png,stimulus/audwhat_stim/match_no.png,1.0,Match,Type,Type,1,5.125,0,5.125,0,5.125,0,5.125,0,0.75,0.75,1,0.5,1,2.125,1,0.5,1,2.125,0,0.0,0,0.0,0,0.0,0,0.0,0,,,,,0,30,30,30,,,,,,,,,283.9925019580114,289.11196454201126,284.46264095799415,285.4519777079986,286.08878966700286,287.0859004580125,283.9925019580114,283.9925019580114,283.9935834583322,283.9925019580114,283.9925019580114,283.9925019580114,283.9935834583322,283.9925019580114,289.11196454201126,289.92531099999906,292.0030665000086,295.89508087499416,289.92531099999906,289.92531099999906,295.08388145800564,290.3811914580001,291.40666916701593,292.0030665000086,293.03431279200595,289.92531099999906,289.92531099999906,289.8950924580102,289.92531099999906,289.92531099999906,289.92531099999906,289.8950924580102,289.92531099999906,289.92531099999906,295.08388145800564,289.92531099999906,295.08388145800564,295.1069623749936,,289.92531099999906,1,1,0.7634613330010325,reldom2_s024,001,2025-02-27_11h33.37.364,What-A-Scan_AC,2022.2.5,None,
24,Second_Order,4.0,viswhat,stimulus/viswhat_stim/land_vehicle-tank.png,stimulus/viswhat_stim/water_vehicle-canoe(1).png,stimulus/viswhat_stim/water_animal-orka.png,stimulus/viswhat_stim/water_vehicle-cabincruiser.png,stimulus/audwhat_stim/match_blank.png,stimulus/audwhat_stim/match_box.png,stimulus/audwhat_stim/match_yes.png,stimulus/audwhat_stim/match_no.png,2.0,Match,Type,Location,2,5.125,0,5.125,0,5.125,0,5.125,0,0.625,0.625,1,0.5,1,2.125,1,0.5,1,2.125,0,0.0,0,0.0,0,0.0,0,0.0,0,,,,,0,31,31,31,,,,,,,,,295.89508087499416,301.01821979199303,296.3776249999937,297.3763160830131,297.99871495799744,298.99663000000874,295.89508087499416,295.89508087499416,295.9052230836688,295.89508087499416,295.89508087499416,295.89508087499416,295.9052230836688,295.89508087499416,301.01821979199303,301.8184534170141,303.83224466699176,,301.8184534170141,301.8184534170141,307.02084937499603,302.20513120800024,303.2899488749972,303.83224466699176,304.92332641698886,301.8184534170141,301.8184534170141,301.75286583366494,301.8184534170141,301.8184534170141,301.8184534170141,301.75286583366494,301.8184534170141,301.8184534170141,307.02084937499603,301.8184534170141,307.02084937499603,306.9486261669954,307.8998600830091,301.8184534170141,2,1,0.7633232499938458,reldom2_s024,001,2025-02-27_11h33.37.364,What-A-Scan_AC,2022.2.5,None,
0,0.0,None,fixation,stimulus/audwhat_stim/blank_white.png,stimulus/audwhat_stim/blank_white.png,stimulus/viswhat_stim/blank_white.png,stimulus/viswhat_stim/blank_white.png,stimulus/audwhat_stim/blank_white.png,stimulus/audwhat_stim/blank_white.png,stimulus/audwhat_stim/blank_white.png,stimulus/audwhat_stim/blank_white.png,0.0,0.0,0.0,0.0,0,0.0,0,0.0,0,0.0,0,0.0,0,0.0,0.0,0,0.0,0,0.0,0,0.0,0,0.0,0,0.0,0,0.0,0,0.0,0,0.0,9,,,,,0,32,32,32,,,,,,,,,307.8998600830091,307.8998600830091,307.8998600830091,307.8998600830091,307.8998600830091,307.8998600830091,307.8998600830091,307.8998600830091,307.80028283300925,307.8998600830091,307.8998600830091,307.8998600830091,307.80028283300925,307.8998600830091,307.8998600830091,307.8998600830091,307.8998600830091,307.8998600830091,307.8998600830091,307.8998600830091,307.8998600830091,307.8998600830091,307.8998600830091,307.8998600830091,307.8998600830091,307.8998600830091,307.8998600830091,307.85028283300926,307.8998600830091,307.8998600830091,307.8998600830091,307.85028283300926,307.8998600830091,307.8998600830091,307.8998600830091,307.8998600830091,307.8998600830091,313.0873357919918,313.0873357919918,317.1543292920105,None,0,,reldom2_s024,001,2025-02-27_11h33.37.364,What-A-Scan_AC,2022.2.5,None,
25,First_Order,5.0,audwhat,stimulus/audwhat_stim/dummy.wav,stimulus/audwhat_stim/dummy.wav,stimulus/audwhat_stim/string cello_low-pitch_Dtri_loud.wav,stimulus/audwhat_stim/percussion mallet_low-pitch_Dtri_loud.wav,stimulus/audwhat_stim/blank_white.png,stimulus/audwhat_stim/pitch_box.png,stimulus/audwhat_stim/pitch_yes.png,stimulus/audwhat_stim/pitch_no.png,None,Pitch,None,Pitch,1,0.0,0,5.125,0,5.125,0,5.125,0,0.0,0.625,0,0.0,0,0.0,0,0.0,0,0.0,0,0.0,0,0.0,1,0.5,1,2.125,0,,,,,0,33,33,33,,,,,,,,,317.1543292920105,317.1543292920105,317.1543292920105,317.1543292920105,317.1543292920105,317.1543292920105,317.1543292920105,317.1543292920105,317.08189587467734,317.1543292920105,317.1543292920105,317.1543292920105,317.08189587467734,317.1543292920105,317.1543292920105,317.1543292920105,319.23452274999,323.2767166669946,317.1543292920105,317.1543292920105,322.330751417001,317.1543292920105,317.1543292920105,317.1543292920105,317.1543292920105,317.61825175001286,318.6797657920106,317.5885954996668,,319.23452274999,320.29854912500014,319.2041454996545,,317.1543292920105,322.330751417001,317.1543292920105,322.330751417001,322.37168012501206,323.02289520800696,317.1543292920105,1,1,1.4903692080115434,reldom2_s024,001,2025-02-27_11h33.37.364,What-A-Scan_AC,2022.2.5,None,
26,First_Order,5.0,audwhat,stimulus/audwhat_stim/dummy.wav,stimulus/audwhat_stim/dummy.wav,stimulus/audwhat_stim/string cello_low-pitch_F_loud.wav,stimulus/audwhat_stim/percussion mallet_low-pitch_F_loud.wav,stimulus/audwhat_stim/blank_white.png,stimulus/audwhat_stim/pitch_box.png,stimulus/audwhat_stim/pitch_yes.png,stimulus/audwhat_stim/pitch_no.png,None,Pitch,None,Pitch,1,0.0,0,5.125,0,5.125,0,5.125,0,0.0,0.625,0,0.0,0,0.0,0,0.0,0,0.0,0,0.0,0,0.0,1,0.5,1,2.125,0,,,,,0,34,34,34,,,,,,,,,323.2767166669946,323.2767166669946,323.2767166669946,323.2767166669946,323.2767166669946,323.2767166669946,323.2767166669946,323.2767166669946,323.19667662534823,323.2767166669946,323.2767166669946,323.2767166669946,323.19667662534823,323.2767166669946,323.2767166669946,323.2767166669946,325.35709258299903,329.40391466699657,323.2767166669946,323.2767166669946,328.4558655419969,323.2767166669946,323.2767166669946,323.2767166669946,323.2767166669946,323.7408144999936,324.801952208014,323.7110051246748,,325.35709258299903,326.423425874993,325.32727737466143,,323.2767166669946,328.4558655419969,323.2767166669946,328.4558655419969,328.49639112499426,329.1485229580139,323.2767166669946,1,1,1.0310535829921719,reldom2_s024,001,2025-02-27_11h33.37.364,What-A-Scan_AC,2022.2.5,None,
27,First_Order,5.0,audwhat,stimulus/audwhat_stim/dummy.wav,stimulus/audwhat_stim/dummy.wav,stimulus/audwhat_stim/string cello_high-pitch_D_loud.wav,stimulus/audwhat_stim/percussion mallet_high-pitch_D_loud.wav,stimulus/audwhat_stim/blank_white.png,stimulus/audwhat_stim/category_box.png,stimulus/audwhat_stim/category_yes.png,stimulus/audwhat_stim/category_no.png,None,Category,None,Pitch,2,0.0,0,5.125,0,5.125,0,5.125,0,0.0,0.625,0,0.0,0,0.0,0,0.0,0,0.0,0,0.0,0,0.0,1,0.5,1,2.125,0,,,,,0,35,35,35,,,,,,,,,329.40391466699657,329.40391466699657,329.40391466699657,329.40391466699657,329.40391466699657,329.40391466699657,329.40391466699657,329.40391466699657,329.3223000413292,329.40391466699657,329.40391466699657,329.40391466699657,329.3223000413292,329.40391466699657,329.40391466699657,329.40391466699657,331.4938165000058,,329.40391466699657,329.40391466699657,334.5631495830021,329.40391466699657,329.40391466699657,329.40391466699657,329.40391466699657,329.868760250014,330.93485412499285,329.83824395866054,,331.4938165000058,332.56643179198727,331.46399854167635,,329.40391466699657,334.5631495830021,329.40391466699657,334.5631495830021,334.6044807920116,335.25926079199417,329.40391466699657,2,1,0.7816884169878904,reldom2_s024,001,2025-02-27_11h33.37.364,What-A-Scan_AC,2022.2.5,None,
28,First_Order,5.0,audwhat,stimulus/audwhat_stim/dummy.wav,stimulus/audwhat_stim/dummy.wav,stimulus/audwhat_stim/percussion mallet_low-pitch_Ftri_loud.wav,stimulus/audwhat_stim/percussion mallet_high-pitch_F_loud.wav,stimulus/audwhat_stim/blank_white.png,stimulus/audwhat_stim/category_box.png,stimulus/audwhat_stim/category_yes.png,stimulus/audwhat_stim/category_no.png,None,Category,None,Category,1,0.0,0,5.125,0,5.125,0,5.125,0,0.0,0.625,0,0.0,0,0.0,0,0.0,0,0.0,0,0.0,0,0.0,1,0.5,1,2.125,0,,,,,0,36,36,36,,,,,,,,,335.51409154199064,335.51409154199064,335.51409154199064,335.51409154199064,335.51409154199064,335.51409154199064,335.51409154199064,335.51409154199064,335.43397466634826,335.51409154199064,335.51409154199064,335.51409154199064,335.43397466634826,335.51409154199064,335.51409154199064,335.51409154199064,337.6063565830118,341.6480875829875,335.51409154199064,335.51409154199064,340.67671029199846,335.51409154199064,335.51409154199064,335.51409154199064,335.51409154199064,335.9797440000111,337.04806575001567,335.94973999966555,,337.6063565830118,338.68056283300393,337.57648662466477,,335.51409154199064,340.67671029199846,335.51409154199064,340.67671029199846,340.7178038750135,341.3736094170017,335.51409154199064,1,1,0.516605459008133,reldom2_s024,001,2025-02-27_11h33.37.364,What-A-Scan_AC,2022.2.5,None,
0,0.0,None,fixation,stimulus/audwhat_stim/blank_white.png,stimulus/audwhat_stim/blank_white.png,stimulus/viswhat_stim/blank_white.png,stimulus/viswhat_stim/blank_white.png,stimulus/audwhat_stim/blank_white.png,stimulus/audwhat_stim/blank_white.png,stimulus/audwhat_stim/blank_white.png,stimulus/audwhat_stim/blank_white.png,0.0,0.0,0.0,0.0,0,0.0,0,0.0,0,0.0,0,0.0,0,0.0,0.0,0,0.0,0,0.0,0,0.0,0,0.0,0,0.0,0,0.0,0,0.0,0,0.0,8,,,,,0,37,37,37,,,,,,,,,341.6480875829875,341.6480875829875,341.6480875829875,341.6480875829875,341.6480875829875,341.6480875829875,341.6480875829875,341.6480875829875,341.5480162503392,341.6480875829875,341.6480875829875,341.6480875829875,341.5480162503392,341.6480875829875,341.6480875829875,341.6480875829875,341.6480875829875,341.6480875829875,341.6480875829875,341.6480875829875,341.6480875829875,341.6480875829875,341.6480875829875,341.6480875829875,341.6480875829875,341.6480875829875,341.6480875829875,341.5980162503392,341.6480875829875,341.6480875829875,341.6480875829875,341.5980162503392,341.6480875829875,341.6480875829875,341.6480875829875,341.6480875829875,341.6480875829875,346.8814496670093,346.8814496670093,349.8070563749934,None,0,,reldom2_s024,001,2025-02-27_11h33.37.364,What-A-Scan_AC,2022.2.5,None,
29,Second_Order,5.0,audwhat,stimulus/audwhat_stim/percussion xylophone_high-pitch_Dtri_loud.wav,stimulus/audwhat_stim/percussion mallet_low-pitch_Ftri_loud.wav,stimulus/audwhat_stim/string viola_high-pitch_Ftri_loud.wav,stimulus/audwhat_stim/string viola_low-pitch_Dtri_loud.wav,stimulus/audwhat_stim/match_blank.png,stimulus/audwhat_stim/match_box.png,stimulus/audwhat_stim/match_yes.png,stimulus/audwhat_stim/match_no.png,1.0,Match,Category,Category,1,5.125,0,5.125,0,5.125,0,5.125,0,0.75,0.75,0,0.0,0,0.0,0,0.0,0,0.0,1,0.5,1,2.125,1,0.5,1,2.125,0,,,,,0,38,38,38,,,,,,,,,349.8070563749934,354.93131158300093,349.8070563749934,349.8070563749934,349.8070563749934,349.8070563749934,350.26477741700364,351.2559803329932,350.2669836666648,351.2559803329932,351.8899265830114,352.8875714580063,351.9022737086673,,354.93131158300093,355.7788425000035,357.8537471249874,,355.7788425000035,355.7788425000035,360.9450295419956,355.7788425000035,355.7788425000035,355.7788425000035,355.7788425000035,356.2385010420112,357.30143245801446,356.20928549967743,,357.8537471249874,358.9147096670058,357.8242743336634,,355.7788425000035,360.9450295419956,355.7788425000035,360.9450295419956,360.9450295419956,,355.7788425000035,1,1,0.8175530419975985,reldom2_s024,001,2025-02-27_11h33.37.364,What-A-Scan_AC,2022.2.5,None,
30,Second_Order,5.0,audwhat,stimulus/audwhat_stim/percussion mallet_low-pitch_F_loud.wav,stimulus/audwhat_stim/percussion mallet_high-pitch_Ftri_loud.wav,stimulus/audwhat_stim/string viola_low-pitch_F_loud.wav,stimulus/audwhat_stim/string viola_high-pitch_Ftri_loud.wav,stimulus/audwhat_stim/match_blank.png,stimulus/audwhat_stim/match_box.png,stimulus/audwhat_stim/match_yes.png,stimulus/audwhat_stim/match_no.png,1.0,Match,Category,Category,1,5.125,0,5.125,0,5.125,0,5.125,0,0.625,0.625,0,0.0,0,0.0,0,0.0,0,0.0,1,0.5,1,2.125,1,0.5,1,2.125,0,,,,,0,39,39,39,,,,,,,,,361.75212374998955,366.87474333299906,361.75212374998955,361.75212374998955,361.75212374998955,361.75212374998955,362.2114596670144,363.19943508299184,362.22596829166673,,363.834820374992,364.83195858300314,363.8460394996548,,366.87474333299906,367.6036423330079,369.6662800000049,373.7085725420038,367.6036423330079,367.6036423330079,372.7883347499883,367.6036423330079,367.6036423330079,367.6036423330079,367.6036423330079,368.0593473330082,369.11392104200786,368.0298878336655,,369.6662800000049,370.72253829200054,369.63654374966086,,367.6036423330079,372.7883347499883,367.6036423330079,372.7883347499883,372.7883347499883,373.47663366701454,367.6036423330079,1,1,0.5227610420261044,reldom2_s024,001,2025-02-27_11h33.37.364,What-A-Scan_AC,2022.2.5,None,
0,0.0,None,fixation,stimulus/audwhat_stim/blank_white.png,stimulus/audwhat_stim/blank_white.png,stimulus/viswhat_stim/blank_white.png,stimulus/viswhat_stim/blank_white.png,stimulus/audwhat_stim/blank_white.png,stimulus/audwhat_stim/blank_white.png,stimulus/audwhat_stim/blank_white.png,stimulus/audwhat_stim/blank_white.png,0.0,0.0,0.0,0.0,0,0.0,0,0.0,0,0.0,0,0.0,0,0.0,0.0,0,0.0,0,0.0,0,0.0,0,0.0,0,0.0,0,0.0,0,0.0,0,0.0,9,,,,,0,40,40,40,,,,,,,,,373.7085725420038,373.7085725420038,373.7085725420038,373.7085725420038,373.7085725420038,373.7085725420038,373.7085725420038,373.7085725420038,373.60996700034786,373.7085725420038,373.7085725420038,373.7085725420038,373.60996700034786,373.7085725420038,373.7085725420038,373.7085725420038,373.7085725420038,373.7085725420038,373.7085725420038,373.7085725420038,373.7085725420038,373.7085725420038,373.7085725420038,373.7085725420038,373.7085725420038,373.7085725420038,373.7085725420038,373.6599670003479,373.7085725420038,373.7085725420038,373.7085725420038,373.6599670003479,373.7085725420038,373.7085725420038,373.7085725420038,373.7085725420038,373.7085725420038,378.90464329201495,378.90464329201495,382.9729682079924,None,0,,reldom2_s024,001,2025-02-27_11h33.37.364,What-A-Scan_AC,2022.2.5,None,
31,First_Order,6.0,audwhat,stimulus/audwhat_stim/dummy.wav,stimulus/audwhat_stim/dummy.wav,stimulus/audwhat_stim/string viola_high-pitch_F_loud.wav,stimulus/audwhat_stim/percussion xylophone_high-pitch_F_loud.wav,stimulus/audwhat_stim/blank_white.png,stimulus/audwhat_stim/category_box.png,stimulus/audwhat_stim/category_yes.png,stimulus/audwhat_stim/category_no.png,None,Category,None,Pitch,2,0.0,0,5.125,0,5.125,0,5.125,0,0.0,0.625,0,0.0,0,0.0,0,0.0,0,0.0,0,0.0,0,0.0,1,0.5,1,2.125,0,,,,,0,41,41,41,,,,,,,,,382.9729682079924,382.9729682079924,382.9729682079924,382.9729682079924,382.9729682079924,382.9729682079924,382.9729682079924,382.9729682079924,382.9004868336584,382.9729682079924,382.9729682079924,382.9729682079924,382.9004868336584,382.9729682079924,382.9729682079924,382.9729682079924,385.0622809579945,,382.9729682079924,382.9729682079924,388.1241632080055,382.9729682079924,382.9729682079924,382.9729682079924,382.9729682079924,383.43900149999536,384.50513779200264,383.40939783366434,,385.0622809579945,386.1317815420043,385.03230879168063,386.08526245801477,382.9729682079924,388.1241632080055,382.9729682079924,388.1241632080055,388.1648397500103,388.8179279580072,382.9729682079924,2,1,0.9416522920073476,reldom2_s024,001,2025-02-27_11h33.37.364,What-A-Scan_AC,2022.2.5,None,
32,First_Order,6.0,audwhat,stimulus/audwhat_stim/dummy.wav,stimulus/audwhat_stim/dummy.wav,stimulus/audwhat_stim/percussion mallet_high-pitch_F_loud.wav,stimulus/audwhat_stim/percussion mallet_low-pitch_D_loud.wav,stimulus/audwhat_stim/blank_white.png,stimulus/audwhat_stim/pitch_box.png,stimulus/audwhat_stim/pitch_yes.png,stimulus/audwhat_stim/pitch_no.png,None,Pitch,None,Category,2,0.0,0,5.125,0,5.125,0,5.125,0,0.0,0.625,0,0.0,0,0.0,0,0.0,0,0.0,0,0.0,0,0.0,1,0.5,1,2.125,0,,,,,0,42,42,42,,,,,,,,,389.0720427079941,389.0720427079941,389.0720427079941,389.0720427079941,389.0720427079941,389.0720427079941,389.0720427079941,389.0720427079941,388.99206170832815,389.0720427079941,389.0720427079941,389.0720427079941,388.99206170832815,389.0720427079941,389.0720427079941,389.0720427079941,391.15813962501124,,389.0720427079941,389.0720427079941,394.26203499999247,389.0720427079941,389.0720427079941,389.0720427079941,389.0720427079941,389.5372966249997,390.60278391701286,389.5074755416756,,391.15813962501124,392.22651641699485,391.1282887916643,,389.0720427079941,394.26203499999247,389.0720427079941,394.26203499999247,394.26203499999247,394.91413062499487,389.0720427079941,2,1,1.010485584003618,reldom2_s024,001,2025-02-27_11h33.37.364,What-A-Scan_AC,2022.2.5,None,
33,First_Order,6.0,audwhat,stimulus/audwhat_stim/dummy.wav,stimulus/audwhat_stim/dummy.wav,stimulus/audwhat_stim/string cello_high-pitch_D_loud.wav,stimulus/audwhat_stim/string cello_low-pitch_Dtri_loud.wav,stimulus/audwhat_stim/blank_white.png,stimulus/audwhat_stim/category_box.png,stimulus/audwhat_stim/category_yes.png,stimulus/audwhat_stim/category_no.png,None,Category,None,Category,1,0.0,0,5.125,0,5.125,0,5.125,0,0.0,0.625,0,0.0,0,0.0,0,0.0,0,0.0,0,0.0,0,0.0,1,0.5,1,2.125,0,,,,,0,43,43,43,,,,,,,,,395.16818483298994,395.16818483298994,395.16818483298994,395.16818483298994,395.16818483298994,395.16818483298994,395.16818483298994,395.16818483298994,395.08796966634884,395.16818483298994,395.16818483298994,395.16818483298994,395.08796966634884,395.16818483298994,395.16818483298994,395.16818483298994,397.26609279200784,401.28739629199845,395.16818483298994,395.16818483298994,400.3371367499931,395.16818483298994,395.16818483298994,395.16818483298994,395.16818483298994,395.6359887919971,396.70390575000783,395.6060679586701,,397.26609279200784,398.33978866701364,397.23459512467184,,395.16818483298994,400.3371367499931,395.16818483298994,400.3371367499931,400.377830042009,401.03237495801295,395.16818483298994,1,1,0.6782783329836093,reldom2_s024,001,2025-02-27_11h33.37.364,What-A-Scan_AC,2022.2.5,None,
34,First_Order,6.0,audwhat,stimulus/audwhat_stim/dummy.wav,stimulus/audwhat_stim/dummy.wav,stimulus/audwhat_stim/string cello_high-pitch_F_loud.wav,stimulus/audwhat_stim/string viola_low-pitch_Ftri_loud.wav,stimulus/audwhat_stim/blank_white.png,stimulus/audwhat_stim/pitch_box.png,stimulus/audwhat_stim/pitch_yes.png,stimulus/audwhat_stim/pitch_no.png,None,Pitch,None,Category,2,0.0,0,5.125,0,5.125,0,5.125,0,0.0,0.625,0,0.0,0,0.0,0,0.0,0,0.0,0,0.0,0,0.0,1,0.5,1,2.125,0,,,,,0,44,44,44,,,,,,,,,401.28739629199845,401.28739629199845,401.28739629199845,401.28739629199845,401.28739629199845,401.28739629199845,401.28739629199845,401.28739629199845,401.206583375346,401.28739629199845,401.28739629199845,401.28739629199845,401.206583375346,401.28739629199845,401.28739629199845,401.28739629199845,403.37375800000154,,401.28739629199845,401.28739629199845,406.4798873749969,401.28739629199845,401.28739629199845,401.28739629199845,401.28739629199845,401.75071404199116,402.8163733750116,401.7206643336724,,403.37375800000154,404.4435509580071,403.34442933366904,,401.28739629199845,406.4798873749969,401.28739629199845,406.4798873749969,406.4798873749969,407.1322419579956,401.28739629199845,2,1,0.845491083979141,reldom2_s024,001,2025-02-27_11h33.37.364,What-A-Scan_AC,2022.2.5,None,
0,0.0,None,fixation,stimulus/audwhat_stim/blank_white.png,stimulus/audwhat_stim/blank_white.png,stimulus/viswhat_stim/blank_white.png,stimulus/viswhat_stim/blank_white.png,stimulus/audwhat_stim/blank_white.png,stimulus/audwhat_stim/blank_white.png,stimulus/audwhat_stim/blank_white.png,stimulus/audwhat_stim/blank_white.png,0.0,0.0,0.0,0.0,0,0.0,0,0.0,0,0.0,0,0.0,0,0.0,0.0,0,0.0,0,0.0,0,0.0,0,0.0,0,0.0,0,0.0,0,0.0,0,0.0,10,,,,,0,45,45,45,,,,,,,,,407.4085283750028,407.4085283750028,407.4085283750028,407.4085283750028,407.4085283750028,407.4085283750028,407.4085283750028,407.4085283750028,407.30611458333635,407.4085283750028,407.4085283750028,407.4085283750028,407.30611458333635,407.4085283750028,407.4085283750028,407.4085283750028,407.4085283750028,407.4085283750028,407.4085283750028,407.4085283750028,407.4085283750028,407.4085283750028,407.4085283750028,407.4085283750028,407.4085283750028,407.4085283750028,407.4085283750028,407.35611458333636,407.4085283750028,407.4085283750028,407.4085283750028,407.35611458333636,407.4085283750028,407.4085283750028,407.4085283750028,407.4085283750028,407.4085283750028,412.64156470799935,412.64156470799935,417.5378269169887,None,0,,reldom2_s024,001,2025-02-27_11h33.37.364,What-A-Scan_AC,2022.2.5,None,
35,Second_Order,6.0,audwhat,stimulus/audwhat_stim/percussion xylophone_high-pitch_D_loud.wav,stimulus/audwhat_stim/string viola_high-pitch_D_loud.wav,stimulus/audwhat_stim/percussion mallet_high-pitch_Dtri_loud.wav,stimulus/audwhat_stim/percussion mallet_low-pitch_D_loud.wav,stimulus/audwhat_stim/match_blank.png,stimulus/audwhat_stim/match_box.png,stimulus/audwhat_stim/match_yes.png,stimulus/audwhat_stim/match_no.png,2.0,Match,Pitch,Category,2,5.125,0,5.125,0,5.125,0,5.125,0,0.75,0.75,0,0.0,0,0.0,0,0.0,0,0.0,1,0.5,1,2.125,1,0.5,1,2.125,0,,,,,0,46,46,46,,,,,,,,,417.5378269169887,422.6537135420076,417.5378269169887,417.5378269169887,417.5378269169887,417.5378269169887,417.9901360000076,418.9772282920021,418.00465024967366,418.9942091249977,419.6129388330155,420.61090041699936,419.6250062496731,,422.6537135420076,423.50129975000164,425.5759684169898,,423.50129975000164,423.50129975000164,428.67094012501184,423.50129975000164,423.50129975000164,423.50129975000164,423.50129975000164,423.95986304199323,425.02074979199097,423.9303043746661,,425.5759684169898,426.64165587499156,425.5464006246805,,423.50129975000164,428.67094012501184,423.50129975000164,428.67094012501184,428.67094012501184,,423.50129975000164,2,1,0.527151208021678,reldom2_s024,001,2025-02-27_11h33.37.364,What-A-Scan_AC,2022.2.5,None,
36,Second_Order,6.0,audwhat,stimulus/audwhat_stim/percussion mallet_high-pitch_Dtri_loud.wav,stimulus/audwhat_stim/string viola_high-pitch_Dtri_loud.wav,stimulus/audwhat_stim/string cello_high-pitch_Dtri_loud.wav,stimulus/audwhat_stim/string viola_low-pitch_F_loud.wav,stimulus/audwhat_stim/match_blank.png,stimulus/audwhat_stim/match_box.png,stimulus/audwhat_stim/match_yes.png,stimulus/audwhat_stim/match_no.png,2.0,Match,Pitch,Category,2,5.125,0,5.125,0,5.125,0,5.125,0,0.625,0.625,0,0.0,0,0.0,0,0.0,0,0.0,1,0.5,1,2.125,1,0.5,1,2.125,0,,,,,0,47,47,47,,,,,,,,,429.4785409999895,434.59847137500765,429.4785409999895,429.4785409999895,429.4785409999895,429.4785409999895,429.9359992080135,430.9350944579928,429.94923716667495,,431.55708483300987,432.55541633299435,431.56981533367457,,434.59847137500765,435.3285649169993,437.3878545000043,441.4322473749926,435.3285649169993,435.3285649169993,440.5133090830059,435.3285649169993,435.3285649169993,435.3285649169993,435.3285649169993,435.78370970799006,436.83628158300417,435.754688249672,,437.3878545000043,438.4468663329899,437.35861295866584,,435.3285649169993,440.5133090830059,435.3285649169993,440.5133090830059,440.5133090830059,441.20043220798834,435.3285649169993,2,1,0.631970875983825,reldom2_s024,001,2025-02-27_11h33.37.364,What-A-Scan_AC,2022.2.5,None,
0,0.0,None,fixation,stimulus/audwhat_stim/blank_white.png,stimulus/audwhat_stim/blank_white.png,stimulus/viswhat_stim/blank_white.png,stimulus/viswhat_stim/blank_white.png,stimulus/audwhat_stim/blank_white.png,stimulus/audwhat_stim/blank_white.png,stimulus/audwhat_stim/blank_white.png,stimulus/audwhat_stim/blank_white.png,0.0,0.0,0.0,0.0,0,0.0,0,0.0,0,0.0,0,0.0,0,0.0,0.0,0,0.0,0,0.0,0,0.0,0,0.0,0,0.0,0,0.0,0,0.0,0,0.0,8,,,,,0,48,48,48,,,,,,,,,441.4322473749926,441.4322473749926,441.4322473749926,441.4322473749926,441.4322473749926,441.4322473749926,441.4322473749926,441.4322473749926,441.33376554132167,441.4322473749926,441.4322473749926,441.4322473749926,441.33376554132167,441.4322473749926,441.4322473749926,441.4322473749926,441.4322473749926,441.4322473749926,441.4322473749926,441.4322473749926,441.4322473749926,441.4322473749926,441.4322473749926,441.4322473749926,441.4322473749926,441.4322473749926,441.4322473749926,441.3837655413217,441.4322473749926,441.4322473749926,441.4322473749926,441.3837655413217,441.4322473749926,441.4322473749926,441.4322473749926,441.4322473749926,441.4322473749926,446.6245423750079,446.6245423750079,449.6668030830042,None,0,,reldom2_s024,001,2025-02-27_11h33.37.364,What-A-Scan_AC,2022.2.5,None,
37,First_Order,7.0,viswhat,stimulus/viswhat_stim/blank_white.png,stimulus/viswhat_stim/blank_white.png,stimulus/viswhat_stim/land_animal-zebra.png,stimulus/viswhat_stim/water_animal-squid.png,stimulus/viswhat_stim/blank_white.png,stimulus/viswhat_stim/type_box.png,stimulus/viswhat_stim/type_yes.png,stimulus/viswhat_stim/type_no.png,None,Type,None,Type,1,0.0,0,5.125,0,5.125,0,5.125,0,0.0,0.625,0,0.0,0,0.0,1,0.5,1,2.125,0,0.0,0,0.0,0,0.0,0,0.0,0,,,,,0,49,49,49,,,,,,,,,449.6668030830042,449.6668030830042,449.6668030830042,449.6668030830042,449.6668030830042,449.6668030830042,449.6668030830042,449.6668030830042,449.6212816246649,449.6668030830042,449.6668030830042,449.6668030830042,449.6212816246649,449.6668030830042,449.6668030830042,449.6668030830042,451.75425966701005,455.99881725001615,449.6668030830042,449.6668030830042,454.8089811250102,450.1480236669886,451.1739981670107,451.75425966701005,452.78798541700235,449.6668030830042,449.6668030830042,449.6379482913316,449.6668030830042,449.6668030830042,449.6668030830042,449.6379482913316,449.6668030830042,449.6668030830042,454.8089811250102,449.6668030830042,454.8089811250102,454.8879659170052,455.524755749997,449.6668030830042,1,1,0.829664041986689,reldom2_s024,001,2025-02-27_11h33.37.364,What-A-Scan_AC,2022.2.5,None,
38,First_Order,7.0,viswhat,stimulus/viswhat_stim/blank_white.png,stimulus/viswhat_stim/blank_white.png,stimulus/viswhat_stim/water_vehicle-submarine.png,stimulus/viswhat_stim/water_animal-lobster.png,stimulus/viswhat_stim/blank_white.png,stimulus/viswhat_stim/location_box.png,stimulus/viswhat_stim/location_yes.png,stimulus/viswhat_stim/location_no.png,None,Location,None,Location,1,0.0,0,5.125,0,5.125,0,5.125,0,0.0,0.625,0,0.0,0,0.0,1,0.5,1,2.125,0,0.0,0,0.0,0,0.0,0,0.0,0,,,,,0,50,50,50,,,,,,,,,455.99881725001615,455.99881725001615,455.99881725001615,455.99881725001615,455.99881725001615,455.99881725001615,455.99881725001615,455.99881725001615,455.7206667086556,455.99881725001615,455.99881725001615,455.99881725001615,455.7206667086556,455.99881725001615,455.99881725001615,455.99881725001615,458.10794733298826,462.11773108300986,455.99881725001615,455.99881725001615,461.2670153749932,456.4504816670087,457.65579129199614,458.10794733298826,459.315594832995,455.99881725001615,455.99881725001615,455.8540000419889,455.99881725001615,455.99881725001615,455.99881725001615,455.8540000419889,455.99881725001615,455.99881725001615,461.2670153749932,455.99881725001615,461.2670153749932,461.12140029200236,,455.99881725001615,1,1,0.7403294169926085,reldom2_s024,001,2025-02-27_11h33.37.364,What-A-Scan_AC,2022.2.5,None,
39,First_Order,7.0,viswhat,stimulus/viswhat_stim/blank_white.png,stimulus/viswhat_stim/blank_white.png,stimulus/viswhat_stim/land_vehicle-vespa.png,stimulus/viswhat_stim/water_vehicle-yacht.png,stimulus/viswhat_stim/blank_white.png,stimulus/viswhat_stim/location_box.png,stimulus/viswhat_stim/location_yes.png,stimulus/viswhat_stim/location_no.png,None,Location,None,Type,2,0.0,0,5.125,0,5.125,0,5.125,0,0.0,0.625,0,0.0,0,0.0,1,0.5,1,2.125,0,0.0,0,0.0,0,0.0,0,0.0,0,,,,,0,51,51,51,,,,,,,,,462.11773108300986,462.11773108300986,462.11773108300986,462.11773108300986,462.11773108300986,462.11773108300986,462.11773108300986,462.11773108300986,462.0517470829887,462.11773108300986,462.11773108300986,462.11773108300986,462.0517470829887,462.11773108300986,462.11773108300986,462.11773108300986,464.21331150000333,468.20128366700374,462.11773108300986,462.11773108300986,467.2708885000029,462.57696020801086,463.62725870800205,464.21331150000333,465.2643734170124,462.11773108300986,462.11773108300986,462.08508041632206,462.11773108300986,462.11773108300986,462.11773108300986,462.08508041632206,462.11773108300986,462.11773108300986,467.2708885000029,462.11773108300986,467.2708885000029,467.3437359170057,467.99373566699796,462.11773108300986,2,1,0.7184311249875464,reldom2_s024,001,2025-02-27_11h33.37.364,What-A-Scan_AC,2022.2.5,None,
40,First_Order,7.0,viswhat,stimulus/viswhat_stim/blank_white.png,stimulus/viswhat_stim/blank_white.png,stimulus/viswhat_stim/water_vehicle-canoe.png,stimulus/viswhat_stim/water_animal-whale (1).png,stimulus/viswhat_stim/blank_white.png,stimulus/viswhat_stim/location_box.png,stimulus/viswhat_stim/location_yes.png,stimulus/viswhat_stim/location_no.png,None,Location,None,Location,1,0.0,0,5.125,0,5.125,0,5.125,0,0.0,0.625,0,0.0,0,0.0,1,0.5,1,2.125,0,0.0,0,0.0,0,0.0,0,0.0,0,,,,,0,52,52,52,,,,,,,,,468.20128366700374,468.20128366700374,468.20128366700374,468.20128366700374,468.20128366700374,468.20128366700374,468.20128366700374,468.20128366700374,468.1627344163445,468.20128366700374,468.20128366700374,468.20128366700374,468.1627344163445,468.20128366700374,468.20128366700374,468.20128366700374,470.30789566700696,474.3356729579973,468.20128366700374,468.20128366700374,473.3567505830142,468.66875608300325,469.69447916699573,470.30789566700696,471.3369764579984,468.20128366700374,468.20128366700374,468.17940108301116,468.20128366700374,468.20128366700374,468.20128366700374,468.17940108301116,468.20128366700374,468.20128366700374,473.3567505830142,468.20128366700374,473.3567505830142,473.4275363330089,474.06375533301616,468.20128366700374,1,1,0.9822064170148224,reldom2_s024,001,2025-02-27_11h33.37.364,What-A-Scan_AC,2022.2.5,None,
0,0.0,None,fixation,stimulus/audwhat_stim/blank_white.png,stimulus/audwhat_stim/blank_white.png,stimulus/viswhat_stim/blank_white.png,stimulus/viswhat_stim/blank_white.png,stimulus/audwhat_stim/blank_white.png,stimulus/audwhat_stim/blank_white.png,stimulus/audwhat_stim/blank_white.png,stimulus/audwhat_stim/blank_white.png,0.0,0.0,0.0,0.0,0,0.0,0,0.0,0,0.0,0,0.0,0,0.0,0.0,0,0.0,0,0.0,0,0.0,0,0.0,0,0.0,0,0.0,0,0.0,0,0.0,10,,,,,0,53,53,53,,,,,,,,,474.3356729579973,474.3356729579973,474.3356729579973,474.3356729579973,474.3356729579973,474.3356729579973,474.3356729579973,474.3356729579973,474.2342465000052,474.3356729579973,474.3356729579973,474.3356729579973,474.2342465000052,474.3356729579973,474.3356729579973,474.3356729579973,474.3356729579973,474.3356729579973,474.3356729579973,474.3356729579973,474.3356729579973,474.3356729579973,474.3356729579973,474.3356729579973,474.3356729579973,474.3356729579973,474.3356729579973,474.2842465000052,474.3356729579973,474.3356729579973,474.3356729579973,474.2842465000052,474.3356729579973,474.3356729579973,474.3356729579973,474.3356729579973,474.3356729579973,479.52159770799335,479.52159770799335,484.50712270798977,None,0,,reldom2_s024,001,2025-02-27_11h33.37.364,What-A-Scan_AC,2022.2.5,None,
41,Second_Order,7.0,viswhat,stimulus/viswhat_stim/water_vehicle-cruiser.png,stimulus/viswhat_stim/land_vehicle-bus.png,stimulus/viswhat_stim/land_animal-fox.png,stimulus/viswhat_stim/water_animal-dolphin.png,stimulus/audwhat_stim/match_blank.png,stimulus/audwhat_stim/match_box.png,stimulus/audwhat_stim/match_yes.png,stimulus/audwhat_stim/match_no.png,1.0,Match,Type,Type,1,5.125,0,5.125,0,5.125,0,5.125,0,0.75,0.75,1,0.5,1,2.125,1,0.5,1,2.125,0,0.0,0,0.0,0,0.0,0,0.0,0,,,,,0,54,54,54,,,,,,,,,484.50712270798977,489.62467504199594,484.9284379169985,485.9154657080071,486.563460083009,487.55241450000904,484.50712270798977,484.50712270798977,484.51981966632496,484.50712270798977,484.50712270798977,484.50712270798977,484.51981966632496,484.50712270798977,489.62467504199594,490.43384300000616,492.49975370799075,496.41857758301194,490.43384300000616,490.43384300000616,495.5708370000066,490.8785379170149,491.9001568329986,492.49975370799075,493.5288143749931,490.43384300000616,490.43384300000616,490.4091797919944,490.43384300000616,490.43384300000616,490.43384300000616,490.4091797919944,490.43384300000616,490.43384300000616,495.5708370000066,490.43384300000616,495.5708370000066,495.63260216699564,,490.43384300000616,1,1,0.6577733749873005,reldom2_s024,001,2025-02-27_11h33.37.364,What-A-Scan_AC,2022.2.5,None,
42,Second_Order,7.0,viswhat,stimulus/viswhat_stim/water_animal-whale.png,stimulus/viswhat_stim/water_vehicle-ferryboat.png,stimulus/viswhat_stim/land_vehicle-tank.png,stimulus/viswhat_stim/land_animal-wolf.png,stimulus/audwhat_stim/match_blank.png,stimulus/audwhat_stim/match_box.png,stimulus/audwhat_stim/match_yes.png,stimulus/audwhat_stim/match_no.png,1.0,Match,Location,Location,1,5.125,0,5.125,0,5.125,0,5.125,0,0.625,0.625,1,0.5,1,2.125,1,0.5,1,2.125,0,0.0,0,0.0,0,0.0,0,0.0,0,,,,,0,55,55,55,,,,,,,,,496.41857758301194,501.53629204200115,496.88713170800474,497.87607758300146,498.5127202080039,499.5102679170086,496.41857758301194,496.41857758301194,496.41853066666323,496.41857758301194,496.41857758301194,496.41857758301194,496.41853066666323,496.41857758301194,501.53629204200115,502.2115022499929,504.2986334580055,508.3363008330052,502.2115022499929,502.2115022499929,507.3414449999982,502.65566312501323,503.66839962499216,504.2986334580055,505.3169673749944,502.2115022499929,502.2115022499929,502.18250587533885,502.2115022499929,502.2115022499929,502.2115022499929,502.18250587533885,502.2115022499929,502.2115022499929,507.3414449999982,502.2115022499929,507.3414449999982,507.4038008330099,508.0312001669954,502.2115022499929,1,1,0.7585311669972725,reldom2_s024,001,2025-02-27_11h33.37.364,What-A-Scan_AC,2022.2.5,None,
0,0.0,None,fixation,stimulus/audwhat_stim/blank_white.png,stimulus/audwhat_stim/blank_white.png,stimulus/viswhat_stim/blank_white.png,stimulus/viswhat_stim/blank_white.png,stimulus/audwhat_stim/blank_white.png,stimulus/audwhat_stim/blank_white.png,stimulus/audwhat_stim/blank_white.png,stimulus/audwhat_stim/blank_white.png,0.0,0.0,0.0,0.0,0,0.0,0,0.0,0,0.0,0,0.0,0,0.0,0.0,0,0.0,0,0.0,0,0.0,0,0.0,0,0.0,0,0.0,0,0.0,0,0.0,9,,,,,0,56,56,56,,,,,,,,,508.3363008330052,508.3363008330052,508.3363008330052,508.3363008330052,508.3363008330052,508.3363008330052,508.3363008330052,508.3363008330052,508.23127920834423,508.3363008330052,508.3363008330052,508.3363008330052,508.23127920834423,508.3363008330052,508.3363008330052,508.3363008330052,508.3363008330052,508.3363008330052,508.3363008330052,508.3363008330052,508.3363008330052,508.3363008330052,508.3363008330052,508.3363008330052,508.3363008330052,508.3363008330052,508.3363008330052,508.2979458750109,508.3363008330052,508.3363008330052,508.3363008330052,508.2979458750109,508.3363008330052,508.3363008330052,508.3363008330052,508.3363008330052,508.3363008330052,513.5477331670118,513.5477331670118,517.5469316669914,None,0,,reldom2_s024,001,2025-02-27_11h33.37.364,What-A-Scan_AC,2022.2.5,None,
43,First_Order,8.0,viswhat,stimulus/viswhat_stim/blank_white.png,stimulus/viswhat_stim/blank_white.png,stimulus/viswhat_stim/water_vehicle-canoe.png,stimulus/viswhat_stim/water_animal-octopus.png,stimulus/viswhat_stim/blank_white.png,stimulus/viswhat_stim/type_box.png,stimulus/viswhat_stim/type_yes.png,stimulus/viswhat_stim/type_no.png,None,Type,None,Location,2,0.0,0,5.125,0,5.125,0,5.125,0,0.0,0.625,0,0.0,0,0.0,1,0.5,1,2.125,0,0.0,0,0.0,0,0.0,0,0.0,0,,,,,0,57,57,57,,,,,,,,,517.5469316669914,517.5469316669914,517.5469316669914,517.5469316669914,517.5469316669914,517.5469316669914,517.5469316669914,517.5469316669914,517.4961593746654,517.5469316669914,517.5469316669914,517.5469316669914,517.4961593746654,517.5469316669914,517.5469316669914,517.5469316669914,519.6600893329887,,517.5469316669914,517.5469316669914,522.6946510419948,518.0231556250073,519.0457059580076,519.6600893329887,520.684269874997,517.5469316669914,517.5469316669914,517.512826041332,517.5469316669914,517.5469316669914,517.5469316669914,517.512826041332,517.5469316669914,517.5469316669914,522.6946510419948,517.5469316669914,522.6946510419948,522.7513079170021,523.407558167004,517.5469316669914,1,0,1.295204084017314,reldom2_s024,001,2025-02-27_11h33.37.364,What-A-Scan_AC,2022.2.5,None,
44,First_Order,8.0,viswhat,stimulus/viswhat_stim/blank_white.png,stimulus/viswhat_stim/blank_white.png,stimulus/viswhat_stim/water_animal-octopus.png,stimulus/viswhat_stim/land_animal-snake.png,stimulus/viswhat_stim/blank_white.png,stimulus/viswhat_stim/type_box.png,stimulus/viswhat_stim/type_yes.png,stimulus/viswhat_stim/type_no.png,None,Type,None,Type,1,0.0,0,5.125,0,5.125,0,5.125,0,0.0,0.625,0,0.0,0,0.0,1,0.5,1,2.125,0,0.0,0,0.0,0,0.0,0,0.0,0,,,,,0,58,58,58,,,,,,,,,523.6229284169967,523.6229284169967,523.6229284169967,523.6229284169967,523.6229284169967,523.6229284169967,523.6229284169967,523.6229284169967,523.5808472916814,523.6229284169967,523.6229284169967,523.6229284169967,523.5808472916814,523.6229284169967,523.6229284169967,523.6229284169967,525.7346606249921,529.7065969580144,523.6229284169967,523.6229284169967,528.7772359169903,524.0883244170109,525.1118738329969,525.7346606249921,526.7630448330019,523.6229284169967,523.6229284169967,523.597513958348,523.6229284169967,523.6229284169967,523.6229284169967,523.597513958348,523.6229284169967,523.6229284169967,528.7772359169903,523.6229284169967,528.7772359169903,528.8275109580136,529.4632011250069,523.6229284169967,1,1,0.9811782499891706,reldom2_s024,001,2025-02-27_11h33.37.364,What-A-Scan_AC,2022.2.5,None,
45,First_Order,8.0,viswhat,stimulus/viswhat_stim/blank_white.png,stimulus/viswhat_stim/blank_white.png,stimulus/viswhat_stim/land_vehicle-schoolbus.png,stimulus/viswhat_stim/land_animal-pig.png,stimulus/viswhat_stim/blank_white.png,stimulus/viswhat_stim/type_box.png,stimulus/viswhat_stim/type_yes.png,stimulus/viswhat_stim/type_no.png,None,Type,None,Location,2,0.0,0,5.125,0,5.125,0,5.125,0,0.0,0.625,0,0.0,0,0.0,1,0.5,1,2.125,0,0.0,0,0.0,0,0.0,0,0.0,0,,,,,0,59,59,59,,,,,,,,,529.7065969580144,529.7065969580144,529.7065969580144,529.7065969580144,529.7065969580144,529.7065969580144,529.7065969580144,529.7065969580144,529.6638222919952,529.7065969580144,529.7065969580144,529.7065969580144,529.6638222919952,529.7065969580144,529.7065969580144,529.7065969580144,531.8148609579948,535.8099581669958,529.7065969580144,529.7065969580144,534.8566640829958,530.1802334579988,531.2074887079943,531.8148609579948,532.8478636670043,529.7065969580144,529.7065969580144,529.6804889586618,529.7065969580144,529.7065969580144,529.7065969580144,529.6804889586618,529.7065969580144,529.7065969580144,534.8566640829958,529.7065969580144,534.8566640829958,534.9193915000069,535.5629801670148,529.7065969580144,2,1,0.86131254202337,reldom2_s024,001,2025-02-27_11h33.37.364,What-A-Scan_AC,2022.2.5,None,
46,First_Order,8.0,viswhat,stimulus/viswhat_stim/blank_white.png,stimulus/viswhat_stim/blank_white.png,stimulus/viswhat_stim/land_vehicle-oldcar.png,stimulus/viswhat_stim/water_vehicle-powercruiser.png,stimulus/viswhat_stim/blank_white.png,stimulus/viswhat_stim/location_box.png,stimulus/viswhat_stim/location_yes.png,stimulus/viswhat_stim/location_no.png,None,Location,None,Type,2,0.0,0,5.125,0,5.125,0,5.125,0,0.0,0.625,0,0.0,0,0.0,1,0.5,1,2.125,0,0.0,0,0.0,0,0.0,0,0.0,0,,,,,0,60,60,60,,,,,,,,,535.8099581669958,535.8099581669958,535.8099581669958,535.8099581669958,535.8099581669958,535.8099581669958,535.8099581669958,535.8099581669958,535.7458054170071,535.8099581669958,535.8099581669958,535.8099581669958,535.7458054170071,535.8099581669958,535.8099581669958,535.8099581669958,537.9070173329965,,535.8099581669958,535.8099581669958,540.9924913329887,536.2620517920004,537.2905260419939,537.9070173329965,538.9393524579937,535.8099581669958,535.8099581669958,535.7791387503404,535.8099581669958,535.8099581669958,535.8099581669958,535.7791387503404,535.8099581669958,535.8099581669958,540.9924913329887,535.8099581669958,540.9924913329887,541.0281781670055,541.7049112080131,535.8099581669958,1,0,0.9622853330220096,reldom2_s024,001,2025-02-27_11h33.37.364,What-A-Scan_AC,2022.2.5,None,
0,0.0,None,fixation,stimulus/audwhat_stim/blank_white.png,stimulus/audwhat_stim/blank_white.png,stimulus/viswhat_stim/blank_white.png,stimulus/viswhat_stim/blank_white.png,stimulus/audwhat_stim/blank_white.png,stimulus/audwhat_stim/blank_white.png,stimulus/audwhat_stim/blank_white.png,stimulus/audwhat_stim/blank_white.png,0.0,0.0,0.0,0.0,0,0.0,0,0.0,0,0.0,0,0.0,0,0.0,0.0,0,0.0,0,0.0,0,0.0,0,0.0,0,0.0,0,0.0,0,0.0,0,0.0,9,,,,,0,61,61,61,,,,,,,,,541.9304661669885,541.9304661669885,541.9304661669885,541.9304661669885,541.9304661669885,541.9304661669885,541.9304661669885,541.9304661669885,541.8382445413464,541.9304661669885,541.9304661669885,541.9304661669885,541.8382445413464,541.9304661669885,541.9304661669885,541.9304661669885,541.9304661669885,541.9304661669885,541.9304661669885,541.9304661669885,541.9304661669885,541.9304661669885,541.9304661669885,541.9304661669885,541.9304661669885,541.9304661669885,541.9304661669885,541.8882445413464,541.9304661669885,541.9304661669885,541.9304661669885,541.8882445413464,541.9304661669885,541.9304661669885,541.9304661669885,541.9304661669885,541.9304661669885,547.1261677500152,547.1261677500152,551.1261132080108,None,0,,reldom2_s024,001,2025-02-27_11h33.37.364,What-A-Scan_AC,2022.2.5,None,
47,Second_Order,8.0,viswhat,stimulus/viswhat_stim/water_animal-dolphin.png,stimulus/viswhat_stim/water_vehicle-cruiseship.png,stimulus/viswhat_stim/land_vehicle-oldcar.png,stimulus/viswhat_stim/land_animal-giraffe.png,stimulus/audwhat_stim/match_blank.png,stimulus/audwhat_stim/match_box.png,stimulus/audwhat_stim/match_yes.png,stimulus/audwhat_stim/match_no.png,1.0,Match,Location,Location,1,5.125,0,5.125,0,5.125,0,5.125,0,0.75,0.75,1,0.5,1,2.125,1,0.5,1,2.125,0,0.0,0,0.0,0,0.0,0,0.0,0,,,,,0,62,62,62,,,,,,,,,551.1261132080108,556.2448996670137,551.5165414169896,552.5025625420094,553.1506713750132,554.1406013329979,551.1261132080108,551.1261132080108,551.1411760836704,551.1261132080108,551.1261132080108,551.1261132080108,551.1411760836704,551.1261132080108,556.2448996670137,557.1394364580046,559.1944901669922,563.1316898330115,557.1394364580046,557.1394364580046,562.3127227920049,557.5380789999908,558.5990695829969,559.1944901669922,560.2620879579918,557.1394364580046,557.1394364580046,557.0799853750156,557.1394364580046,557.1394364580046,557.1394364580046,557.0799853750156,557.1394364580046,557.1394364580046,562.3127227920049,557.1394364580046,562.3127227920049,562.3127227920049,,557.1394364580046,1,1,0.4876617089903448,reldom2_s024,001,2025-02-27_11h33.37.364,What-A-Scan_AC,2022.2.5,None,
48,Second_Order,8.0,viswhat,stimulus/viswhat_stim/land_animal-ostrich.png,stimulus/viswhat_stim/water_animal-shark.png,stimulus/viswhat_stim/water_animal-whale.png,stimulus/viswhat_stim/water_vehicle-cargoboat.png,stimulus/audwhat_stim/match_blank.png,stimulus/audwhat_stim/match_box.png,stimulus/audwhat_stim/match_yes.png,stimulus/audwhat_stim/match_no.png,2.0,Match,Type,Location,2,5.125,0,5.125,0,5.125,0,5.125,0,0.625,0.625,1,0.5,1,2.125,1,0.5,1,2.125,0,0.0,0,0.0,0,0.0,0,0.0,0,,,,,0,63,63,63,,,,,,,,,563.1316898330115,568.2564623749931,563.5941001670144,564.5803580000065,565.2167205419973,566.2140463330143,563.1316898330115,563.1316898330115,563.1463108746781,563.1316898330115,563.1316898330115,563.1316898330115,563.1463108746781,563.1316898330115,568.2564623749931,568.9468165829894,571.0192472499912,575.0594034999958,568.9468165829894,568.9468165829894,574.0845495419926,569.399065583013,570.4085120419913,571.0192472499912,572.0360486250138,568.9468165829894,568.9468165829894,568.9200341249932,568.9468165829894,568.9468165829894,568.9468165829894,568.9200341249932,568.9468165829894,568.9468165829894,574.0845495419926,568.9468165829894,574.0845495419926,574.126594833011,574.7756906670111,568.9468165829894,2,1,0.7467172079777811,reldom2_s024,001,2025-02-27_11h33.37.364,What-A-Scan_AC,2022.2.5,None,
0,0.0,None,fixation,stimulus/audwhat_stim/blank_white.png,stimulus/audwhat_stim/blank_white.png,stimulus/viswhat_stim/blank_white.png,stimulus/viswhat_stim/blank_white.png,stimulus/audwhat_stim/blank_white.png,stimulus/audwhat_stim/blank_white.png,stimulus/audwhat_stim/blank_white.png,stimulus/audwhat_stim/blank_white.png,0.0,0.0,0.0,0.0,0,0.0,0,0.0,0,0.0,0,0.0,0,0.0,0.0,0,0.0,0,0.0,0,0.0,0,0.0,0,0.0,0,0.0,0,0.0,0,0.0,16,,,,,0,64,64,64,,,,,,,,,575.0594034999958,575.0594034999958,575.0594034999958,575.0594034999958,575.0594034999958,575.0594034999958,575.0594034999958,575.0594034999958,574.9594419579895,575.0594034999958,575.0594034999958,575.0594034999958,574.9594419579895,575.0594034999958,575.0594034999958,575.0594034999958,575.0594034999958,575.0594034999958,575.0594034999958,575.0594034999958,575.0594034999958,575.0594034999958,575.0594034999958,575.0594034999958,575.0594034999958,575.0594034999958,575.0594034999958,575.0094419579895,575.0594034999958,575.0594034999958,575.0594034999958,575.0094419579895,575.0594034999958,575.0594034999958,575.0594034999958,575.0594034999958,575.0594034999958,580.2682013750018,580.2682013750018,591.2187286250119,None,0,,reldom2_s024,001,2025-02-27_11h33.37.364,What-A-Scan_AC,2022.2.5,None,
