Trial,Order,Block,Type,Stimuli_File1,Stimuli_File2,Stimuli_File3,Stimuli_File4,Cue_File1,Cue_File2,Response_File_Yes,Response_File_No,Match,Cue_Dimension,Pair1_Dimension,Pair2_Dimension,Key,Cue1_Duration,Cue1_Onset,Cue2_Duration,Cue2_Onset,ResponseYes_Duration,ResponseYes_Onset,ResponseNo_Duration,ResponseNo_Onset,ITI_Within,ITI_Between,Image1_Duration,Image1_Onset,Image2_Duration,Image2_Onset,Image3_Duration,Image3_Onset,Image4_Duration,Image4_Onset,Sound1_Duration,Sound1_Onset,Sound2_Duration,Sound2_Onset,Sound3_Duration,Sound3_Onset,Sound4_Duration,Sound4_Onset,Fixation_Duration,trials_2.thisRepN,trials_2.thisTrialN,trials_2.thisN,trials_2.thisIndex,trials.thisRepN,trials.thisTrialN,trials.thisN,trials.thisIndex,text_start.started,key_resp_start.started,key_resp_start.keys,key_resp_start.rt,text2.started,key_resp_2.started,key_resp_2.keys,key_resp_2.rt,cue_file1.started,cue_file1.stopped,image_1.started,image_1.stopped,image_2.started,image_2.stopped,sound_icon1.started,sound_icon1.stopped,sound_1.started,sound_1.stopped,sound_icon2.started,sound_icon2.stopped,sound_2.started,sound_2.stopped,image_blank_1.started,image_blank_1.stopped,key_press.started,key_press.stopped,fixation_text.started,cue_file2.started,cue_file2.stopped,image_3.started,image_3.stopped,image_4.started,image_4.stopped,sound_icon3.started,sound_icon3.stopped,sound_3.started,sound_3.stopped,sound_icon4.started,sound_icon4.stopped,sound_4.started,sound_4.stopped,response_yes.started,response_yes.stopped,response_no.started,response_no.stopped,iti_blank.started,iti_blank.stopped,fixation_text.stopped,key_press.keys,key_press.corr,key_press.rt,participant,session,date,expName,psychopyVersion,frameRate,
,,,,,,,,,,,,,,,,,,,,,,,,,,,,,,,,,,,,,,,,,,,,,,,,,,,,52.047275749995606,52.047275749995606,2,0.9693277919723187,,,,,,,,,,,,,,,,,,,,,,,,,,,,,,,,,,,,,,,,,,,,,,,,reldom2_s024,001,2025-02-27_11h22.28.853,Vis-A-Scan_AC,2022.2.5,None,
,,,,,,,,,,,,,,,,,,,,,,,,,,,,,,,,,,,,,,,,,,,,0,0,0,0,,,,,,,,,53.057470375002595,53.057470375002595,5,17.897214458993403,,,,,,,,,,,,,,,,,,,,,,,,,,,,,,,,,,,,,,,,,,,,reldom2_s024,001,2025-02-27_11h22.28.853,Vis-A-Scan_AC,2022.2.5,None,
,,,,,,,,,,,,,,,,,,,,,,,,,,,,,,,,,,,,,,,,,,,,1,0,1,0,,,,,,,,,70.9681091250095,70.9681091250095,5,1.98510320900823,,,,,,,,,,,,,,,,,,,,,,,,,,,,,,,,,,,,,,,,,,,,reldom2_s024,001,2025-02-27_11h22.28.853,Vis-A-Scan_AC,2022.2.5,None,
,,,,,,,,,,,,,,,,,,,,,,,,,,,,,,,,,,,,,,,,,,,,2,0,2,0,,,,,,,,,72.95913641600055,72.95913641600055,5,1.9932504589960445,,,,,,,,,,,,,,,,,,,,,,,,,,,,,,,,,,,,,,,,,,,,reldom2_s024,001,2025-02-27_11h22.28.853,Vis-A-Scan_AC,2022.2.5,None,
,,,,,,,,,,,,,,,,,,,,,,,,,,,,,,,,,,,,,,,,,,,,3,0,3,0,,,,,,,,,74.96938808300183,74.96938808300183,5,1.9830555009830277,,,,,,,,,,,,,,,,,,,,,,,,,,,,,,,,,,,,,,,,,,,,reldom2_s024,001,2025-02-27_11h22.28.853,Vis-A-Scan_AC,2022.2.5,None,
0,0.0,None,fixation,stimulus/viswhat_stim/blank_white.png,stimulus/viswhat_stim/blank_white.png,stimulus/viswhere_stim/blank_white.png,stimulus/viswhere_stim/blank_white.png,stimulus/viswhat_stim/blank_white.png,stimulus/viswhat_stim/blank_white.png,stimulus/viswhat_stim/blank_white.png,stimulus/viswhat_stim/blank_white.png,0.0,0.0,0.0,0.0,0,0.0,0,0.0,0,0.0,0,0.0,0,0.0,0.0,0,0.0,0,0.0,0,0.0,0,0.0,0,0,0,0,0,0,0,0,16,,,,,0,0,0,0,,,,,,,,,77.15971808298491,77.15971808298491,77.15971808298491,77.15971808298491,77.15971808298491,77.15971808298491,77.15971808298491,77.15971808298491,77.06997687465433,77.15971808298491,77.15971808298491,77.15971808298491,77.06997687465433,77.15971808298491,77.15971808298491,77.15971808298491,77.15971808298491,77.15971808298491,77.15971808298491,77.15971808298491,77.15971808298491,77.15971808298491,77.15971808298491,77.15971808298491,77.15971808298491,77.15971808298491,77.15971808298491,77.11997687465434,77.15971808298491,77.15971808298491,77.15971808298491,77.11997687465434,77.15971808298491,77.15971808298491,77.15971808298491,77.15971808298491,77.15971808298491,82.37310233298922,82.37310233298922,93.39770404101,None,0,,reldom2_s024,001,2025-02-27_11h22.28.853,Vis-A-Scan_AC,2022.2.5,None,
1,First_Order,1.0,viswhat,stimulus/viswhat_stim/blank_white.png,stimulus/viswhat_stim/blank_white.png,stimulus/viswhat_stim/land_animal-moose.png,stimulus/viswhat_stim/water_animal-seaturtle.png,stimulus/viswhat_stim/blank_white.png,stimulus/viswhat_stim/type_box.png,stimulus/viswhat_stim/type_yes.png,stimulus/viswhat_stim/type_no.png,None,Type,None,Type,1,0.0,0,5.125,0,5.125,0,5.125,0,0.0,0.625,0,0.0,0,0.0,1,0.5,1,2.125,0,0,0,0,0,0,0,0,0,,,,,0,1,1,1,,,,,,,,,93.39770404101,93.39770404101,93.39770404101,93.39770404101,93.39770404101,93.39770404101,93.39770404101,93.39770404101,93.30063712498523,93.39770404101,93.39770404101,93.39770404101,93.30063712498523,93.39770404101,93.39770404101,93.39770404101,95.45642862500972,99.48312062499463,93.39770404101,93.39770404101,98.61003416599124,93.85458041599486,94.94103704098961,95.45642862500972,96.54545262499596,93.39770404101,93.39770404101,93.35063712498523,93.39770404101,93.39770404101,93.39770404101,93.35063712498523,93.39770404101,93.39770404101,98.61003416599124,93.39770404101,98.61003416599124,98.61003416599124,99.28817537499708,93.39770404101,1,1,1.472870833997149,reldom2_s024,001,2025-02-27_11h22.28.853,Vis-A-Scan_AC,2022.2.5,None,
2,First_Order,1.0,viswhat,stimulus/viswhat_stim/blank_white.png,stimulus/viswhat_stim/blank_white.png,stimulus/viswhat_stim/water_vehicle-submarine.png,stimulus/viswhat_stim/land_vehicle-firetruck.png,stimulus/viswhat_stim/blank_white.png,stimulus/viswhat_stim/type_box.png,stimulus/viswhat_stim/type_yes.png,stimulus/viswhat_stim/type_no.png,None,Type,None,Type,1,0.0,0,5.125,0,5.125,0,5.125,0,0.0,0.625,0,0.0,0,0.0,1,0.5,1,2.125,0,0,0,0,0,0,0,0,0,,,,,0,2,2,2,,,,,,,,,99.48312062499463,99.48312062499463,99.48312062499463,99.48312062499463,99.48312062499463,99.48312062499463,99.48312062499463,99.48312062499463,99.43817537499709,99.48312062499463,99.48312062499463,99.48312062499463,99.43817537499709,99.48312062499463,99.48312062499463,99.48312062499463,101.59053437499097,105.58976716600591,99.48312062499463,99.48312062499463,104.61975287500536,99.96500816600746,100.98262979098945,101.59053437499097,102.6121254999889,99.48312062499463,99.48312062499463,99.47150870833042,99.48312062499463,99.48312062499463,99.48312062499463,99.47150870833042,99.48312062499463,99.48312062499463,104.61975287500536,99.48312062499463,104.61975287500536,104.69985949998954,105.33736350000254,99.48312062499463,1,1,0.5886454170104116,reldom2_s024,001,2025-02-27_11h22.28.853,Vis-A-Scan_AC,2022.2.5,None,
3,First_Order,1.0,viswhat,stimulus/viswhat_stim/blank_white.png,stimulus/viswhat_stim/blank_white.png,stimulus/viswhat_stim/water_vehicle-kayak.png,stimulus/viswhat_stim/land_vehicle-vespa.png,stimulus/viswhat_stim/blank_white.png,stimulus/viswhat_stim/location_box.png,stimulus/viswhat_stim/location_yes.png,stimulus/viswhat_stim/location_no.png,None,Location,None,Type,2,0.0,0,5.125,0,5.125,0,5.125,0,0.0,0.625,0,0.0,0,0.0,1,0.5,1,2.125,0,0,0,0,0,0,0,0,0,,,,,0,3,3,3,,,,,,,,,105.58976716600591,105.58976716600591,105.58976716600591,105.58976716600591,105.58976716600591,105.58976716600591,105.58976716600591,105.58976716600591,105.53620287498924,105.58976716600591,105.58976716600591,105.58976716600591,105.53620287498924,105.58976716600591,105.58976716600591,105.58976716600591,107.69377891600016,111.68454166600714,105.58976716600591,105.58976716600591,110.74550058299792,106.06096341600642,107.11367883300409,107.69377891600016,108.74901129098726,105.58976716600591,105.58976716600591,105.56953620832257,105.58976716600591,105.58976716600591,105.58976716600591,105.56953620832257,105.58976716600591,105.58976716600591,110.74550058299792,105.58976716600591,110.74550058299792,110.80692754100892,111.45398233298329,105.58976716600591,2,1,1.275589291995857,reldom2_s024,001,2025-02-27_11h22.28.853,Vis-A-Scan_AC,2022.2.5,None,
4,First_Order,1.0,viswhat,stimulus/viswhat_stim/blank_white.png,stimulus/viswhat_stim/blank_white.png,stimulus/viswhat_stim/water_vehicle-pirateship.png,stimulus/viswhat_stim/land_vehicle-buldozer.png,stimulus/viswhat_stim/blank_white.png,stimulus/viswhat_stim/location_box.png,stimulus/viswhat_stim/location_yes.png,stimulus/viswhat_stim/location_no.png,None,Location,None,Type,2,0.0,0,5.125,0,5.125,0,5.125,0,0.0,0.625,0,0.0,0,0.0,1,0.5,1,2.125,0,0,0,0,0,0,0,0,0,,,,,0,4,4,4,,,,,,,,,111.68454166600714,111.68454166600714,111.68454166600714,111.68454166600714,111.68454166600714,111.68454166600714,111.68454166600714,111.68454166600714,111.63165254166039,111.68454166600714,111.68454166600714,111.68454166600714,111.63165254166039,111.68454166600714,111.68454166600714,111.68454166600714,113.79179012498935,117.82662279100623,111.68454166600714,111.68454166600714,116.85332787499647,112.15993666599388,113.18107187500573,113.79179012498935,114.81579933300964,111.68454166600714,111.68454166600714,111.66498587499373,111.68454166600714,111.68454166600714,111.68454166600714,111.66498587499373,111.68454166600714,111.68454166600714,116.85332787499647,111.68454166600714,116.85332787499647,116.91010300000198,117.563956915983,111.68454166600714,2,1,1.134419750975212,reldom2_s024,001,2025-02-27_11h22.28.853,Vis-A-Scan_AC,2022.2.5,None,
0,0.0,None,fixation,stimulus/viswhat_stim/blank_white.png,stimulus/viswhat_stim/blank_white.png,stimulus/viswhere_stim/blank_white.png,stimulus/viswhere_stim/blank_white.png,stimulus/viswhat_stim/blank_white.png,stimulus/viswhat_stim/blank_white.png,stimulus/viswhat_stim/blank_white.png,stimulus/viswhat_stim/blank_white.png,0.0,0.0,0.0,0.0,0,0.0,0,0.0,0,0.0,0,0.0,0,0.0,0.0,0,0.0,0,0.0,0,0.0,0,0.0,0,0,0,0,0,0,0,0,9,,,,,0,5,5,5,,,,,,,,,117.82662279100623,117.82662279100623,117.82662279100623,117.82662279100623,117.82662279100623,117.82662279100623,117.82662279100623,117.82662279100623,117.73738049965856,117.82662279100623,117.82662279100623,117.82662279100623,117.73738049965856,117.82662279100623,117.82662279100623,117.82662279100623,117.82662279100623,117.82662279100623,117.82662279100623,117.82662279100623,117.82662279100623,117.82662279100623,117.82662279100623,117.82662279100623,117.82662279100623,117.82662279100623,117.82662279100623,117.78738049965857,117.82662279100623,117.82662279100623,117.82662279100623,117.78738049965857,117.82662279100623,117.82662279100623,117.82662279100623,117.82662279100623,117.82662279100623,123.03500541599351,123.03500541599351,127.01410112500889,None,0,,reldom2_s024,001,2025-02-27_11h22.28.853,Vis-A-Scan_AC,2022.2.5,None,
5,Second_Order,1.0,viswhat,stimulus/viswhat_stim/water_vehicle-cruiser.png,stimulus/viswhat_stim/land_vehicle-pickuptruck.png,stimulus/viswhat_stim/land_animal-snake.png,stimulus/viswhat_stim/land_vehicle-trolley.png,stimulus/viswhat_stim/match_blank.png,stimulus/viswhat_stim/match_box.png,stimulus/viswhat_stim/match_yes.png,stimulus/viswhat_stim/match_no.png,2.0,Match,Type,Location,2,5.125,0,5.125,0,5.125,0,5.125,0,0.75,0.75,1,0.5,1,2.125,1,0.5,1,2.125,0,0,0,0,0,0,0,0,0,,,,,0,6,6,6,,,,,,,,,127.01410112500889,132.13186904101167,127.43486254100571,128.4216124159866,129.05741595799918,130.05503183300607,127.01410112500889,127.01410112500889,127.02517658333721,127.01410112500889,127.01410112500889,127.01410112500889,127.02517658333721,127.01410112500889,132.13186904101167,132.93254645800334,135.00023641600274,138.923413624987,132.93254645800334,132.93254645800334,138.07953783299308,133.3842585000093,134.39216112499707,135.00023641600274,136.01515537500381,132.93254645800334,132.93254645800334,132.9154295000015,132.93254645800334,132.93254645800334,132.93254645800334,132.9154295000015,132.93254645800334,132.93254645800334,138.07953783299308,132.93254645800334,138.07953783299308,138.13081450000755,138.923413624987,132.93254645800334,2,1,0.9531737499928568,reldom2_s024,001,2025-02-27_11h22.28.853,Vis-A-Scan_AC,2022.2.5,None,
6,Second_Order,1.0,viswhat,stimulus/viswhat_stim/land_vehicle-firetruck.png,stimulus/viswhat_stim/land_animal-dog.png,stimulus/viswhat_stim/water_animal-seaturtle.png,stimulus/viswhat_stim/water_vehicle-sailboat.png,stimulus/viswhat_stim/match_blank.png,stimulus/viswhat_stim/match_box.png,stimulus/viswhat_stim/match_yes.png,stimulus/viswhat_stim/match_no.png,1.0,Match,Location,Location,1,5.125,0,5.125,0,5.125,0,5.125,0,0.625,0.625,1,0.5,1,2.125,1,0.5,1,2.125,0,0,0,0,0,0,0,0,0,,,,,0,7,7,7,,,,,,,,,138.923413624987,144.04210687498562,139.3974044159986,140.39574400000856,141.01838774999487,142.01631099998485,138.923413624987,138.923413624987,138.92474737499725,138.923413624987,138.923413624987,138.923413624987,138.92474737499725,138.923413624987,144.04210687498562,144.78847425000276,146.8631448750093,150.8961219159828,144.78847425000276,144.78847425000276,149.9491912079975,145.20455462500104,146.23932824999793,146.8631448750093,147.90951287499047,144.78847425000276,144.78847425000276,144.7387319993189,144.78847425000276,144.78847425000276,144.78847425000276,144.7387319993189,144.78847425000276,144.78847425000276,149.9491912079975,144.78847425000276,149.9491912079975,149.9491912079975,150.64791999998852,144.78847425000276,1,1,0.569187626009807,reldom2_s024,001,2025-02-27_11h22.28.853,Vis-A-Scan_AC,2022.2.5,None,
0,0.0,None,fixation,stimulus/viswhat_stim/blank_white.png,stimulus/viswhat_stim/blank_white.png,stimulus/viswhere_stim/blank_white.png,stimulus/viswhere_stim/blank_white.png,stimulus/viswhat_stim/blank_white.png,stimulus/viswhat_stim/blank_white.png,stimulus/viswhat_stim/blank_white.png,stimulus/viswhat_stim/blank_white.png,0.0,0.0,0.0,0.0,0,0.0,0,0.0,0,0.0,0,0.0,0,0.0,0.0,0,0.0,0,0.0,0,0.0,0,0.0,0,0,0,0,0,0,0,0,9,,,,,0,8,8,8,,,,,,,,,150.8961219159828,150.8961219159828,150.8961219159828,150.8961219159828,150.8961219159828,150.8961219159828,150.8961219159828,150.8961219159828,150.79791999998852,150.8961219159828,150.8961219159828,150.8961219159828,150.79791999998852,150.8961219159828,150.8961219159828,150.8961219159828,150.8961219159828,150.8961219159828,150.8961219159828,150.8961219159828,150.8961219159828,150.8961219159828,150.8961219159828,150.8961219159828,150.8961219159828,150.8961219159828,150.8961219159828,150.84791999998853,150.8961219159828,150.8961219159828,150.8961219159828,150.84791999998853,150.8961219159828,150.8961219159828,150.8961219159828,150.8961219159828,150.8961219159828,156.09125987498555,156.09125987498555,160.15937141599716,None,0,,reldom2_s024,001,2025-02-27_11h22.28.853,Vis-A-Scan_AC,2022.2.5,None,
7,First_Order,2.0,viswhat,stimulus/viswhat_stim/blank_white.png,stimulus/viswhat_stim/blank_white.png,stimulus/viswhat_stim/water_vehicle-ship.png,stimulus/viswhat_stim/water_animal-stingray.png,stimulus/viswhat_stim/blank_white.png,stimulus/viswhat_stim/type_box.png,stimulus/viswhat_stim/type_yes.png,stimulus/viswhat_stim/type_no.png,None,Type,None,Location,2,0.0,0,5.125,0,5.125,0,5.125,0,0.0,0.625,0,0.0,0,0.0,1,0.5,1,2.125,0,0,0,0,0,0,0,0,0,,,,,0,9,9,9,,,,,,,,,160.15937141599716,160.15937141599716,160.15937141599716,160.15937141599716,160.15937141599716,160.15937141599716,160.15937141599716,160.15937141599716,160.0662196246655,160.15937141599716,160.15937141599716,160.15937141599716,160.0662196246655,160.15937141599716,160.15937141599716,160.15937141599716,162.25032749999082,,160.15937141599716,160.15937141599716,165.33537033299217,160.60066562501015,161.64672366599552,162.25032749999082,163.29964629100868,160.15937141599716,160.15937141599716,160.1162196246655,160.15937141599716,160.15937141599716,160.15937141599716,160.1162196246655,160.15937141599716,160.15937141599716,165.33537033299217,160.15937141599716,165.33537033299217,165.3855035000015,166.21202949999133,160.15937141599716,2,1,1.2235947499866597,reldom2_s024,001,2025-02-27_11h22.28.853,Vis-A-Scan_AC,2022.2.5,None,
8,First_Order,2.0,viswhat,stimulus/viswhat_stim/blank_white.png,stimulus/viswhat_stim/blank_white.png,stimulus/viswhat_stim/land_vehicle-train.png,stimulus/viswhat_stim/land_animal-fox.png,stimulus/viswhat_stim/blank_white.png,stimulus/viswhat_stim/type_box.png,stimulus/viswhat_stim/type_yes.png,stimulus/viswhat_stim/type_no.png,None,Type,None,Location,2,0.0,0,5.125,0,5.125,0,5.125,0,0.0,0.625,0,0.0,0,0.0,1,0.5,1,2.125,0,0,0,0,0,0,0,0,0,,,,,0,10,10,10,,,,,,,,,166.21202949999133,166.21202949999133,166.21202949999133,166.21202949999133,166.21202949999133,166.21202949999133,166.21202949999133,166.21202949999133,166.17924808301032,166.21202949999133,166.21202949999133,166.21202949999133,166.17924808301032,166.21202949999133,166.21202949999133,166.21202949999133,168.32530679099727,172.3194709160016,166.21202949999133,166.21202949999133,171.35518016599235,166.68638404100784,167.70244283298962,168.32530679099727,169.34727833300713,166.21202949999133,166.21202949999133,166.195914749677,166.21202949999133,166.21202949999133,166.21202949999133,166.195914749677,166.21202949999133,166.21202949999133,171.35518016599235,166.21202949999133,171.35518016599235,171.43621383298887,172.07012983300956,166.21202949999133,2,1,0.599792125984095,reldom2_s024,001,2025-02-27_11h22.28.853,Vis-A-Scan_AC,2022.2.5,None,
9,First_Order,2.0,viswhat,stimulus/viswhat_stim/blank_white.png,stimulus/viswhat_stim/blank_white.png,stimulus/viswhat_stim/land_animal-lion.png,stimulus/viswhat_stim/land_vehicle-bus.png,stimulus/viswhat_stim/blank_white.png,stimulus/viswhat_stim/location_box.png,stimulus/viswhat_stim/location_yes.png,stimulus/viswhat_stim/location_no.png,None,Location,None,Location,1,0.0,0,5.125,0,5.125,0,5.125,0,0.0,0.625,0,0.0,0,0.0,1,0.5,1,2.125,0,0,0,0,0,0,0,0,0,,,,,0,11,11,11,,,,,,,,,172.3194709160016,172.3194709160016,172.3194709160016,172.3194709160016,172.3194709160016,172.3194709160016,172.3194709160016,172.3194709160016,172.2537404993394,172.3194709160016,172.3194709160016,172.3194709160016,172.2537404993394,172.3194709160016,172.3194709160016,172.3194709160016,174.42158779100282,178.47643025001162,172.3194709160016,172.3194709160016,177.48847412498435,172.77721408300567,173.81188324998948,174.42158779100282,175.46149799998966,172.3194709160016,172.3194709160016,172.28707383267272,172.3194709160016,172.3194709160016,172.3194709160016,172.28707383267272,172.3194709160016,172.3194709160016,177.48847412498435,172.3194709160016,177.48847412498435,177.52149662500597,178.1707755829848,172.3194709160016,1,1,0.6806869590072893,reldom2_s024,001,2025-02-27_11h22.28.853,Vis-A-Scan_AC,2022.2.5,None,
10,First_Order,2.0,viswhat,stimulus/viswhat_stim/blank_white.png,stimulus/viswhat_stim/blank_white.png,stimulus/viswhat_stim/land_animal-elephant.png,stimulus/viswhat_stim/land_vehicle-motorcycle.png,stimulus/viswhat_stim/blank_white.png,stimulus/viswhat_stim/location_box.png,stimulus/viswhat_stim/location_yes.png,stimulus/viswhat_stim/location_no.png,None,Location,None,Location,1,0.0,0,5.125,0,5.125,0,5.125,0,0.0,0.625,0,0.0,0,0.0,1,0.5,1,2.125,0,0,0,0,0,0,0,0,0,,,,,0,12,12,12,,,,,,,,,178.47643025001162,178.47643025001162,178.47643025001162,178.47643025001162,178.47643025001162,178.47643025001162,178.47643025001162,178.47643025001162,178.35237516666336,178.47643025001162,178.47643025001162,178.47643025001162,178.35237516666336,178.47643025001162,178.47643025001162,178.47643025001162,180.55939599999692,,178.47643025001162,178.47643025001162,183.64618191600312,178.94663608298288,180.0216986660089,180.55939599999692,181.63654962499277,178.47643025001162,178.47643025001162,178.41904183333003,178.47643025001162,178.47643025001162,178.47643025001162,178.41904183333003,178.47643025001162,178.47643025001162,183.64618191600312,178.47643025001162,183.64618191600312,183.64618191600312,184.31955162499798,178.47643025001162,1,1,0.5339778759807814,reldom2_s024,001,2025-02-27_11h22.28.853,Vis-A-Scan_AC,2022.2.5,None,
0,0.0,None,fixation,stimulus/viswhat_stim/blank_white.png,stimulus/viswhat_stim/blank_white.png,stimulus/viswhere_stim/blank_white.png,stimulus/viswhere_stim/blank_white.png,stimulus/viswhat_stim/blank_white.png,stimulus/viswhat_stim/blank_white.png,stimulus/viswhat_stim/blank_white.png,stimulus/viswhat_stim/blank_white.png,0.0,0.0,0.0,0.0,0,0.0,0,0.0,0,0.0,0,0.0,0,0.0,0.0,0,0.0,0,0.0,0,0.0,0,0.0,0,0,0,0,0,0,0,0,10,,,,,0,13,13,13,,,,,,,,,184.5949190829997,184.5949190829997,184.5949190829997,184.5949190829997,184.5949190829997,184.5949190829997,184.5949190829997,184.5949190829997,184.50288495833132,184.5949190829997,184.5949190829997,184.5949190829997,184.50288495833132,184.5949190829997,184.5949190829997,184.5949190829997,184.5949190829997,184.5949190829997,184.5949190829997,184.5949190829997,184.5949190829997,184.5949190829997,184.5949190829997,184.5949190829997,184.5949190829997,184.5949190829997,184.5949190829997,184.55288495833133,184.5949190829997,184.5949190829997,184.5949190829997,184.55288495833133,184.5949190829997,184.5949190829997,184.5949190829997,184.5949190829997,184.5949190829997,189.80834191601025,189.80834191601025,194.7260396250058,None,0,,reldom2_s024,001,2025-02-27_11h22.28.853,Vis-A-Scan_AC,2022.2.5,None,
11,Second_Order,2.0,viswhat,stimulus/viswhat_stim/water_vehicle-cabincruiser.png,stimulus/viswhat_stim/land_vehicle-scooter.png,stimulus/viswhat_stim/land_animal-giraffe.png,stimulus/viswhat_stim/water_animal-squid.png,stimulus/viswhat_stim/match_blank.png,stimulus/viswhat_stim/match_box.png,stimulus/viswhat_stim/match_yes.png,stimulus/viswhat_stim/match_no.png,1.0,Match,Type,Type,1,5.125,0,5.125,0,5.125,0,5.125,0,0.75,0.75,1,0.5,1,2.125,1,0.5,1,2.125,0,0,0,0,0,0,0,0,0,,,,,0,14,14,14,,,,,,,,,194.7260396250058,199.84994495799765,195.19189279098646,196.17798499998753,196.81400170800043,197.81203733300208,194.7260396250058,194.7260396250058,194.72460445831726,194.7260396250058,194.7260396250058,194.7260396250058,194.72460445831726,194.7260396250058,199.84994495799765,200.72331075000693,202.75245120798354,206.72668420799891,200.72331075000693,200.72331075000693,205.889529957989,201.1621647909924,202.2052092909871,202.75245120798354,203.80034320798586,200.72331075000693,200.72331075000693,200.66827908331956,200.72331075000693,200.72331075000693,200.72331075000693,200.66827908331956,200.72331075000693,200.72331075000693,205.889529957989,200.72331075000693,205.889529957989,205.889529957989,,200.72331075000693,1,1,1.2447079590056092,reldom2_s024,001,2025-02-27_11h22.28.853,Vis-A-Scan_AC,2022.2.5,None,
12,Second_Order,2.0,viswhat,stimulus/viswhat_stim/land_animal-bunny.png,stimulus/viswhat_stim/land_vehicle-shortbus.png,stimulus/viswhat_stim/water_vehicle-sailboat.png,stimulus/viswhat_stim/water_animal-whale.png,stimulus/viswhat_stim/match_blank.png,stimulus/viswhat_stim/match_box.png,stimulus/viswhat_stim/match_yes.png,stimulus/viswhat_stim/match_no.png,1.0,Match,Location,Location,1,5.125,0,5.125,0,5.125,0,5.125,0,0.625,0.625,1,0.5,1,2.125,1,0.5,1,2.125,0,0,0,0,0,0,0,0,0,,,,,0,15,15,15,,,,,,,,,206.72668420799891,211.848771666002,207.17073487499147,208.16872691598837,208.79186604099232,209.7891476250079,206.72668420799891,206.72668420799891,206.7318092910049,206.72668420799891,206.72668420799891,206.72668420799891,206.7318092910049,206.72668420799891,211.848771666002,212.59349579099216,214.65773962499225,218.70454533299198,212.59349579099216,212.59349579099216,217.76633062498877,213.00663779099705,214.09007512498647,214.65773962499225,215.69797083298909,212.59349579099216,212.59349579099216,212.54585995832653,212.59349579099216,212.59349579099216,212.59349579099216,212.54585995832653,212.59349579099216,212.59349579099216,217.76633062498877,212.59349579099216,217.76633062498877,217.76633062498877,218.45702904099016,212.59349579099216,1,1,1.1055515839834698,reldom2_s024,001,2025-02-27_11h22.28.853,Vis-A-Scan_AC,2022.2.5,None,
0,0.0,None,fixation,stimulus/viswhat_stim/blank_white.png,stimulus/viswhat_stim/blank_white.png,stimulus/viswhere_stim/blank_white.png,stimulus/viswhere_stim/blank_white.png,stimulus/viswhat_stim/blank_white.png,stimulus/viswhat_stim/blank_white.png,stimulus/viswhat_stim/blank_white.png,stimulus/viswhat_stim/blank_white.png,0.0,0.0,0.0,0.0,0,0.0,0,0.0,0,0.0,0,0.0,0,0.0,0.0,0,0.0,0,0.0,0,0.0,0,0.0,0,0,0,0,0,0,0,0,9,,,,,0,16,16,16,,,,,,,,,218.70454533299198,218.70454533299198,218.70454533299198,218.70454533299198,218.70454533299198,218.70454533299198,218.70454533299198,218.70454533299198,218.60702904099017,218.70454533299198,218.70454533299198,218.70454533299198,218.60702904099017,218.70454533299198,218.70454533299198,218.70454533299198,218.70454533299198,218.70454533299198,218.70454533299198,218.70454533299198,218.70454533299198,218.70454533299198,218.70454533299198,218.70454533299198,218.70454533299198,218.70454533299198,218.70454533299198,218.65702904099018,218.70454533299198,218.70454533299198,218.70454533299198,218.65702904099018,218.70454533299198,218.70454533299198,218.70454533299198,218.70454533299198,218.70454533299198,223.90351412500604,223.90351412500604,227.88409154099645,None,0,,reldom2_s024,001,2025-02-27_11h22.28.853,Vis-A-Scan_AC,2022.2.5,None,
13,First_Order,3.0,viswhere,stimulus/viswhere_stim/blank_white.png,stimulus/viswhere_stim/blank_white.png,stimulus/viswhere_stim/90-deg_dot-left_slateblue.png,stimulus/viswhere_stim/120-deg_dot-left_slateblue.png,stimulus/viswhere_stim/blank_white.png,stimulus/viswhere_stim/dot_box.png,stimulus/viswhere_stim/dot_yes.png,stimulus/viswhere_stim/dot_no.png,None,Dot,None,Dot,1,0.0,0,5.125,0,5.125,0,5.125,0,0.0,0.625,0,0.0,0,0.0,1,0.5,1,2.125,0,0,0,0,0,0,0,0,0,,,,,0,17,17,17,,,,,,,,,227.88409154099645,227.88409154099645,227.88409154099645,227.88409154099645,227.88409154099645,227.88409154099645,227.88409154099645,227.88409154099645,227.86537362467305,227.88409154099645,227.88409154099645,227.88409154099645,227.86537362467305,227.88409154099645,227.88409154099645,227.88409154099645,229.9958737079869,233.9512175830023,227.88409154099645,227.88409154099645,233.00516154099023,228.3624022080039,229.37093937498867,229.9958737079869,231.00859191600466,227.88409154099645,227.88409154099645,227.86537362467305,227.88409154099645,227.88409154099645,227.88409154099645,227.86537362467305,227.88409154099645,227.88409154099645,233.00516154099023,227.88409154099645,233.00516154099023,233.09944424999412,233.72705458299606,227.88409154099645,1,1,2.6098990009923,reldom2_s024,001,2025-02-27_11h22.28.853,Vis-A-Scan_AC,2022.2.5,None,
14,First_Order,3.0,viswhere,stimulus/viswhere_stim/blank_white.png,stimulus/viswhere_stim/blank_white.png,stimulus/viswhere_stim/30-deg_dot-left_royalblue.png,stimulus/viswhere_stim/30-deg_dot-right_peru.png,stimulus/viswhere_stim/blank_white.png,stimulus/viswhere_stim/dot_box.png,stimulus/viswhere_stim/dot_yes.png,stimulus/viswhere_stim/dot_no.png,None,Dot,None,Line,2,0.0,0,5.125,0,5.125,0,5.125,0,0.0,0.625,0,0.0,0,0.0,1,0.5,1,2.125,0,0,0,0,0,0,0,0,0,,,,,0,18,18,18,,,,,,,,,233.9512175830023,233.9512175830023,233.9512175830023,233.9512175830023,233.9512175830023,233.9512175830023,233.9512175830023,233.9512175830023,233.9306666663227,233.9512175830023,233.9512175830023,233.9512175830023,233.9306666663227,233.9512175830023,233.9512175830023,233.9512175830023,236.06385174999014,240.0122322079842,233.9512175830023,233.9512175830023,239.08460070801084,234.4270204580098,235.43593879099353,236.06385174999014,237.08240829099668,233.9512175830023,233.9512175830023,233.9473333329894,233.9512175830023,233.9512175830023,233.9512175830023,233.9473333329894,233.9512175830023,233.9512175830023,239.08460070801084,233.9512175830023,239.08460070801084,239.18039495800622,239.82467137498315,233.9512175830023,2,1,0.8008487089828122,reldom2_s024,001,2025-02-27_11h22.28.853,Vis-A-Scan_AC,2022.2.5,None,
15,First_Order,3.0,viswhere,stimulus/viswhere_stim/blank_white.png,stimulus/viswhere_stim/blank_white.png,stimulus/viswhere_stim/150-deg_dot-right_turquoise.png,stimulus/viswhere_stim/150-deg_dot-left_cyan.png,stimulus/viswhere_stim/blank_white.png,stimulus/viswhere_stim/line_box.png,stimulus/viswhere_stim/line_yes.png,stimulus/viswhere_stim/line_no.png,None,Line,None,Line,1,0.0,0,5.125,0,5.125,0,5.125,0,0.0,0.625,0,0.0,0,0.0,1,0.5,1,2.125,0,0,0,0,0,0,0,0,0,,,,,0,19,19,19,,,,,,,,,240.0122322079842,240.0122322079842,240.0122322079842,240.0122322079842,240.0122322079842,240.0122322079842,240.0122322079842,240.0122322079842,239.99152099933903,240.0122322079842,240.0122322079842,240.0122322079842,239.99152099933903,240.0122322079842,240.0122322079842,240.0122322079842,242.11613395798486,246.07391924998956,240.0122322079842,240.0122322079842,245.13339616599842,240.49474699998973,241.50100374998874,242.11613395798486,243.12896412500413,240.0122322079842,240.0122322079842,240.0081876660057,240.0122322079842,240.0122322079842,240.0122322079842,240.0081876660057,240.0122322079842,240.0122322079842,245.13339616599842,240.0122322079842,245.13339616599842,245.23139929099125,245.85740008298308,240.0122322079842,1,1,0.7345507089921739,reldom2_s024,001,2025-02-27_11h22.28.853,Vis-A-Scan_AC,2022.2.5,None,
16,First_Order,3.0,viswhere,stimulus/viswhere_stim/blank_white.png,stimulus/viswhere_stim/blank_white.png,stimulus/viswhere_stim/120-deg_dot-right_mediumslateblue.png,stimulus/viswhere_stim/150-deg_dot-right_royalblue.png,stimulus/viswhere_stim/blank_white.png,stimulus/viswhere_stim/line_box.png,stimulus/viswhere_stim/line_yes.png,stimulus/viswhere_stim/line_no.png,None,Line,None,Dot,2,0.0,0,5.125,0,5.125,0,5.125,0,0.0,0.625,0,0.0,0,0.0,1,0.5,1,2.125,0,0,0,0,0,0,0,0,0,,,,,0,20,20,20,,,,,,,,,246.07391924998956,246.07391924998956,246.07391924998956,246.07391924998956,246.07391924998956,246.07391924998956,246.07391924998956,246.07391924998956,246.0524958743384,246.07391924998956,246.07391924998956,246.07391924998956,246.0524958743384,246.07391924998956,246.07391924998956,246.07391924998956,248.18249825001112,252.21655250000185,246.07391924998956,246.07391924998956,251.20097412500763,246.55236641599913,247.57078954100143,248.18249825001112,249.18659999998636,246.07391924998956,246.07391924998956,246.06916254100508,246.07391924998956,246.07391924998956,246.07391924998956,246.06916254100508,246.07391924998956,246.07391924998956,251.20097412500763,246.07391924998956,251.20097412500763,251.29822383300052,251.9236464999849,246.07391924998956,2,1,0.40124879201175645,reldom2_s024,001,2025-02-27_11h22.28.853,Vis-A-Scan_AC,2022.2.5,None,
0,0.0,None,fixation,stimulus/viswhat_stim/blank_white.png,stimulus/viswhat_stim/blank_white.png,stimulus/viswhere_stim/blank_white.png,stimulus/viswhere_stim/blank_white.png,stimulus/viswhat_stim/blank_white.png,stimulus/viswhat_stim/blank_white.png,stimulus/viswhat_stim/blank_white.png,stimulus/viswhat_stim/blank_white.png,0.0,0.0,0.0,0.0,0,0.0,0,0.0,0,0.0,0,0.0,0,0.0,0.0,0,0.0,0,0.0,0,0.0,0,0.0,0,0,0,0,0,0,0,0,8,,,,,0,21,21,21,,,,,,,,,252.21655250000185,252.21655250000185,252.21655250000185,252.21655250000185,252.21655250000185,252.21655250000185,252.21655250000185,252.21655250000185,252.11942429132372,252.21655250000185,252.21655250000185,252.21655250000185,252.11942429132372,252.21655250000185,252.21655250000185,252.21655250000185,252.21655250000185,252.21655250000185,252.21655250000185,252.21655250000185,252.21655250000185,252.21655250000185,252.21655250000185,252.21655250000185,252.21655250000185,252.21655250000185,252.21655250000185,252.16942429132374,252.21655250000185,252.21655250000185,252.21655250000185,252.16942429132374,252.21655250000185,252.21655250000185,252.21655250000185,252.21655250000185,252.21655250000185,257.44461637499626,257.44461637499626,260.34037816600176,None,0,,reldom2_s024,001,2025-02-27_11h22.28.853,Vis-A-Scan_AC,2022.2.5,None,
17,Second_Order,3.0,viswhere,stimulus/viswhere_stim/60-deg_dot-right_seagreen.png,stimulus/viswhere_stim/150-deg_dot-right_seagreen.png,stimulus/viswhere_stim/90-deg_dot-right_salmon.png,stimulus/viswhere_stim/90-deg_dot-left_seagreen.png,stimulus/viswhat_stim/match_blank.png,stimulus/viswhat_stim/match_box.png,stimulus/viswhat_stim/match_yes.png,stimulus/viswhat_stim/match_no.png,2.0,Match,Dot,Line,2,5.125,0,5.125,0,5.125,0,5.125,0,0.75,0.75,1,0.5,1,2.125,1,0.5,1,2.125,0,0,0,0,0,0,0,0,0,,,,,0,22,22,22,,,,,,,,,260.34037816600176,265.45666116598295,260.8242161659873,261.812970125,262.4491960410087,263.44640841599903,260.34037816600176,260.34037816600176,260.3547147083174,260.34037816600176,260.34037816600176,260.34037816600176,260.3547147083174,260.34037816600176,265.45666116598295,266.24964295799145,268.32543950001127,272.22217254099087,266.24964295799145,266.24964295799145,271.38424625000334,266.69424049998634,267.71237249998376,268.32543950001127,269.3297555829922,266.24964295799145,266.24964295799145,266.22317808331763,266.24964295799145,266.24964295799145,266.24964295799145,266.22317808331763,266.24964295799145,266.24964295799145,271.38424625000334,266.24964295799145,271.38424625000334,271.4448822909908,272.22217254099087,266.24964295799145,2,1,0.8976380430103745,reldom2_s024,001,2025-02-27_11h22.28.853,Vis-A-Scan_AC,2022.2.5,None,
18,Second_Order,3.0,viswhere,stimulus/viswhere_stim/150-deg_dot-right_goldenrod.png,stimulus/viswhere_stim/150-deg_dot-left_cyan.png,stimulus/viswhere_stim/120-deg_dot-left_royalblue.png,stimulus/viswhere_stim/60-deg_dot-left_royalblue.png,stimulus/viswhat_stim/match_blank.png,stimulus/viswhat_stim/match_box.png,stimulus/viswhat_stim/match_yes.png,stimulus/viswhat_stim/match_no.png,2.0,Match,Line,Dot,2,5.125,0,5.125,0,5.125,0,5.125,0,0.625,0.625,1,0.5,1,2.125,1,0.5,1,2.125,0,0,0,0,0,0,0,0,0,,,,,0,23,23,23,,,,,,,,,272.22217254099087,277.3453778330004,272.7052977499843,273.7036602080043,274.326033749996,275.3245281249983,272.22217254099087,272.22217254099087,272.23517066599453,272.22217254099087,272.22217254099087,272.22217254099087,272.23517066599453,272.22217254099087,277.3453778330004,278.01992633298505,280.0951478329953,284.13519312499557,278.01992633298505,278.01992633298505,283.1504745410057,278.47870050001075,279.488855625008,280.0951478329953,281.1126302499906,278.01992633298505,278.01992633298505,277.9964876243398,278.01992633298505,278.01992633298505,278.01992633298505,277.9964876243398,278.01992633298505,278.01992633298505,283.1504745410057,278.01992633298505,283.1504745410057,283.2187207500101,283.83946874999674,278.01992633298505,2,1,0.7659229999990202,reldom2_s024,001,2025-02-27_11h22.28.853,Vis-A-Scan_AC,2022.2.5,None,
0,0.0,None,fixation,stimulus/viswhat_stim/blank_white.png,stimulus/viswhat_stim/blank_white.png,stimulus/viswhere_stim/blank_white.png,stimulus/viswhere_stim/blank_white.png,stimulus/viswhat_stim/blank_white.png,stimulus/viswhat_stim/blank_white.png,stimulus/viswhat_stim/blank_white.png,stimulus/viswhat_stim/blank_white.png,0.0,0.0,0.0,0.0,0,0.0,0,0.0,0,0.0,0,0.0,0,0.0,0.0,0,0.0,0,0.0,0,0.0,0,0.0,0,0,0,0,0,0,0,0,10,,,,,0,24,24,24,,,,,,,,,284.13519312499557,284.13519312499557,284.13519312499557,284.13519312499557,284.13519312499557,284.13519312499557,284.13519312499557,284.13519312499557,284.0368939163357,284.13519312499557,284.13519312499557,284.13519312499557,284.0368939163357,284.13519312499557,284.13519312499557,284.13519312499557,284.13519312499557,284.13519312499557,284.13519312499557,284.13519312499557,284.13519312499557,284.13519312499557,284.13519312499557,284.13519312499557,284.13519312499557,284.13519312499557,284.13519312499557,284.0868939163357,284.13519312499557,284.13519312499557,284.13519312499557,284.0868939163357,284.13519312499557,284.13519312499557,284.13519312499557,284.13519312499557,284.13519312499557,289.3184856660082,289.3184856660082,294.323417290987,None,0,,reldom2_s024,001,2025-02-27_11h22.28.853,Vis-A-Scan_AC,2022.2.5,None,
19,First_Order,4.0,viswhere,stimulus/viswhere_stim/blank_white.png,stimulus/viswhere_stim/blank_white.png,stimulus/viswhere_stim/90-deg_dot-right_royalblue.png,stimulus/viswhere_stim/120-deg_dot-right_goldenrod.png,stimulus/viswhere_stim/blank_white.png,stimulus/viswhere_stim/dot_box.png,stimulus/viswhere_stim/dot_yes.png,stimulus/viswhere_stim/dot_no.png,None,Dot,None,Dot,1,0.0,0,5.125,0,5.125,0,5.125,0,0.0,0.625,0,0.0,0,0.0,1,0.5,1,2.125,0,0,0,0,0,0,0,0,0,,,,,0,25,25,25,,,,,,,,,294.323417290987,294.323417290987,294.323417290987,294.323417290987,294.323417290987,294.323417290987,294.323417290987,294.323417290987,294.30394445765216,294.323417290987,294.323417290987,294.323417290987,294.30394445765216,294.323417290987,294.323417290987,294.323417290987,296.41884724999545,300.3849767500069,294.323417290987,294.323417290987,299.4515030409966,294.7988767909992,295.81201841600705,296.41884724999545,297.43378108300385,294.323417290987,294.323417290987,294.30394445765216,294.323417290987,294.323417290987,294.323417290987,294.30394445765216,294.323417290987,294.323417290987,299.4515030409966,294.323417290987,299.4515030409966,299.5484627500118,300.1974491660076,294.323417290987,1,1,0.7499597919813823,reldom2_s024,001,2025-02-27_11h22.28.853,Vis-A-Scan_AC,2022.2.5,None,
20,First_Order,4.0,viswhere,stimulus/viswhere_stim/blank_white.png,stimulus/viswhere_stim/blank_white.png,stimulus/viswhere_stim/90-deg_dot-left_peru.png,stimulus/viswhere_stim/90-deg_dot-right_royalblue.png,stimulus/viswhere_stim/blank_white.png,stimulus/viswhere_stim/dot_box.png,stimulus/viswhere_stim/dot_yes.png,stimulus/viswhere_stim/dot_no.png,None,Dot,None,Line,2,0.0,0,5.125,0,5.125,0,5.125,0,0.0,0.625,0,0.0,0,0.0,1,0.5,1,2.125,0,0,0,0,0,0,0,0,0,,,,,0,26,26,26,,,,,,,,,300.3849767500069,300.3849767500069,300.3849767500069,300.3849767500069,300.3849767500069,300.3849767500069,300.3849767500069,300.3849767500069,300.3642957493333,300.3849767500069,300.3849767500069,300.3849767500069,300.3642957493333,300.3849767500069,300.3849767500069,300.3849767500069,302.50052179099293,306.4530589579954,300.3849767500069,300.3849767500069,305.52655191600206,300.860749665997,301.87325070798397,302.50052179099293,303.5206817500002,300.3849767500069,300.3849767500069,300.38096241599993,300.3849767500069,300.3849767500069,300.3849767500069,300.38096241599993,300.3849767500069,300.3849767500069,305.52655191600206,300.3849767500069,305.52655191600206,305.6099141250015,306.234917875001,300.3849767500069,2,1,0.490465626004152,reldom2_s024,001,2025-02-27_11h22.28.853,Vis-A-Scan_AC,2022.2.5,None,
21,First_Order,4.0,viswhere,stimulus/viswhere_stim/blank_white.png,stimulus/viswhere_stim/blank_white.png,stimulus/viswhere_stim/120-deg_dot-left_cyan.png,stimulus/viswhere_stim/150-deg_dot-left_seagreen.png,stimulus/viswhere_stim/blank_white.png,stimulus/viswhere_stim/line_box.png,stimulus/viswhere_stim/line_yes.png,stimulus/viswhere_stim/line_no.png,None,Line,None,Dot,2,0.0,0,5.125,0,5.125,0,5.125,0,0.0,0.625,0,0.0,0,0.0,1,0.5,1,2.125,0,0,0,0,0,0,0,0,0,,,,,0,27,27,27,,,,,,,,,306.4530589579954,306.4530589579954,306.4530589579954,306.4530589579954,306.4530589579954,306.4530589579954,306.4530589579954,306.4530589579954,306.43188041633886,306.4530589579954,306.4530589579954,306.4530589579954,306.43188041633886,306.4530589579954,306.4530589579954,306.4530589579954,308.5622920409951,312.51273995800875,306.4530589579954,306.4530589579954,311.5825179159874,306.9324565829884,307.94998291600496,308.5622920409951,309.56743229099084,306.4530589579954,306.4530589579954,306.4485470830055,306.4530589579954,306.4530589579954,306.4530589579954,306.4485470830055,306.4530589579954,306.4530589579954,311.5825179159874,306.4530589579954,311.5825179159874,311.6786995829898,312.3056432500016,306.4530589579954,2,1,0.8275264179974329,reldom2_s024,001,2025-02-27_11h22.28.853,Vis-A-Scan_AC,2022.2.5,None,
22,First_Order,4.0,viswhere,stimulus/viswhere_stim/blank_white.png,stimulus/viswhere_stim/blank_white.png,stimulus/viswhere_stim/150-deg_dot-right_seagreen.png,stimulus/viswhere_stim/150-deg_dot-left_slateblue.png,stimulus/viswhere_stim/blank_white.png,stimulus/viswhere_stim/line_box.png,stimulus/viswhere_stim/line_yes.png,stimulus/viswhere_stim/line_no.png,None,Line,None,Line,1,0.0,0,5.125,0,5.125,0,5.125,0,0.0,0.625,0,0.0,0,0.0,1,0.5,1,2.125,0,0,0,0,0,0,0,0,0,,,,,0,28,28,28,,,,,,,,,312.51273995800875,312.51273995800875,312.51273995800875,312.51273995800875,312.51273995800875,312.51273995800875,312.51273995800875,312.51273995800875,312.4895852913226,312.51273995800875,312.51273995800875,312.51273995800875,312.4895852913226,312.51273995800875,312.51273995800875,312.51273995800875,314.61955358300474,318.64859462500317,312.51273995800875,312.51273995800875,317.6410552499874,312.9986727499927,314.00315183299244,314.61955358300474,315.6326962909952,312.51273995800875,312.51273995800875,312.50625195798926,312.51273995800875,312.51273995800875,312.51273995800875,312.50625195798926,312.51273995800875,312.51273995800875,317.6410552499874,312.51273995800875,317.6410552499874,317.7430035409925,318.36952987499535,312.51273995800875,1,1,0.7289483339700382,reldom2_s024,001,2025-02-27_11h22.28.853,Vis-A-Scan_AC,2022.2.5,None,
0,0.0,None,fixation,stimulus/viswhat_stim/blank_white.png,stimulus/viswhat_stim/blank_white.png,stimulus/viswhere_stim/blank_white.png,stimulus/viswhere_stim/blank_white.png,stimulus/viswhat_stim/blank_white.png,stimulus/viswhat_stim/blank_white.png,stimulus/viswhat_stim/blank_white.png,stimulus/viswhat_stim/blank_white.png,0.0,0.0,0.0,0.0,0,0.0,0,0.0,0,0.0,0,0.0,0,0.0,0.0,0,0.0,0,0.0,0,0.0,0,0.0,0,0,0,0,0,0,0,0,9,,,,,0,29,29,29,,,,,,,,,318.64859462500317,318.64859462500317,318.64859462500317,318.64859462500317,318.64859462500317,318.64859462500317,318.64859462500317,318.64859462500317,318.5502888743261,318.64859462500317,318.64859462500317,318.64859462500317,318.5502888743261,318.64859462500317,318.64859462500317,318.64859462500317,318.64859462500317,318.64859462500317,318.64859462500317,318.64859462500317,318.64859462500317,318.64859462500317,318.64859462500317,318.64859462500317,318.64859462500317,318.64859462500317,318.64859462500317,318.6002888743261,318.64859462500317,318.64859462500317,318.64859462500317,318.6002888743261,318.64859462500317,318.64859462500317,318.64859462500317,318.64859462500317,318.64859462500317,323.837452207983,323.837452207983,327.8022082079842,None,0,,reldom2_s024,001,2025-02-27_11h22.28.853,Vis-A-Scan_AC,2022.2.5,None,
23,Second_Order,4.0,viswhere,stimulus/viswhere_stim/90-deg_dot-right_salmon.png,stimulus/viswhere_stim/150-deg_dot-right_seagreen.png,stimulus/viswhere_stim/150-deg_dot-right_mediumslateblue.png,stimulus/viswhere_stim/150-deg_dot-left_lightsseagreen.png,stimulus/viswhat_stim/match_blank.png,stimulus/viswhat_stim/match_box.png,stimulus/viswhat_stim/match_yes.png,stimulus/viswhat_stim/match_no.png,2.0,Match,Dot,Line,2,5.125,0,5.125,0,5.125,0,5.125,0,0.75,0.75,1,0.5,1,2.125,1,0.5,1,2.125,0,0,0,0,0,0,0,0,0,,,,,0,30,30,30,,,,,,,,,327.8022082079842,332.9240969159873,328.28352633299073,329.2825654580083,329.90446237500873,330.90258183298283,327.8022082079842,327.8022082079842,327.8169872083255,327.8022082079842,327.8022082079842,327.8022082079842,327.8169872083255,327.8022082079842,332.9240969159873,333.719145207986,335.79413887500414,339.6603093750018,333.719145207986,333.719145207986,338.8594180409855,334.16788858300424,335.1757131659833,335.79413887500414,336.80760737499804,333.719145207986,333.719145207986,333.7089529160119,333.719145207986,333.719145207986,333.719145207986,333.7089529160119,333.719145207986,333.719145207986,338.8594180409855,333.719145207986,338.8594180409855,338.92029329098295,339.6974896249885,333.719145207986,2,1,0.7270088749937713,reldom2_s024,001,2025-02-27_11h22.28.853,Vis-A-Scan_AC,2022.2.5,None,
24,Second_Order,4.0,viswhere,stimulus/viswhere_stim/90-deg_dot-left_cyan.png,stimulus/viswhere_stim/60-deg_dot-left_slateblue.png,stimulus/viswhere_stim/120-deg_dot-right_goldenrod.png,stimulus/viswhere_stim/90-deg_dot-right_seagreen.png,stimulus/viswhat_stim/match_blank.png,stimulus/viswhat_stim/match_box.png,stimulus/viswhat_stim/match_yes.png,stimulus/viswhat_stim/match_no.png,1.0,Match,Dot,Dot,1,5.125,0,5.125,0,5.125,0,5.125,0,0.625,0.625,1,0.5,1,2.125,1,0.5,1,2.125,0,0,0,0,0,0,0,0,0,,,,,0,31,31,31,,,,,,,,,339.6974896249885,344.822847583011,340.17801725000027,341.17624112500926,341.79923579099705,342.7967277079879,339.6974896249885,339.6974896249885,339.7103093750018,339.6974896249885,339.6974896249885,339.6974896249885,339.7103093750018,339.6974896249885,344.822847583011,345.4932959160069,347.5818552499986,351.61435591601185,345.4932959160069,345.4932959160069,350.63355895798304,345.9554810000118,346.9705556250119,347.5818552499986,348.6005204579851,345.4932959160069,345.4932959160069,345.4697273333227,345.4932959160069,345.4932959160069,345.4932959160069,345.4697273333227,345.4932959160069,345.4932959160069,350.63355895798304,345.4932959160069,350.63355895798304,350.6883179160068,351.3198945829936,345.4932959160069,1,1,1.2182808340003248,reldom2_s024,001,2025-02-27_11h22.28.853,Vis-A-Scan_AC,2022.2.5,None,
0,0.0,None,fixation,stimulus/viswhat_stim/blank_white.png,stimulus/viswhat_stim/blank_white.png,stimulus/viswhere_stim/blank_white.png,stimulus/viswhere_stim/blank_white.png,stimulus/viswhat_stim/blank_white.png,stimulus/viswhat_stim/blank_white.png,stimulus/viswhat_stim/blank_white.png,stimulus/viswhat_stim/blank_white.png,0.0,0.0,0.0,0.0,0,0.0,0,0.0,0,0.0,0,0.0,0,0.0,0.0,0,0.0,0,0.0,0,0.0,0,0.0,0,0,0,0,0,0,0,0,10,,,,,0,32,32,32,,,,,,,,,351.61435591601185,351.61435591601185,351.61435591601185,351.61435591601185,351.61435591601185,351.61435591601185,351.61435591601185,351.61435591601185,351.5156136243216,351.61435591601185,351.61435591601185,351.61435591601185,351.5156136243216,351.61435591601185,351.61435591601185,351.61435591601185,351.61435591601185,351.61435591601185,351.61435591601185,351.61435591601185,351.61435591601185,351.61435591601185,351.61435591601185,351.61435591601185,351.61435591601185,351.61435591601185,351.61435591601185,351.5656136243216,351.61435591601185,351.61435591601185,351.61435591601185,351.5656136243216,351.61435591601185,351.61435591601185,351.61435591601185,351.61435591601185,351.61435591601185,356.81562795798527,356.81562795798527,361.8124434580095,None,0,,reldom2_s024,001,2025-02-27_11h22.28.853,Vis-A-Scan_AC,2022.2.5,None,
25,First_Order,5.0,viswhat,stimulus/viswhat_stim/blank_white.png,stimulus/viswhat_stim/blank_white.png,stimulus/viswhat_stim/land_vehicle-shortbus.png,stimulus/viswhat_stim/land_animal-pig.png,stimulus/viswhat_stim/blank_white.png,stimulus/viswhat_stim/location_box.png,stimulus/viswhat_stim/location_yes.png,stimulus/viswhat_stim/location_no.png,None,Location,None,Location,1,0.0,0,5.125,0,5.125,0,5.125,0,0.0,0.625,0,0.0,0,0.0,1,0.5,1,2.125,0,0,0,0,0,0,0,0,0,,,,,0,33,33,33,,,,,,,,,361.8124434580095,361.8124434580095,361.8124434580095,361.8124434580095,361.8124434580095,361.8124434580095,361.8124434580095,361.8124434580095,361.7725220826784,361.8124434580095,361.8124434580095,361.8124434580095,361.7725220826784,361.8124434580095,361.8124434580095,361.8124434580095,363.9119408749975,,361.8124434580095,361.8124434580095,366.94569891600986,362.2793355830072,363.3013832499855,363.9119408749975,364.9364310409874,361.8124434580095,361.8124434580095,361.7891887493451,361.8124434580095,361.8124434580095,361.8124434580095,361.7891887493451,361.8124434580095,361.8124434580095,366.94569891600986,361.8124434580095,366.94569891600986,367.01719641601085,367.64812958298717,361.8124434580095,1,1,1.1915127509855665,reldom2_s024,001,2025-02-27_11h22.28.853,Vis-A-Scan_AC,2022.2.5,None,
26,First_Order,5.0,viswhat,stimulus/viswhat_stim/blank_white.png,stimulus/viswhat_stim/blank_white.png,stimulus/viswhat_stim/land_vehicle-rv.png,stimulus/viswhat_stim/land_animal-bunny.png,stimulus/viswhat_stim/blank_white.png,stimulus/viswhat_stim/type_box.png,stimulus/viswhat_stim/type_yes.png,stimulus/viswhat_stim/type_no.png,None,Type,None,Location,2,0.0,0,5.125,0,5.125,0,5.125,0,0.0,0.625,0,0.0,0,0.0,1,0.5,1,2.125,0,0,0,0,0,0,0,0,0,,,,,0,34,34,34,,,,,,,,,367.92381570799625,367.92381570799625,367.92381570799625,367.92381570799625,367.92381570799625,367.92381570799625,367.92381570799625,367.92381570799625,367.84111587498916,367.92381570799625,367.92381570799625,367.92381570799625,367.84111587498916,367.92381570799625,367.92381570799625,367.92381570799625,370.0181297909876,374.04003512498457,367.92381570799625,367.92381570799625,373.11451791599393,368.3997070410114,369.447794000007,370.0181297909876,371.07056049999665,367.92381570799625,367.92381570799625,367.89111587498917,367.92381570799625,367.92381570799625,367.92381570799625,367.89111587498917,367.92381570799625,367.92381570799625,373.11451791599393,367.92381570799625,373.11451791599393,373.11451791599393,373.7862615409831,367.92381570799625,2,1,0.6211655419901945,reldom2_s024,001,2025-02-27_11h22.28.853,Vis-A-Scan_AC,2022.2.5,None,
27,First_Order,5.0,viswhat,stimulus/viswhat_stim/blank_white.png,stimulus/viswhat_stim/blank_white.png,stimulus/viswhat_stim/land_animal-zebra.png,stimulus/viswhat_stim/land_vehicle-oldcar.png,stimulus/viswhat_stim/blank_white.png,stimulus/viswhat_stim/location_box.png,stimulus/viswhat_stim/location_yes.png,stimulus/viswhat_stim/location_no.png,None,Location,None,Location,1,0.0,0,5.125,0,5.125,0,5.125,0,0.0,0.625,0,0.0,0,0.0,1,0.5,1,2.125,0,0,0,0,0,0,0,0,0,,,,,0,35,35,35,,,,,,,,,374.04003512498457,374.04003512498457,374.04003512498457,374.04003512498457,374.04003512498457,374.04003512498457,374.04003512498457,374.04003512498457,373.961187708339,374.04003512498457,374.04003512498457,374.04003512498457,373.961187708339,374.04003512498457,374.04003512498457,374.04003512498457,376.1517157499911,380.12607345799915,374.04003512498457,374.04003512498457,379.19285458300146,374.5236033750116,375.5812002499879,376.1517157499911,377.2143977500091,374.04003512498457,374.04003512498457,374.01118770833904,374.04003512498457,374.04003512498457,374.04003512498457,374.01118770833904,374.04003512498457,374.04003512498457,379.19285458300146,374.04003512498457,379.19285458300146,379.23140525000053,379.8814161659975,374.04003512498457,1,1,0.7400597499799915,reldom2_s024,001,2025-02-27_11h22.28.853,Vis-A-Scan_AC,2022.2.5,None,
28,First_Order,5.0,viswhat,stimulus/viswhat_stim/blank_white.png,stimulus/viswhat_stim/blank_white.png,stimulus/viswhat_stim/water_vehicle-canoe.png,stimulus/viswhat_stim/land_vehicle-trolley.png,stimulus/viswhat_stim/blank_white.png,stimulus/viswhat_stim/type_box.png,stimulus/viswhat_stim/type_yes.png,stimulus/viswhat_stim/type_no.png,None,Type,None,Type,1,0.0,0,5.125,0,5.125,0,5.125,0,0.0,0.625,0,0.0,0,0.0,1,0.5,1,2.125,0,0,0,0,0,0,0,0,0,,,,,0,36,36,36,,,,,,,,,380.12607345799915,380.12607345799915,380.12607345799915,380.12607345799915,380.12607345799915,380.12607345799915,380.12607345799915,380.12607345799915,380.09087470831776,380.12607345799915,380.12607345799915,380.12607345799915,380.09087470831776,380.12607345799915,380.12607345799915,380.12607345799915,382.23337362500024,386.2691519159998,380.12607345799915,380.12607345799915,385.27379437501077,380.61384199999156,381.6436930409982,382.23337362500024,383.24159437499475,380.12607345799915,380.12607345799915,380.1075413749844,380.12607345799915,380.12607345799915,380.12607345799915,380.1075413749844,380.12607345799915,380.12607345799915,385.27379437501077,380.12607345799915,385.27379437501077,385.35385312500875,385.99541087500984,380.12607345799915,1,1,0.7287134589860216,reldom2_s024,001,2025-02-27_11h22.28.853,Vis-A-Scan_AC,2022.2.5,None,
0,0.0,None,fixation,stimulus/viswhat_stim/blank_white.png,stimulus/viswhat_stim/blank_white.png,stimulus/viswhere_stim/blank_white.png,stimulus/viswhere_stim/blank_white.png,stimulus/viswhat_stim/blank_white.png,stimulus/viswhat_stim/blank_white.png,stimulus/viswhat_stim/blank_white.png,stimulus/viswhat_stim/blank_white.png,0.0,0.0,0.0,0.0,0,0.0,0,0.0,0,0.0,0,0.0,0,0.0,0.0,0,0.0,0,0.0,0,0.0,0,0.0,0,0,0,0,0,0,0,0,9,,,,,0,37,37,37,,,,,,,,,386.2691519159998,386.2691519159998,386.2691519159998,386.2691519159998,386.2691519159998,386.2691519159998,386.2691519159998,386.2691519159998,386.17525845800407,386.2691519159998,386.2691519159998,386.2691519159998,386.17525845800407,386.2691519159998,386.2691519159998,386.2691519159998,386.2691519159998,386.2691519159998,386.2691519159998,386.2691519159998,386.2691519159998,386.2691519159998,386.2691519159998,386.2691519159998,386.2691519159998,386.2691519159998,386.2691519159998,386.2252584580041,386.2691519159998,386.2691519159998,386.2691519159998,386.2252584580041,386.2691519159998,386.2691519159998,386.2691519159998,386.2691519159998,386.2691519159998,391.4504468750092,391.4504468750092,395.4230514999945,None,0,,reldom2_s024,001,2025-02-27_11h22.28.853,Vis-A-Scan_AC,2022.2.5,None,
29,Second_Order,5.0,viswhat,stimulus/viswhat_stim/land_vehicle-schoolbus.png,stimulus/viswhat_stim/land_animal-snake.png,stimulus/viswhat_stim/water_vehicle-cruiser.png,stimulus/viswhat_stim/water_animal-whale.png,stimulus/viswhat_stim/match_blank.png,stimulus/viswhat_stim/match_box.png,stimulus/viswhat_stim/match_yes.png,stimulus/viswhat_stim/match_no.png,1.0,Match,Location,Location,1,5.125,0,5.125,0,5.125,0,5.125,0,0.75,0.75,1,0.5,1,2.125,1,0.5,1,2.125,0,0,0,0,0,0,0,0,0,,,,,0,38,38,38,,,,,,,,,395.4230514999945,400.5464259159926,395.90307691600174,396.8911962079874,397.52316799998516,398.5117388750077,395.4230514999945,395.4230514999945,395.43031333331794,395.4230514999945,395.4230514999945,395.4230514999945,395.43031333331794,395.4230514999945,400.5464259159926,401.44770254098694,403.51250779099064,,401.44770254098694,401.44770254098694,406.6765622079838,401.8602880410035,402.9619677499868,403.51250779099064,404.6160215830023,401.44770254098694,401.44770254098694,401.3817783330101,401.44770254098694,401.44770254098694,401.44770254098694,401.3817783330101,401.44770254098694,401.44770254098694,406.6765622079838,401.44770254098694,406.6765622079838,406.61322870801087,,401.44770254098694,1,1,0.5203622089757118,reldom2_s024,001,2025-02-27_11h22.28.853,Vis-A-Scan_AC,2022.2.5,None,
30,Second_Order,5.0,viswhat,stimulus/viswhat_stim/land_vehicle-tank.png,stimulus/viswhat_stim/water_vehicle-cabincruiser.png,stimulus/viswhat_stim/land_animal-pig.png,stimulus/viswhat_stim/water_animal-stingray.png,stimulus/viswhat_stim/match_blank.png,stimulus/viswhat_stim/match_box.png,stimulus/viswhat_stim/match_yes.png,stimulus/viswhat_stim/match_no.png,1.0,Match,Type,Type,1,5.125,0,5.125,0,5.125,0,5.125,0,0.625,0.625,1,0.5,1,2.125,1,0.5,1,2.125,0,0,0,0,0,0,0,0,0,,,,,0,39,39,39,,,,,,,,,407.3980639159854,412.51217233299394,407.867497750005,408.86601900000824,409.48867929101107,410.4864947499882,407.3980639159854,407.3980639159854,407.39685454100834,407.3980639159854,407.3980639159854,407.3980639159854,407.39685454100834,407.3980639159854,412.51217233299394,413.19172662499477,415.2619630410045,419.31362470801105,413.19172662499477,413.19172662499477,418.32314462499926,413.65064999999595,414.67300912499195,415.2619630410045,416.2736597910116,413.19172662499477,413.19172662499477,413.17545525000315,413.19172662499477,413.19172662499477,413.19172662499477,413.17545525000315,413.19172662499477,413.19172662499477,418.32314462499926,413.19172662499477,418.32314462499926,418.3893717500032,419.0245366659947,413.19172662499477,1,1,0.7350116249872372,reldom2_s024,001,2025-02-27_11h22.28.853,Vis-A-Scan_AC,2022.2.5,None,
0,0.0,None,fixation,stimulus/viswhat_stim/blank_white.png,stimulus/viswhat_stim/blank_white.png,stimulus/viswhere_stim/blank_white.png,stimulus/viswhere_stim/blank_white.png,stimulus/viswhat_stim/blank_white.png,stimulus/viswhat_stim/blank_white.png,stimulus/viswhat_stim/blank_white.png,stimulus/viswhat_stim/blank_white.png,0.0,0.0,0.0,0.0,0,0.0,0,0.0,0,0.0,0,0.0,0,0.0,0.0,0,0.0,0,0.0,0,0.0,0,0.0,0,0,0,0,0,0,0,0,10,,,,,0,40,40,40,,,,,,,,,419.31362470801105,419.31362470801105,419.31362470801105,419.31362470801105,419.31362470801105,419.31362470801105,419.31362470801105,419.31362470801105,419.2245415000012,419.31362470801105,419.31362470801105,419.31362470801105,419.2245415000012,419.31362470801105,419.31362470801105,419.31362470801105,419.31362470801105,419.31362470801105,419.31362470801105,419.31362470801105,419.31362470801105,419.31362470801105,419.31362470801105,419.31362470801105,419.31362470801105,419.31362470801105,419.31362470801105,419.2745415000012,419.31362470801105,419.31362470801105,419.31362470801105,419.2745415000012,419.31362470801105,419.31362470801105,419.31362470801105,419.31362470801105,419.31362470801105,424.51779325000825,424.51779325000825,429.4971322909987,None,0,,reldom2_s024,001,2025-02-27_11h22.28.853,Vis-A-Scan_AC,2022.2.5,None,
31,First_Order,6.0,viswhat,stimulus/viswhat_stim/blank_white.png,stimulus/viswhat_stim/blank_white.png,stimulus/viswhat_stim/land_vehicle-rv.png,stimulus/viswhat_stim/land_animal-ostrich.png,stimulus/viswhat_stim/blank_white.png,stimulus/viswhat_stim/type_box.png,stimulus/viswhat_stim/type_yes.png,stimulus/viswhat_stim/type_no.png,None,Type,None,Location,2,0.0,0,5.125,0,5.125,0,5.125,0,0.0,0.625,0,0.0,0,0.0,1,0.5,1,2.125,0,0,0,0,0,0,0,0,0,,,,,0,41,41,41,,,,,,,,,429.4971322909987,429.4971322909987,429.4971322909987,429.4971322909987,429.4971322909987,429.4971322909987,429.4971322909987,429.4971322909987,429.4677932076544,429.4971322909987,429.4971322909987,429.4971322909987,429.4677932076544,429.4971322909987,429.4971322909987,429.4971322909987,431.6106751660118,435.64488058298593,429.4971322909987,429.4971322909987,434.6385863329924,429.97690679100924,430.98663179099094,431.6106751660118,432.62514554100926,429.4971322909987,429.4971322909987,429.4844598743211,429.4971322909987,429.4971322909987,429.4971322909987,429.4844598743211,429.4971322909987,429.4971322909987,434.6385863329924,429.4971322909987,434.6385863329924,434.7126171659911,435.3408135829959,429.4971322909987,2,1,0.8996059169876389,reldom2_s024,001,2025-02-27_11h22.28.853,Vis-A-Scan_AC,2022.2.5,None,
32,First_Order,6.0,viswhat,stimulus/viswhat_stim/blank_white.png,stimulus/viswhat_stim/blank_white.png,stimulus/viswhat_stim/land_animal-moose.png,stimulus/viswhat_stim/water_animal-dolphin.png,stimulus/viswhat_stim/blank_white.png,stimulus/viswhat_stim/type_box.png,stimulus/viswhat_stim/type_yes.png,stimulus/viswhat_stim/type_no.png,None,Type,None,Type,1,0.0,0,5.125,0,5.125,0,5.125,0,0.0,0.625,0,0.0,0,0.0,1,0.5,1,2.125,0,0,0,0,0,0,0,0,0,,,,,0,42,42,42,,,,,,,,,435.64488058298593,435.64488058298593,435.64488058298593,435.64488058298593,435.64488058298593,435.64488058298593,435.64488058298593,435.64488058298593,435.55015633298314,435.64488058298593,435.64488058298593,435.64488058298593,435.55015633298314,435.64488058298593,435.64488058298593,435.64488058298593,437.753119083005,,435.64488058298593,435.64488058298593,440.851226416009,436.1122860829928,437.1675146250054,437.753119083005,438.80990824999753,435.64488058298593,435.64488058298593,435.60015633298315,435.64488058298593,435.64488058298593,435.64488058298593,435.60015633298315,435.64488058298593,435.64488058298593,440.851226416009,435.64488058298593,440.851226416009,440.851226416009,441.7062180409848,435.64488058298593,1,1,0.47251600096933544,reldom2_s024,001,2025-02-27_11h22.28.853,Vis-A-Scan_AC,2022.2.5,None,
33,First_Order,6.0,viswhat,stimulus/viswhat_stim/blank_white.png,stimulus/viswhat_stim/blank_white.png,stimulus/viswhat_stim/land_vehicle-buldozer.png,stimulus/viswhat_stim/water_vehicle-canoe.png,stimulus/viswhat_stim/blank_white.png,stimulus/viswhat_stim/location_box.png,stimulus/viswhat_stim/location_yes.png,stimulus/viswhat_stim/location_no.png,None,Location,None,Type,2,0.0,0,5.125,0,5.125,0,5.125,0,0.0,0.625,0,0.0,0,0.0,1,0.5,1,2.125,0,0,0,0,0,0,0,0,0,,,,,0,43,43,43,,,,,,,,,441.7062180409848,441.7062180409848,441.7062180409848,441.7062180409848,441.7062180409848,441.7062180409848,441.7062180409848,441.7062180409848,441.654767999668,441.7062180409848,441.7062180409848,441.7062180409848,441.654767999668,441.7062180409848,441.7062180409848,441.7062180409848,443.8070167079859,,441.7062180409848,441.7062180409848,446.8515429580002,442.17636174999643,443.22900474999915,443.8070167079859,444.86018483299995,441.7062180409848,441.7062180409848,441.67143466633473,441.7062180409848,441.7062180409848,441.7062180409848,441.67143466633473,441.7062180409848,441.7062180409848,446.8515429580002,441.7062180409848,446.8515429580002,446.9127060410101,447.5548480830039,441.7062180409848,2,1,1.3443071249639615,reldom2_s024,001,2025-02-27_11h22.28.853,Vis-A-Scan_AC,2022.2.5,None,
34,First_Order,6.0,viswhat,stimulus/viswhat_stim/blank_white.png,stimulus/viswhat_stim/blank_white.png,stimulus/viswhat_stim/land_vehicle-scooter.png,stimulus/viswhat_stim/water_vehicle-motorboatraft.png,stimulus/viswhat_stim/blank_white.png,stimulus/viswhat_stim/location_box.png,stimulus/viswhat_stim/location_yes.png,stimulus/viswhat_stim/location_no.png,None,Location,None,Type,2,0.0,0,5.125,0,5.125,0,5.125,0,0.0,0.625,0,0.0,0,0.0,1,0.5,1,2.125,0,0,0,0,0,0,0,0,0,,,,,0,44,44,44,,,,,,,,,447.7587912910094,447.7587912910094,447.7587912910094,447.7587912910094,447.7587912910094,447.7587912910094,447.7587912910094,447.7587912910094,447.73209279167156,447.7587912910094,447.7587912910094,447.7587912910094,447.73209279167156,447.7587912910094,447.7587912910094,447.7587912910094,449.87190433300566,453.8946862909943,447.7587912910094,447.7587912910094,452.8837545409915,448.23544308298733,449.25142849999247,449.87190433300566,450.891742250009,447.7587912910094,447.7587912910094,447.7487594583382,447.7587912910094,447.7587912910094,447.7587912910094,447.7487594583382,447.7587912910094,447.7587912910094,452.8837545409915,447.7587912910094,452.8837545409915,452.9752561659843,453.61860583300586,447.7587912910094,2,1,0.6770725010137539,reldom2_s024,001,2025-02-27_11h22.28.853,Vis-A-Scan_AC,2022.2.5,None,
0,0.0,None,fixation,stimulus/viswhat_stim/blank_white.png,stimulus/viswhat_stim/blank_white.png,stimulus/viswhere_stim/blank_white.png,stimulus/viswhere_stim/blank_white.png,stimulus/viswhat_stim/blank_white.png,stimulus/viswhat_stim/blank_white.png,stimulus/viswhat_stim/blank_white.png,stimulus/viswhat_stim/blank_white.png,0.0,0.0,0.0,0.0,0,0.0,0,0.0,0,0.0,0,0.0,0,0.0,0.0,0,0.0,0,0.0,0,0.0,0,0.0,0,0,0,0,0,0,0,0,8,,,,,0,45,45,45,,,,,,,,,453.8946862909943,453.8946862909943,453.8946862909943,453.8946862909943,453.8946862909943,453.8946862909943,453.8946862909943,453.8946862909943,453.7936497913227,453.8946862909943,453.8946862909943,453.8946862909943,453.7936497913227,453.8946862909943,453.8946862909943,453.8946862909943,453.8946862909943,453.8946862909943,453.8946862909943,453.8946862909943,453.8946862909943,453.8946862909943,453.8946862909943,453.8946862909943,453.8946862909943,453.8946862909943,453.8946862909943,453.8436497913227,453.8946862909943,453.8946862909943,453.8946862909943,453.8436497913227,453.8946862909943,453.8946862909943,453.8946862909943,453.8946862909943,453.8946862909943,459.091070208,459.091070208,462.0826859579829,None,0,,reldom2_s024,001,2025-02-27_11h22.28.853,Vis-A-Scan_AC,2022.2.5,None,
35,Second_Order,6.0,viswhat,stimulus/viswhat_stim/land_vehicle-train.png,stimulus/viswhat_stim/land_animal-moose.png,stimulus/viswhat_stim/land_vehicle-schoolbus.png,stimulus/viswhat_stim/water_vehicle-sailboat.png,stimulus/viswhat_stim/match_blank.png,stimulus/viswhat_stim/match_box.png,stimulus/viswhat_stim/match_yes.png,stimulus/viswhat_stim/match_no.png,2.0,Match,Location,Type,2,5.125,0,5.125,0,5.125,0,5.125,0,0.75,0.75,1,0.5,1,2.125,1,0.5,1,2.125,0,0,0,0,0,0,0,0,0,,,,,0,46,46,46,,,,,,,,,462.0826859579829,467.2046769160079,462.5253164159949,463.5117014159914,464.1484967909928,465.145886415994,462.0826859579829,462.0826859579829,462.09488145766466,462.0826859579829,462.0826859579829,462.0826859579829,462.09488145766466,462.0826859579829,467.2046769160079,468.06640033298754,470.1294661659922,,468.06640033298754,468.06640033298754,473.2226997500111,468.478060458001,469.51284608300193,470.1294661659922,471.1663889999909,468.06640033298754,468.06640033298754,468.0229794163218,468.06640033298754,468.06640033298754,468.06640033298754,468.0229794163218,468.06640033298754,468.06640033298754,473.2226997500111,468.06640033298754,473.2226997500111,473.2226997500111,,468.06640033298754,2,1,0.6716442930046469,reldom2_s024,001,2025-02-27_11h22.28.853,Vis-A-Scan_AC,2022.2.5,None,
36,Second_Order,6.0,viswhat,stimulus/viswhat_stim/land_animal-moose.png,stimulus/viswhat_stim/land_vehicle-schoolbus.png,stimulus/viswhat_stim/land_vehicle-pickuptruck.png,stimulus/viswhat_stim/water_vehicle-canoe(1).png,stimulus/viswhat_stim/match_blank.png,stimulus/viswhat_stim/match_box.png,stimulus/viswhat_stim/match_yes.png,stimulus/viswhat_stim/match_no.png,2.0,Match,Location,Type,2,5.125,0,5.125,0,5.125,0,5.125,0,0.625,0.625,1,0.5,1,2.125,1,0.5,1,2.125,0,0,0,0,0,0,0,0,0,,,,,0,47,47,47,,,,,,,,,474.0512949579861,479.16648816599627,474.48725095798727,475.47425974998623,476.120968083007,477.110691082984,474.0512949579861,474.0512949579861,474.0600029999972,474.0512949579861,474.0512949579861,474.0512949579861,474.0600029999972,474.0512949579861,479.16648816599627,479.84656924998853,481.91890937500284,485.9673055000021,479.84656924998853,479.84656924998853,484.98402495798655,480.3014572079992,481.3154785829829,481.91890937500284,482.9389445410052,479.84656924998853,479.84656924998853,479.82990475000116,479.84656924998853,479.84656924998853,479.84656924998853,479.82990475000116,479.84656924998853,479.84656924998853,484.98402495798655,479.84656924998853,484.98402495798655,485.0326631249918,485.6613306659856,479.84656924998853,2,1,0.4809329589770641,reldom2_s024,001,2025-02-27_11h22.28.853,Vis-A-Scan_AC,2022.2.5,None,
0,0.0,None,fixation,stimulus/viswhat_stim/blank_white.png,stimulus/viswhat_stim/blank_white.png,stimulus/viswhere_stim/blank_white.png,stimulus/viswhere_stim/blank_white.png,stimulus/viswhat_stim/blank_white.png,stimulus/viswhat_stim/blank_white.png,stimulus/viswhat_stim/blank_white.png,stimulus/viswhat_stim/blank_white.png,0.0,0.0,0.0,0.0,0,0.0,0,0.0,0,0.0,0,0.0,0,0.0,0.0,0,0.0,0,0.0,0,0.0,0,0.0,0,0,0,0,0,0,0,0,8,,,,,0,48,48,48,,,,,,,,,485.9673055000021,485.9673055000021,485.9673055000021,485.9673055000021,485.9673055000021,485.9673055000021,485.9673055000021,485.9673055000021,485.8621772083182,485.9673055000021,485.9673055000021,485.9673055000021,485.8621772083182,485.9673055000021,485.9673055000021,485.9673055000021,485.9673055000021,485.9673055000021,485.9673055000021,485.9673055000021,485.9673055000021,485.9673055000021,485.9673055000021,485.9673055000021,485.9673055000021,485.9673055000021,485.9673055000021,485.92884387498486,485.9673055000021,485.9673055000021,485.9673055000021,485.92884387498486,485.9673055000021,485.9673055000021,485.9673055000021,485.9673055000021,485.9673055000021,491.17847600000096,491.17847600000096,494.1380958329828,None,0,,reldom2_s024,001,2025-02-27_11h22.28.853,Vis-A-Scan_AC,2022.2.5,None,
37,First_Order,7.0,viswhere,stimulus/viswhere_stim/blank_white.png,stimulus/viswhere_stim/blank_white.png,stimulus/viswhere_stim/120-deg_dot-right_turquoise.png,stimulus/viswhere_stim/120-deg_dot-left_slateblue.png,stimulus/viswhere_stim/blank_white.png,stimulus/viswhere_stim/line_box.png,stimulus/viswhere_stim/line_yes.png,stimulus/viswhere_stim/line_no.png,None,Line,None,Line,1,0.0,0,5.125,0,5.125,0,5.125,0,0.0,0.625,0,0.0,0,0.0,1,0.5,1,2.125,0,0,0,0,0,0,0,0,0,,,,,0,49,49,49,,,,,,,,,494.1380958329828,494.1380958329828,494.1380958329828,494.1380958329828,494.1380958329828,494.1380958329828,494.1380958329828,494.1380958329828,494.1185978746604,494.1380958329828,494.1380958329828,494.1380958329828,494.1185978746604,494.1380958329828,494.1380958329828,494.1380958329828,496.2340102499875,500.19657554099103,494.1380958329828,494.1380958329828,499.27028141598566,494.614817499998,495.6266946250107,496.2340102499875,497.24920374999056,494.1380958329828,494.1380958329828,494.1185978746604,494.1380958329828,494.1380958329828,494.1380958329828,494.1185978746604,494.1380958329828,494.1380958329828,499.27028141598566,494.1380958329828,499.27028141598566,499.35441199998604,499.97947324998677,494.1380958329828,1,1,2.9332732089969795,reldom2_s024,001,2025-02-27_11h22.28.853,Vis-A-Scan_AC,2022.2.5,None,
38,First_Order,7.0,viswhere,stimulus/viswhere_stim/blank_white.png,stimulus/viswhere_stim/blank_white.png,stimulus/viswhere_stim/30-deg_dot-right_royalblue.png,stimulus/viswhere_stim/30-deg_dot-left_royalblue.png,stimulus/viswhere_stim/blank_white.png,stimulus/viswhere_stim/dot_box.png,stimulus/viswhere_stim/dot_yes.png,stimulus/viswhere_stim/dot_no.png,None,Dot,None,Line,2,0.0,0,5.125,0,5.125,0,5.125,0,0.0,0.625,0,0.0,0,0.0,1,0.5,1,2.125,0,0,0,0,0,0,0,0,0,,,,,0,50,50,50,,,,,,,,,500.19657554099103,500.19657554099103,500.19657554099103,500.19657554099103,500.19657554099103,500.19657554099103,500.19657554099103,500.19657554099103,500.17594612432487,500.19657554099103,500.19657554099103,500.19657554099103,500.17594612432487,500.19657554099103,500.19657554099103,500.19657554099103,502.2976673329831,506.26109616601025,500.19657554099103,500.19657554099103,505.3214612909942,500.67432966598426,501.6878158749896,502.2976673329831,503.3143949160003,500.19657554099103,500.19657554099103,500.1926127909915,500.19657554099103,500.19657554099103,500.19657554099103,500.1926127909915,500.19657554099103,500.19657554099103,505.3214612909942,500.19657554099103,505.3214612909942,505.418456415995,506.044034999999,500.19657554099103,2,1,1.1395950420119334,reldom2_s024,001,2025-02-27_11h22.28.853,Vis-A-Scan_AC,2022.2.5,None,
39,First_Order,7.0,viswhere,stimulus/viswhere_stim/blank_white.png,stimulus/viswhere_stim/blank_white.png,stimulus/viswhere_stim/150-deg_dot-left_peru.png,stimulus/viswhere_stim/30-deg_dot-left_goldenrod.png,stimulus/viswhere_stim/blank_white.png,stimulus/viswhere_stim/line_box.png,stimulus/viswhere_stim/line_yes.png,stimulus/viswhere_stim/line_no.png,None,Line,None,Dot,2,0.0,0,5.125,0,5.125,0,5.125,0,0.0,0.625,0,0.0,0,0.0,1,0.5,1,2.125,0,0,0,0,0,0,0,0,0,,,,,0,51,51,51,,,,,,,,,506.26109616601025,506.26109616601025,506.26109616601025,506.26109616601025,506.26109616601025,506.26109616601025,506.26109616601025,506.26109616601025,506.23970945833327,506.26109616601025,506.26109616601025,506.26109616601025,506.23970945833327,506.26109616601025,506.26109616601025,506.26109616601025,508.37424679100513,512.3263535829901,506.26109616601025,506.26109616601025,511.3977144579985,506.7413212079846,507.7608285410097,508.37424679100513,509.3804968750046,506.26109616601025,506.26109616601025,506.2563761249999,506.26109616601025,506.26109616601025,506.26109616601025,506.2563761249999,506.26109616601025,506.26109616601025,511.3977144579985,506.26109616601025,511.3977144579985,511.4856804579904,512.1112174580048,506.26109616601025,2,1,0.8585099999909289,reldom2_s024,001,2025-02-27_11h22.28.853,Vis-A-Scan_AC,2022.2.5,None,
40,First_Order,7.0,viswhere,stimulus/viswhere_stim/blank_white.png,stimulus/viswhere_stim/blank_white.png,stimulus/viswhere_stim/120-deg_dot-left_royalblue.png,stimulus/viswhere_stim/120-deg_dot-right_slateblue.png,stimulus/viswhere_stim/blank_white.png,stimulus/viswhere_stim/dot_box.png,stimulus/viswhere_stim/dot_yes.png,stimulus/viswhere_stim/dot_no.png,None,Dot,None,Line,2,0.0,0,5.125,0,5.125,0,5.125,0,0.0,0.625,0,0.0,0,0.0,1,0.5,1,2.125,0,0,0,0,0,0,0,0,0,,,,,0,52,52,52,,,,,,,,,512.3263535829901,512.3263535829901,512.3263535829901,512.3263535829901,512.3263535829901,512.3263535829901,512.3263535829901,512.3263535829901,512.3059453743239,512.3263535829901,512.3263535829901,512.3263535829901,512.3059453743239,512.3263535829901,512.3263535829901,512.3263535829901,514.438658915984,518.4649574579962,512.3263535829901,512.3263535829901,517.4525108329835,512.8023384159897,513.8123831249832,514.438658915984,515.454862249986,512.3263535829901,512.3263535829901,512.3226120409905,512.3263535829901,512.3263535829901,512.3263535829901,512.3226120409905,512.3263535829901,512.3263535829901,517.4525108329835,512.3263535829901,517.4525108329835,517.5662348750047,518.2012021660048,512.3263535829901,2,1,0.6409027499903459,reldom2_s024,001,2025-02-27_11h22.28.853,Vis-A-Scan_AC,2022.2.5,None,
0,0.0,None,fixation,stimulus/viswhat_stim/blank_white.png,stimulus/viswhat_stim/blank_white.png,stimulus/viswhere_stim/blank_white.png,stimulus/viswhere_stim/blank_white.png,stimulus/viswhat_stim/blank_white.png,stimulus/viswhat_stim/blank_white.png,stimulus/viswhat_stim/blank_white.png,stimulus/viswhat_stim/blank_white.png,0.0,0.0,0.0,0.0,0,0.0,0,0.0,0,0.0,0,0.0,0,0.0,0.0,0,0.0,0,0.0,0,0.0,0,0.0,0,0,0,0,0,0,0,0,9,,,,,0,53,53,53,,,,,,,,,518.4649574579962,518.4649574579962,518.4649574579962,518.4649574579962,518.4649574579962,518.4649574579962,518.4649574579962,518.4649574579962,518.3678253333395,518.4649574579962,518.4649574579962,518.4649574579962,518.3678253333395,518.4649574579962,518.4649574579962,518.4649574579962,518.4649574579962,518.4649574579962,518.4649574579962,518.4649574579962,518.4649574579962,518.4649574579962,518.4649574579962,518.4649574579962,518.4649574579962,518.4649574579962,518.4649574579962,518.4178253333395,518.4649574579962,518.4649574579962,518.4649574579962,518.4178253333395,518.4649574579962,518.4649574579962,518.4649574579962,518.4649574579962,518.4649574579962,523.6559098750004,523.6559098750004,527.5744501249865,None,0,,reldom2_s024,001,2025-02-27_11h22.28.853,Vis-A-Scan_AC,2022.2.5,None,
41,Second_Order,7.0,viswhere,stimulus/viswhere_stim/90-deg_dot-right_seagreen.png,stimulus/viswhere_stim/90-deg_dot-left_salmon.png,stimulus/viswhere_stim/60-deg_dot-left_slateblue.png,stimulus/viswhere_stim/60-deg_dot-right_lightsseagreen.png,stimulus/viswhat_stim/match_blank.png,stimulus/viswhat_stim/match_box.png,stimulus/viswhat_stim/match_yes.png,stimulus/viswhat_stim/match_no.png,1.0,Match,Line,Line,1,5.125,0,5.125,0,5.125,0,5.125,0,0.75,0.75,1,0.5,1,2.125,1,0.5,1,2.125,0,0,0,0,0,0,0,0,0,,,,,0,54,54,54,,,,,,,,,527.5744501249865,532.6914507079928,528.0577963329852,529.0471754159953,529.683308415988,530.6807525409968,527.5744501249865,527.5744501249865,527.588516333317,527.5744501249865,527.5744501249865,527.5744501249865,527.588516333317,527.5744501249865,532.6914507079928,533.4981039160048,535.569452374999,539.4628812909941,533.4981039160048,533.4981039160048,538.6201050829841,533.941481707996,534.9566846250091,535.569452374999,536.5711059999885,533.4981039160048,533.4981039160048,533.4871434579952,533.4981039160048,533.4981039160048,533.4981039160048,533.4871434579952,533.4981039160048,533.4981039160048,538.6201050829841,533.4981039160048,538.6201050829841,538.6890272499877,539.4628812909941,533.4981039160048,1,1,0.6001432089833543,reldom2_s024,001,2025-02-27_11h22.28.853,Vis-A-Scan_AC,2022.2.5,None,
42,Second_Order,7.0,viswhere,stimulus/viswhere_stim/150-deg_dot-left_cyan.png,stimulus/viswhere_stim/60-deg_dot-left_royalblue.png,stimulus/viswhere_stim/30-deg_dot-right_mediumslateblue.png,stimulus/viswhere_stim/90-deg_dot-right_peru.png,stimulus/viswhat_stim/match_blank.png,stimulus/viswhat_stim/match_box.png,stimulus/viswhat_stim/match_yes.png,stimulus/viswhat_stim/match_no.png,1.0,Match,Dot,Dot,1,5.125,0,5.125,0,5.125,0,5.125,0,0.625,0.625,1,0.5,1,2.125,1,0.5,1,2.125,0,0,0,0,0,0,0,0,0,,,,,0,55,55,55,,,,,,,,,539.4628812909941,544.5834821249882,539.9393160830077,540.9374173329852,541.5727877079917,542.5611227909976,539.4628812909941,539.4628812909941,539.4769557500083,539.4628812909941,539.4628812909941,539.4628812909941,539.4769557500083,539.4628812909941,544.5834821249882,545.2517580830026,547.3311431249895,551.3679572909896,545.2517580830026,545.2517580830026,550.3774280000071,545.7138662080106,546.7270611249842,547.3311431249895,548.3390936249925,545.2517580830026,545.2517580830026,545.2311709163264,545.2517580830026,545.2517580830026,545.2517580830026,545.2311709163264,545.2517580830026,545.2517580830026,550.3774280000071,545.2517580830026,550.3774280000071,550.4469272499846,551.0738152499835,545.2517580830026,1,1,0.6840788759873249,reldom2_s024,001,2025-02-27_11h22.28.853,Vis-A-Scan_AC,2022.2.5,None,
0,0.0,None,fixation,stimulus/viswhat_stim/blank_white.png,stimulus/viswhat_stim/blank_white.png,stimulus/viswhere_stim/blank_white.png,stimulus/viswhere_stim/blank_white.png,stimulus/viswhat_stim/blank_white.png,stimulus/viswhat_stim/blank_white.png,stimulus/viswhat_stim/blank_white.png,stimulus/viswhat_stim/blank_white.png,0.0,0.0,0.0,0.0,0,0.0,0,0.0,0,0.0,0,0.0,0,0.0,0.0,0,0.0,0,0.0,0,0.0,0,0.0,0,0,0,0,0,0,0,0,8,,,,,0,56,56,56,,,,,,,,,551.3679572909896,551.3679572909896,551.3679572909896,551.3679572909896,551.3679572909896,551.3679572909896,551.3679572909896,551.3679572909896,551.2677104163353,551.3679572909896,551.3679572909896,551.3679572909896,551.2677104163353,551.3679572909896,551.3679572909896,551.3679572909896,551.3679572909896,551.3679572909896,551.3679572909896,551.3679572909896,551.3679572909896,551.3679572909896,551.3679572909896,551.3679572909896,551.3679572909896,551.3679572909896,551.3679572909896,551.3177104163352,551.3679572909896,551.3679572909896,551.3679572909896,551.3177104163352,551.3679572909896,551.3679572909896,551.3679572909896,551.3679572909896,551.3679572909896,556.5868332500104,556.5868332500104,559.5443707079976,None,0,,reldom2_s024,001,2025-02-27_11h22.28.853,Vis-A-Scan_AC,2022.2.5,None,
43,First_Order,8.0,viswhere,stimulus/viswhere_stim/blank_white.png,stimulus/viswhere_stim/blank_white.png,stimulus/viswhere_stim/150-deg_dot-left_lightsseagreen.png,stimulus/viswhere_stim/30-deg_dot-left_salmon.png,stimulus/viswhere_stim/blank_white.png,stimulus/viswhere_stim/dot_box.png,stimulus/viswhere_stim/dot_yes.png,stimulus/viswhere_stim/dot_no.png,None,Dot,None,Dot,1,0.0,0,5.125,0,5.125,0,5.125,0,0.0,0.625,0,0.0,0,0.0,1,0.5,1,2.125,0,0,0,0,0,0,0,0,0,,,,,0,57,57,57,,,,,,,,,559.5443707079976,559.5443707079976,559.5443707079976,559.5443707079976,559.5443707079976,559.5443707079976,559.5443707079976,559.5443707079976,559.5241943326643,559.5443707079976,559.5443707079976,559.5443707079976,559.5241943326643,559.5443707079976,559.5443707079976,559.5443707079976,561.6524840409984,565.6086214160023,559.5443707079976,559.5443707079976,564.6655104999954,560.0235304579837,561.0396546249976,561.6524840409984,562.6563119580096,559.5443707079976,559.5443707079976,559.5408609993309,559.5443707079976,559.5443707079976,559.5443707079976,559.5408609993309,559.5443707079976,559.5443707079976,564.6655104999954,559.5443707079976,564.6655104999954,564.7632398330024,565.3932968750014,559.5443707079976,1,1,0.7504145839775447,reldom2_s024,001,2025-02-27_11h22.28.853,Vis-A-Scan_AC,2022.2.5,None,
44,First_Order,8.0,viswhere,stimulus/viswhere_stim/blank_white.png,stimulus/viswhere_stim/blank_white.png,stimulus/viswhere_stim/150-deg_dot-right_seagreen.png,stimulus/viswhere_stim/150-deg_dot-left_goldenrod.png,stimulus/viswhere_stim/blank_white.png,stimulus/viswhere_stim/line_box.png,stimulus/viswhere_stim/line_yes.png,stimulus/viswhere_stim/line_no.png,None,Line,None,Line,1,0.0,0,5.125,0,5.125,0,5.125,0,0.0,0.625,0,0.0,0,0.0,1,0.5,1,2.125,0,0,0,0,0,0,0,0,0,,,,,0,58,58,58,,,,,,,,,565.6086214160023,565.6086214160023,565.6086214160023,565.6086214160023,565.6086214160023,565.6086214160023,565.6086214160023,565.6086214160023,565.5870593333287,565.6086214160023,565.6086214160023,565.6086214160023,565.5870593333287,565.6086214160023,565.6086214160023,565.6086214160023,567.7114908749936,571.6759244999848,565.6086214160023,565.6086214160023,570.7473127080011,566.0902469159919,567.0938604160037,567.7114908749936,568.7216925829998,565.6086214160023,565.6086214160023,565.6037259999954,565.6086214160023,565.6086214160023,565.6086214160023,565.6037259999954,565.6086214160023,565.6086214160023,570.7473127080011,565.6086214160023,570.7473127080011,570.8308447079908,571.4596979159978,565.6086214160023,1,1,0.5957844590011518,reldom2_s024,001,2025-02-27_11h22.28.853,Vis-A-Scan_AC,2022.2.5,None,
45,First_Order,8.0,viswhere,stimulus/viswhere_stim/blank_white.png,stimulus/viswhere_stim/blank_white.png,stimulus/viswhere_stim/150-deg_dot-left_seagreen.png,stimulus/viswhere_stim/60-deg_dot-left_turquoise.png,stimulus/viswhere_stim/blank_white.png,stimulus/viswhere_stim/dot_box.png,stimulus/viswhere_stim/dot_yes.png,stimulus/viswhere_stim/dot_no.png,None,Dot,None,Dot,1,0.0,0,5.125,0,5.125,0,5.125,0,0.0,0.625,0,0.0,0,0.0,1,0.5,1,2.125,0,0,0,0,0,0,0,0,0,,,,,0,59,59,59,,,,,,,,,571.6759244999848,571.6759244999848,571.6759244999848,571.6759244999848,571.6759244999848,571.6759244999848,571.6759244999848,571.6759244999848,571.654585249334,571.6759244999848,571.6759244999848,571.6759244999848,571.654585249334,571.6759244999848,571.6759244999848,571.6759244999848,573.7830984999891,577.744703208009,571.6759244999848,571.6759244999848,576.8138821249886,572.1551550409931,573.1713320830022,573.7830984999891,574.8036602080101,571.6759244999848,571.6759244999848,571.6712519160006,571.6759244999848,571.6759244999848,571.6759244999848,571.6712519160006,571.6759244999848,571.6759244999848,576.8138821249886,571.6759244999848,576.8138821249886,576.8975102500117,577.5286983329861,571.6759244999848,1,1,0.5476565840071999,reldom2_s024,001,2025-02-27_11h22.28.853,Vis-A-Scan_AC,2022.2.5,None,
46,First_Order,8.0,viswhere,stimulus/viswhere_stim/blank_white.png,stimulus/viswhere_stim/blank_white.png,stimulus/viswhere_stim/150-deg_dot-left_lightsseagreen.png,stimulus/viswhere_stim/60-deg_dot-left_royalblue.png,stimulus/viswhere_stim/blank_white.png,stimulus/viswhere_stim/line_box.png,stimulus/viswhere_stim/line_yes.png,stimulus/viswhere_stim/line_no.png,None,Line,None,Dot,2,0.0,0,5.125,0,5.125,0,5.125,0,0.0,0.625,0,0.0,0,0.0,1,0.5,1,2.125,0,0,0,0,0,0,0,0,0,,,,,0,60,60,60,,,,,,,,,577.744703208009,577.744703208009,577.744703208009,577.744703208009,577.744703208009,577.744703208009,577.744703208009,577.744703208009,577.7239250833421,577.744703208009,577.744703208009,577.744703208009,577.7239250833421,577.744703208009,577.744703208009,577.744703208009,579.8589532909973,583.8835966250044,577.744703208009,577.744703208009,582.8789217080048,578.2244718330039,579.2267610830022,579.8589532909973,580.8639778330107,577.744703208009,577.744703208009,577.7405917500088,577.744703208009,577.744703208009,577.744703208009,577.7405917500088,577.744703208009,577.744703208009,582.8789217080048,577.744703208009,582.8789217080048,582.9762924579845,583.6050860830001,577.744703208009,2,1,0.5494004169886466,reldom2_s024,001,2025-02-27_11h22.28.853,Vis-A-Scan_AC,2022.2.5,None,
0,0.0,None,fixation,stimulus/viswhat_stim/blank_white.png,stimulus/viswhat_stim/blank_white.png,stimulus/viswhere_stim/blank_white.png,stimulus/viswhere_stim/blank_white.png,stimulus/viswhat_stim/blank_white.png,stimulus/viswhat_stim/blank_white.png,stimulus/viswhat_stim/blank_white.png,stimulus/viswhat_stim/blank_white.png,0.0,0.0,0.0,0.0,0,0.0,0,0.0,0,0.0,0,0.0,0,0.0,0.0,0,0.0,0,0.0,0,0.0,0,0.0,0,0,0,0,0,0,0,0,9,,,,,0,61,61,61,,,,,,,,,583.8835966250044,583.8835966250044,583.8835966250044,583.8835966250044,583.8835966250044,583.8835966250044,583.8835966250044,583.8835966250044,583.7855242913259,583.8835966250044,583.8835966250044,583.8835966250044,583.7855242913259,583.8835966250044,583.8835966250044,583.8835966250044,583.8835966250044,583.8835966250044,583.8835966250044,583.8835966250044,583.8835966250044,583.8835966250044,583.8835966250044,583.8835966250044,583.8835966250044,583.8835966250044,583.8835966250044,583.8355242913259,583.8835966250044,583.8835966250044,583.8835966250044,583.8355242913259,583.8835966250044,583.8835966250044,583.8835966250044,583.8835966250044,583.8835966250044,589.0776463329967,589.0776463329967,592.9993182499893,None,0,,reldom2_s024,001,2025-02-27_11h22.28.853,Vis-A-Scan_AC,2022.2.5,None,
47,Second_Order,8.0,viswhere,stimulus/viswhere_stim/120-deg_dot-left_goldenrod.png,stimulus/viswhere_stim/120-deg_dot-right_seagreen.png,stimulus/viswhere_stim/90-deg_dot-left_peru.png,stimulus/viswhere_stim/90-deg_dot-right_turquoise.png,stimulus/viswhat_stim/match_blank.png,stimulus/viswhat_stim/match_box.png,stimulus/viswhat_stim/match_yes.png,stimulus/viswhat_stim/match_no.png,1.0,Match,Line,Line,1,5.125,0,5.125,0,5.125,0,5.125,0,0.75,0.75,1,0.5,1,2.125,1,0.5,1,2.125,0,0,0,0,0,0,0,0,0,,,,,0,62,62,62,,,,,,,,,592.9993182499893,598.1244662909885,593.4793341250042,594.4782375830109,595.1003895000031,596.0985580410052,592.9993182499893,592.9993182499893,593.0121612913227,592.9993182499893,592.9993182499893,592.9993182499893,593.0121612913227,592.9993182499893,598.1244662909885,598.9168279999867,600.9998150829924,604.8556384999829,598.9168279999867,598.9168279999867,604.045592999988,599.364463957987,600.3844473329955,600.9998150829924,602.0067823329882,598.9168279999867,598.9168279999867,598.8913346243285,598.9168279999867,598.9168279999867,598.9168279999867,598.8913346243285,598.9168279999867,598.9168279999867,604.045592999988,598.9168279999867,604.045592999988,604.1330176659976,,598.9168279999867,1,1,0.5771062089770567,reldom2_s024,001,2025-02-27_11h22.28.853,Vis-A-Scan_AC,2022.2.5,None,
48,Second_Order,8.0,viswhere,stimulus/viswhere_stim/150-deg_dot-right_salmon.png,stimulus/viswhere_stim/90-deg_dot-right_cyan.png,stimulus/viswhere_stim/60-deg_dot-left_mediumslateblue.png,stimulus/viswhere_stim/30-deg_dot-left_turquoise.png,stimulus/viswhat_stim/match_blank.png,stimulus/viswhat_stim/match_box.png,stimulus/viswhat_stim/match_yes.png,stimulus/viswhat_stim/match_no.png,1.0,Match,Dot,Dot,1,5.125,0,5.125,0,5.125,0,5.125,0,0.625,0.625,1,0.5,1,2.125,1,0.5,1,2.125,0,0,0,0,0,0,0,0,0,,,,,0,63,63,63,,,,,,,,,604.8926671659865,610.0141329579928,605.3732688330056,606.3602018750098,606.9966281660018,607.992267708003,604.8926671659865,604.8926671659865,604.9056384999828,604.8926671659865,604.8926671659865,604.8926671659865,604.9056384999828,604.8926671659865,610.0141329579928,610.6876787499932,612.7745967080118,616.8115878750104,610.6876787499932,610.6876787499932,615.826683791005,611.1524060000083,612.164622124983,612.7745967080118,613.7778697079921,610.6876787499932,610.6876787499932,610.6654598333193,610.6876787499932,610.6876787499932,610.6876787499932,610.6654598333193,610.6876787499932,610.6876787499932,615.826683791005,610.6876787499932,615.826683791005,615.8811900829896,616.528197415988,610.6876787499932,1,1,0.4340875419729855,reldom2_s024,001,2025-02-27_11h22.28.853,Vis-A-Scan_AC,2022.2.5,None,
0,0.0,None,fixation,stimulus/viswhat_stim/blank_white.png,stimulus/viswhat_stim/blank_white.png,stimulus/viswhere_stim/blank_white.png,stimulus/viswhere_stim/blank_white.png,stimulus/viswhat_stim/blank_white.png,stimulus/viswhat_stim/blank_white.png,stimulus/viswhat_stim/blank_white.png,stimulus/viswhat_stim/blank_white.png,0.0,0.0,0.0,0.0,0,0.0,0,0.0,0,0.0,0,0.0,0,0.0,0.0,0,0.0,0,0.0,0,0.0,0,0.0,0,0,0,0,0,0,0,0,16,,,,,0,64,64,64,,,,,,,,,616.8115878750104,616.8115878750104,616.8115878750104,616.8115878750104,616.8115878750104,616.8115878750104,616.8115878750104,616.8115878750104,616.7117298333227,616.8115878750104,616.8115878750104,616.8115878750104,616.7117298333227,616.8115878750104,616.8115878750104,616.8115878750104,616.8115878750104,616.8115878750104,616.8115878750104,616.8115878750104,616.8115878750104,616.8115878750104,616.8115878750104,616.8115878750104,616.8115878750104,616.8115878750104,616.8115878750104,616.7617298333226,616.8115878750104,616.8115878750104,616.8115878750104,616.7617298333226,616.8115878750104,616.8115878750104,616.8115878750104,616.8115878750104,616.8115878750104,622.033067249984,622.033067249984,632.9421728749876,None,0,,reldom2_s024,001,2025-02-27_11h22.28.853,Vis-A-Scan_AC,2022.2.5,None,
