Trial,Order,Block,Type,Stimuli_File1,Stimuli_File2,Stimuli_File3,Stimuli_File4,Cue_File1,Cue_File2,Response_File_Yes,Response_File_No,Match,Cue_Dimension,Pair1_Dimension,Pair2_Dimension,Key,Cue1_Duration,Cue1_Onset,Cue2_Duration,Cue2_Onset,ResponseYes_Duration,ResponseYes_Onset,ResponseNo_Duration,ResponseNo_Onset,ITI_Within,ITI_Between,Image1_Duration,Image1_Onset,Image2_Duration,Image2_Onset,Image3_Duration,Image3_Onset,Image4_Duration,Image4_Onset,Sound1_Duration,Sound1_Onset,Sound2_Duration,Sound2_Onset,Sound3_Duration,Sound3_Onset,Sound4_Duration,Sound4_Onset,Fixation_Duration,trials_2.thisRepN,trials_2.thisTrialN,trials_2.thisN,trials_2.thisIndex,trials.thisRepN,trials.thisTrialN,trials.thisN,trials.thisIndex,text_start.started,key_resp_start.started,key_resp_start.keys,key_resp_start.rt,text2.started,key_resp_2.started,key_resp_2.keys,key_resp_2.rt,cue_file1.started,cue_file1.stopped,image_1.started,image_1.stopped,image_2.started,image_2.stopped,sound_icon1.started,sound_icon1.stopped,sound_1.started,sound_1.stopped,sound_icon2.started,sound_icon2.stopped,sound_2.started,sound_2.stopped,image_blank_1.started,image_blank_1.stopped,key_press.started,key_press.stopped,fixation_text.started,cue_file2.started,cue_file2.stopped,image_3.started,image_3.stopped,image_4.started,image_4.stopped,sound_icon3.started,sound_icon3.stopped,sound_3.started,sound_3.stopped,sound_icon4.started,sound_icon4.stopped,sound_4.started,sound_4.stopped,response_yes.started,response_yes.stopped,response_no.started,response_no.stopped,iti_blank.started,iti_blank.stopped,fixation_text.stopped,key_press.keys,key_press.corr,key_press.rt,participant,session,date,expName,psychopyVersion,frameRate,
,,,,,,,,,,,,,,,,,,,,,,,,,,,,,,,,,,,,,,,,,,,,,,,,,,,,7.653918958007125,7.653918958007125,2,1.1391863329918124,,,,,,,,,,,,,,,,,,,,,,,,,,,,,,,,,,,,,,,,,,,,,,,,reldom2_s024,001,2025-02-27_11h11.31.907,Aud-A-Scan_AC,2022.2.5,None,
,,,,,,,,,,,,,,,,,,,,,,,,,,,,,,,,,,,,,,,,,,,,0,0,0,0,,,,,,,,,8.831539125007112,8.831539125007112,5,17.737640957988333,,,,,,,,,,,,,,,,,,,,,,,,,,,,,,,,,,,,,,,,,,,,reldom2_s024,001,2025-02-27_11h11.31.907,Aud-A-Scan_AC,2022.2.5,None,
,,,,,,,,,,,,,,,,,,,,,,,,,,,,,,,,,,,,,,,,,,,,1,0,1,0,,,,,,,,,26.583995916997083,26.583995916997083,5,1.9838491259724833,,,,,,,,,,,,,,,,,,,,,,,,,,,,,,,,,,,,,,,,,,,,reldom2_s024,001,2025-02-27_11h11.31.907,Aud-A-Scan_AC,2022.2.5,None,
,,,,,,,,,,,,,,,,,,,,,,,,,,,,,,,,,,,,,,,,,,,,2,0,2,0,,,,,,,,,28.596545542008244,28.596545542008244,5,1.973099666996859,,,,,,,,,,,,,,,,,,,,,,,,,,,,,,,,,,,,,,,,,,,,reldom2_s024,001,2025-02-27_11h11.31.907,Aud-A-Scan_AC,2022.2.5,None,
,,,,,,,,,,,,,,,,,,,,,,,,,,,,,,,,,,,,,,,,,,,,3,0,3,0,,,,,,,,,30.58312233298784,30.58312233298784,5,1.9857683340087533,,,,,,,,,,,,,,,,,,,,,,,,,,,,,,,,,,,,,,,,,,,,reldom2_s024,001,2025-02-27_11h11.31.907,Aud-A-Scan_AC,2022.2.5,None,
0,0.0,None,fixation,stimulus/audwhere_stim/blank_white.png,stimulus/audwhere_stim/blank_white.png,stimulus/audwhat_stim/blank_white.png,stimulus/audwhat_stim/blank_white.png,stimulus/audwhere_stim/blank_white.png,stimulus/audwhere_stim/blank_white.png,stimulus/audwhere_stim/blank_white.png,stimulus/audwhere_stim/blank_white.png,0.0,0.0,0.0,0.0,0,0.0,0,0.0,0,0.0,0,0.0,0,0.0,0.0,0,0,0,0,0,0,0,0,0,0.0,0,0.0,0,0.0,0,0.0,16,,,,,0,0,0,0,,,,,,,,,32.78892833300051,32.78892833300051,32.78892833300051,32.78892833300051,32.78892833300051,32.78892833300051,32.78892833300051,32.78892833300051,32.68843733367782,32.78892833300051,32.78892833300051,32.78892833300051,32.68843733367782,32.78892833300051,32.78892833300051,32.78892833300051,32.78892833300051,32.78892833300051,32.78892833300051,32.78892833300051,32.78892833300051,32.78892833300051,32.78892833300051,32.78892833300051,32.78892833300051,32.78892833300051,32.78892833300051,32.738437333677815,32.78892833300051,32.78892833300051,32.78892833300051,32.738437333677815,32.78892833300051,32.78892833300051,32.78892833300051,32.78892833300051,32.78892833300051,38.00527479199809,38.00527479199809,49.02132937498391,None,0,,reldom2_s024,001,2025-02-27_11h11.31.907,Aud-A-Scan_AC,2022.2.5,None,
1,First_Order,1.0,audwhere,stimulus/audwhere_stim/dummy.wav,stimulus/audwhere_stim/dummy.wav,stimulus/audwhere_stim/left_away_280h.wav,stimulus/audwhere_stim/right_away_290h.wav,stimulus/audwhere_stim/blank_white.png,stimulus/audwhere_stim/direction_box.png,stimulus/audwhere_stim/direction_yes.png,stimulus/audwhere_stim/direction_no.png,None,Direction,None,Direction,1,0.0,0,5.125,0,5.125,0,5.125,0,0.0,0.625,0,0,0,0,0,0,0,0,0,0.0,0,0.0,1,0.5,1,2.125,0,,,,,0,1,1,1,,,,,,,,,49.02132937498391,49.02132937498391,49.02132937498391,49.02132937498391,49.02132937498391,49.02132937498391,49.02132937498391,49.02132937498391,48.953590083000016,49.02132937498391,49.02132937498391,49.02132937498391,48.953590083000016,49.02132937498391,49.02132937498391,49.02132937498391,51.10950216700439,,49.02132937498391,49.02132937498391,54.17423570799292,49.02132937498391,49.02132937498391,49.02132937498391,49.02132937498391,49.51101091699093,50.577258292003535,49.48326529167049,,51.10950216700439,52.175931250007125,51.08173724965697,,49.02132937498391,54.17423570799292,49.02132937498391,54.17423570799292,54.252669375011465,54.91713158300263,49.02132937498391,1,1,1.292310708988225,reldom2_s024,001,2025-02-27_11h11.31.907,Aud-A-Scan_AC,2022.2.5,None,
2,First_Order,1.0,audwhere,stimulus/audwhere_stim/dummy.wav,stimulus/audwhere_stim/dummy.wav,stimulus/audwhere_stim/left_away_270h.wav,stimulus/audwhere_stim/left_toward_270h.wav,stimulus/audwhere_stim/blank_white.png,stimulus/audwhere_stim/direction_box.png,stimulus/audwhere_stim/direction_yes.png,stimulus/audwhere_stim/direction_no.png,None,Direction,None,Side,2,0.0,0,5.125,0,5.125,0,5.125,0,0.0,0.625,0,0,0,0,0,0,0,0,0,0.0,0,0.0,1,0.5,1,2.125,0,,,,,0,2,2,2,,,,,,,,,55.11934704199666,55.11934704199666,55.11934704199666,55.11934704199666,55.11934704199666,55.11934704199666,55.11934704199666,55.11934704199666,55.05046491633596,55.11934704199666,55.11934704199666,55.11934704199666,55.05046491633596,55.11934704199666,55.11934704199666,55.11934704199666,57.211318874993594,61.23251025000354,55.11934704199666,55.11934704199666,60.286421708005946,55.11934704199666,55.11934704199666,55.11934704199666,55.11934704199666,55.608482292009285,56.678117957984796,55.58054474965708,,57.211318874993594,58.282241499982774,57.18329916667814,,55.11934704199666,60.286421708005946,55.11934704199666,60.286421708005946,60.325534458010225,60.991328000003705,55.11934704199666,2,1,1.0251822919817641,reldom2_s024,001,2025-02-27_11h11.31.907,Aud-A-Scan_AC,2022.2.5,None,
3,First_Order,1.0,audwhere,stimulus/audwhere_stim/dummy.wav,stimulus/audwhere_stim/dummy.wav,stimulus/audwhere_stim/left_toward_300h.wav,stimulus/audwhere_stim/left_away_280h.wav,stimulus/audwhere_stim/blank_white.png,stimulus/audwhere_stim/direction_box.png,stimulus/audwhere_stim/direction_yes.png,stimulus/audwhere_stim/direction_no.png,None,Direction,None,Side,2,0.0,0,5.125,0,5.125,0,5.125,0,0.0,0.625,0,0,0,0,0,0,0,0,0,0.0,0,0.0,1,0.5,1,2.125,0,,,,,0,3,3,3,,,,,,,,,61.23251025000354,61.23251025000354,61.23251025000354,61.23251025000354,61.23251025000354,61.23251025000354,61.23251025000354,61.23251025000354,61.16375650032035,61.23251025000354,61.23251025000354,61.23251025000354,61.16375650032035,61.23251025000354,61.23251025000354,61.23251025000354,63.33068758298759,,61.23251025000354,61.23251025000354,66.4119517079962,61.23251025000354,61.23251025000354,61.23251025000354,61.23251025000354,61.72342324999045,62.7511209170043,61.69530174966009,,63.33068758298759,64.40227079199394,63.30251024966516,,61.23251025000354,66.4119517079962,61.23251025000354,66.4119517079962,66.45126533298753,67.12017312500393,61.23251025000354,2,1,1.502875457983464,reldom2_s024,001,2025-02-27_11h11.31.907,Aud-A-Scan_AC,2022.2.5,None,
4,First_Order,1.0,audwhere,stimulus/audwhere_stim/dummy.wav,stimulus/audwhere_stim/dummy.wav,stimulus/audwhere_stim/left_away_270h.wav,stimulus/audwhere_stim/left_toward_290h.wav,stimulus/audwhere_stim/blank_white.png,stimulus/audwhere_stim/side_box.png,stimulus/audwhere_stim/side_yes.png,stimulus/audwhere_stim/side_no.png,None,Side,None,Side,1,0.0,0,5.125,0,5.125,0,5.125,0,0.0,0.625,0,0,0,0,0,0,0,0,0,0.0,0,0.0,1,0.5,1,2.125,0,,,,,0,4,4,4,,,,,,,,,67.32358837500215,67.32358837500215,67.32358837500215,67.32358837500215,67.32358837500215,67.32358837500215,67.32358837500215,67.32358837500215,67.25350645833726,67.32358837500215,67.32358837500215,67.32358837500215,67.25350645833726,67.32358837500215,67.32358837500215,67.32358837500215,69.42165191698587,,67.32358837500215,67.32358837500215,72.50269283298985,67.32358837500215,67.32358837500215,67.32358837500215,67.32358837500215,67.81232858300791,68.8414027079998,67.7843340836737,,69.42165191698587,70.4930714170041,69.3933833336671,,67.32358837500215,72.50269283298985,67.32358837500215,72.50269283298985,72.5417827499914,73.2112008749973,67.32358837500215,1,1,1.171925750997616,reldom2_s024,001,2025-02-27_11h11.31.907,Aud-A-Scan_AC,2022.2.5,None,
0,0.0,None,fixation,stimulus/audwhere_stim/blank_white.png,stimulus/audwhere_stim/blank_white.png,stimulus/audwhat_stim/blank_white.png,stimulus/audwhat_stim/blank_white.png,stimulus/audwhere_stim/blank_white.png,stimulus/audwhere_stim/blank_white.png,stimulus/audwhere_stim/blank_white.png,stimulus/audwhere_stim/blank_white.png,0.0,0.0,0.0,0.0,0,0.0,0,0.0,0,0.0,0,0.0,0,0.0,0.0,0,0,0,0,0,0,0,0,0,0.0,0,0.0,0,0.0,0,0.0,9,,,,,0,5,5,5,,,,,,,,,73.43372008300503,73.43372008300503,73.43372008300503,73.43372008300503,73.43372008300503,73.43372008300503,73.43372008300503,73.43372008300503,73.34453420833063,73.43372008300503,73.43372008300503,73.43372008300503,73.34453420833063,73.43372008300503,73.43372008300503,73.43372008300503,73.43372008300503,73.43372008300503,73.43372008300503,73.43372008300503,73.43372008300503,73.43372008300503,73.43372008300503,73.43372008300503,73.43372008300503,73.43372008300503,73.43372008300503,73.39453420833064,73.43372008300503,73.43372008300503,73.43372008300503,73.39453420833064,73.43372008300503,73.43372008300503,73.43372008300503,73.43372008300503,73.43372008300503,78.66769566698349,78.66769566698349,82.56900316700921,None,0,,reldom2_s024,001,2025-02-27_11h11.31.907,Aud-A-Scan_AC,2022.2.5,None,
5,Second_Order,1.0,audwhere,stimulus/audwhere_stim/left_away_290h.wav,stimulus/audwhere_stim/right_away_300h.wav,stimulus/audwhere_stim/right_toward_290h.wav,stimulus/audwhere_stim/left_toward_300h.wav,stimulus/audwhere_stim/match_blank.png,stimulus/audwhere_stim/match_box.png,stimulus/audwhere_stim/match_yes.png,stimulus/audwhere_stim/match_no.png,1.0,Match,Direction,Direction,1,5.125,0,5.125,0,5.125,0,5.125,0,0.75,0.75,0,0,0,0,0,0,0,0,1,0.5,1,2.125,1,0.5,1,2.125,0,,,,,0,6,6,6,,,,,,,,,82.56900316700921,87.6867164580035,82.56900316700921,82.56900316700921,82.56900316700921,82.56900316700921,83.02585316699697,84.02348825000809,83.03834449965895,,84.64585695799906,85.64362441698904,84.65832645865545,,87.6867164580035,88.53666058299132,90.58831591700437,,88.53666058299132,88.53666058299132,93.72283116698964,88.53666058299132,88.53666058299132,88.53666058299132,88.53666058299132,88.98293050000211,90.0534495000029,88.95486970866138,,90.58831591700437,91.61868179199519,90.5591433336706,,88.53666058299132,93.72283116698964,88.53666058299132,93.72283116698964,93.72283116698964,,88.53666058299132,1,1,1.2809124590130523,reldom2_s024,001,2025-02-27_11h11.31.907,Aud-A-Scan_AC,2022.2.5,None,
6,Second_Order,1.0,audwhere,stimulus/audwhere_stim/left_away_280h.wav,stimulus/audwhere_stim/right_away_280h.wav,stimulus/audwhere_stim/left_away_300h.wav,stimulus/audwhere_stim/left_toward_280h.wav,stimulus/audwhere_stim/match_blank.png,stimulus/audwhere_stim/match_box.png,stimulus/audwhere_stim/match_yes.png,stimulus/audwhere_stim/match_no.png,2.0,Match,Direction,Side,2,5.125,0,5.125,0,5.125,0,5.125,0,0.625,0.625,0,0,0,0,0,0,0,0,1,0.5,1,2.125,1,0.5,1,2.125,0,,,,,0,7,7,7,,,,,,,,,94.50451299999258,99.62606954199146,94.50451299999258,94.50451299999258,94.50451299999258,94.50451299999258,94.96510095798294,95.95478779199766,94.9689097086705,,96.5936832499865,97.59218629199313,96.60245458365922,,99.62606954199146,100.36224524999852,102.41253616698668,106.4637000829971,100.36224524999852,100.36224524999852,105.53527437499724,100.36224524999852,100.36224524999852,100.36224524999852,100.36224524999852,100.80759333301103,101.83477225000388,100.77976412466184,,102.41253616698668,103.4409342079889,102.38448966667444,,100.36224524999852,105.53527437499724,100.36224524999852,105.53527437499724,105.53527437499724,106.2007711250044,100.36224524999852,2,1,0.9195762919844128,reldom2_s024,001,2025-02-27_11h11.31.907,Aud-A-Scan_AC,2022.2.5,None,
0,0.0,None,fixation,stimulus/audwhere_stim/blank_white.png,stimulus/audwhere_stim/blank_white.png,stimulus/audwhat_stim/blank_white.png,stimulus/audwhat_stim/blank_white.png,stimulus/audwhere_stim/blank_white.png,stimulus/audwhere_stim/blank_white.png,stimulus/audwhere_stim/blank_white.png,stimulus/audwhere_stim/blank_white.png,0.0,0.0,0.0,0.0,0,0.0,0,0.0,0,0.0,0,0.0,0,0.0,0.0,0,0,0,0,0,0,0,0,0,0.0,0,0.0,0,0.0,0,0.0,10,,,,,0,8,8,8,,,,,,,,,106.4637000829971,106.4637000829971,106.4637000829971,106.4637000829971,106.4637000829971,106.4637000829971,106.4637000829971,106.4637000829971,106.37329933332705,106.4637000829971,106.4637000829971,106.4637000829971,106.37329933332705,106.4637000829971,106.4637000829971,106.4637000829971,106.4637000829971,106.4637000829971,106.4637000829971,106.4637000829971,106.4637000829971,106.4637000829971,106.4637000829971,106.4637000829971,106.4637000829971,106.4637000829971,106.4637000829971,106.42329933332707,106.4637000829971,106.4637000829971,106.4637000829971,106.42329933332707,106.4637000829971,106.4637000829971,106.4637000829971,106.4637000829971,106.4637000829971,111.65619770798367,111.65619770798367,116.72587291698437,None,0,,reldom2_s024,001,2025-02-27_11h11.31.907,Aud-A-Scan_AC,2022.2.5,None,
7,First_Order,2.0,audwhere,stimulus/audwhere_stim/dummy.wav,stimulus/audwhere_stim/dummy.wav,stimulus/audwhere_stim/left_away_300h.wav,stimulus/audwhere_stim/right_away_300h.wav,stimulus/audwhere_stim/blank_white.png,stimulus/audwhere_stim/side_box.png,stimulus/audwhere_stim/side_yes.png,stimulus/audwhere_stim/side_no.png,None,Side,None,Direction,2,0.0,0,5.125,0,5.125,0,5.125,0,0.0,0.625,0,0,0,0,0,0,0,0,0,0.0,0,0.0,1,0.5,1,2.125,0,,,,,0,9,9,9,,,,,,,,,116.72587291698437,116.72587291698437,116.72587291698437,116.72587291698437,116.72587291698437,116.72587291698437,116.72587291698437,116.72587291698437,116.64330416700105,116.72587291698437,116.72587291698437,116.72587291698437,116.64330416700105,116.72587291698437,116.72587291698437,116.72587291698437,118.80437154200627,122.84706695799832,116.72587291698437,116.72587291698437,121.8836016249843,116.72587291698437,116.72587291698437,116.72587291698437,116.72587291698437,117.17760529200314,118.2154239169904,117.1491353746717,,118.80437154200627,119.84411999999429,118.77580729165153,,116.72587291698437,121.8836016249843,116.72587291698437,121.8836016249843,121.92282512498787,122.59951554200961,116.72587291698437,2,1,1.1374785010120831,reldom2_s024,001,2025-02-27_11h11.31.907,Aud-A-Scan_AC,2022.2.5,None,
8,First_Order,2.0,audwhere,stimulus/audwhere_stim/dummy.wav,stimulus/audwhere_stim/dummy.wav,stimulus/audwhere_stim/left_away_280h.wav,stimulus/audwhere_stim/right_away_270h.wav,stimulus/audwhere_stim/blank_white.png,stimulus/audwhere_stim/side_box.png,stimulus/audwhere_stim/side_yes.png,stimulus/audwhere_stim/side_no.png,None,Side,None,Direction,2,0.0,0,5.125,0,5.125,0,5.125,0,0.0,0.625,0,0,0,0,0,0,0,0,0,0.0,0,0.0,1,0.5,1,2.125,0,,,,,0,10,10,10,,,,,,,,,122.84706695799832,122.84706695799832,122.84706695799832,122.84706695799832,122.84706695799832,122.84706695799832,122.84706695799832,122.84706695799832,122.77316154132325,122.84706695799832,122.84706695799832,122.84706695799832,122.77316154132325,122.84706695799832,122.84706695799832,122.84706695799832,124.93088574998546,,122.84706695799832,122.84706695799832,128.01460941700498,122.84706695799832,122.84706695799832,122.84706695799832,122.84706695799832,123.30021004198352,124.34192829200765,123.27136299966175,,124.93088574998546,125.97735995799303,124.90193158365243,125.93154170800699,122.84706695799832,128.01460941700498,122.84706695799832,128.01460941700498,128.05498870799784,128.73592483298853,122.84706695799832,2,1,0.6989482499775477,reldom2_s024,001,2025-02-27_11h11.31.907,Aud-A-Scan_AC,2022.2.5,None,
9,First_Order,2.0,audwhere,stimulus/audwhere_stim/dummy.wav,stimulus/audwhere_stim/dummy.wav,stimulus/audwhere_stim/left_away_280h.wav,stimulus/audwhere_stim/right_away_300h.wav,stimulus/audwhere_stim/blank_white.png,stimulus/audwhere_stim/direction_box.png,stimulus/audwhere_stim/direction_yes.png,stimulus/audwhere_stim/direction_no.png,None,Direction,None,Direction,1,0.0,0,5.125,0,5.125,0,5.125,0,0.0,0.625,0,0,0,0,0,0,0,0,0,0.0,0,0.0,1,0.5,1,2.125,0,,,,,0,11,11,11,,,,,,,,,128.94336725000176,128.94336725000176,128.94336725000176,128.94336725000176,128.94336725000176,128.94336725000176,128.94336725000176,128.94336725000176,128.86925816632188,128.94336725000176,128.94336725000176,128.94336725000176,128.86925816632188,128.94336725000176,128.94336725000176,128.94336725000176,131.04655216698302,,128.94336725000176,128.94336725000176,134.1136750000005,128.94336725000176,128.94336725000176,128.94336725000176,128.94336725000176,129.40030004200526,130.45159224999952,129.37101949967135,,131.04655216698302,132.1011653750029,131.01733499966602,,128.94336725000176,134.1136750000005,128.94336725000176,134.1136750000005,134.154447332985,134.8375713749847,128.94336725000176,1,1,1.5246887499815784,reldom2_s024,001,2025-02-27_11h11.31.907,Aud-A-Scan_AC,2022.2.5,None,
10,First_Order,2.0,audwhere,stimulus/audwhere_stim/dummy.wav,stimulus/audwhere_stim/dummy.wav,stimulus/audwhere_stim/right_away_270h.wav,stimulus/audwhere_stim/right_toward_300h.wav,stimulus/audwhere_stim/blank_white.png,stimulus/audwhere_stim/side_box.png,stimulus/audwhere_stim/side_yes.png,stimulus/audwhere_stim/side_no.png,None,Side,None,Side,1,0.0,0,5.125,0,5.125,0,5.125,0,0.0,0.625,0,0,0,0,0,0,0,0,0,0.0,0,0.0,1,0.5,1,2.125,0,,,,,0,12,12,12,,,,,,,,,135.0459472920047,135.0459472920047,135.0459472920047,135.0459472920047,135.0459472920047,135.0459472920047,135.0459472920047,135.0459472920047,134.97090470831805,135.0459472920047,135.0459472920047,135.0459472920047,134.97090470831805,135.0459472920047,135.0459472920047,135.0459472920047,137.14265533300932,141.19359849998727,135.0459472920047,135.0459472920047,140.19914758298546,135.0459472920047,135.0459472920047,135.0459472920047,135.0459472920047,135.5008575829852,136.55042441698606,135.4716214996627,,137.14265533300932,138.19705629200325,137.11370520867447,,135.0459472920047,140.19914758298546,135.0459472920047,140.19914758298546,140.23959499999182,140.9240066249913,135.0459472920047,1,1,0.7708059169817716,reldom2_s024,001,2025-02-27_11h11.31.907,Aud-A-Scan_AC,2022.2.5,None,
0,0.0,None,fixation,stimulus/audwhere_stim/blank_white.png,stimulus/audwhere_stim/blank_white.png,stimulus/audwhat_stim/blank_white.png,stimulus/audwhat_stim/blank_white.png,stimulus/audwhere_stim/blank_white.png,stimulus/audwhere_stim/blank_white.png,stimulus/audwhere_stim/blank_white.png,stimulus/audwhere_stim/blank_white.png,0.0,0.0,0.0,0.0,0,0.0,0,0.0,0,0.0,0,0.0,0,0.0,0.0,0,0,0,0,0,0,0,0,0,0.0,0,0.0,0,0.0,0,0.0,8,,,,,0,13,13,13,,,,,,,,,141.19359849998727,141.19359849998727,141.19359849998727,141.19359849998727,141.19359849998727,141.19359849998727,141.19359849998727,141.19359849998727,141.09720566633237,141.19359849998727,141.19359849998727,141.19359849998727,141.09720566633237,141.19359849998727,141.19359849998727,141.19359849998727,141.19359849998727,141.19359849998727,141.19359849998727,141.19359849998727,141.19359849998727,141.19359849998727,141.19359849998727,141.19359849998727,141.19359849998727,141.19359849998727,141.19359849998727,141.14720566633235,141.19359849998727,141.19359849998727,141.19359849998727,141.14720566633235,141.19359849998727,141.19359849998727,141.19359849998727,141.19359849998727,141.19359849998727,146.38617499999236,146.38617499999236,149.36603441700572,None,0,,reldom2_s024,001,2025-02-27_11h11.31.907,Aud-A-Scan_AC,2022.2.5,None,
11,Second_Order,2.0,audwhere,stimulus/audwhere_stim/left_away_280h.wav,stimulus/audwhere_stim/left_toward_280h.wav,stimulus/audwhere_stim/right_toward_280h.wav,stimulus/audwhere_stim/left_toward_270h.wav,stimulus/audwhere_stim/match_blank.png,stimulus/audwhere_stim/match_box.png,stimulus/audwhere_stim/match_yes.png,stimulus/audwhere_stim/match_no.png,2.0,Match,Side,Direction,2,5.125,0,5.125,0,5.125,0,5.125,0,0.75,0.75,0,0,0,0,0,0,0,0,1,0.5,1,2.125,1,0.5,1,2.125,0,,,,,0,14,14,14,,,,,,,,,149.36603441700572,154.48595508298604,149.36603441700572,149.36603441700572,149.36603441700572,149.36603441700572,149.82575074999477,150.81436254200526,149.82770899965934,150.81436254200526,151.45076999999583,152.44855308299884,151.46300137465394,,154.48595508298604,155.33956337498967,157.4189719170099,,155.33956337498967,155.33956337498967,160.5069776669843,155.33956337498967,155.33956337498967,155.33956337498967,155.33956337498967,155.79007550000097,156.830843542004,155.76125179167528,,157.4189719170099,158.46393554200768,157.39004533365758,,155.33956337498967,160.5069776669843,155.33956337498967,160.5069776669843,160.5069776669843,,155.33956337498967,2,1,1.8960717089939862,reldom2_s024,001,2025-02-27_11h11.31.907,Aud-A-Scan_AC,2022.2.5,None,
12,Second_Order,2.0,audwhere,stimulus/audwhere_stim/left_away_300h.wav,stimulus/audwhere_stim/right_away_270h.wav,stimulus/audwhere_stim/left_toward_280h.wav,stimulus/audwhere_stim/right_toward_280h.wav,stimulus/audwhere_stim/match_blank.png,stimulus/audwhere_stim/match_box.png,stimulus/audwhere_stim/match_yes.png,stimulus/audwhere_stim/match_no.png,1.0,Match,Direction,Direction,1,5.125,0,5.125,0,5.125,0,5.125,0,0.625,0.625,0,0,0,0,0,0,0,0,1,0.5,1,2.125,1,0.5,1,2.125,0,,,,,0,15,15,15,,,,,,,,,161.30299108300824,166.41768254199997,161.30299108300824,161.30299108300824,161.30299108300824,161.30299108300824,161.7550276670081,162.74220675000106,161.76918433365452,,163.37867991699022,164.37557620799635,163.3901242086761,,166.41768254199997,167.14715079200687,169.21630008300417,,167.14715079200687,167.14715079200687,172.33717508299742,167.14715079200687,167.14715079200687,167.14715079200687,167.14715079200687,167.59551354200812,168.63077741698362,167.56727574966888,,169.21630008300417,170.25702258298406,169.18798154165077,,167.14715079200687,172.33717508299742,167.14715079200687,172.33717508299742,172.33717508299742,173.01448141699075,167.14715079200687,1,1,0.9489747920015361,reldom2_s024,001,2025-02-27_11h11.31.907,Aud-A-Scan_AC,2022.2.5,None,
0,0.0,None,fixation,stimulus/audwhere_stim/blank_white.png,stimulus/audwhere_stim/blank_white.png,stimulus/audwhat_stim/blank_white.png,stimulus/audwhat_stim/blank_white.png,stimulus/audwhere_stim/blank_white.png,stimulus/audwhere_stim/blank_white.png,stimulus/audwhere_stim/blank_white.png,stimulus/audwhere_stim/blank_white.png,0.0,0.0,0.0,0.0,0,0.0,0,0.0,0,0.0,0,0.0,0,0.0,0.0,0,0,0,0,0,0,0,0,0,0.0,0,0.0,0,0.0,0,0.0,8,,,,,0,16,16,16,,,,,,,,,173.24146308298805,173.24146308298805,173.24146308298805,173.24146308298805,173.24146308298805,173.24146308298805,173.24146308298805,173.24146308298805,173.1478147503241,173.24146308298805,173.24146308298805,173.24146308298805,173.1478147503241,173.24146308298805,173.24146308298805,173.24146308298805,173.24146308298805,173.24146308298805,173.24146308298805,173.24146308298805,173.24146308298805,173.24146308298805,173.24146308298805,173.24146308298805,173.24146308298805,173.24146308298805,173.24146308298805,173.19781475032408,173.24146308298805,173.24146308298805,173.24146308298805,173.19781475032408,173.24146308298805,173.24146308298805,173.24146308298805,173.24146308298805,173.24146308298805,178.438231542008,178.438231542008,181.49398904200643,None,0,,reldom2_s024,001,2025-02-27_11h11.31.907,Aud-A-Scan_AC,2022.2.5,None,
13,First_Order,3.0,audwhat,stimulus/audwhat_stim/dummy.wav,stimulus/audwhat_stim/dummy.wav,stimulus/audwhat_stim/percussion xylophone_high-pitch_F_loud.wav,stimulus/audwhat_stim/percussion mallet_low-pitch_Dtri_loud.wav,stimulus/audwhat_stim/blank_white.png,stimulus/audwhat_stim/category_box.png,stimulus/audwhat_stim/category_yes.png,stimulus/audwhat_stim/category_no.png,None,Category,None,Category,1,0.0,0,5.125,0,5.125,0,5.125,0,0.0,0.625,0,0,0,0,0,0,0,0,0,0.0,0,0.0,1,0.5,1,2.125,0,,,,,0,17,17,17,,,,,,,,,181.49398904200643,181.49398904200643,181.49398904200643,181.49398904200643,181.49398904200643,181.49398904200643,181.49398904200643,181.49398904200643,181.42428979165078,181.49398904200643,181.49398904200643,181.49398904200643,181.42428979165078,181.49398904200643,181.49398904200643,181.49398904200643,183.60058662499068,187.60968491699896,181.49398904200643,181.49398904200643,186.6747423330089,181.49398904200643,181.49398904200643,181.49398904200643,181.49398904200643,181.95228054199833,183.00715870800195,181.92292437467066,182.96202087498386,183.60058662499068,184.6585012919968,183.57104962465044,,181.49398904200643,186.6747423330089,181.49398904200643,186.6747423330089,186.71511804198963,187.3971209169831,181.49398904200643,1,1,1.1262208750122227,reldom2_s024,001,2025-02-27_11h11.31.907,Aud-A-Scan_AC,2022.2.5,None,
14,First_Order,3.0,audwhat,stimulus/audwhat_stim/dummy.wav,stimulus/audwhat_stim/dummy.wav,stimulus/audwhat_stim/string cello_low-pitch_Ftri_loud.wav,stimulus/audwhat_stim/string viola_high-pitch_F_loud.wav,stimulus/audwhat_stim/blank_white.png,stimulus/audwhat_stim/category_box.png,stimulus/audwhat_stim/category_yes.png,stimulus/audwhat_stim/category_no.png,None,Category,None,Category,1,0.0,0,5.125,0,5.125,0,5.125,0,0.0,0.625,0,0,0,0,0,0,0,0,0,0.0,0,0.0,1,0.5,1,2.125,0,,,,,0,18,18,18,,,,,,,,,187.60968491699896,187.60968491699896,187.60968491699896,187.60968491699896,187.60968491699896,187.60968491699896,187.60968491699896,187.60968491699896,187.53045425031647,187.60968491699896,187.60968491699896,187.60968491699896,187.53045425031647,187.60968491699896,187.60968491699896,187.60968491699896,189.71890154198627,193.73685225000372,187.60968491699896,187.60968491699896,192.80078504199628,187.60968491699896,187.60968491699896,187.60968491699896,187.60968491699896,188.06786441701115,189.12329533300363,188.03795404165092,,189.71890154198627,190.7823426249961,189.68968629165127,,187.60968491699896,192.80078504199628,187.60968491699896,192.80078504199628,192.80078504199628,193.4836666249903,187.60968491699896,1,1,0.7976169589965139,reldom2_s024,001,2025-02-27_11h11.31.907,Aud-A-Scan_AC,2022.2.5,None,
15,First_Order,3.0,audwhat,stimulus/audwhat_stim/dummy.wav,stimulus/audwhat_stim/dummy.wav,stimulus/audwhat_stim/string viola_low-pitch_D_loud.wav,stimulus/audwhat_stim/percussion mallet_low-pitch_D_loud.wav,stimulus/audwhat_stim/blank_white.png,stimulus/audwhat_stim/pitch_box.png,stimulus/audwhat_stim/pitch_yes.png,stimulus/audwhat_stim/pitch_no.png,None,Pitch,None,Pitch,1,0.0,0,5.125,0,5.125,0,5.125,0,0.0,0.625,0,0,0,0,0,0,0,0,0,0.0,0,0.0,1,0.5,1,2.125,0,,,,,0,19,19,19,,,,,,,,,193.73685225000372,193.73685225000372,193.73685225000372,193.73685225000372,193.73685225000372,193.73685225000372,193.73685225000372,193.73685225000372,193.65691808331954,193.73685225000372,193.73685225000372,193.73685225000372,193.65691808331954,193.73685225000372,193.73685225000372,193.73685225000372,195.84297579200938,199.8521598750085,193.73685225000372,193.73685225000372,198.9161578330095,193.73685225000372,193.73685225000372,193.73685225000372,193.73685225000372,194.1931794169941,195.2474524579884,194.16358358366804,,195.84297579200938,196.90011354201124,195.81394091665086,,193.73685225000372,198.9161578330095,193.73685225000372,198.9161578330095,198.95625720798853,199.63930941699073,193.73685225000372,1,1,1.3670015839743428,reldom2_s024,001,2025-02-27_11h11.31.907,Aud-A-Scan_AC,2022.2.5,None,
16,First_Order,3.0,audwhat,stimulus/audwhat_stim/dummy.wav,stimulus/audwhat_stim/dummy.wav,stimulus/audwhat_stim/string cello_low-pitch_D_loud.wav,stimulus/audwhat_stim/string viola_high-pitch_Dtri_loud.wav,stimulus/audwhat_stim/blank_white.png,stimulus/audwhat_stim/pitch_box.png,stimulus/audwhat_stim/pitch_yes.png,stimulus/audwhat_stim/pitch_no.png,None,Pitch,None,Category,2,0.0,0,5.125,0,5.125,0,5.125,0,0.0,0.625,0,0,0,0,0,0,0,0,0,0.0,0,0.0,1,0.5,1,2.125,0,,,,,0,20,20,20,,,,,,,,,199.8521598750085,199.8521598750085,199.8521598750085,199.8521598750085,199.8521598750085,199.8521598750085,199.8521598750085,199.8521598750085,199.77264275032408,199.8521598750085,199.8521598750085,199.8521598750085,199.77264275032408,199.8521598750085,199.8521598750085,199.8521598750085,201.9614100419858,,199.8521598750085,199.8521598750085,205.04174254200188,199.8521598750085,199.8521598750085,199.8521598750085,199.8521598750085,200.30815979200997,201.36407487498946,200.2791247916505,,201.9614100419858,203.02216904200031,201.93189379165804,,199.8521598750085,205.04174254200188,199.8521598750085,205.04174254200188,205.04174254200188,205.72924675000831,199.8521598750085,1,0,1.0393631669867318,reldom2_s024,001,2025-02-27_11h11.31.907,Aud-A-Scan_AC,2022.2.5,None,
0,0.0,None,fixation,stimulus/audwhere_stim/blank_white.png,stimulus/audwhere_stim/blank_white.png,stimulus/audwhat_stim/blank_white.png,stimulus/audwhat_stim/blank_white.png,stimulus/audwhere_stim/blank_white.png,stimulus/audwhere_stim/blank_white.png,stimulus/audwhere_stim/blank_white.png,stimulus/audwhere_stim/blank_white.png,0.0,0.0,0.0,0.0,0,0.0,0,0.0,0,0.0,0,0.0,0,0.0,0.0,0,0,0,0,0,0,0,0,0,0.0,0,0.0,0,0.0,0,0.0,8,,,,,0,21,21,21,,,,,,,,,205.9597106250003,205.9597106250003,205.9597106250003,205.9597106250003,205.9597106250003,205.9597106250003,205.9597106250003,205.9597106250003,205.86258008334167,205.9597106250003,205.9597106250003,205.9597106250003,205.86258008334167,205.9597106250003,205.9597106250003,205.9597106250003,205.9597106250003,205.9597106250003,205.9597106250003,205.9597106250003,205.9597106250003,205.9597106250003,205.9597106250003,205.9597106250003,205.9597106250003,205.9597106250003,205.9597106250003,205.91258008334165,205.9597106250003,205.9597106250003,205.9597106250003,205.91258008334165,205.9597106250003,205.9597106250003,205.9597106250003,205.9597106250003,205.9597106250003,211.1433730830031,211.1433730830031,214.0910773749929,None,0,,reldom2_s024,001,2025-02-27_11h11.31.907,Aud-A-Scan_AC,2022.2.5,None,
17,Second_Order,3.0,audwhat,stimulus/audwhat_stim/percussion mallet_high-pitch_F_loud.wav,stimulus/audwhat_stim/string viola_high-pitch_F_loud.wav,stimulus/audwhat_stim/string cello_low-pitch_Ftri_loud.wav,stimulus/audwhat_stim/string cello_high-pitch_Dtri_loud.wav,stimulus/audwhere_stim/match_blank.png,stimulus/audwhat_stim/match_box.png,stimulus/audwhere_stim/match_yes.png,stimulus/audwhere_stim/match_no.png,2.0,Match,Pitch,Category,2,5.125,0,5.125,0,5.125,0,5.125,0,0.75,0.75,0,0,0,0,0,0,0,0,1,0.5,1,2.125,1,0.5,1,2.125,0,,,,,0,22,22,22,,,,,,,,,214.0910773749929,219.2075344999903,214.0910773749929,214.0910773749929,214.0910773749929,214.0910773749929,214.55882029200438,215.54749795800308,214.5587430416529,,216.16668208298506,217.16445554199163,216.17879429166013,,219.2075344999903,220.0589242920105,222.10094812500756,226.04435545799788,220.0589242920105,220.0589242920105,225.24745758299832,220.0589242920105,220.0589242920105,220.0589242920105,220.0589242920105,220.51083520799875,221.55616408298374,220.48199108365614,,222.10094812500756,223.15341904200613,222.0720884996738,,220.0589242920105,225.24745758299832,220.0589242920105,225.24745758299832,225.24745758299832,,220.0589242920105,2,1,2.6346821249753702,reldom2_s024,001,2025-02-27_11h11.31.907,Aud-A-Scan_AC,2022.2.5,None,
18,Second_Order,3.0,audwhat,stimulus/audwhat_stim/string viola_low-pitch_F_loud.wav,stimulus/audwhat_stim/percussion mallet_low-pitch_F_loud.wav,stimulus/audwhat_stim/percussion mallet_high-pitch_Ftri_loud.wav,stimulus/audwhat_stim/string cello_high-pitch_Ftri_loud.wav,stimulus/audwhere_stim/match_blank.png,stimulus/audwhat_stim/match_box.png,stimulus/audwhere_stim/match_yes.png,stimulus/audwhere_stim/match_no.png,1.0,Match,Pitch,Pitch,1,5.125,0,5.125,0,5.125,0,5.125,0,0.625,0.625,0,0,0,0,0,0,0,0,1,0.5,1,2.125,1,0.5,1,2.125,0,,,,,0,23,23,23,,,,,,,,,226.04435545799788,231.16790720800054,226.04435545799788,226.04435545799788,226.04435545799788,226.04435545799788,226.50595841699396,227.505078666989,226.51932229166076,,228.12784974998794,229.12543645800906,228.13996374965453,,231.16790720800054,231.89740862499457,233.97320416700677,238.00478037499124,231.89740862499457,231.89740862499457,237.05932199998642,231.89740862499457,231.89740862499457,231.89740862499457,231.89740862499457,232.34603091698955,233.38548379199347,232.31752008365973,,233.97320416700677,235.01923274999717,233.94426770866656,,231.89740862499457,237.05932199998642,231.89740862499457,237.05932199998642,237.05932199998642,237.7366752079979,231.89740862499457,1,1,0.7756823339732364,reldom2_s024,001,2025-02-27_11h11.31.907,Aud-A-Scan_AC,2022.2.5,None,
0,0.0,None,fixation,stimulus/audwhere_stim/blank_white.png,stimulus/audwhere_stim/blank_white.png,stimulus/audwhat_stim/blank_white.png,stimulus/audwhat_stim/blank_white.png,stimulus/audwhere_stim/blank_white.png,stimulus/audwhere_stim/blank_white.png,stimulus/audwhere_stim/blank_white.png,stimulus/audwhere_stim/blank_white.png,0.0,0.0,0.0,0.0,0,0.0,0,0.0,0,0.0,0,0.0,0,0.0,0.0,0,0,0,0,0,0,0,0,0,0.0,0,0.0,0,0.0,0,0.0,9,,,,,0,24,24,24,,,,,,,,,238.00478037499124,238.00478037499124,238.00478037499124,238.00478037499124,238.00478037499124,238.00478037499124,238.00478037499124,238.00478037499124,237.9100350833343,238.00478037499124,238.00478037499124,238.00478037499124,237.9100350833343,238.00478037499124,238.00478037499124,238.00478037499124,238.00478037499124,238.00478037499124,238.00478037499124,238.00478037499124,238.00478037499124,238.00478037499124,238.00478037499124,238.00478037499124,238.00478037499124,238.00478037499124,238.00478037499124,237.96003508333428,238.00478037499124,238.00478037499124,238.00478037499124,237.96003508333428,238.00478037499124,238.00478037499124,238.00478037499124,238.00478037499124,238.00478037499124,243.23482183300075,243.23482183300075,247.24193345798994,None,0,,reldom2_s024,001,2025-02-27_11h11.31.907,Aud-A-Scan_AC,2022.2.5,None,
19,First_Order,4.0,audwhat,stimulus/audwhat_stim/dummy.wav,stimulus/audwhat_stim/dummy.wav,stimulus/audwhat_stim/percussion mallet_low-pitch_D_loud.wav,stimulus/audwhat_stim/string viola_low-pitch_D_loud.wav,stimulus/audwhat_stim/blank_white.png,stimulus/audwhat_stim/category_box.png,stimulus/audwhat_stim/category_yes.png,stimulus/audwhat_stim/category_no.png,None,Category,None,Pitch,2,0.0,0,5.125,0,5.125,0,5.125,0,0.0,0.625,0,0,0,0,0,0,0,0,0,0.0,0,0.0,1,0.5,1,2.125,0,,,,,0,25,25,25,,,,,,,,,247.24193345798994,247.24193345798994,247.24193345798994,247.24193345798994,247.24193345798994,247.24193345798994,247.24193345798994,247.24193345798994,247.17373341666342,247.24193345798994,247.24193345798994,247.24193345798994,247.17373341666342,247.24193345798994,247.24193345798994,247.24193345798994,249.35609495799872,253.3700532919902,247.24193345798994,247.24193345798994,252.3936102919979,247.24193345798994,247.24193345798994,247.24193345798994,247.24193345798994,247.70077749999473,248.76114645801135,247.67116683366865,,249.35609495799872,250.41568199999165,249.32655537466442,,247.24193345798994,252.3936102919979,247.24193345798994,252.3936102919979,252.43390320800245,253.11890358300298,247.24193345798994,2,1,1.8871561670093797,reldom2_s024,001,2025-02-27_11h11.31.907,Aud-A-Scan_AC,2022.2.5,None,
20,First_Order,4.0,audwhat,stimulus/audwhat_stim/dummy.wav,stimulus/audwhat_stim/dummy.wav,stimulus/audwhat_stim/percussion xylophone_high-pitch_Dtri_loud.wav,stimulus/audwhat_stim/string cello_high-pitch_Dtri_loud.wav,stimulus/audwhat_stim/blank_white.png,stimulus/audwhat_stim/pitch_box.png,stimulus/audwhat_stim/pitch_yes.png,stimulus/audwhat_stim/pitch_no.png,None,Pitch,None,Pitch,1,0.0,0,5.125,0,5.125,0,5.125,0,0.0,0.625,0,0,0,0,0,0,0,0,0,0.0,0,0.0,1,0.5,1,2.125,0,,,,,0,26,26,26,,,,,,,,,253.3700532919902,253.3700532919902,253.3700532919902,253.3700532919902,253.3700532919902,253.3700532919902,253.3700532919902,253.3700532919902,253.2926461663175,253.3700532919902,253.3700532919902,253.3700532919902,253.2926461663175,253.3700532919902,253.3700532919902,253.3700532919902,255.47723099999712,259.4888974170026,253.3700532919902,253.3700532919902,258.5510997500096,253.3700532919902,253.3700532919902,253.3700532919902,253.3700532919902,253.82767483300995,254.88329550001072,253.79861187466693,254.83781050000107,255.47723099999712,256.53782970798784,255.44766849966643,,253.3700532919902,258.5510997500096,253.3700532919902,258.5510997500096,258.5929681249836,259.27891824999824,253.3700532919902,1,1,0.5618388750008307,reldom2_s024,001,2025-02-27_11h11.31.907,Aud-A-Scan_AC,2022.2.5,None,
21,First_Order,4.0,audwhat,stimulus/audwhat_stim/dummy.wav,stimulus/audwhat_stim/dummy.wav,stimulus/audwhat_stim/string viola_low-pitch_D_loud.wav,stimulus/audwhat_stim/percussion mallet_low-pitch_D_loud.wav,stimulus/audwhat_stim/blank_white.png,stimulus/audwhat_stim/category_box.png,stimulus/audwhat_stim/category_yes.png,stimulus/audwhat_stim/category_no.png,None,Category,None,Pitch,2,0.0,0,5.125,0,5.125,0,5.125,0,0.0,0.625,0,0,0,0,0,0,0,0,0,0.0,0,0.0,1,0.5,1,2.125,0,,,,,0,27,27,27,,,,,,,,,259.4888974170026,259.4888974170026,259.4888974170026,259.4888974170026,259.4888974170026,259.4888974170026,259.4888974170026,259.4888974170026,259.41225158333157,259.4888974170026,259.4888974170026,259.4888974170026,259.41225158333157,259.4888974170026,259.4888974170026,259.4888974170026,261.5704815830104,265.60902249999344,259.4888974170026,259.4888974170026,264.6637333749968,259.4888974170026,259.4888974170026,259.4888974170026,259.4888974170026,259.95152608299395,261.0165585000068,259.92159716666015,,261.5704815830104,262.63380104198586,261.54052712466023,,259.4888974170026,264.6637333749968,259.4888974170026,264.6637333749968,264.7048080829845,265.3544626249932,259.4888974170026,2,1,1.6276520839892328,reldom2_s024,001,2025-02-27_11h11.31.907,Aud-A-Scan_AC,2022.2.5,None,
22,First_Order,4.0,audwhat,stimulus/audwhat_stim/dummy.wav,stimulus/audwhat_stim/dummy.wav,stimulus/audwhat_stim/string viola_low-pitch_Ftri_loud.wav,stimulus/audwhat_stim/string cello_high-pitch_D_loud.wav,stimulus/audwhat_stim/blank_white.png,stimulus/audwhat_stim/pitch_box.png,stimulus/audwhat_stim/pitch_yes.png,stimulus/audwhat_stim/pitch_no.png,None,Pitch,None,Category,2,0.0,0,5.125,0,5.125,0,5.125,0,0.0,0.625,0,0,0,0,0,0,0,0,0,0.0,0,0.0,1,0.5,1,2.125,0,,,,,0,28,28,28,,,,,,,,,265.60902249999344,265.60902249999344,265.60902249999344,265.60902249999344,265.60902249999344,265.60902249999344,265.60902249999344,265.60902249999344,265.5275580833278,265.60902249999344,265.60902249999344,265.60902249999344,265.5275580833278,265.60902249999344,265.60902249999344,265.60902249999344,267.6816720000061,,265.60902249999344,265.60902249999344,270.7710306670051,265.60902249999344,265.60902249999344,265.60902249999344,265.60902249999344,266.07044224999845,267.12916154199047,266.0408150416663,,267.6816720000061,268.7456457919907,267.65188216665797,,265.60902249999344,270.7710306670051,265.60902249999344,270.7710306670051,270.8116646249837,271.460215041996,265.60902249999344,2,1,1.320389416971011,reldom2_s024,001,2025-02-27_11h11.31.907,Aud-A-Scan_AC,2022.2.5,None,
0,0.0,None,fixation,stimulus/audwhere_stim/blank_white.png,stimulus/audwhere_stim/blank_white.png,stimulus/audwhat_stim/blank_white.png,stimulus/audwhat_stim/blank_white.png,stimulus/audwhere_stim/blank_white.png,stimulus/audwhere_stim/blank_white.png,stimulus/audwhere_stim/blank_white.png,stimulus/audwhere_stim/blank_white.png,0.0,0.0,0.0,0.0,0,0.0,0,0.0,0,0.0,0,0.0,0,0.0,0.0,0,0,0,0,0,0,0,0,0,0.0,0,0.0,0,0.0,0,0.0,10,,,,,0,29,29,29,,,,,,,,,271.73189304198604,271.73189304198604,271.73189304198604,271.73189304198604,271.73189304198604,271.73189304198604,271.73189304198604,271.73189304198604,271.6340135413358,271.73189304198604,271.73189304198604,271.73189304198604,271.6340135413358,271.73189304198604,271.73189304198604,271.73189304198604,271.73189304198604,271.73189304198604,271.73189304198604,271.73189304198604,271.73189304198604,271.73189304198604,271.73189304198604,271.73189304198604,271.73189304198604,271.73189304198604,271.73189304198604,271.6840135413358,271.73189304198604,271.73189304198604,271.73189304198604,271.6840135413358,271.73189304198604,271.73189304198604,271.73189304198604,271.73189304198604,271.73189304198604,276.9253101249924,276.9253101249924,281.87330529198516,None,0,,reldom2_s024,001,2025-02-27_11h11.31.907,Aud-A-Scan_AC,2022.2.5,None,
23,Second_Order,4.0,audwhat,stimulus/audwhat_stim/string cello_low-pitch_F_loud.wav,stimulus/audwhat_stim/string cello_high-pitch_Ftri_loud.wav,stimulus/audwhat_stim/percussion mallet_high-pitch_Ftri_loud.wav,stimulus/audwhat_stim/percussion mallet_low-pitch_F_loud.wav,stimulus/audwhere_stim/match_blank.png,stimulus/audwhat_stim/match_box.png,stimulus/audwhere_stim/match_yes.png,stimulus/audwhere_stim/match_no.png,1.0,Match,Category,Category,1,5.125,0,5.125,0,5.125,0,5.125,0,0.75,0.75,0,0,0,0,0,0,0,0,1,0.5,1,2.125,1,0.5,1,2.125,0,,,,,0,30,30,30,,,,,,,,,281.87330529198516,286.9971324999933,281.87330529198516,281.87330529198516,281.87330529198516,281.87330529198516,282.3310487919953,283.32038345799083,282.3333678336678,,283.95718858300825,284.95472687500296,283.968913333669,,286.9971324999933,287.8468050000083,289.91321233299095,,287.8468050000083,287.8468050000083,293.0062368749932,287.8468050000083,287.8468050000083,287.8468050000083,287.8468050000083,288.3048517499992,289.36103245799313,288.2752592916697,,289.91321233299095,290.9814308329951,289.88339654167453,,287.8468050000083,293.0062368749932,287.8468050000083,293.0062368749932,293.0062368749932,,287.8468050000083,1,1,1.5716525420139078,reldom2_s024,001,2025-02-27_11h11.31.907,Aud-A-Scan_AC,2022.2.5,None,
24,Second_Order,4.0,audwhat,stimulus/audwhat_stim/percussion xylophone_high-pitch_Dtri_loud.wav,stimulus/audwhat_stim/percussion mallet_low-pitch_D_loud.wav,stimulus/audwhat_stim/string cello_low-pitch_Ftri_loud.wav,stimulus/audwhat_stim/string viola_high-pitch_D_loud.wav,stimulus/audwhere_stim/match_blank.png,stimulus/audwhat_stim/match_box.png,stimulus/audwhere_stim/match_yes.png,stimulus/audwhere_stim/match_no.png,1.0,Match,Category,Category,1,5.125,0,5.125,0,5.125,0,5.125,0,0.625,0.625,0,0,0,0,0,0,0,0,1,0.5,1,2.125,1,0.5,1,2.125,0,,,,,0,31,31,31,,,,,,,,,293.8126995000057,298.9375774170039,293.8126995000057,293.8126995000057,293.8126995000057,293.8126995000057,294.2609267499938,295.2484038749826,294.2753210836711,295.2660032080021,295.91375433298526,296.901311833004,295.9138939166771,296.901311833004,298.9375774170039,299.66404012500425,301.73642854200443,,299.66404012500425,299.66404012500425,304.83284854199155,299.66404012500425,299.66404012500425,299.66404012500425,299.66404012500425,300.0849012499966,301.12110237500747,300.0548784586756,,301.73642854200443,302.8037440420012,301.70667308365614,,299.66404012500425,304.83284854199155,299.66404012500425,304.83284854199155,304.83284854199155,305.4840850830078,299.66404012500425,1,1,0.8497306669887621,reldom2_s024,001,2025-02-27_11h11.31.907,Aud-A-Scan_AC,2022.2.5,None,
0,0.0,None,fixation,stimulus/audwhere_stim/blank_white.png,stimulus/audwhere_stim/blank_white.png,stimulus/audwhat_stim/blank_white.png,stimulus/audwhat_stim/blank_white.png,stimulus/audwhere_stim/blank_white.png,stimulus/audwhere_stim/blank_white.png,stimulus/audwhere_stim/blank_white.png,stimulus/audwhere_stim/blank_white.png,0.0,0.0,0.0,0.0,0,0.0,0,0.0,0,0.0,0,0.0,0,0.0,0.0,0,0,0,0,0,0,0,0,0,0.0,0,0.0,0,0.0,0,0.0,9,,,,,0,32,32,32,,,,,,,,,305.75822283298476,305.75822283298476,305.75822283298476,305.75822283298476,305.75822283298476,305.75822283298476,305.75822283298476,305.75822283298476,305.6576548753384,305.75822283298476,305.75822283298476,305.75822283298476,305.6576548753384,305.75822283298476,305.75822283298476,305.75822283298476,305.75822283298476,305.75822283298476,305.75822283298476,305.75822283298476,305.75822283298476,305.75822283298476,305.75822283298476,305.75822283298476,305.75822283298476,305.75822283298476,305.75822283298476,305.7076548753384,305.75822283298476,305.75822283298476,305.75822283298476,305.7076548753384,305.75822283298476,305.75822283298476,305.75822283298476,305.75822283298476,305.75822283298476,310.97304037498543,310.97304037498543,314.9943420419877,None,0,,reldom2_s024,001,2025-02-27_11h11.31.907,Aud-A-Scan_AC,2022.2.5,None,
25,First_Order,5.0,audwhere,stimulus/audwhere_stim/dummy.wav,stimulus/audwhere_stim/dummy.wav,stimulus/audwhere_stim/right_away_300h.wav,stimulus/audwhere_stim/right_toward_300h.wav,stimulus/audwhere_stim/blank_white.png,stimulus/audwhere_stim/direction_box.png,stimulus/audwhere_stim/direction_yes.png,stimulus/audwhere_stim/direction_no.png,None,Direction,None,Side,2,0.0,0,5.125,0,5.125,0,5.125,0,0.0,0.625,0,0,0,0,0,0,0,0,0,0.0,0,0.0,1,0.5,1,2.125,0,,,,,0,33,33,33,,,,,,,,,314.9943420419877,314.9943420419877,314.9943420419877,314.9943420419877,314.9943420419877,314.9943420419877,314.9943420419877,314.9943420419877,314.92304024965654,314.9943420419877,314.9943420419877,314.9943420419877,314.92304024965654,314.9943420419877,314.9943420419877,314.9943420419877,317.1011027919885,321.1201505420031,314.9943420419877,314.9943420419877,320.1604979170079,314.9943420419877,314.9943420419877,314.9943420419877,314.9943420419877,315.4587220000103,316.5260185000079,315.42879341665343,,317.1011027919885,318.15151991700986,317.06903820866523,,314.9943420419877,320.1604979170079,314.9943420419877,320.1604979170079,320.2016057499859,320.8558721249865,314.9943420419877,2,1,1.4522529169917107,reldom2_s024,001,2025-02-27_11h11.31.907,Aud-A-Scan_AC,2022.2.5,None,
26,First_Order,5.0,audwhere,stimulus/audwhere_stim/dummy.wav,stimulus/audwhere_stim/dummy.wav,stimulus/audwhere_stim/right_away_280h.wav,stimulus/audwhere_stim/left_away_270h.wav,stimulus/audwhere_stim/blank_white.png,stimulus/audwhere_stim/side_box.png,stimulus/audwhere_stim/side_yes.png,stimulus/audwhere_stim/side_no.png,None,Side,None,Direction,2,0.0,0,5.125,0,5.125,0,5.125,0,0.0,0.625,0,0,0,0,0,0,0,0,0,0.0,0,0.0,1,0.5,1,2.125,0,,,,,0,34,34,34,,,,,,,,,321.1201505420031,321.1201505420031,321.1201505420031,321.1201505420031,321.1201505420031,321.1201505420031,321.1201505420031,321.1201505420031,321.0466256669955,321.1201505420031,321.1201505420031,321.1201505420031,321.0466256669955,321.1201505420031,321.1201505420031,321.1201505420031,323.21447187499143,,321.1201505420031,321.1201505420031,326.29655495801126,321.1201505420031,321.1201505420031,321.1201505420031,321.1201505420031,321.5755086670106,322.640101958008,321.54348904165477,,323.21447187499143,324.25477574998513,323.18368008366474,,321.1201505420031,326.29655495801126,321.1201505420031,326.29655495801126,326.3376404999872,326.99424354199436,321.1201505420031,2,1,0.6405444580013864,reldom2_s024,001,2025-02-27_11h11.31.907,Aud-A-Scan_AC,2022.2.5,None,
27,First_Order,5.0,audwhere,stimulus/audwhere_stim/dummy.wav,stimulus/audwhere_stim/dummy.wav,stimulus/audwhere_stim/left_away_300h.wav,stimulus/audwhere_stim/right_away_290h.wav,stimulus/audwhere_stim/blank_white.png,stimulus/audwhere_stim/direction_box.png,stimulus/audwhere_stim/direction_yes.png,stimulus/audwhere_stim/direction_no.png,None,Direction,None,Direction,1,0.0,0,5.125,0,5.125,0,5.125,0,0.0,0.625,0,0,0,0,0,0,0,0,0,0.0,0,0.0,1,0.5,1,2.125,0,,,,,0,35,35,35,,,,,,,,,327.2083341249963,327.2083341249963,327.2083341249963,327.2083341249963,327.2083341249963,327.2083341249963,327.2083341249963,327.2083341249963,327.1275768753277,327.2083341249963,327.2083341249963,327.2083341249963,327.1275768753277,327.2083341249963,327.2083341249963,327.2083341249963,329.31111512499047,,327.2083341249963,327.2083341249963,332.39413433300797,327.2083341249963,327.2083341249963,327.2083341249963,327.2083341249963,327.67565945800743,328.70544658298604,327.64538212467255,,329.31111512499047,330.34047704198747,329.28122316665053,,327.2083341249963,332.39413433300797,327.2083341249963,332.39413433300797,332.4356802919938,333.0950247499859,327.2083341249963,1,1,1.518200791993877,reldom2_s024,001,2025-02-27_11h11.31.907,Aud-A-Scan_AC,2022.2.5,None,
28,First_Order,5.0,audwhere,stimulus/audwhere_stim/dummy.wav,stimulus/audwhere_stim/dummy.wav,stimulus/audwhere_stim/left_away_290h.wav,stimulus/audwhere_stim/right_away_280h.wav,stimulus/audwhere_stim/blank_white.png,stimulus/audwhere_stim/direction_box.png,stimulus/audwhere_stim/direction_yes.png,stimulus/audwhere_stim/direction_no.png,None,Direction,None,Direction,1,0.0,0,5.125,0,5.125,0,5.125,0,0.0,0.625,0,0,0,0,0,0,0,0,0,0.0,0,0.0,1,0.5,1,2.125,0,,,,,0,36,36,36,,,,,,,,,333.30865216700477,333.30865216700477,333.30865216700477,333.30865216700477,333.30865216700477,333.30865216700477,333.30865216700477,333.30865216700477,333.2283580833192,333.30865216700477,333.30865216700477,333.30865216700477,333.2283580833192,333.30865216700477,333.30865216700477,333.30865216700477,335.41056729198317,,333.30865216700477,333.30865216700477,338.4873801250069,333.30865216700477,333.30865216700477,333.30865216700477,333.30865216700477,333.7746789169905,334.8051254579914,333.7445467916589,,335.41056729198317,336.4840981249872,335.3804677496703,,333.30865216700477,338.4873801250069,333.30865216700477,338.4873801250069,338.52880170798744,339.18675962500856,333.30865216700477,1,1,0.9991159579949453,reldom2_s024,001,2025-02-27_11h11.31.907,Aud-A-Scan_AC,2022.2.5,None,
0,0.0,None,fixation,stimulus/audwhere_stim/blank_white.png,stimulus/audwhere_stim/blank_white.png,stimulus/audwhat_stim/blank_white.png,stimulus/audwhat_stim/blank_white.png,stimulus/audwhere_stim/blank_white.png,stimulus/audwhere_stim/blank_white.png,stimulus/audwhere_stim/blank_white.png,stimulus/audwhere_stim/blank_white.png,0.0,0.0,0.0,0.0,0,0.0,0,0.0,0,0.0,0,0.0,0,0.0,0.0,0,0,0,0,0,0,0,0,0,0.0,0,0.0,0,0.0,0,0.0,9,,,,,0,37,37,37,,,,,,,,,339.4209414999932,339.4209414999932,339.4209414999932,339.4209414999932,339.4209414999932,339.4209414999932,339.4209414999932,339.4209414999932,339.3200929583419,339.4209414999932,339.4209414999932,339.4209414999932,339.3200929583419,339.4209414999932,339.4209414999932,339.4209414999932,339.4209414999932,339.4209414999932,339.4209414999932,339.4209414999932,339.4209414999932,339.4209414999932,339.4209414999932,339.4209414999932,339.4209414999932,339.4209414999932,339.4209414999932,339.3700929583419,339.4209414999932,339.4209414999932,339.4209414999932,339.3700929583419,339.4209414999932,339.4209414999932,339.4209414999932,339.4209414999932,339.4209414999932,344.62368595800945,344.62368595800945,348.56859066701145,None,0,,reldom2_s024,001,2025-02-27_11h11.31.907,Aud-A-Scan_AC,2022.2.5,None,
29,Second_Order,5.0,audwhere,stimulus/audwhere_stim/right_toward_270h.wav,stimulus/audwhere_stim/right_away_280h.wav,stimulus/audwhere_stim/left_toward_290h.wav,stimulus/audwhere_stim/left_away_290h.wav,stimulus/audwhere_stim/match_blank.png,stimulus/audwhere_stim/match_box.png,stimulus/audwhere_stim/match_yes.png,stimulus/audwhere_stim/match_no.png,1.0,Match,Side,Side,1,5.125,0,5.125,0,5.125,0,5.125,0,0.75,0.75,0,0,0,0,0,0,0,0,1,0.5,1,2.125,1,0.5,1,2.125,0,,,,,0,38,38,38,,,,,,,,,348.56859066701145,353.68489720800426,348.56859066701145,348.56859066701145,348.56859066701145,348.56859066701145,349.02319095798885,350.0213321670017,349.035811791666,,350.6438743750041,351.6419387499918,350.656125166661,,353.68489720800426,354.53416608300176,356.612905624992,,354.53416608300176,354.53416608300176,359.7071057079884,354.53416608300176,354.53416608300176,354.53416608300176,354.53416608300176,354.9487592919904,356.00950841698796,354.919547749658,,356.612905624992,357.67695279201143,356.5820991246767,,354.53416608300176,359.7071057079884,354.53416608300176,359.7071057079884,359.7071057079884,,354.53416608300176,1,1,0.9471674590022303,reldom2_s024,001,2025-02-27_11h11.31.907,Aud-A-Scan_AC,2022.2.5,None,
30,Second_Order,5.0,audwhere,stimulus/audwhere_stim/left_toward_300h.wav,stimulus/audwhere_stim/left_away_290h.wav,stimulus/audwhere_stim/right_away_290h.wav,stimulus/audwhere_stim/right_toward_280h.wav,stimulus/audwhere_stim/match_blank.png,stimulus/audwhere_stim/match_box.png,stimulus/audwhere_stim/match_yes.png,stimulus/audwhere_stim/match_no.png,1.0,Match,Side,Side,1,5.125,0,5.125,0,5.125,0,5.125,0,0.625,0.625,0,0,0,0,0,0,0,0,1,0.5,1,2.125,1,0.5,1,2.125,0,,,,,0,39,39,39,,,,,,,,,360.51571145799244,365.6283957079868,360.51571145799244,360.51571145799244,360.51571145799244,360.51571145799244,360.96702454198385,361.96568591700634,360.97989441667255,,362.6005387920013,363.5898837079876,362.6076687496718,,365.6283957079868,366.35875574999955,368.41325174999656,,366.35875574999955,366.35875574999955,371.5323666250042,366.35875574999955,366.35875574999955,366.35875574999955,366.35875574999955,366.81454437499633,367.8621285420086,366.78526458365764,,368.41325174999656,369.4703487920051,368.3839287086778,,366.35875574999955,371.5323666250042,366.35875574999955,371.5323666250042,371.5323666250042,372.2180605829926,366.35875574999955,1,1,1.6505037920142058,reldom2_s024,001,2025-02-27_11h11.31.907,Aud-A-Scan_AC,2022.2.5,None,
0,0.0,None,fixation,stimulus/audwhere_stim/blank_white.png,stimulus/audwhere_stim/blank_white.png,stimulus/audwhat_stim/blank_white.png,stimulus/audwhat_stim/blank_white.png,stimulus/audwhere_stim/blank_white.png,stimulus/audwhere_stim/blank_white.png,stimulus/audwhere_stim/blank_white.png,stimulus/audwhere_stim/blank_white.png,0.0,0.0,0.0,0.0,0,0.0,0,0.0,0,0.0,0,0.0,0,0.0,0.0,0,0,0,0,0,0,0,0,0,0.0,0,0.0,0,0.0,0,0.0,9,,,,,0,40,40,40,,,,,,,,,372.4499641250004,372.4499641250004,372.4499641250004,372.4499641250004,372.4499641250004,372.4499641250004,372.4499641250004,372.4499641250004,372.35139391632595,372.4499641250004,372.4499641250004,372.4499641250004,372.35139391632595,372.4499641250004,372.4499641250004,372.4499641250004,372.4499641250004,372.4499641250004,372.4499641250004,372.4499641250004,372.4499641250004,372.4499641250004,372.4499641250004,372.4499641250004,372.4499641250004,372.4499641250004,372.4499641250004,372.40139391632596,372.4499641250004,372.4499641250004,372.4499641250004,372.40139391632596,372.4499641250004,372.4499641250004,372.4499641250004,372.4499641250004,372.4499641250004,377.6410738749837,377.6410738749837,381.6994809579919,None,0,,reldom2_s024,001,2025-02-27_11h11.31.907,Aud-A-Scan_AC,2022.2.5,None,
31,First_Order,6.0,audwhere,stimulus/audwhere_stim/dummy.wav,stimulus/audwhere_stim/dummy.wav,stimulus/audwhere_stim/left_away_300h.wav,stimulus/audwhere_stim/left_toward_300h.wav,stimulus/audwhere_stim/blank_white.png,stimulus/audwhere_stim/side_box.png,stimulus/audwhere_stim/side_yes.png,stimulus/audwhere_stim/side_no.png,None,Side,None,Side,1,0.0,0,5.125,0,5.125,0,5.125,0,0.0,0.625,0,0,0,0,0,0,0,0,0,0.0,0,0.0,1,0.5,1,2.125,0,,,,,0,41,41,41,,,,,,,,,381.6994809579919,381.6994809579919,381.6994809579919,381.6994809579919,381.6994809579919,381.6994809579919,381.6994809579919,381.6994809579919,381.6282951246636,381.6994809579919,381.6994809579919,381.6994809579919,381.6282951246636,381.6994809579919,381.6994809579919,381.6994809579919,383.7740099579969,,381.6994809579919,381.6994809579919,386.8628314170055,381.6994809579919,381.6994809579919,381.6994809579919,381.6994809579919,382.15974987499067,383.22115525000845,382.1298863336599,,383.7740099579969,384.8400585830095,383.74509012466683,,381.6994809579919,386.8628314170055,381.6994809579919,386.8628314170055,386.90388083300786,387.5523261670023,381.6994809579919,1,1,0.9612181669799611,reldom2_s024,001,2025-02-27_11h11.31.907,Aud-A-Scan_AC,2022.2.5,None,
32,First_Order,6.0,audwhere,stimulus/audwhere_stim/dummy.wav,stimulus/audwhere_stim/dummy.wav,stimulus/audwhere_stim/right_away_270h.wav,stimulus/audwhere_stim/left_away_280h.wav,stimulus/audwhere_stim/blank_white.png,stimulus/audwhere_stim/side_box.png,stimulus/audwhere_stim/side_yes.png,stimulus/audwhere_stim/side_no.png,None,Side,None,Direction,2,0.0,0,5.125,0,5.125,0,5.125,0,0.0,0.625,0,0,0,0,0,0,0,0,0,0.0,0,0.0,1,0.5,1,2.125,0,,,,,0,42,42,42,,,,,,,,,387.803793375002,387.803793375002,387.803793375002,387.803793375002,387.803793375002,387.803793375002,387.803793375002,387.803793375002,387.72665995834006,387.803793375002,387.803793375002,387.803793375002,387.72665995834006,387.803793375002,387.803793375002,387.803793375002,389.8811167079839,393.9168824169901,387.803793375002,387.803793375002,392.97365008300403,387.803793375002,387.803793375002,387.803793375002,387.803793375002,388.26548337499844,389.3267446249956,388.2359325836626,,389.8811167079839,390.9474877080065,389.8513077086575,,387.803793375002,392.97365008300403,387.803793375002,392.97365008300403,393.01449712499743,393.6643109580036,387.803793375002,2,1,0.7113880419929046,reldom2_s024,001,2025-02-27_11h11.31.907,Aud-A-Scan_AC,2022.2.5,None,
33,First_Order,6.0,audwhere,stimulus/audwhere_stim/dummy.wav,stimulus/audwhere_stim/dummy.wav,stimulus/audwhere_stim/left_toward_270h.wav,stimulus/audwhere_stim/left_away_270h.wav,stimulus/audwhere_stim/blank_white.png,stimulus/audwhere_stim/direction_box.png,stimulus/audwhere_stim/direction_yes.png,stimulus/audwhere_stim/direction_no.png,None,Direction,None,Side,2,0.0,0,5.125,0,5.125,0,5.125,0,0.0,0.625,0,0,0,0,0,0,0,0,0,0.0,0,0.0,1,0.5,1,2.125,0,,,,,0,43,43,43,,,,,,,,,393.9168824169901,393.9168824169901,393.9168824169901,393.9168824169901,393.9168824169901,393.9168824169901,393.9168824169901,393.9168824169901,393.83842416631717,393.9168824169901,393.9168824169901,393.9168824169901,393.83842416631717,393.9168824169901,393.9168824169901,393.9168824169901,396.009937750001,,393.9168824169901,393.9168824169901,399.0777134170057,393.9168824169901,393.9168824169901,393.9168824169901,393.9168824169901,394.3823753329925,395.45349250000436,394.3527399996567,,396.009937750001,397.0812344169826,395.98006145866043,,393.9168824169901,399.0777134170057,393.9168824169901,399.0777134170057,399.11874291699496,399.77065595801105,393.9168824169901,2,1,2.141023416974349,reldom2_s024,001,2025-02-27_11h11.31.907,Aud-A-Scan_AC,2022.2.5,None,
34,First_Order,6.0,audwhere,stimulus/audwhere_stim/dummy.wav,stimulus/audwhere_stim/dummy.wav,stimulus/audwhere_stim/left_toward_300h.wav,stimulus/audwhere_stim/left_away_300h.wav,stimulus/audwhere_stim/blank_white.png,stimulus/audwhere_stim/side_box.png,stimulus/audwhere_stim/side_yes.png,stimulus/audwhere_stim/side_no.png,None,Side,None,Side,1,0.0,0,5.125,0,5.125,0,5.125,0,0.0,0.625,0,0,0,0,0,0,0,0,0,0.0,0,0.0,1,0.5,1,2.125,0,,,,,0,44,44,44,,,,,,,,,400.0241799170035,400.0241799170035,400.0241799170035,400.0241799170035,400.0241799170035,400.0241799170035,400.0241799170035,400.0241799170035,399.9446665833258,400.0241799170035,400.0241799170035,400.0241799170035,399.9446665833258,400.0241799170035,400.0241799170035,400.0241799170035,402.1059586670017,406.16963424999267,400.0241799170035,400.0241799170035,405.20388645800995,400.0241799170035,400.0241799170035,400.0241799170035,400.0241799170035,400.486873249989,401.55173591698986,400.4569206666531,,402.1059586670017,403.1735048329865,402.0765275416527,,400.0241799170035,405.20388645800995,400.0241799170035,405.20388645800995,405.2448322499986,405.8964106249914,400.0241799170035,1,1,0.6610455829941202,reldom2_s024,001,2025-02-27_11h11.31.907,Aud-A-Scan_AC,2022.2.5,None,
0,0.0,None,fixation,stimulus/audwhere_stim/blank_white.png,stimulus/audwhere_stim/blank_white.png,stimulus/audwhat_stim/blank_white.png,stimulus/audwhat_stim/blank_white.png,stimulus/audwhere_stim/blank_white.png,stimulus/audwhere_stim/blank_white.png,stimulus/audwhere_stim/blank_white.png,stimulus/audwhere_stim/blank_white.png,0.0,0.0,0.0,0.0,0,0.0,0,0.0,0,0.0,0,0.0,0,0.0,0.0,0,0,0,0,0,0,0,0,0,0.0,0,0.0,0,0.0,0,0.0,10,,,,,0,45,45,45,,,,,,,,,406.16963424999267,406.16963424999267,406.16963424999267,406.16963424999267,406.16963424999267,406.16963424999267,406.16963424999267,406.16963424999267,406.06973345834024,406.16963424999267,406.16963424999267,406.16963424999267,406.06973345834024,406.16963424999267,406.16963424999267,406.16963424999267,406.16963424999267,406.16963424999267,406.16963424999267,406.16963424999267,406.16963424999267,406.16963424999267,406.16963424999267,406.16963424999267,406.16963424999267,406.16963424999267,406.16963424999267,406.11973345834025,406.16963424999267,406.16963424999267,406.16963424999267,406.11973345834025,406.16963424999267,406.16963424999267,406.16963424999267,406.16963424999267,406.16963424999267,411.39086816698546,411.39086816698546,416.3291734170052,None,0,,reldom2_s024,001,2025-02-27_11h11.31.907,Aud-A-Scan_AC,2022.2.5,None,
35,Second_Order,6.0,audwhere,stimulus/audwhere_stim/left_away_280h.wav,stimulus/audwhere_stim/left_toward_300h.wav,stimulus/audwhere_stim/right_away_280h.wav,stimulus/audwhere_stim/right_toward_300h.wav,stimulus/audwhere_stim/match_blank.png,stimulus/audwhere_stim/match_box.png,stimulus/audwhere_stim/match_yes.png,stimulus/audwhere_stim/match_no.png,1.0,Match,Side,Side,1,5.125,0,5.125,0,5.125,0,5.125,0,0.75,0.75,0,0,0,0,0,0,0,0,1,0.5,1,2.125,1,0.5,1,2.125,0,,,,,0,46,46,46,,,,,,,,,416.3291734170052,421.4532751670049,416.3291734170052,416.3291734170052,416.3291734170052,416.3291734170052,416.77963512498536,417.7782801249996,416.7922984996733,,418.41285195798264,419.40171479200944,418.41651620867583,,421.4532751670049,422.3056517080113,424.37050349998754,,422.3056517080113,422.3056517080113,427.4593328330084,422.3056517080113,422.3056517080113,422.3056517080113,422.3056517080113,422.71935804199893,423.7734251669899,422.6898422496781,,424.37050349998754,425.431834041985,424.3413595836648,,422.3056517080113,427.4593328330084,422.3056517080113,427.4593328330084,427.50022358298884,,422.3056517080113,1,1,1.6836259579868056,reldom2_s024,001,2025-02-27_11h11.31.907,Aud-A-Scan_AC,2022.2.5,None,
36,Second_Order,6.0,audwhere,stimulus/audwhere_stim/left_away_290h.wav,stimulus/audwhere_stim/left_toward_270h.wav,stimulus/audwhere_stim/left_toward_290h.wav,stimulus/audwhere_stim/right_toward_270h.wav,stimulus/audwhere_stim/match_blank.png,stimulus/audwhere_stim/match_box.png,stimulus/audwhere_stim/match_yes.png,stimulus/audwhere_stim/match_no.png,2.0,Match,Side,Direction,2,5.125,0,5.125,0,5.125,0,5.125,0,0.625,0.625,0,0,0,0,0,0,0,0,1,0.5,1,2.125,1,0.5,1,2.125,0,,,,,0,47,47,47,,,,,,,,,428.2669532499858,433.3855002920027,428.2669532499858,428.2669532499858,428.2669532499858,428.2669532499858,428.7242634999857,429.7222068749834,428.737044624668,429.7256252919906,430.34555912500946,431.34226616699016,430.3570961246771,,433.3855002920027,434.11582091700984,436.1703714999894,,434.11582091700984,434.11582091700984,439.2873676669842,434.11582091700984,434.11582091700984,434.11582091700984,434.11582091700984,434.5691569169867,435.6204170830024,434.5400303746612,,436.1703714999894,437.2252373750089,436.14087870865865,,434.11582091700984,439.2873676669842,434.11582091700984,439.2873676669842,439.2873676669842,439.9723039579985,434.11582091700984,2,1,1.029764333012281,reldom2_s024,001,2025-02-27_11h11.31.907,Aud-A-Scan_AC,2022.2.5,None,
0,0.0,None,fixation,stimulus/audwhere_stim/blank_white.png,stimulus/audwhere_stim/blank_white.png,stimulus/audwhat_stim/blank_white.png,stimulus/audwhat_stim/blank_white.png,stimulus/audwhere_stim/blank_white.png,stimulus/audwhere_stim/blank_white.png,stimulus/audwhere_stim/blank_white.png,stimulus/audwhere_stim/blank_white.png,0.0,0.0,0.0,0.0,0,0.0,0,0.0,0,0.0,0,0.0,0,0.0,0.0,0,0,0,0,0,0,0,0,0,0.0,0,0.0,0,0.0,0,0.0,9,,,,,0,48,48,48,,,,,,,,,440.20336287500686,440.20336287500686,440.20336287500686,440.20336287500686,440.20336287500686,440.20336287500686,440.20336287500686,440.20336287500686,440.10563729133185,440.20336287500686,440.20336287500686,440.20336287500686,440.10563729133185,440.20336287500686,440.20336287500686,440.20336287500686,440.20336287500686,440.20336287500686,440.20336287500686,440.20336287500686,440.20336287500686,440.20336287500686,440.20336287500686,440.20336287500686,440.20336287500686,440.20336287500686,440.20336287500686,440.15563729133186,440.20336287500686,440.20336287500686,440.20336287500686,440.15563729133186,440.20336287500686,440.20336287500686,440.20336287500686,440.20336287500686,440.20336287500686,445.4125621249841,445.4125621249841,449.46922949998407,None,0,,reldom2_s024,001,2025-02-27_11h11.31.907,Aud-A-Scan_AC,2022.2.5,None,
37,First_Order,7.0,audwhat,stimulus/audwhat_stim/dummy.wav,stimulus/audwhat_stim/dummy.wav,stimulus/audwhat_stim/string cello_low-pitch_Ftri_loud.wav,stimulus/audwhat_stim/string cello_high-pitch_D_loud.wav,stimulus/audwhat_stim/blank_white.png,stimulus/audwhat_stim/pitch_box.png,stimulus/audwhat_stim/pitch_yes.png,stimulus/audwhat_stim/pitch_no.png,None,Pitch,None,Category,2,0.0,0,5.125,0,5.125,0,5.125,0,0.0,0.625,0,0,0,0,0,0,0,0,0,0.0,0,0.0,1,0.5,1,2.125,0,,,,,0,49,49,49,,,,,,,,,449.46922949998407,449.46922949998407,449.46922949998407,449.46922949998407,449.46922949998407,449.46922949998407,449.46922949998407,449.46922949998407,449.3981465416533,449.46922949998407,449.46922949998407,449.46922949998407,449.3981465416533,449.46922949998407,449.46922949998407,449.46922949998407,451.544332999998,,449.46922949998407,449.46922949998407,454.6305318750092,449.46922949998407,449.46922949998407,449.46922949998407,449.46922949998407,449.9314676669892,450.9912539579964,449.90166133366097,,451.544332999998,452.6048319999827,451.5143934586706,,449.46922949998407,454.6305318750092,449.46922949998407,454.6305318750092,454.67162741700304,455.3226279579976,449.46922949998407,2,1,3.1365153339866083,reldom2_s024,001,2025-02-27_11h11.31.907,Aud-A-Scan_AC,2022.2.5,None,
38,First_Order,7.0,audwhat,stimulus/audwhat_stim/dummy.wav,stimulus/audwhat_stim/dummy.wav,stimulus/audwhat_stim/string cello_low-pitch_D_loud.wav,stimulus/audwhat_stim/string cello_high-pitch_Ftri_loud.wav,stimulus/audwhat_stim/blank_white.png,stimulus/audwhat_stim/pitch_box.png,stimulus/audwhat_stim/pitch_yes.png,stimulus/audwhat_stim/pitch_no.png,None,Pitch,None,Category,2,0.0,0,5.125,0,5.125,0,5.125,0,0.0,0.625,0,0,0,0,0,0,0,0,0,0.0,0,0.0,1,0.5,1,2.125,0,,,,,0,50,50,50,,,,,,,,,455.5746540830005,455.5746540830005,455.5746540830005,455.5746540830005,455.5746540830005,455.5746540830005,455.5746540830005,455.5746540830005,455.49622650034337,455.5746540830005,455.5746540830005,455.5746540830005,455.49622650034337,455.5746540830005,455.5746540830005,455.5746540830005,457.6507695830078,461.69352029199945,455.5746540830005,455.5746540830005,460.7489056669874,455.5746540830005,455.5746540830005,455.5746540830005,455.5746540830005,456.03718200000003,457.099497416988,456.00722774965493,,457.6507695830078,458.71871912499773,457.6213575416516,,455.5746540830005,460.7489056669874,455.5746540830005,460.7489056669874,460.78970416699303,461.4406788329943,455.5746540830005,2,1,0.953748917003395,reldom2_s024,001,2025-02-27_11h11.31.907,Aud-A-Scan_AC,2022.2.5,None,
39,First_Order,7.0,audwhat,stimulus/audwhat_stim/dummy.wav,stimulus/audwhat_stim/dummy.wav,stimulus/audwhat_stim/percussion xylophone_high-pitch_Dtri_loud.wav,stimulus/audwhat_stim/string cello_high-pitch_Dtri_loud.wav,stimulus/audwhat_stim/blank_white.png,stimulus/audwhat_stim/pitch_box.png,stimulus/audwhat_stim/pitch_yes.png,stimulus/audwhat_stim/pitch_no.png,None,Pitch,None,Pitch,1,0.0,0,5.125,0,5.125,0,5.125,0,0.0,0.625,0,0,0,0,0,0,0,0,0,0.0,0,0.0,1,0.5,1,2.125,0,,,,,0,51,51,51,,,,,,,,,461.69352029199945,461.69352029199945,461.69352029199945,461.69352029199945,461.69352029199945,461.69352029199945,461.69352029199945,461.69352029199945,461.6144068753366,461.69352029199945,461.69352029199945,461.69352029199945,461.6144068753366,461.69352029199945,461.69352029199945,461.69352029199945,463.7759062080004,467.81934233300854,461.69352029199945,461.69352029199945,466.8766179170052,461.69352029199945,461.69352029199945,461.69352029199945,461.69352029199945,462.15665470800013,463.22187570799724,462.12685379165146,463.1756114169839,463.7759062080004,464.84587258298416,463.7460825416531,,461.69352029199945,466.8766179170052,461.69352029199945,466.8766179170052,466.91738412500126,467.56662212498486,461.69352029199945,1,1,0.9809573329985142,reldom2_s024,001,2025-02-27_11h11.31.907,Aud-A-Scan_AC,2022.2.5,None,
40,First_Order,7.0,audwhat,stimulus/audwhat_stim/dummy.wav,stimulus/audwhat_stim/dummy.wav,stimulus/audwhat_stim/string cello_low-pitch_D_loud.wav,stimulus/audwhat_stim/percussion mallet_low-pitch_D_loud.wav,stimulus/audwhat_stim/blank_white.png,stimulus/audwhat_stim/pitch_box.png,stimulus/audwhat_stim/pitch_yes.png,stimulus/audwhat_stim/pitch_no.png,None,Pitch,None,Pitch,1,0.0,0,5.125,0,5.125,0,5.125,0,0.0,0.625,0,0,0,0,0,0,0,0,0,0.0,0,0.0,1,0.5,1,2.125,0,,,,,0,52,52,52,,,,,,,,,467.81934233300854,467.81934233300854,467.81934233300854,467.81934233300854,467.81934233300854,467.81934233300854,467.81934233300854,467.81934233300854,467.74059633331683,467.81934233300854,467.81934233300854,467.81934233300854,467.74059633331683,467.81934233300854,467.81934233300854,467.81934233300854,469.8986979170004,473.957440416998,467.81934233300854,467.81934233300854,472.99634275000426,467.81934233300854,467.81934233300854,467.81934233300854,467.81934233300854,468.2815014999942,469.3453258329828,468.25199641666063,,469.8986979170004,470.9664902499935,469.868853208671,,467.81934233300854,472.99634275000426,467.81934233300854,472.99634275000426,473.0374486669898,473.72514975001104,467.81934233300854,1,1,0.9863226259767544,reldom2_s024,001,2025-02-27_11h11.31.907,Aud-A-Scan_AC,2022.2.5,None,
0,0.0,None,fixation,stimulus/audwhere_stim/blank_white.png,stimulus/audwhere_stim/blank_white.png,stimulus/audwhat_stim/blank_white.png,stimulus/audwhat_stim/blank_white.png,stimulus/audwhere_stim/blank_white.png,stimulus/audwhere_stim/blank_white.png,stimulus/audwhere_stim/blank_white.png,stimulus/audwhere_stim/blank_white.png,0.0,0.0,0.0,0.0,0,0.0,0,0.0,0,0.0,0,0.0,0,0.0,0.0,0,0,0,0,0,0,0,0,0,0.0,0,0.0,0,0.0,0,0.0,10,,,,,0,53,53,53,,,,,,,,,473.957440416998,473.957440416998,473.957440416998,473.957440416998,473.957440416998,473.957440416998,473.957440416998,473.957440416998,473.85848308334437,473.957440416998,473.957440416998,473.957440416998,473.85848308334437,473.957440416998,473.957440416998,473.957440416998,473.957440416998,473.957440416998,473.957440416998,473.957440416998,473.957440416998,473.957440416998,473.957440416998,473.957440416998,473.957440416998,473.957440416998,473.957440416998,473.9084830833444,473.957440416998,473.957440416998,473.957440416998,473.9084830833444,473.957440416998,473.957440416998,473.957440416998,473.957440416998,473.957440416998,479.18177358299727,479.18177358299727,484.12095599999884,None,0,,reldom2_s024,001,2025-02-27_11h11.31.907,Aud-A-Scan_AC,2022.2.5,None,
41,Second_Order,7.0,audwhat,stimulus/audwhat_stim/percussion xylophone_high-pitch_Ftri_loud.wav,stimulus/audwhat_stim/percussion mallet_low-pitch_Dtri_loud.wav,stimulus/audwhat_stim/string viola_low-pitch_Ftri_loud.wav,stimulus/audwhat_stim/percussion mallet_low-pitch_Ftri_loud.wav,stimulus/audwhere_stim/match_blank.png,stimulus/audwhat_stim/match_box.png,stimulus/audwhere_stim/match_yes.png,stimulus/audwhere_stim/match_no.png,2.0,Match,Category,Pitch,2,5.125,0,5.125,0,5.125,0,5.125,0,0.75,0.75,0,0,0,0,0,0,0,0,1,0.5,1,2.125,1,0.5,1,2.125,0,,,,,0,54,54,54,,,,,,,,,484.12095599999884,489.2430996669864,484.12095599999884,484.12095599999884,484.12095599999884,484.12095599999884,484.5693712079956,485.5677837920084,484.58243499967307,485.57148049998796,486.2028253329918,487.1913368329988,486.2064686666747,487.2045787500101,489.2430996669864,490.0942513330083,492.1593358750106,496.0986935420078,490.0942513330083,490.0942513330083,495.2487015829829,490.0942513330083,490.0942513330083,490.0942513330083,490.0942513330083,490.5508662920038,491.6092238329875,490.5213196666775,,492.1593358750106,493.21956925000995,492.12973024967164,,490.0942513330083,495.2487015829829,490.0942513330083,495.2487015829829,495.2891491249902,,490.0942513330083,1,0,1.5051099590200465,reldom2_s024,001,2025-02-27_11h11.31.907,Aud-A-Scan_AC,2022.2.5,None,
42,Second_Order,7.0,audwhat,stimulus/audwhat_stim/string cello_high-pitch_Dtri_loud.wav,stimulus/audwhat_stim/percussion mallet_high-pitch_Dtri_loud.wav,stimulus/audwhat_stim/percussion mallet_low-pitch_D_loud.wav,stimulus/audwhat_stim/string cello_low-pitch_D_loud.wav,stimulus/audwhere_stim/match_blank.png,stimulus/audwhat_stim/match_box.png,stimulus/audwhere_stim/match_yes.png,stimulus/audwhere_stim/match_no.png,1.0,Match,Pitch,Pitch,1,5.125,0,5.125,0,5.125,0,5.125,0,0.625,0.625,0,0,0,0,0,0,0,0,1,0.5,1,2.125,1,0.5,1,2.125,0,,,,,0,55,55,55,,,,,,,,,496.0986935420078,501.2206217919884,496.0986935420078,496.0986935420078,496.0986935420078,496.0986935420078,496.54660979198525,497.5328195829934,496.55938562465985,,498.18015800000285,499.16940079198685,498.18394887465206,,501.2206217919884,501.9548902079987,504.0059377079888,,501.9548902079987,501.9548902079987,507.1202920420037,501.9548902079987,501.9548902079987,501.9548902079987,501.9548902079987,502.40939045799314,503.4590610419982,502.3808242086709,,504.0059377079888,505.0619188749988,503.97729704165636,,501.9548902079987,507.1202920420037,501.9548902079987,507.1202920420037,507.1202920420037,507.80429479200393,501.9548902079987,1,1,0.863955458975397,reldom2_s024,001,2025-02-27_11h11.31.907,Aud-A-Scan_AC,2022.2.5,None,
0,0.0,None,fixation,stimulus/audwhere_stim/blank_white.png,stimulus/audwhere_stim/blank_white.png,stimulus/audwhat_stim/blank_white.png,stimulus/audwhat_stim/blank_white.png,stimulus/audwhere_stim/blank_white.png,stimulus/audwhere_stim/blank_white.png,stimulus/audwhere_stim/blank_white.png,stimulus/audwhere_stim/blank_white.png,0.0,0.0,0.0,0.0,0,0.0,0,0.0,0,0.0,0,0.0,0,0.0,0.0,0,0,0,0,0,0,0,0,0,0.0,0,0.0,0,0.0,0,0.0,9,,,,,0,56,56,56,,,,,,,,,508.03432974999305,508.03432974999305,508.03432974999305,508.03432974999305,508.03432974999305,508.03432974999305,508.03432974999305,508.03432974999305,507.93762812533726,508.03432974999305,508.03432974999305,508.03432974999305,507.93762812533726,508.03432974999305,508.03432974999305,508.03432974999305,508.03432974999305,508.03432974999305,508.03432974999305,508.03432974999305,508.03432974999305,508.03432974999305,508.03432974999305,508.03432974999305,508.03432974999305,508.03432974999305,508.03432974999305,507.98762812533727,508.03432974999305,508.03432974999305,508.03432974999305,507.98762812533727,508.03432974999305,508.03432974999305,508.03432974999305,508.03432974999305,508.03432974999305,513.2636121250107,513.2636121250107,517.256317249994,None,0,,reldom2_s024,001,2025-02-27_11h11.31.907,Aud-A-Scan_AC,2022.2.5,None,
43,First_Order,8.0,audwhat,stimulus/audwhat_stim/dummy.wav,stimulus/audwhat_stim/dummy.wav,stimulus/audwhat_stim/string viola_low-pitch_F_loud.wav,stimulus/audwhat_stim/percussion mallet_low-pitch_F_loud.wav,stimulus/audwhat_stim/blank_white.png,stimulus/audwhat_stim/category_box.png,stimulus/audwhat_stim/category_yes.png,stimulus/audwhat_stim/category_no.png,None,Category,None,Pitch,2,0.0,0,5.125,0,5.125,0,5.125,0,0.0,0.625,0,0,0,0,0,0,0,0,0,0.0,0,0.0,1,0.5,1,2.125,0,,,,,0,57,57,57,,,,,,,,,517.256317249994,517.256317249994,517.256317249994,517.256317249994,517.256317249994,517.256317249994,517.256317249994,517.256317249994,517.1877316246779,517.256317249994,517.256317249994,517.256317249994,517.1877316246779,517.256317249994,517.256317249994,517.256317249994,519.3405795420113,,517.256317249994,517.256317249994,522.4502844999952,517.256317249994,517.256317249994,517.256317249994,517.256317249994,517.7202397079964,518.7864458749827,517.6902155836617,,519.3405795420113,520.4083957500116,519.3110432916767,,517.256317249994,522.4502844999952,517.256317249994,522.4502844999952,522.4502844999952,523.1056560830039,517.256317249994,2,1,1.5939410839928314,reldom2_s024,001,2025-02-27_11h11.31.907,Aud-A-Scan_AC,2022.2.5,None,
44,First_Order,8.0,audwhat,stimulus/audwhat_stim/dummy.wav,stimulus/audwhat_stim/dummy.wav,stimulus/audwhat_stim/percussion mallet_low-pitch_Dtri_loud.wav,stimulus/audwhat_stim/percussion xylophone_high-pitch_F_loud.wav,stimulus/audwhat_stim/blank_white.png,stimulus/audwhat_stim/category_box.png,stimulus/audwhat_stim/category_yes.png,stimulus/audwhat_stim/category_no.png,None,Category,None,Category,1,0.0,0,5.125,0,5.125,0,5.125,0,0.0,0.625,0,0,0,0,0,0,0,0,0,0.0,0,0.0,1,0.5,1,2.125,0,,,,,0,58,58,58,,,,,,,,,523.3585640419915,523.3585640419915,523.3585640419915,523.3585640419915,523.3585640419915,523.3585640419915,523.3585640419915,523.3585640419915,523.2796989583313,523.3585640419915,523.3585640419915,523.3585640419915,523.2796989583313,523.3585640419915,523.3585640419915,523.3585640419915,525.4417227499944,,523.3585640419915,523.3585640419915,528.5522242079896,523.3585640419915,523.3585640419915,523.3585640419915,523.3585640419915,523.8192105419876,524.8853339999914,523.7893878336511,,525.4417227499944,526.5116736250056,525.411871249675,526.4651170420111,523.3585640419915,528.5522242079896,523.3585640419915,528.5522242079896,528.5522242079896,529.2086929169891,523.3585640419915,1,1,1.653147708013421,reldom2_s024,001,2025-02-27_11h11.31.907,Aud-A-Scan_AC,2022.2.5,None,
45,First_Order,8.0,audwhat,stimulus/audwhat_stim/dummy.wav,stimulus/audwhat_stim/dummy.wav,stimulus/audwhat_stim/string cello_high-pitch_Dtri_loud.wav,stimulus/audwhat_stim/percussion xylophone_high-pitch_Dtri_loud.wav,stimulus/audwhat_stim/blank_white.png,stimulus/audwhat_stim/category_box.png,stimulus/audwhat_stim/category_yes.png,stimulus/audwhat_stim/category_no.png,None,Category,None,Pitch,2,0.0,0,5.125,0,5.125,0,5.125,0,0.0,0.625,0,0,0,0,0,0,0,0,0,0.0,0,0.0,1,0.5,1,2.125,0,,,,,0,59,59,59,,,,,,,,,529.4622037500085,529.4622037500085,529.4622037500085,529.4622037500085,529.4622037500085,529.4622037500085,529.4622037500085,529.4622037500085,529.3826484583279,529.4622037500085,529.4622037500085,529.4622037500085,529.3826484583279,529.4622037500085,529.4622037500085,529.4622037500085,531.5491181249963,,529.4622037500085,529.4622037500085,534.614497750008,529.4622037500085,529.4622037500085,529.4622037500085,529.4622037500085,529.925936124986,530.9938112499949,529.8960203336649,,531.5491181249963,532.6202098329959,531.5193258746624,532.5721261249855,529.4622037500085,534.614497750008,529.4622037500085,534.614497750008,534.655537499988,535.3094908329949,529.4622037500085,2,1,2.3173181249876507,reldom2_s024,001,2025-02-27_11h11.31.907,Aud-A-Scan_AC,2022.2.5,None,
46,First_Order,8.0,audwhat,stimulus/audwhat_stim/dummy.wav,stimulus/audwhat_stim/dummy.wav,stimulus/audwhat_stim/percussion mallet_low-pitch_Ftri_loud.wav,stimulus/audwhat_stim/percussion mallet_high-pitch_F_loud.wav,stimulus/audwhat_stim/blank_white.png,stimulus/audwhat_stim/category_box.png,stimulus/audwhat_stim/category_yes.png,stimulus/audwhat_stim/category_no.png,None,Category,None,Category,1,0.0,0,5.125,0,5.125,0,5.125,0,0.0,0.625,0,0,0,0,0,0,0,0,0,0.0,0,0.0,1,0.5,1,2.125,0,,,,,0,60,60,60,,,,,,,,,535.5630366670084,535.5630366670084,535.5630366670084,535.5630366670084,535.5630366670084,535.5630366670084,535.5630366670084,535.5630366670084,535.4836376663317,535.5630366670084,535.5630366670084,535.5630366670084,535.4836376663317,535.5630366670084,535.5630366670084,535.5630366670084,537.6514814999828,,535.5630366670084,535.5630366670084,540.7181593749847,535.5630366670084,535.5630366670084,535.5630366670084,535.5630366670084,536.0278821669926,537.0948612919892,535.9980478336549,,537.6514814999828,538.7241029170109,537.6215119586598,,535.5630366670084,540.7181593749847,535.5630366670084,540.7181593749847,540.7591457499948,541.4117695830064,535.5630366670084,1,1,0.8554825839819387,reldom2_s024,001,2025-02-27_11h11.31.907,Aud-A-Scan_AC,2022.2.5,None,
0,0.0,None,fixation,stimulus/audwhere_stim/blank_white.png,stimulus/audwhere_stim/blank_white.png,stimulus/audwhat_stim/blank_white.png,stimulus/audwhat_stim/blank_white.png,stimulus/audwhere_stim/blank_white.png,stimulus/audwhere_stim/blank_white.png,stimulus/audwhere_stim/blank_white.png,stimulus/audwhere_stim/blank_white.png,0.0,0.0,0.0,0.0,0,0.0,0,0.0,0,0.0,0,0.0,0,0.0,0.0,0,0,0,0,0,0,0,0,0,0.0,0,0.0,0,0.0,0,0.0,8,,,,,0,61,61,61,,,,,,,,,541.6848670000036,541.6848670000036,541.6848670000036,541.6848670000036,541.6848670000036,541.6848670000036,541.6848670000036,541.6848670000036,541.5854523753243,541.6848670000036,541.6848670000036,541.6848670000036,541.5854523753243,541.6848670000036,541.6848670000036,541.6848670000036,541.6848670000036,541.6848670000036,541.6848670000036,541.6848670000036,541.6848670000036,541.6848670000036,541.6848670000036,541.6848670000036,541.6848670000036,541.6848670000036,541.6848670000036,541.6354523753242,541.6848670000036,541.6848670000036,541.6848670000036,541.6354523753242,541.6848670000036,541.6848670000036,541.6848670000036,541.6848670000036,541.6848670000036,546.9134025000094,546.9134025000094,549.8339832499914,None,0,,reldom2_s024,001,2025-02-27_11h11.31.907,Aud-A-Scan_AC,2022.2.5,None,
47,Second_Order,8.0,audwhat,stimulus/audwhat_stim/string cello_high-pitch_F_loud.wav,stimulus/audwhat_stim/string viola_low-pitch_D_loud.wav,stimulus/audwhat_stim/percussion mallet_low-pitch_Ftri_loud.wav,stimulus/audwhat_stim/percussion xylophone_high-pitch_F_loud.wav,stimulus/audwhere_stim/match_blank.png,stimulus/audwhat_stim/match_box.png,stimulus/audwhere_stim/match_yes.png,stimulus/audwhere_stim/match_no.png,1.0,Match,Category,Category,1,5.125,0,5.125,0,5.125,0,5.125,0,0.75,0.75,0,0,0,0,0,0,0,0,1,0.5,1,2.125,1,0.5,1,2.125,0,,,,,0,62,62,62,,,,,,,,,549.8339832499914,554.9498744999873,549.8339832499914,549.8339832499914,549.8339832499914,549.8339832499914,550.2877806669858,551.2864180000033,550.3007119166762,,551.9088369169913,552.9073141670087,551.9210415416494,,554.9498744999873,555.7986667499936,557.8655734579952,,555.7986667499936,555.7986667499936,560.9584084579838,555.7986667499936,555.7986667499936,555.7986667499936,555.7986667499936,556.2569853749883,557.313084458001,556.2274947086737,,557.8655734579952,558.9291314999864,557.8361140416566,558.8826951250085,555.7986667499936,560.9584084579838,555.7986667499936,560.9584084579838,560.9584084579838,,555.7986667499936,1,1,1.1289422499830835,reldom2_s024,001,2025-02-27_11h11.31.907,Aud-A-Scan_AC,2022.2.5,None,
48,Second_Order,8.0,audwhat,stimulus/audwhat_stim/percussion mallet_high-pitch_Ftri_loud.wav,stimulus/audwhat_stim/percussion mallet_low-pitch_D_loud.wav,stimulus/audwhat_stim/string cello_high-pitch_Ftri_loud.wav,stimulus/audwhat_stim/percussion xylophone_high-pitch_Ftri_loud.wav,stimulus/audwhere_stim/match_blank.png,stimulus/audwhat_stim/match_box.png,stimulus/audwhere_stim/match_yes.png,stimulus/audwhere_stim/match_no.png,2.0,Match,Category,Pitch,2,5.125,0,5.125,0,5.125,0,5.125,0,0.625,0.625,0,0,0,0,0,0,0,0,1,0.5,1,2.125,1,0.5,1,2.125,0,,,,,0,63,63,63,,,,,,,,,561.7642337500001,566.8770892919856,561.7642337500001,561.7642337500001,561.7642337500001,561.7642337500001,562.2139359999856,563.2013602920051,562.2280824996744,,563.8490638750081,564.8374110419827,563.8527387496763,564.8509582499973,566.8770892919856,567.6067131669843,569.6551165829878,,567.6067131669843,567.6067131669843,572.7820133329951,567.6067131669843,567.6067131669843,567.6067131669843,567.6067131669843,568.058935167006,569.1084855829831,568.0303434166747,,569.6551165829878,570.7118580829992,569.6262942496726,570.6661609169969,567.6067131669843,572.7820133329951,567.6067131669843,572.7820133329951,572.7820133329951,573.464741667005,567.6067131669843,2,1,0.9981837919913232,reldom2_s024,001,2025-02-27_11h11.31.907,Aud-A-Scan_AC,2022.2.5,None,
0,0.0,None,fixation,stimulus/audwhere_stim/blank_white.png,stimulus/audwhere_stim/blank_white.png,stimulus/audwhat_stim/blank_white.png,stimulus/audwhat_stim/blank_white.png,stimulus/audwhere_stim/blank_white.png,stimulus/audwhere_stim/blank_white.png,stimulus/audwhere_stim/blank_white.png,stimulus/audwhere_stim/blank_white.png,0.0,0.0,0.0,0.0,0,0.0,0,0.0,0,0.0,0,0.0,0,0.0,0.0,0,0,0,0,0,0,0,0,0,0.0,0,0.0,0,0.0,0,0.0,16,,,,,0,64,64,64,,,,,,,,,573.695797124994,573.695797124994,573.695797124994,573.695797124994,573.695797124994,573.695797124994,573.695797124994,573.695797124994,573.5980750003383,573.695797124994,573.695797124994,573.695797124994,573.5980750003383,573.695797124994,573.695797124994,573.695797124994,573.695797124994,573.695797124994,573.695797124994,573.695797124994,573.695797124994,573.695797124994,573.695797124994,573.695797124994,573.695797124994,573.695797124994,573.695797124994,573.6480750003383,573.695797124994,573.695797124994,573.695797124994,573.6480750003383,573.695797124994,573.695797124994,573.695797124994,573.695797124994,573.695797124994,578.9261931669898,578.9261931669898,589.8448472080054,None,0,,reldom2_s024,001,2025-02-27_11h11.31.907,Aud-A-Scan_AC,2022.2.5,None,
