Trial,Order,Block,Type,Stimuli_File1,Stimuli_File2,Stimuli_File3,Stimuli_File4,Cue_File1,Cue_File2,Response_File_Yes,Response_File_No,Match,Cue_Dimension,Pair1_Dimension,Pair2_Dimension,Key,Cue1_Duration,Cue1_Onset,Cue2_Duration,Cue2_Onset,ResponseYes_Duration,ResponseYes_Onset,ResponseNo_Duration,ResponseNo_Onset,ITI_Within,ITI_Between,Image1_Duration,Image1_Onset,Image2_Duration,Image2_Onset,Image3_Duration,Image3_Onset,Image4_Duration,Image4_Onset,Sound1_Duration,Sound1_Onset,Sound2_Duration,Sound2_Onset,Sound3_Duration,Sound3_Onset,Sound4_Duration,Sound4_Onset,Fixation_Duration,trials_2.thisRepN,trials_2.thisTrialN,trials_2.thisN,trials_2.thisIndex,trials.thisRepN,trials.thisTrialN,trials.thisN,trials.thisIndex,text_start.started,key_resp_start.started,key_resp_start.keys,key_resp_start.rt,text2.started,key_resp_2.started,key_resp_2.keys,key_resp_2.rt,cue_file1.started,cue_file1.stopped,image_1.started,image_1.stopped,image_2.started,image_2.stopped,sound_icon1.started,sound_icon1.stopped,sound_1.started,sound_1.stopped,sound_icon2.started,sound_icon2.stopped,sound_2.started,sound_2.stopped,image_blank_1.started,image_blank_1.stopped,key_press.started,key_press.stopped,fixation_text.started,cue_file2.started,cue_file2.stopped,image_3.started,image_3.stopped,image_4.started,image_4.stopped,sound_icon3.started,sound_icon3.stopped,sound_3.started,sound_3.stopped,sound_icon4.started,sound_icon4.stopped,sound_4.started,sound_4.stopped,response_yes.started,response_yes.stopped,response_no.started,response_no.stopped,iti_blank.started,iti_blank.stopped,fixation_text.stopped,key_press.keys,key_press.corr,key_press.rt,participant,session,date,expName,psychopyVersion,frameRate,
,,,,,,,,,,,,,,,,,,,,,,,,,,,,,,,,,,,,,,,,,,,,,,,,,,,,8.48391916700075,8.48391916700075,2,0.6873989999994592,,,,,,,,,,,,,,,,,,,,,,,,,,,,,,,,,,,,,,,,,,,,,,,,reldom2_s012,001,2025-02-03_15h19.02.231,Where-A-Scan_AC,2022.2.5,None,
,,,,,,,,,,,,,,,,,,,,,,,,,,,,,,,,,,,,,,,,,,,,0,0,0,0,,,,,,,,,9.188288332999946,9.188288332999946,5,15.024949457999355,,,,,,,,,,,,,,,,,,,,,,,,,,,,,,,,,,,,,,,,,,,,reldom2_s012,001,2025-02-03_15h19.02.231,Where-A-Scan_AC,2022.2.5,None,
,,,,,,,,,,,,,,,,,,,,,,,,,,,,,,,,,,,,,,,,,,,,1,0,1,0,,,,,,,,,24.22535245800009,24.22535245800009,5,1.9879657079991375,,,,,,,,,,,,,,,,,,,,,,,,,,,,,,,,,,,,,,,,,,,,reldom2_s012,001,2025-02-03_15h19.02.231,Where-A-Scan_AC,2022.2.5,None,
,,,,,,,,,,,,,,,,,,,,,,,,,,,,,,,,,,,,,,,,,,,,2,0,2,0,,,,,,,,,26.232829792000302,26.232829792000302,5,1.981094874999144,,,,,,,,,,,,,,,,,,,,,,,,,,,,,,,,,,,,,,,,,,,,reldom2_s012,001,2025-02-03_15h19.02.231,Where-A-Scan_AC,2022.2.5,None,
,,,,,,,,,,,,,,,,,,,,,,,,,,,,,,,,,,,,,,,,,,,,3,0,3,0,,,,,,,,,28.229149208000308,28.229149208000308,5,1.9848139579989947,,,,,,,,,,,,,,,,,,,,,,,,,,,,,,,,,,,,,,,,,,,,reldom2_s012,001,2025-02-03_15h19.02.231,Where-A-Scan_AC,2022.2.5,None,
0,0.0,None,fixation,stimulus/viswhere_stim/blank_white.png,stimulus/viswhere_stim/blank_white.png,stimulus/audwhere_stim/blank_white.png,stimulus/audwhere_stim/blank_white.png,stimulus/viswhere_stim/blank_white.png,stimulus/viswhere_stim/blank_white.png,stimulus/viswhere_stim/blank_white.png,stimulus/viswhere_stim/blank_white.png,0.0,0.0,0.0,0.0,0,0.0,0,0.0,0,0.0,0,0.0,0,0.0,0.0,0,0.0,0,0.0,0,0.0,0,0.0,0,0.0,0,0.0,0,0.0,0,0.0,16,,,,,0,0,0,0,,,,,,,,,30.413499750000483,30.413499750000483,30.413499750000483,30.413499750000483,30.413499750000483,30.413499750000483,30.413499750000483,30.413499750000483,30.316798583000125,30.413499750000483,30.413499750000483,30.413499750000483,30.316798583000125,30.413499750000483,30.413499750000483,30.413499750000483,30.413499750000483,30.413499750000483,30.413499750000483,30.413499750000483,30.413499750000483,30.413499750000483,30.413499750000483,30.413499750000483,30.413499750000483,30.413499750000483,30.413499750000483,30.366798583000126,30.413499750000483,30.413499750000483,30.413499750000483,30.366798583000126,30.413499750000483,30.413499750000483,30.413499750000483,30.413499750000483,30.413499750000483,35.59260812499997,35.59260812499997,46.60162270799992,None,0,,reldom2_s012,001,2025-02-03_15h19.02.231,Where-A-Scan_AC,2022.2.5,None,
1,First_Order,1.0,viswhere,stimulus/viswhere_stim/blank_white.png,stimulus/viswhere_stim/blank_white.png,stimulus/viswhere_stim/60-deg_dot-left_peru.png,stimulus/viswhere_stim/60-deg_dot-right_turquoise.png,stimulus/viswhere_stim/blank_white.png,stimulus/viswhere_stim/dot_box.png,stimulus/viswhere_stim/dot_yes.png,stimulus/viswhere_stim/dot_no.png,None,Dot,None,Line,2,0.0,0,5.125,0,5.125,0,5.125,0,0.0,0.625,0,0.0,0,0.0,1,0.5,1,2.125,0,0.0,0,0.0,0,0.0,0,0.0,0,,,,,0,1,1,1,,,,,,,,,46.60162270799992,46.60162270799992,46.60162270799992,46.60162270799992,46.60162270799992,46.60162270799992,46.60162270799992,46.60162270799992,46.5752972080003,46.60162270799992,46.60162270799992,46.60162270799992,46.5752972080003,46.60162270799992,46.60162270799992,46.60162270799992,48.70860058300059,52.66694287500013,46.60162270799992,46.60162270799992,51.72555183300028,47.08138354200037,48.09671029200035,48.70860058300059,49.72972229200059,46.60162270799992,46.60162270799992,46.591963874666966,46.60162270799992,46.60162270799992,46.60162270799992,46.591963874666966,46.60162270799992,46.60162270799992,51.72555183300028,46.60162270799992,51.72555183300028,51.82634195800074,52.460638958000345,46.60162270799992,2,1,1.0002210829998148,reldom2_s012,001,2025-02-03_15h19.02.231,Where-A-Scan_AC,2022.2.5,None,
2,First_Order,1.0,viswhere,stimulus/viswhere_stim/blank_white.png,stimulus/viswhere_stim/blank_white.png,stimulus/viswhere_stim/60-deg_dot-right_turquoise.png,stimulus/viswhere_stim/60-deg_dot-left_turquoise.png,stimulus/viswhere_stim/blank_white.png,stimulus/viswhere_stim/line_box.png,stimulus/viswhere_stim/line_yes.png,stimulus/viswhere_stim/line_no.png,None,Line,None,Line,1,0.0,0,5.125,0,5.125,0,5.125,0,0.0,0.625,0,0.0,0,0.0,1,0.5,1,2.125,0,0.0,0,0.0,0,0.0,0,0.0,0,,,,,0,2,2,2,,,,,,,,,52.66694287500013,52.66694287500013,52.66694287500013,52.66694287500013,52.66694287500013,52.66694287500013,52.66694287500013,52.66694287500013,52.64234670833351,52.66694287500013,52.66694287500013,52.66694287500013,52.64234670833351,52.66694287500013,52.66694287500013,52.66694287500013,54.767908000000716,58.72766520799996,52.66694287500013,52.66694287500013,57.796263042000646,53.14929445800044,54.169679958000415,54.767908000000716,55.772669542000585,52.66694287500013,52.66694287500013,52.65901337500018,52.66694287500013,52.66694287500013,52.66694287500013,52.65901337500018,52.66694287500013,52.66694287500013,57.796263042000646,52.66694287500013,57.796263042000646,57.89345649999996,58.52474445799999,52.66694287500013,1,1,0.8957754159991964,reldom2_s012,001,2025-02-03_15h19.02.231,Where-A-Scan_AC,2022.2.5,None,
3,First_Order,1.0,viswhere,stimulus/viswhere_stim/blank_white.png,stimulus/viswhere_stim/blank_white.png,stimulus/viswhere_stim/30-deg_dot-left_salmon.png,stimulus/viswhere_stim/120-deg_dot-left_royalblue.png,stimulus/viswhere_stim/blank_white.png,stimulus/viswhere_stim/line_box.png,stimulus/viswhere_stim/line_yes.png,stimulus/viswhere_stim/line_no.png,None,Line,None,Dot,2,0.0,0,5.125,0,5.125,0,5.125,0,0.0,0.625,0,0.0,0,0.0,1,0.5,1,2.125,0,0.0,0,0.0,0,0.0,0,0.0,0,,,,,0,3,3,3,,,,,,,,,58.72766520799996,58.72766520799996,58.72766520799996,58.72766520799996,58.72766520799996,58.72766520799996,58.72766520799996,58.72766520799996,58.705307708334054,58.72766520799996,58.72766520799996,58.72766520799996,58.705307708334054,58.72766520799996,58.72766520799996,58.72766520799996,60.831768750000265,64.78905450000002,58.72766520799996,58.72766520799996,63.85297575000004,59.20976462500039,60.213846667000325,60.831768750000265,61.842933625000114,58.72766520799996,58.72766520799996,58.72197437500072,58.72766520799996,58.72766520799996,58.72766520799996,58.72197437500072,58.72766520799996,58.72766520799996,63.85297575000004,58.72766520799996,63.85297575000004,63.95432812500076,64.5854612080002,58.72766520799996,2,1,0.7762025829988488,reldom2_s012,001,2025-02-03_15h19.02.231,Where-A-Scan_AC,2022.2.5,None,
4,First_Order,1.0,viswhere,stimulus/viswhere_stim/blank_white.png,stimulus/viswhere_stim/blank_white.png,stimulus/viswhere_stim/150-deg_dot-right_salmon.png,stimulus/viswhere_stim/90-deg_dot-right_goldenrod.png,stimulus/viswhere_stim/blank_white.png,stimulus/viswhere_stim/line_box.png,stimulus/viswhere_stim/line_yes.png,stimulus/viswhere_stim/line_no.png,None,Line,None,Dot,2,0.0,0,5.125,0,5.125,0,5.125,0,0.0,0.625,0,0.0,0,0.0,1,0.5,1,2.125,0,0.0,0,0.0,0,0.0,0,0.0,0,,,,,0,4,4,4,,,,,,,,,64.78905450000002,64.78905450000002,64.78905450000002,64.78905450000002,64.78905450000002,64.78905450000002,64.78905450000002,64.78905450000002,64.76596245833328,64.78905450000002,64.78905450000002,64.78905450000002,64.76596245833328,64.78905450000002,64.78905450000002,64.78905450000002,66.89246845800062,70.93998820800061,64.78905450000002,64.78905450000002,69.91357054200034,65.27502829200057,66.29046566700072,66.89246845800062,67.90937387500071,64.78905450000002,64.78905450000002,64.78262912499994,64.78905450000002,64.78905450000002,64.78905450000002,64.78262912499994,64.78905450000002,64.78905450000002,69.91357054200034,64.78905450000002,69.91357054200034,70.01555650000046,70.64224341699992,64.78905450000002,2,1,0.9629649159996916,reldom2_s012,001,2025-02-03_15h19.02.231,Where-A-Scan_AC,2022.2.5,None,
0,0.0,None,fixation,stimulus/viswhere_stim/blank_white.png,stimulus/viswhere_stim/blank_white.png,stimulus/audwhere_stim/blank_white.png,stimulus/audwhere_stim/blank_white.png,stimulus/viswhere_stim/blank_white.png,stimulus/viswhere_stim/blank_white.png,stimulus/viswhere_stim/blank_white.png,stimulus/viswhere_stim/blank_white.png,0.0,0.0,0.0,0.0,0,0.0,0,0.0,0,0.0,0,0.0,0,0.0,0.0,0,0.0,0,0.0,0,0.0,0,0.0,0,0.0,0,0.0,0,0.0,0,0.0,9,,,,,0,5,5,5,,,,,,,,,70.93998820800061,70.93998820800061,70.93998820800061,70.93998820800061,70.93998820800061,70.93998820800061,70.93998820800061,70.93998820800061,70.83673445833331,70.93998820800061,70.93998820800061,70.93998820800061,70.83673445833331,70.93998820800061,70.93998820800061,70.93998820800061,70.93998820800061,70.93998820800061,70.93998820800061,70.93998820800061,70.93998820800061,70.93998820800061,70.93998820800061,70.93998820800061,70.93998820800061,70.93998820800061,70.93998820800061,70.88673445833331,70.93998820800061,70.93998820800061,70.93998820800061,70.88673445833331,70.93998820800061,70.93998820800061,70.93998820800061,70.93998820800061,70.93998820800061,76.15618675000042,76.15618675000042,80.04402500000015,None,0,,reldom2_s012,001,2025-02-03_15h19.02.231,Where-A-Scan_AC,2022.2.5,None,
5,Second_Order,1.0,viswhere,stimulus/viswhere_stim/90-deg_dot-right_mediumslateblue.png,stimulus/viswhere_stim/90-deg_dot-left_peru.png,stimulus/viswhere_stim/150-deg_dot-left_seagreen.png,stimulus/viswhere_stim/120-deg_dot-left_mediumslateblue.png,stimulus/viswhere_stim/match_blank.png,stimulus/viswhere_stim/match_box.png,stimulus/viswhere_stim/match_yes.png,stimulus/viswhere_stim/match_no.png,2.0,Match,Line,Dot,2,5.125,0,5.125,0,5.125,0,5.125,0,0.75,0.75,1,0.5,1,2.125,1,0.5,1,2.125,0,0.0,0,0.0,0,0.0,0,0.0,0,,,,,0,6,6,6,,,,,,,,,80.04402500000015,85.16585320800004,80.52032779199999,81.51828379200015,82.14099133299987,83.1386024580006,80.04402500000015,80.04402500000015,80.05618104133384,80.04402500000015,80.04402500000015,80.04402500000015,80.05618104133384,80.04402500000015,85.16585320800004,85.94552945800024,88.03042416700009,91.92330770800072,85.94552945800024,85.94552945800024,91.08098966700072,86.41430858300009,87.42782458300007,88.03042416700009,89.05056787500052,85.94552945800024,85.94552945800024,85.93217800033338,85.94552945800024,85.94552945800024,85.94552945800024,85.93217800033338,85.94552945800024,85.94552945800024,91.08098966700072,85.94552945800024,91.08098966700072,91.15057029200034,91.92330770800072,85.94552945800024,2,1,1.8001048329988407,reldom2_s012,001,2025-02-03_15h19.02.231,Where-A-Scan_AC,2022.2.5,None,
6,Second_Order,1.0,viswhere,stimulus/viswhere_stim/60-deg_dot-right_salmon.png,stimulus/viswhere_stim/150-deg_dot-right_cyan.png,stimulus/viswhere_stim/120-deg_dot-left_lightsseagreen.png,stimulus/viswhere_stim/90-deg_dot-left_goldenrod.png,stimulus/viswhere_stim/match_blank.png,stimulus/viswhere_stim/match_box.png,stimulus/viswhere_stim/match_yes.png,stimulus/viswhere_stim/match_no.png,1.0,Match,Dot,Dot,1,5.125,0,5.125,0,5.125,0,5.125,0,0.625,0.625,1,0.5,1,2.125,1,0.5,1,2.125,0,0.0,0,0.0,0,0.0,0,0.0,0,,,,,0,7,7,7,,,,,,,,,91.92330770800072,97.04193916700024,92.41014866700061,93.39928383300048,94.03638374999991,95.03279858299993,91.92330770800072,91.92330770800072,91.93537704200007,91.92330770800072,91.92330770800072,91.92330770800072,91.93537704200007,91.92330770800072,97.04193916700024,97.70078679200014,99.79145591700035,103.83637412500048,97.70078679200014,97.70078679200014,102.8271970830001,98.16456016700067,99.17348554199998,99.79145591700035,100.80819795800016,97.70078679200014,97.70078679200014,97.68934958333332,97.70078679200014,97.70078679200014,97.70078679200014,97.68934958333332,97.70078679200014,97.70078679200014,102.8271970830001,97.70078679200014,102.8271970830001,102.91072912500022,103.53763162500036,97.70078679200014,1,1,0.521483165999598,reldom2_s012,001,2025-02-03_15h19.02.231,Where-A-Scan_AC,2022.2.5,None,
0,0.0,None,fixation,stimulus/viswhere_stim/blank_white.png,stimulus/viswhere_stim/blank_white.png,stimulus/audwhere_stim/blank_white.png,stimulus/audwhere_stim/blank_white.png,stimulus/viswhere_stim/blank_white.png,stimulus/viswhere_stim/blank_white.png,stimulus/viswhere_stim/blank_white.png,stimulus/viswhere_stim/blank_white.png,0.0,0.0,0.0,0.0,0,0.0,0,0.0,0,0.0,0,0.0,0,0.0,0.0,0,0.0,0,0.0,0,0.0,0,0.0,0,0.0,0,0.0,0,0.0,0,0.0,8,,,,,0,8,8,8,,,,,,,,,103.83637412500048,103.83637412500048,103.83637412500048,103.83637412500048,103.83637412500048,103.83637412500048,103.83637412500048,103.83637412500048,103.73200900033346,103.83637412500048,103.83637412500048,103.83637412500048,103.73200900033346,103.83637412500048,103.83637412500048,103.83637412500048,103.83637412500048,103.83637412500048,103.83637412500048,103.83637412500048,103.83637412500048,103.83637412500048,103.83637412500048,103.83637412500048,103.83637412500048,103.83637412500048,103.83637412500048,103.78200900033346,103.83637412500048,103.83637412500048,103.83637412500048,103.78200900033346,103.83637412500048,103.83637412500048,103.83637412500048,103.83637412500048,103.83637412500048,109.03903025,109.03903025,112.01852074999988,None,0,,reldom2_s012,001,2025-02-03_15h19.02.231,Where-A-Scan_AC,2022.2.5,None,
7,First_Order,2.0,viswhere,stimulus/viswhere_stim/blank_white.png,stimulus/viswhere_stim/blank_white.png,stimulus/viswhere_stim/30-deg_dot-right_cyan.png,stimulus/viswhere_stim/30-deg_dot-left_cyan.png,stimulus/viswhere_stim/blank_white.png,stimulus/viswhere_stim/line_box.png,stimulus/viswhere_stim/line_yes.png,stimulus/viswhere_stim/line_no.png,None,Line,None,Line,1,0.0,0,5.125,0,5.125,0,5.125,0,0.0,0.625,0,0.0,0,0.0,1,0.5,1,2.125,0,0.0,0,0.0,0,0.0,0,0.0,0,,,,,0,9,9,9,,,,,,,,,112.01852074999988,112.01852074999988,112.01852074999988,112.01852074999988,112.01852074999988,112.01852074999988,112.01852074999988,112.01852074999988,111.99617958366677,112.01852074999988,112.01852074999988,112.01852074999988,111.99617958366677,112.01852074999988,112.01852074999988,112.01852074999988,114.12866045800001,118.07596474999991,112.01852074999988,112.01852074999988,117.1546698330003,112.5039993750006,113.51239400000031,114.12866045800001,115.1424179579999,112.01852074999988,112.01852074999988,112.01284625033344,112.01852074999988,112.01852074999988,112.01852074999988,112.01284625033344,112.01852074999988,112.01852074999988,117.1546698330003,112.01852074999988,117.1546698330003,117.23812908299988,117.86476375000075,112.01852074999988,1,1,0.9694224579998263,reldom2_s012,001,2025-02-03_15h19.02.231,Where-A-Scan_AC,2022.2.5,None,
8,First_Order,2.0,viswhere,stimulus/viswhere_stim/blank_white.png,stimulus/viswhere_stim/blank_white.png,stimulus/viswhere_stim/60-deg_dot-right_slateblue.png,stimulus/viswhere_stim/60-deg_dot-left_goldenrod.png,stimulus/viswhere_stim/blank_white.png,stimulus/viswhere_stim/dot_box.png,stimulus/viswhere_stim/dot_yes.png,stimulus/viswhere_stim/dot_no.png,None,Dot,None,Line,2,0.0,0,5.125,0,5.125,0,5.125,0,0.0,0.625,0,0.0,0,0.0,1,0.5,1,2.125,0,0.0,0,0.0,0,0.0,0,0.0,0,,,,,0,10,10,10,,,,,,,,,118.07596474999991,118.07596474999991,118.07596474999991,118.07596474999991,118.07596474999991,118.07596474999991,118.07596474999991,118.07596474999991,118.05142379133333,118.07596474999991,118.07596474999991,118.07596474999991,118.05142379133333,118.07596474999991,118.07596474999991,118.07596474999991,120.17982370800019,124.14122879200022,118.07596474999991,118.07596474999991,123.19968275000065,118.56023887500032,119.56381975000022,120.17982370800019,121.19110991700018,118.07596474999991,118.07596474999991,118.068090458,118.07596474999991,118.07596474999991,118.07596474999991,118.068090458,118.07596474999991,118.07596474999991,123.19968275000065,118.07596474999991,123.19968275000065,123.29715854200003,123.92295354199996,118.07596474999991,2,1,1.4329780829993979,reldom2_s012,001,2025-02-03_15h19.02.231,Where-A-Scan_AC,2022.2.5,None,
9,First_Order,2.0,viswhere,stimulus/viswhere_stim/blank_white.png,stimulus/viswhere_stim/blank_white.png,stimulus/viswhere_stim/90-deg_dot-right_cyan.png,stimulus/viswhere_stim/60-deg_dot-right_slateblue.png,stimulus/viswhere_stim/blank_white.png,stimulus/viswhere_stim/dot_box.png,stimulus/viswhere_stim/dot_yes.png,stimulus/viswhere_stim/dot_no.png,None,Dot,None,Dot,1,0.0,0,5.125,0,5.125,0,5.125,0,0.0,0.625,0,0.0,0,0.0,1,0.5,1,2.125,0,0.0,0,0.0,0,0.0,0,0.0,0,,,,,0,11,11,11,,,,,,,,,124.14122879200022,124.14122879200022,124.14122879200022,124.14122879200022,124.14122879200022,124.14122879200022,124.14122879200022,124.14122879200022,124.1181915833334,124.14122879200022,124.14122879200022,124.14122879200022,124.1181915833334,124.14122879200022,124.14122879200022,124.14122879200022,126.25349658300001,130.21204379200026,124.14122879200022,124.14122879200022,129.28016025000034,124.62687491700035,125.63413562500045,126.25349658300001,127.26676775000033,124.14122879200022,124.14122879200022,124.13485825000006,124.14122879200022,124.14122879200022,124.14122879200022,124.13485825000006,124.14122879200022,124.14122879200022,129.28016025000034,124.14122879200022,129.28016025000034,129.36371920800048,129.98970383300002,124.14122879200022,1,1,0.6892647909990046,reldom2_s012,001,2025-02-03_15h19.02.231,Where-A-Scan_AC,2022.2.5,None,
10,First_Order,2.0,viswhere,stimulus/viswhere_stim/blank_white.png,stimulus/viswhere_stim/blank_white.png,stimulus/viswhere_stim/60-deg_dot-left_mediumslateblue.png,stimulus/viswhere_stim/150-deg_dot-left_peru.png,stimulus/viswhere_stim/blank_white.png,stimulus/viswhere_stim/dot_box.png,stimulus/viswhere_stim/dot_yes.png,stimulus/viswhere_stim/dot_no.png,None,Dot,None,Dot,1,0.0,0,5.125,0,5.125,0,5.125,0,0.0,0.625,0,0.0,0,0.0,1,0.5,1,2.125,0,0.0,0,0.0,0,0.0,0,0.0,0,,,,,0,12,12,12,,,,,,,,,130.21204379200026,130.21204379200026,130.21204379200026,130.21204379200026,130.21204379200026,130.21204379200026,130.21204379200026,130.21204379200026,130.18426516633403,130.21204379200026,130.21204379200026,130.21204379200026,130.18426516633403,130.21204379200026,130.21204379200026,130.21204379200026,132.30987975000062,136.3582942920002,130.21204379200026,130.21204379200026,135.3478405830001,130.69848441700015,131.70728345800035,132.30987975000062,133.32614941700012,130.21204379200026,130.21204379200026,130.2009318330007,130.21204379200026,130.21204379200026,130.21204379200026,130.2009318330007,130.21204379200026,130.21204379200026,135.3478405830001,130.21204379200026,135.3478405830001,135.43617733300016,136.06796125000074,130.21204379200026,1,1,0.7313323749995106,reldom2_s012,001,2025-02-03_15h19.02.231,Where-A-Scan_AC,2022.2.5,None,
0,0.0,None,fixation,stimulus/viswhere_stim/blank_white.png,stimulus/viswhere_stim/blank_white.png,stimulus/audwhere_stim/blank_white.png,stimulus/audwhere_stim/blank_white.png,stimulus/viswhere_stim/blank_white.png,stimulus/viswhere_stim/blank_white.png,stimulus/viswhere_stim/blank_white.png,stimulus/viswhere_stim/blank_white.png,0.0,0.0,0.0,0.0,0,0.0,0,0.0,0,0.0,0,0.0,0,0.0,0.0,0,0.0,0,0.0,0,0.0,0,0.0,0,0.0,0,0.0,0,0.0,0,0.0,10,,,,,0,13,13,13,,,,,,,,,136.3582942920002,136.3582942920002,136.3582942920002,136.3582942920002,136.3582942920002,136.3582942920002,136.3582942920002,136.3582942920002,136.25447883333376,136.3582942920002,136.3582942920002,136.3582942920002,136.25447883333376,136.3582942920002,136.3582942920002,136.3582942920002,136.3582942920002,136.3582942920002,136.3582942920002,136.3582942920002,136.3582942920002,136.3582942920002,136.3582942920002,136.3582942920002,136.3582942920002,136.3582942920002,136.3582942920002,136.30447883333377,136.3582942920002,136.3582942920002,136.3582942920002,136.30447883333377,136.3582942920002,136.3582942920002,136.3582942920002,136.3582942920002,136.3582942920002,141.56061229199986,141.56061229199986,146.4986677500001,None,0,,reldom2_s012,001,2025-02-03_15h19.02.231,Where-A-Scan_AC,2022.2.5,None,
11,Second_Order,2.0,viswhere,stimulus/viswhere_stim/120-deg_dot-right_turquoise.png,stimulus/viswhere_stim/120-deg_dot-left_goldenrod.png,stimulus/viswhere_stim/60-deg_dot-left_turquoise.png,stimulus/viswhere_stim/150-deg_dot-left_seagreen.png,stimulus/viswhere_stim/match_blank.png,stimulus/viswhere_stim/match_box.png,stimulus/viswhere_stim/match_yes.png,stimulus/viswhere_stim/match_no.png,2.0,Match,Line,Dot,2,5.125,0,5.125,0,5.125,0,5.125,0,0.75,0.75,1,0.5,1,2.125,1,0.5,1,2.125,0,0.0,0,0.0,0,0.0,0,0.0,0,,,,,0,14,14,14,,,,,,,,,146.4986677500001,151.61856266700033,146.9734181670001,147.97121866700036,148.60648166700048,149.5957117500002,146.4986677500001,146.4986677500001,146.51033500033387,146.4986677500001,146.4986677500001,146.4986677500001,146.51033500033387,146.4986677500001,151.61856266700033,152.3914557500002,154.48195300000043,158.34983720800028,152.3914557500002,152.3914557500002,157.51975820799998,152.86003400000027,153.8771079170001,154.48195300000043,155.48584025000036,152.3914557500002,152.3914557500002,152.38513779133388,152.3914557500002,152.3914557500002,152.3914557500002,152.38513779133388,152.3914557500002,152.3914557500002,157.51975820799998,152.3914557500002,157.51975820799998,157.60410370800037,158.3876033330007,152.3914557500002,2,1,0.8895082909994017,reldom2_s012,001,2025-02-03_15h19.02.231,Where-A-Scan_AC,2022.2.5,None,
12,Second_Order,2.0,viswhere,stimulus/viswhere_stim/30-deg_dot-right_mediumslateblue.png,stimulus/viswhere_stim/30-deg_dot-left_seagreen.png,stimulus/viswhere_stim/120-deg_dot-right_goldenrod.png,stimulus/viswhere_stim/120-deg_dot-left_salmon.png,stimulus/viswhere_stim/match_blank.png,stimulus/viswhere_stim/match_box.png,stimulus/viswhere_stim/match_yes.png,stimulus/viswhere_stim/match_no.png,1.0,Match,Line,Line,1,5.125,0,5.125,0,5.125,0,5.125,0,0.625,0.625,1,0.5,1,2.125,1,0.5,1,2.125,0,0.0,0,0.0,0,0.0,0,0.0,0,,,,,0,15,15,15,,,,,,,,,158.3876033330007,163.50747491699985,158.86751870800072,159.86559683300038,160.48821312500058,161.4860410830006,158.3876033330007,158.3876033330007,158.3998372080003,158.3876033330007,158.3876033330007,158.3876033330007,158.3998372080003,158.3876033330007,163.50747491699985,164.16729079200013,166.25751908300026,170.30492649999997,164.16729079200013,164.16729079200013,169.28927866699996,164.63190645800023,165.63774224999997,166.25751908300026,167.27296579199992,164.16729079200013,164.16729079200013,164.1587837503335,164.16729079200013,164.16729079200013,164.16729079200013,164.1587837503335,164.16729079200013,164.16729079200013,169.28927866699996,164.16729079200013,169.28927866699996,169.38666462499987,170.01829516700036,164.16729079200013,1,1,0.6999737079995612,reldom2_s012,001,2025-02-03_15h19.02.231,Where-A-Scan_AC,2022.2.5,None,
0,0.0,None,fixation,stimulus/viswhere_stim/blank_white.png,stimulus/viswhere_stim/blank_white.png,stimulus/audwhere_stim/blank_white.png,stimulus/audwhere_stim/blank_white.png,stimulus/viswhere_stim/blank_white.png,stimulus/viswhere_stim/blank_white.png,stimulus/viswhere_stim/blank_white.png,stimulus/viswhere_stim/blank_white.png,0.0,0.0,0.0,0.0,0,0.0,0,0.0,0,0.0,0,0.0,0,0.0,0.0,0,0.0,0,0.0,0,0.0,0,0.0,0,0.0,0,0.0,0,0.0,0,0.0,8,,,,,0,16,16,16,,,,,,,,,170.30492649999997,170.30492649999997,170.30492649999997,170.30492649999997,170.30492649999997,170.30492649999997,170.30492649999997,170.30492649999997,170.19905125033378,170.30492649999997,170.30492649999997,170.30492649999997,170.19905125033378,170.30492649999997,170.30492649999997,170.30492649999997,170.30492649999997,170.30492649999997,170.30492649999997,170.30492649999997,170.30492649999997,170.30492649999997,170.30492649999997,170.30492649999997,170.30492649999997,170.30492649999997,170.30492649999997,170.2490512503338,170.30492649999997,170.30492649999997,170.30492649999997,170.2490512503338,170.30492649999997,170.30492649999997,170.30492649999997,170.30492649999997,170.30492649999997,175.53226587500012,175.53226587500012,178.58456379200015,None,0,,reldom2_s012,001,2025-02-03_15h19.02.231,Where-A-Scan_AC,2022.2.5,None,
13,First_Order,3.0,audwhere,stimulus/audwhere_stim/dummy.wav,stimulus/audwhere_stim/dummy.wav,stimulus/audwhere_stim/right_away_290h.wav,stimulus/audwhere_stim/right_toward_280h.wav,stimulus/audwhere_stim/blank_white.png,stimulus/audwhere_stim/side_box.png,stimulus/audwhere_stim/side_yes.png,stimulus/audwhere_stim/side_no.png,None,Side,None,Side,1,0.0,0,5.125,0,5.125,0,5.125,0,0.0,0.625,0,0.0,0,0.0,0,0.0,0,0.0,0,0.0,0,0.0,1,0.5,1,2.125,0,,,,,0,17,17,17,,,,,,,,,178.58456379200015,178.58456379200015,178.58456379200015,178.58456379200015,178.58456379200015,178.58456379200015,178.58456379200015,178.58456379200015,178.50556949966693,178.58456379200015,178.58456379200015,178.58456379200015,178.50556949966693,178.58456379200015,178.58456379200015,178.58456379200015,180.69706016700002,184.7060043750007,178.58456379200015,178.58456379200015,183.74532975000056,178.58456379200015,178.58456379200015,178.58456379200015,178.58456379200015,179.05385554200075,180.08629658300015,179.02355437466693,,180.69706016700002,181.73075912500008,180.66610174966743,,178.58456379200015,183.74532975000056,178.58456379200015,183.74532975000056,183.78684175000035,184.44848970800012,178.58456379200015,1,1,1.594305498999347,reldom2_s012,001,2025-02-03_15h19.02.231,Where-A-Scan_AC,2022.2.5,None,
14,First_Order,3.0,audwhere,stimulus/audwhere_stim/dummy.wav,stimulus/audwhere_stim/dummy.wav,stimulus/audwhere_stim/right_away_300h.wav,stimulus/audwhere_stim/left_away_300h.wav,stimulus/audwhere_stim/blank_white.png,stimulus/audwhere_stim/side_box.png,stimulus/audwhere_stim/side_yes.png,stimulus/audwhere_stim/side_no.png,None,Side,None,Direction,2,0.0,0,5.125,0,5.125,0,5.125,0,0.0,0.625,0,0.0,0,0.0,0,0.0,0,0.0,0,0.0,0,0.0,1,0.5,1,2.125,0,,,,,0,18,18,18,,,,,,,,,184.7060043750007,184.7060043750007,184.7060043750007,184.7060043750007,184.7060043750007,184.7060043750007,184.7060043750007,184.7060043750007,184.62294895833398,184.7060043750007,184.7060043750007,184.7060043750007,184.62294895833398,184.7060043750007,184.7060043750007,184.7060043750007,186.78328816700014,190.82373837500018,184.7060043750007,184.7060043750007,189.86232199999995,184.7060043750007,184.7060043750007,184.7060043750007,184.7060043750007,185.1735664580001,186.21252770800038,185.14314970866715,,186.78328816700014,187.8384121250001,186.75082416666672,,184.7060043750007,189.86232199999995,184.7060043750007,189.86232199999995,189.90397395800028,190.56634495800063,184.7060043750007,None,0,,reldom2_s012,001,2025-02-03_15h19.02.231,Where-A-Scan_AC,2022.2.5,None,
15,First_Order,3.0,audwhere,stimulus/audwhere_stim/dummy.wav,stimulus/audwhere_stim/dummy.wav,stimulus/audwhere_stim/left_away_290h.wav,stimulus/audwhere_stim/right_away_280h.wav,stimulus/audwhere_stim/blank_white.png,stimulus/audwhere_stim/direction_box.png,stimulus/audwhere_stim/direction_yes.png,stimulus/audwhere_stim/direction_no.png,None,Direction,None,Direction,1,0.0,0,5.125,0,5.125,0,5.125,0,0.0,0.625,0,0.0,0,0.0,0,0.0,0,0.0,0,0.0,0,0.0,1,0.5,1,2.125,0,,,,,0,19,19,19,,,,,,,,,190.82373837500018,190.82373837500018,190.82373837500018,190.82373837500018,190.82373837500018,190.82373837500018,190.82373837500018,190.82373837500018,190.74132462533376,190.82373837500018,190.82373837500018,190.82373837500018,190.74132462533376,190.82373837500018,190.82373837500018,190.82373837500018,192.90532791700025,196.94072320800024,190.82373837500018,190.82373837500018,195.97458887500034,190.82373837500018,190.82373837500018,190.82373837500018,190.82373837500018,191.29481979200045,192.33868229200016,191.26414091666655,,192.90532791700025,193.94423025000015,192.8741721666668,,190.82373837500018,195.97458887500034,190.82373837500018,195.97458887500034,196.0167282500006,196.68314416700014,190.82373837500018,1,1,1.6999510409987124,reldom2_s012,001,2025-02-03_15h19.02.231,Where-A-Scan_AC,2022.2.5,None,
16,First_Order,3.0,audwhere,stimulus/audwhere_stim/dummy.wav,stimulus/audwhere_stim/dummy.wav,stimulus/audwhere_stim/right_toward_270h.wav,stimulus/audwhere_stim/right_away_300h.wav,stimulus/audwhere_stim/blank_white.png,stimulus/audwhere_stim/direction_box.png,stimulus/audwhere_stim/direction_yes.png,stimulus/audwhere_stim/direction_no.png,None,Direction,None,Side,2,0.0,0,5.125,0,5.125,0,5.125,0,0.0,0.625,0,0.0,0,0.0,0,0.0,0,0.0,0,0.0,0,0.0,1,0.5,1,2.125,0,,,,,0,20,20,20,,,,,,,,,196.94072320800024,196.94072320800024,196.94072320800024,196.94072320800024,196.94072320800024,196.94072320800024,196.94072320800024,196.94072320800024,196.85733325033394,196.94072320800024,196.94072320800024,196.94072320800024,196.85733325033394,196.94072320800024,196.94072320800024,196.94072320800024,199.02203358299994,203.0800492920007,196.94072320800024,196.94072320800024,202.0914883330006,196.94072320800024,196.94072320800024,196.94072320800024,196.94072320800024,197.41358512500028,198.45453995800017,197.3824887086669,,199.02203358299994,200.06435070800035,198.99094445866675,,196.94072320800024,202.0914883330006,196.94072320800024,202.0914883330006,202.13312833300006,202.79986183300025,196.94072320800024,None,0,,reldom2_s012,001,2025-02-03_15h19.02.231,Where-A-Scan_AC,2022.2.5,None,
0,0.0,None,fixation,stimulus/viswhere_stim/blank_white.png,stimulus/viswhere_stim/blank_white.png,stimulus/audwhere_stim/blank_white.png,stimulus/audwhere_stim/blank_white.png,stimulus/viswhere_stim/blank_white.png,stimulus/viswhere_stim/blank_white.png,stimulus/viswhere_stim/blank_white.png,stimulus/viswhere_stim/blank_white.png,0.0,0.0,0.0,0.0,0,0.0,0,0.0,0,0.0,0,0.0,0,0.0,0.0,0,0.0,0,0.0,0,0.0,0,0.0,0,0.0,0,0.0,0,0.0,0,0.0,9,,,,,0,21,21,21,,,,,,,,,203.0800492920007,203.0800492920007,203.0800492920007,203.0800492920007,203.0800492920007,203.0800492920007,203.0800492920007,203.0800492920007,202.97428400033382,203.0800492920007,203.0800492920007,203.0800492920007,202.97428400033382,203.0800492920007,203.0800492920007,203.0800492920007,203.0800492920007,203.0800492920007,203.0800492920007,203.0800492920007,203.0800492920007,203.0800492920007,203.0800492920007,203.0800492920007,203.0800492920007,203.0800492920007,203.0800492920007,203.0242840003338,203.0800492920007,203.0800492920007,203.0800492920007,203.0242840003338,203.0800492920007,203.0800492920007,203.0800492920007,203.0800492920007,203.0800492920007,208.2900066250004,208.2900066250004,212.23671258300055,None,0,,reldom2_s012,001,2025-02-03_15h19.02.231,Where-A-Scan_AC,2022.2.5,None,
17,Second_Order,3.0,audwhere,stimulus/audwhere_stim/right_away_270h.wav,stimulus/audwhere_stim/left_away_270h.wav,stimulus/audwhere_stim/right_toward_280h.wav,stimulus/audwhere_stim/left_toward_280h.wav,stimulus/viswhere_stim/match_blank.png,stimulus/audwhere_stim/match_box.png,stimulus/viswhere_stim/match_yes.png,stimulus/viswhere_stim/match_no.png,1.0,Match,Direction,Direction,1,5.125,0,5.125,0,5.125,0,5.125,0,0.75,0.75,0,0.0,0,0.0,0,0.0,0,0.0,1,0.5,1,2.125,1,0.5,1,2.125,0,,,,,0,22,22,22,,,,,,,,,212.23671258300055,217.35335829199994,212.23671258300055,212.23671258300055,212.23671258300055,212.23671258300055,212.69154233300014,213.68978083300044,212.70398258366666,213.69777158299985,214.312404583,215.31028091700045,214.3244800836667,215.31814912500067,217.35335829199994,218.18591212499996,220.24999916700017,,218.18591212499996,218.18591212499996,223.34676370800025,218.18591212499996,218.18591212499996,218.18591212499996,218.18591212499996,218.656211042,219.68728091699995,218.6255282916666,,220.24999916700017,221.28306191699994,220.21798033366693,,218.18591212499996,223.34676370800025,218.18591212499996,223.34676370800025,223.38854204200015,,218.18591212499996,1,1,1.3071066249995056,reldom2_s012,001,2025-02-03_15h19.02.231,Where-A-Scan_AC,2022.2.5,None,
18,Second_Order,3.0,audwhere,stimulus/audwhere_stim/left_away_300h.wav,stimulus/audwhere_stim/right_away_290h.wav,stimulus/audwhere_stim/left_toward_300h.wav,stimulus/audwhere_stim/left_away_290h.wav,stimulus/viswhere_stim/match_blank.png,stimulus/audwhere_stim/match_box.png,stimulus/viswhere_stim/match_yes.png,stimulus/viswhere_stim/match_no.png,2.0,Match,Direction,Side,2,5.125,0,5.125,0,5.125,0,5.125,0,0.625,0.625,0,0.0,0,0.0,0,0.0,0,0.0,1,0.5,1,2.125,1,0.5,1,2.125,0,,,,,0,23,23,23,,,,,,,,,224.16910566700062,229.29299479200017,224.16910566700062,224.16910566700062,224.16910566700062,224.16910566700062,224.6192565830006,225.61759504200018,224.63163699966688,225.62638916700053,226.25217262500064,227.24112420800066,226.25569654166728,227.25465437500043,229.29299479200017,230.00771070800056,232.1051467920006,,230.00771070800056,230.00771070800056,235.19209825000053,230.00771070800056,230.00771070800056,230.00771070800056,230.00771070800056,230.4744618750001,231.545392,230.44433445866733,,232.1051467920006,233.1372084580007,232.07417187466697,,230.00771070800056,235.19209825000053,230.00771070800056,235.19209825000053,235.19209825000053,235.8489638330002,230.00771070800056,2,1,1.1321188329993674,reldom2_s012,001,2025-02-03_15h19.02.231,Where-A-Scan_AC,2022.2.5,None,
0,0.0,None,fixation,stimulus/viswhere_stim/blank_white.png,stimulus/viswhere_stim/blank_white.png,stimulus/audwhere_stim/blank_white.png,stimulus/audwhere_stim/blank_white.png,stimulus/viswhere_stim/blank_white.png,stimulus/viswhere_stim/blank_white.png,stimulus/viswhere_stim/blank_white.png,stimulus/viswhere_stim/blank_white.png,0.0,0.0,0.0,0.0,0,0.0,0,0.0,0,0.0,0,0.0,0,0.0,0.0,0,0.0,0,0.0,0,0.0,0,0.0,0,0.0,0,0.0,0,0.0,0,0.0,9,,,,,0,24,24,24,,,,,,,,,236.1266746250003,236.1266746250003,236.1266746250003,236.1266746250003,236.1266746250003,236.1266746250003,236.1266746250003,236.1266746250003,236.0231338753339,236.1266746250003,236.1266746250003,236.1266746250003,236.0231338753339,236.1266746250003,236.1266746250003,236.1266746250003,236.1266746250003,236.1266746250003,236.1266746250003,236.1266746250003,236.1266746250003,236.1266746250003,236.1266746250003,236.1266746250003,236.1266746250003,236.1266746250003,236.1266746250003,236.0731338753339,236.1266746250003,236.1266746250003,236.1266746250003,236.0731338753339,236.1266746250003,236.1266746250003,236.1266746250003,236.1266746250003,236.1266746250003,241.35353020799994,241.35353020799994,245.37608529200043,None,0,,reldom2_s012,001,2025-02-03_15h19.02.231,Where-A-Scan_AC,2022.2.5,None,
19,First_Order,4.0,audwhere,stimulus/audwhere_stim/dummy.wav,stimulus/audwhere_stim/dummy.wav,stimulus/audwhere_stim/right_away_300h.wav,stimulus/audwhere_stim/left_away_280h.wav,stimulus/audwhere_stim/blank_white.png,stimulus/audwhere_stim/direction_box.png,stimulus/audwhere_stim/direction_yes.png,stimulus/audwhere_stim/direction_no.png,None,Direction,None,Direction,1,0.0,0,5.125,0,5.125,0,5.125,0,0.0,0.625,0,0.0,0,0.0,0,0.0,0,0.0,0,0.0,0,0.0,1,0.5,1,2.125,0,,,,,0,25,25,25,,,,,,,,,245.37608529200043,245.37608529200043,245.37608529200043,245.37608529200043,245.37608529200043,245.37608529200043,245.37608529200043,245.37608529200043,245.29932520866686,245.37608529200043,245.37608529200043,245.37608529200043,245.29932520866686,245.37608529200043,245.37608529200043,245.37608529200043,247.45247458300037,,245.37608529200043,245.37608529200043,250.56501645800017,245.37608529200043,245.37608529200043,245.37608529200043,245.37608529200043,245.84749775,246.88724000000002,245.81688387466718,,247.45247458300037,248.49308462499994,247.42215433366735,,245.37608529200043,250.56501645800017,245.37608529200043,250.56501645800017,250.56501645800017,251.22840045800058,245.37608529200043,None,0,,reldom2_s012,001,2025-02-03_15h19.02.231,Where-A-Scan_AC,2022.2.5,None,
20,First_Order,4.0,audwhere,stimulus/audwhere_stim/dummy.wav,stimulus/audwhere_stim/dummy.wav,stimulus/audwhere_stim/right_toward_270h.wav,stimulus/audwhere_stim/right_away_280h.wav,stimulus/audwhere_stim/blank_white.png,stimulus/audwhere_stim/direction_box.png,stimulus/audwhere_stim/direction_yes.png,stimulus/audwhere_stim/direction_no.png,None,Direction,None,Side,2,0.0,0,5.125,0,5.125,0,5.125,0,0.0,0.625,0,0.0,0,0.0,0,0.0,0,0.0,0,0.0,0,0.0,1,0.5,1,2.125,0,,,,,0,26,26,26,,,,,,,,,251.48597300000074,251.48597300000074,251.48597300000074,251.48597300000074,251.48597300000074,251.48597300000074,251.48597300000074,251.48597300000074,251.4033522083338,251.48597300000074,251.48597300000074,251.48597300000074,251.4033522083338,251.48597300000074,251.48597300000074,251.48597300000074,253.56564895800057,257.60295266699995,251.48597300000074,251.48597300000074,256.63860462499997,251.48597300000074,251.48597300000074,251.48597300000074,251.48597300000074,251.95611675000055,252.9982783330006,251.92563079166692,,253.56564895800057,254.61058137500004,253.53513120866708,,251.48597300000074,256.63860462499997,251.48597300000074,256.63860462499997,256.680605042,257.3459477920005,251.48597300000074,1,0,1.2542094579994227,reldom2_s012,001,2025-02-03_15h19.02.231,Where-A-Scan_AC,2022.2.5,None,
21,First_Order,4.0,audwhere,stimulus/audwhere_stim/dummy.wav,stimulus/audwhere_stim/dummy.wav,stimulus/audwhere_stim/left_toward_300h.wav,stimulus/audwhere_stim/left_away_300h.wav,stimulus/audwhere_stim/blank_white.png,stimulus/audwhere_stim/side_box.png,stimulus/audwhere_stim/side_yes.png,stimulus/audwhere_stim/side_no.png,None,Side,None,Side,1,0.0,0,5.125,0,5.125,0,5.125,0,0.0,0.625,0,0.0,0,0.0,0,0.0,0,0.0,0,0.0,0,0.0,1,0.5,1,2.125,0,,,,,0,27,27,27,,,,,,,,,257.60295266699995,257.60295266699995,257.60295266699995,257.60295266699995,257.60295266699995,257.60295266699995,257.60295266699995,257.60295266699995,257.52073975033375,257.60295266699995,257.60295266699995,257.60295266699995,257.52073975033375,257.60295266699995,257.60295266699995,257.60295266699995,259.6738991250004,263.73409683299997,257.60295266699995,257.60295266699995,262.77599216700037,257.60295266699995,257.60295266699995,257.60295266699995,257.60295266699995,258.0740237500004,259.11039054200046,258.043077958667,,259.6738991250004,260.7119286249999,259.64314408366704,,257.60295266699995,262.77599216700037,257.60295266699995,262.77599216700037,262.81790658299997,263.47875275000024,257.60295266699995,1,1,0.8748466669994741,reldom2_s012,001,2025-02-03_15h19.02.231,Where-A-Scan_AC,2022.2.5,None,
22,First_Order,4.0,audwhere,stimulus/audwhere_stim/dummy.wav,stimulus/audwhere_stim/dummy.wav,stimulus/audwhere_stim/right_away_270h.wav,stimulus/audwhere_stim/left_away_300h.wav,stimulus/audwhere_stim/blank_white.png,stimulus/audwhere_stim/side_box.png,stimulus/audwhere_stim/side_yes.png,stimulus/audwhere_stim/side_no.png,None,Side,None,Direction,2,0.0,0,5.125,0,5.125,0,5.125,0,0.0,0.625,0,0.0,0,0.0,0,0.0,0,0.0,0,0.0,0,0.0,1,0.5,1,2.125,0,,,,,0,28,28,28,,,,,,,,,263.73409683299997,263.73409683299997,263.73409683299997,263.73409683299997,263.73409683299997,263.73409683299997,263.73409683299997,263.73409683299997,263.6525297913332,263.73409683299997,263.73409683299997,263.73409683299997,263.6525297913332,263.73409683299997,263.73409683299997,263.73409683299997,265.8504080420007,,263.73409683299997,263.73409683299997,268.91110879200005,263.73409683299997,263.73409683299997,263.73409683299997,263.73409683299997,264.2031819170006,265.23900933300047,264.172980833667,,265.8504080420007,266.89234354200016,265.8196246246673,,263.73409683299997,268.91110879200005,263.73409683299997,268.91110879200005,268.9523054170004,269.61270175000027,263.73409683299997,2,1,0.9302372080001078,reldom2_s012,001,2025-02-03_15h19.02.231,Where-A-Scan_AC,2022.2.5,None,
0,0.0,None,fixation,stimulus/viswhere_stim/blank_white.png,stimulus/viswhere_stim/blank_white.png,stimulus/audwhere_stim/blank_white.png,stimulus/audwhere_stim/blank_white.png,stimulus/viswhere_stim/blank_white.png,stimulus/viswhere_stim/blank_white.png,stimulus/viswhere_stim/blank_white.png,stimulus/viswhere_stim/blank_white.png,0.0,0.0,0.0,0.0,0,0.0,0,0.0,0,0.0,0,0.0,0,0.0,0.0,0,0.0,0,0.0,0,0.0,0,0.0,0,0.0,0,0.0,0,0.0,0,0.0,9,,,,,0,29,29,29,,,,,,,,,269.8505257500001,269.8505257500001,269.8505257500001,269.8505257500001,269.8505257500001,269.8505257500001,269.8505257500001,269.8505257500001,269.7460350833336,269.8505257500001,269.8505257500001,269.8505257500001,269.7460350833336,269.8505257500001,269.8505257500001,269.8505257500001,269.8505257500001,269.8505257500001,269.8505257500001,269.8505257500001,269.8505257500001,269.8505257500001,269.8505257500001,269.8505257500001,269.8505257500001,269.8505257500001,269.8505257500001,269.7960350833336,269.8505257500001,269.8505257500001,269.8505257500001,269.7960350833336,269.8505257500001,269.8505257500001,269.8505257500001,269.8505257500001,269.8505257500001,275.0528599170002,275.0528599170002,278.99607166700025,None,0,,reldom2_s012,001,2025-02-03_15h19.02.231,Where-A-Scan_AC,2022.2.5,None,
23,Second_Order,4.0,audwhere,stimulus/audwhere_stim/left_away_270h.wav,stimulus/audwhere_stim/left_toward_290h.wav,stimulus/audwhere_stim/left_toward_300h.wav,stimulus/audwhere_stim/right_toward_280h.wav,stimulus/viswhere_stim/match_blank.png,stimulus/audwhere_stim/match_box.png,stimulus/viswhere_stim/match_yes.png,stimulus/viswhere_stim/match_no.png,2.0,Match,Side,Direction,2,5.125,0,5.125,0,5.125,0,5.125,0,0.75,0.75,0,0.0,0,0.0,0,0.0,0,0.0,1,0.5,1,2.125,1,0.5,1,2.125,0,,,,,0,30,30,30,,,,,,,,,278.99607166700025,284.11908208300065,278.99607166700025,278.99607166700025,278.99607166700025,278.99607166700025,279.4452974169999,280.4435088330001,279.45795687466693,280.4515179170003,281.0667988330006,282.0640544170001,281.0785239586669,282.0720050830005,284.11908208300065,284.95595437500015,287.0224108749999,,284.95595437500015,284.95595437500015,290.11858604200006,284.95595437500015,284.95595437500015,284.95595437500015,284.95595437500015,285.42492333300015,286.4595565420004,285.394137999667,,287.0224108749999,288.05854620800073,286.9915791666674,,284.95595437500015,290.11858604200006,284.95595437500015,290.11858604200006,290.1597369170004,,284.95595437500015,2,1,0.7842236669994236,reldom2_s012,001,2025-02-03_15h19.02.231,Where-A-Scan_AC,2022.2.5,None,
24,Second_Order,4.0,audwhere,stimulus/audwhere_stim/right_toward_290h.wav,stimulus/audwhere_stim/right_away_290h.wav,stimulus/audwhere_stim/left_away_300h.wav,stimulus/audwhere_stim/left_toward_270h.wav,stimulus/viswhere_stim/match_blank.png,stimulus/audwhere_stim/match_box.png,stimulus/viswhere_stim/match_yes.png,stimulus/viswhere_stim/match_no.png,1.0,Match,Side,Side,1,5.125,0,5.125,0,5.125,0,5.125,0,0.625,0.625,0,0.0,0,0.0,0,0.0,0,0.0,1,0.5,1,2.125,1,0.5,1,2.125,0,,,,,0,31,31,31,,,,,,,,,290.9430782500003,296.0635690420004,290.9430782500003,290.9430782500003,290.9430782500003,290.9430782500003,291.40235891700013,292.39149562500006,291.40578566666704,292.4046376670003,293.0274418750005,294.0257119580001,293.0395670416667,294.0338737920001,296.0635690420004,296.77768025000023,298.8754511249999,,296.77768025000023,296.77768025000023,301.95982916699995,296.77768025000023,296.77768025000023,296.77768025000023,296.77768025000023,297.24251987500065,298.3158105830007,297.2122317916667,,298.8754511249999,299.94930787500016,298.8435576246668,,296.77768025000023,301.95982916699995,296.77768025000023,301.95982916699995,301.95982916699995,302.6187757080006,296.77768025000023,1,1,1.2747866249992512,reldom2_s012,001,2025-02-03_15h19.02.231,Where-A-Scan_AC,2022.2.5,None,
0,0.0,None,fixation,stimulus/viswhere_stim/blank_white.png,stimulus/viswhere_stim/blank_white.png,stimulus/audwhere_stim/blank_white.png,stimulus/audwhere_stim/blank_white.png,stimulus/viswhere_stim/blank_white.png,stimulus/viswhere_stim/blank_white.png,stimulus/viswhere_stim/blank_white.png,stimulus/viswhere_stim/blank_white.png,0.0,0.0,0.0,0.0,0,0.0,0,0.0,0,0.0,0,0.0,0,0.0,0.0,0,0.0,0,0.0,0,0.0,0,0.0,0,0.0,0,0.0,0,0.0,0,0.0,10,,,,,0,32,32,32,,,,,,,,,302.8975488750002,302.8975488750002,302.8975488750002,302.8975488750002,302.8975488750002,302.8975488750002,302.8975488750002,302.8975488750002,302.79353279133386,302.8975488750002,302.8975488750002,302.8975488750002,302.79353279133386,302.8975488750002,302.8975488750002,302.8975488750002,302.8975488750002,302.8975488750002,302.8975488750002,302.8975488750002,302.8975488750002,302.8975488750002,302.8975488750002,302.8975488750002,302.8975488750002,302.8975488750002,302.8975488750002,302.84353279133387,302.8975488750002,302.8975488750002,302.8975488750002,302.84353279133387,302.8975488750002,302.8975488750002,302.8975488750002,302.8975488750002,302.8975488750002,308.12685899999997,308.12685899999997,313.11755220800023,None,0,,reldom2_s012,001,2025-02-03_15h19.02.231,Where-A-Scan_AC,2022.2.5,None,
25,First_Order,5.0,viswhere,stimulus/viswhere_stim/blank_white.png,stimulus/viswhere_stim/blank_white.png,stimulus/viswhere_stim/120-deg_dot-right_goldenrod.png,stimulus/viswhere_stim/150-deg_dot-right_turquoise.png,stimulus/viswhere_stim/blank_white.png,stimulus/viswhere_stim/dot_box.png,stimulus/viswhere_stim/dot_yes.png,stimulus/viswhere_stim/dot_no.png,None,Dot,None,Dot,1,0.0,0,5.125,0,5.125,0,5.125,0,0.0,0.625,0,0.0,0,0.0,1,0.5,1,2.125,0,0.0,0,0.0,0,0.0,0,0.0,0,,,,,0,33,33,33,,,,,,,,,313.11755220800023,313.11755220800023,313.11755220800023,313.11755220800023,313.11755220800023,313.11755220800023,313.11755220800023,313.11755220800023,313.094169833667,313.11755220800023,313.11755220800023,313.11755220800023,313.094169833667,313.11755220800023,313.11755220800023,313.11755220800023,315.2173995000003,319.1754162920006,313.11755220800023,313.11755220800023,318.2558075420002,313.6028417080006,314.6165330829999,315.2173995000003,316.2325286670002,313.11755220800023,313.11755220800023,313.11083650033373,313.11755220800023,313.11755220800023,313.11755220800023,313.11083650033373,313.11755220800023,313.11755220800023,318.2558075420002,313.11755220800023,318.2558075420002,318.34464754200053,318.97024345800037,313.11755220800023,1,1,1.031456208000236,reldom2_s012,001,2025-02-03_15h19.02.231,Where-A-Scan_AC,2022.2.5,None,
26,First_Order,5.0,viswhere,stimulus/viswhere_stim/blank_white.png,stimulus/viswhere_stim/blank_white.png,stimulus/viswhere_stim/90-deg_dot-right_royalblue.png,stimulus/viswhere_stim/120-deg_dot-right_seagreen.png,stimulus/viswhere_stim/blank_white.png,stimulus/viswhere_stim/line_box.png,stimulus/viswhere_stim/line_yes.png,stimulus/viswhere_stim/line_no.png,None,Line,None,Dot,2,0.0,0,5.125,0,5.125,0,5.125,0,0.0,0.625,0,0.0,0,0.0,1,0.5,1,2.125,0,0.0,0,0.0,0,0.0,0,0.0,0,,,,,0,34,34,34,,,,,,,,,319.1754162920006,319.1754162920006,319.1754162920006,319.1754162920006,319.1754162920006,319.1754162920006,319.1754162920006,319.1754162920006,319.1511161663332,319.1754162920006,319.1754162920006,319.1754162920006,319.1511161663332,319.1754162920006,319.1754162920006,319.1754162920006,321.28850370800046,325.243904125,319.1754162920006,319.1754162920006,324.3110434170003,319.66068429200004,320.66980754199994,321.28850370800046,322.3064400000003,319.1754162920006,319.1754162920006,319.1677828329999,319.1754162920006,319.1754162920006,319.1754162920006,319.1677828329999,319.1754162920006,319.1754162920006,324.3110434170003,319.1754162920006,324.3110434170003,324.3940869580001,325.0200007080002,319.1754162920006,2,1,0.7002102489996105,reldom2_s012,001,2025-02-03_15h19.02.231,Where-A-Scan_AC,2022.2.5,None,
27,First_Order,5.0,viswhere,stimulus/viswhere_stim/blank_white.png,stimulus/viswhere_stim/blank_white.png,stimulus/viswhere_stim/60-deg_dot-left_lightsseagreen.png,stimulus/viswhere_stim/60-deg_dot-right_slateblue.png,stimulus/viswhere_stim/blank_white.png,stimulus/viswhere_stim/line_box.png,stimulus/viswhere_stim/line_yes.png,stimulus/viswhere_stim/line_no.png,None,Line,None,Line,1,0.0,0,5.125,0,5.125,0,5.125,0,0.0,0.625,0,0.0,0,0.0,1,0.5,1,2.125,0,0.0,0,0.0,0,0.0,0,0.0,0,,,,,0,35,35,35,,,,,,,,,325.243904125,325.243904125,325.243904125,325.243904125,325.243904125,325.243904125,325.243904125,325.243904125,325.2202563753338,325.243904125,325.243904125,325.243904125,325.2202563753338,325.243904125,325.243904125,325.243904125,327.35287683300066,331.3144405000003,325.243904125,325.243904125,330.38100075000057,325.7267100420004,326.73484333300075,327.35287683300066,328.36776629199994,325.243904125,325.243904125,325.23692304200046,325.243904125,325.243904125,325.243904125,325.23692304200046,325.243904125,325.243904125,330.38100075000057,325.243904125,330.38100075000057,330.46945925,331.0957164170004,325.243904125,1,1,0.8929485829994519,reldom2_s012,001,2025-02-03_15h19.02.231,Where-A-Scan_AC,2022.2.5,None,
28,First_Order,5.0,viswhere,stimulus/viswhere_stim/blank_white.png,stimulus/viswhere_stim/blank_white.png,stimulus/viswhere_stim/120-deg_dot-right_slateblue.png,stimulus/viswhere_stim/90-deg_dot-right_cyan.png,stimulus/viswhere_stim/blank_white.png,stimulus/viswhere_stim/dot_box.png,stimulus/viswhere_stim/dot_yes.png,stimulus/viswhere_stim/dot_no.png,None,Dot,None,Dot,1,0.0,0,5.125,0,5.125,0,5.125,0,0.0,0.625,0,0.0,0,0.0,1,0.5,1,2.125,0,0.0,0,0.0,0,0.0,0,0.0,0,,,,,0,36,36,36,,,,,,,,,331.3144405000003,331.3144405000003,331.3144405000003,331.3144405000003,331.3144405000003,331.3144405000003,331.3144405000003,331.3144405000003,331.29011441633367,331.3144405000003,331.3144405000003,331.3144405000003,331.29011441633367,331.3144405000003,331.3144405000003,331.3144405000003,333.42820595800004,337.46261787500043,331.3144405000003,331.3144405000003,336.4412401670006,331.79983616700065,332.8100460000005,333.42820595800004,334.4430242920007,331.3144405000003,331.3144405000003,331.3067810830003,331.3144405000003,331.3144405000003,331.3144405000003,331.3067810830003,331.3144405000003,331.3144405000003,336.4412401670006,331.3144405000003,336.4412401670006,336.53877775,337.1650109580005,331.3144405000003,1,1,0.6607168329992419,reldom2_s012,001,2025-02-03_15h19.02.231,Where-A-Scan_AC,2022.2.5,None,
0,0.0,None,fixation,stimulus/viswhere_stim/blank_white.png,stimulus/viswhere_stim/blank_white.png,stimulus/audwhere_stim/blank_white.png,stimulus/audwhere_stim/blank_white.png,stimulus/viswhere_stim/blank_white.png,stimulus/viswhere_stim/blank_white.png,stimulus/viswhere_stim/blank_white.png,stimulus/viswhere_stim/blank_white.png,0.0,0.0,0.0,0.0,0,0.0,0,0.0,0,0.0,0,0.0,0,0.0,0.0,0,0.0,0,0.0,0,0.0,0,0.0,0,0.0,0,0.0,0,0.0,0,0.0,9,,,,,0,37,37,37,,,,,,,,,337.46261787500043,337.46261787500043,337.46261787500043,337.46261787500043,337.46261787500043,337.46261787500043,337.46261787500043,337.46261787500043,337.36013400033363,337.46261787500043,337.46261787500043,337.46261787500043,337.36013400033363,337.46261787500043,337.46261787500043,337.46261787500043,337.46261787500043,337.46261787500043,337.46261787500043,337.46261787500043,337.46261787500043,337.46261787500043,337.46261787500043,337.46261787500043,337.46261787500043,337.46261787500043,337.46261787500043,337.41013400033364,337.46261787500043,337.46261787500043,337.46261787500043,337.41013400033364,337.46261787500043,337.46261787500043,337.46261787500043,337.46261787500043,337.46261787500043,342.66913029199986,342.66913029199986,346.5875779170001,None,0,,reldom2_s012,001,2025-02-03_15h19.02.231,Where-A-Scan_AC,2022.2.5,None,
29,Second_Order,5.0,viswhere,stimulus/viswhere_stim/150-deg_dot-right_cyan.png,stimulus/viswhere_stim/150-deg_dot-left_peru.png,stimulus/viswhere_stim/90-deg_dot-left_goldenrod.png,stimulus/viswhere_stim/90-deg_dot-right_mediumslateblue.png,stimulus/viswhere_stim/match_blank.png,stimulus/viswhere_stim/match_box.png,stimulus/viswhere_stim/match_yes.png,stimulus/viswhere_stim/match_no.png,1.0,Match,Line,Line,1,5.125,0,5.125,0,5.125,0,5.125,0,0.75,0.75,1,0.5,1,2.125,1,0.5,1,2.125,0,0.0,0,0.0,0,0.0,0,0.0,0,,,,,0,38,38,38,,,,,,,,,346.5875779170001,351.70841475,347.0671794580003,348.05343879200063,348.69003008300024,349.6865111670004,346.5875779170001,346.5875779170001,346.6002607503334,346.5875779170001,346.5875779170001,346.5875779170001,346.6002607503334,346.5875779170001,351.70841475,352.4880281250007,354.58154020800066,358.4770945830005,352.4880281250007,352.4880281250007,357.61775583300005,352.9584144999999,353.9748272500001,354.58154020800066,355.5840163749999,352.4880281250007,352.4880281250007,352.47648366633393,352.4880281250007,352.4880281250007,352.4880281250007,352.47648366633393,352.4880281250007,352.4880281250007,357.61775583300005,352.4880281250007,357.61775583300005,357.7017537920001,358.4770945830005,352.4880281250007,1,1,0.6264999169989096,reldom2_s012,001,2025-02-03_15h19.02.231,Where-A-Scan_AC,2022.2.5,None,
30,Second_Order,5.0,viswhere,stimulus/viswhere_stim/90-deg_dot-right_royalblue.png,stimulus/viswhere_stim/60-deg_dot-right_peru.png,stimulus/viswhere_stim/30-deg_dot-left_slateblue.png,stimulus/viswhere_stim/90-deg_dot-left_seagreen.png,stimulus/viswhere_stim/match_blank.png,stimulus/viswhere_stim/match_box.png,stimulus/viswhere_stim/match_yes.png,stimulus/viswhere_stim/match_no.png,1.0,Match,Dot,Dot,1,5.125,0,5.125,0,5.125,0,5.125,0,0.625,0.625,1,0.5,1,2.125,1,0.5,1,2.125,0,0.0,0,0.0,0,0.0,0,0.0,0,,,,,0,39,39,39,,,,,,,,,358.4770945830005,363.5898136250007,358.96268108300046,359.9602012920004,360.58344758300063,361.5809076250007,358.4770945830005,358.4770945830005,358.48947541700073,358.4770945830005,358.4770945830005,358.4770945830005,358.48947541700073,358.4770945830005,363.5898136250007,364.24761308300003,366.3506607500003,370.38071562500045,364.24761308300003,364.24761308300003,369.38142479199996,364.71568345800006,365.72829616700074,366.3506607500003,367.36847220800064,364.24761308300003,364.24761308300003,364.2370739163339,364.24761308300003,364.24761308300003,364.24761308300003,364.2370739163339,364.24761308300003,364.24761308300003,369.38142479199996,364.24761308300003,369.38142479199996,369.48164695800006,370.1075980830001,364.24761308300003,1,1,1.0235728739990009,reldom2_s012,001,2025-02-03_15h19.02.231,Where-A-Scan_AC,2022.2.5,None,
0,0.0,None,fixation,stimulus/viswhere_stim/blank_white.png,stimulus/viswhere_stim/blank_white.png,stimulus/audwhere_stim/blank_white.png,stimulus/audwhere_stim/blank_white.png,stimulus/viswhere_stim/blank_white.png,stimulus/viswhere_stim/blank_white.png,stimulus/viswhere_stim/blank_white.png,stimulus/viswhere_stim/blank_white.png,0.0,0.0,0.0,0.0,0,0.0,0,0.0,0,0.0,0,0.0,0,0.0,0.0,0,0.0,0,0.0,0,0.0,0,0.0,0,0.0,0,0.0,0,0.0,0,0.0,8,,,,,0,40,40,40,,,,,,,,,370.38071562500045,370.38071562500045,370.38071562500045,370.38071562500045,370.38071562500045,370.38071562500045,370.38071562500045,370.38071562500045,370.27400875033373,370.38071562500045,370.38071562500045,370.38071562500045,370.27400875033373,370.38071562500045,370.38071562500045,370.38071562500045,370.38071562500045,370.38071562500045,370.38071562500045,370.38071562500045,370.38071562500045,370.38071562500045,370.38071562500045,370.38071562500045,370.38071562500045,370.38071562500045,370.38071562500045,370.32400875033375,370.38071562500045,370.38071562500045,370.38071562500045,370.32400875033375,370.38071562500045,370.38071562500045,370.38071562500045,370.38071562500045,370.38071562500045,375.573881583,375.573881583,378.5831760000001,None,0,,reldom2_s012,001,2025-02-03_15h19.02.231,Where-A-Scan_AC,2022.2.5,None,
31,First_Order,6.0,viswhere,stimulus/viswhere_stim/blank_white.png,stimulus/viswhere_stim/blank_white.png,stimulus/viswhere_stim/90-deg_dot-right_lightsseagreen.png,stimulus/viswhere_stim/90-deg_dot-left_turquoise.png,stimulus/viswhere_stim/blank_white.png,stimulus/viswhere_stim/line_box.png,stimulus/viswhere_stim/line_yes.png,stimulus/viswhere_stim/line_no.png,None,Line,None,Line,1,0.0,0,5.125,0,5.125,0,5.125,0,0.0,0.625,0,0.0,0,0.0,1,0.5,1,2.125,0,0.0,0,0.0,0,0.0,0,0.0,0,,,,,0,41,41,41,,,,,,,,,378.5831760000001,378.5831760000001,378.5831760000001,378.5831760000001,378.5831760000001,378.5831760000001,378.5831760000001,378.5831760000001,378.55765399966697,378.5831760000001,378.5831760000001,378.5831760000001,378.55765399966697,378.5831760000001,378.5831760000001,378.5831760000001,380.684779792,384.64477366700066,378.5831760000001,378.5831760000001,383.7066579580005,379.0694458750004,380.0806407079999,380.684779792,381.7034026250003,378.5831760000001,378.5831760000001,378.5743206663337,378.5831760000001,378.5831760000001,378.5831760000001,378.5743206663337,378.5831760000001,378.5831760000001,383.7066579580005,378.5831760000001,383.7066579580005,383.80925174999993,384.44066266700065,378.5831760000001,1,1,0.8192669159998331,reldom2_s012,001,2025-02-03_15h19.02.231,Where-A-Scan_AC,2022.2.5,None,
32,First_Order,6.0,viswhere,stimulus/viswhere_stim/blank_white.png,stimulus/viswhere_stim/blank_white.png,stimulus/viswhere_stim/30-deg_dot-right_goldenrod.png,stimulus/viswhere_stim/30-deg_dot-left_seagreen.png,stimulus/viswhere_stim/blank_white.png,stimulus/viswhere_stim/dot_box.png,stimulus/viswhere_stim/dot_yes.png,stimulus/viswhere_stim/dot_no.png,None,Dot,None,Line,2,0.0,0,5.125,0,5.125,0,5.125,0,0.0,0.625,0,0.0,0,0.0,1,0.5,1,2.125,0,0.0,0,0.0,0,0.0,0,0.0,0,,,,,0,42,42,42,,,,,,,,,384.64477366700066,384.64477366700066,384.64477366700066,384.64477366700066,384.64477366700066,384.64477366700066,384.64477366700066,384.64477366700066,384.6212427913336,384.64477366700066,384.64477366700066,384.64477366700066,384.6212427913336,384.64477366700066,384.64477366700066,384.64477366700066,386.75777587500033,390.71456495800066,384.64477366700066,384.64477366700066,389.76978083300037,385.13018083299994,386.13741650000065,386.75777587500033,387.77162641700033,384.64477366700066,384.64477366700066,384.63790945800025,384.64477366700066,384.64477366700066,384.64477366700066,384.63790945800025,384.64477366700066,384.64477366700066,389.76978083300037,384.64477366700066,389.76978083300037,389.8673075000006,390.4966876670005,384.64477366700066,2,1,0.8108495409996976,reldom2_s012,001,2025-02-03_15h19.02.231,Where-A-Scan_AC,2022.2.5,None,
33,First_Order,6.0,viswhere,stimulus/viswhere_stim/blank_white.png,stimulus/viswhere_stim/blank_white.png,stimulus/viswhere_stim/150-deg_dot-left_lightsseagreen.png,stimulus/viswhere_stim/150-deg_dot-right_royalblue.png,stimulus/viswhere_stim/blank_white.png,stimulus/viswhere_stim/dot_box.png,stimulus/viswhere_stim/dot_yes.png,stimulus/viswhere_stim/dot_no.png,None,Dot,None,Line,2,0.0,0,5.125,0,5.125,0,5.125,0,0.0,0.625,0,0.0,0,0.0,1,0.5,1,2.125,0,0.0,0,0.0,0,0.0,0,0.0,0,,,,,0,43,43,43,,,,,,,,,390.71456495800066,390.71456495800066,390.71456495800066,390.71456495800066,390.71456495800066,390.71456495800066,390.71456495800066,390.71456495800066,390.6905649163339,390.71456495800066,390.71456495800066,390.71456495800066,390.6905649163339,390.71456495800066,390.71456495800066,390.71456495800066,392.8304426250006,396.7765671670004,390.71456495800066,390.71456495800066,395.85252670800037,391.2038102920005,392.2232949170002,392.8304426250006,393.83432254200034,390.71456495800066,390.71456495800066,390.7072315830006,390.71456495800066,390.71456495800066,390.71456495800066,390.7072315830006,390.71456495800066,390.71456495800066,395.85252670800037,390.71456495800066,395.85252670800037,395.9377723329999,396.566286708,390.71456495800066,2,1,0.7511392499991416,reldom2_s012,001,2025-02-03_15h19.02.231,Where-A-Scan_AC,2022.2.5,None,
34,First_Order,6.0,viswhere,stimulus/viswhere_stim/blank_white.png,stimulus/viswhere_stim/blank_white.png,stimulus/viswhere_stim/120-deg_dot-left_peru.png,stimulus/viswhere_stim/90-deg_dot-left_royalblue.png,stimulus/viswhere_stim/blank_white.png,stimulus/viswhere_stim/line_box.png,stimulus/viswhere_stim/line_yes.png,stimulus/viswhere_stim/line_no.png,None,Line,None,Dot,2,0.0,0,5.125,0,5.125,0,5.125,0,0.0,0.625,0,0.0,0,0.0,1,0.5,1,2.125,0,0.0,0,0.0,0,0.0,0,0.0,0,,,,,0,44,44,44,,,,,,,,,396.7765671670004,396.7765671670004,396.7765671670004,396.7765671670004,396.7765671670004,396.7765671670004,396.7765671670004,396.7765671670004,396.75216437533373,396.7765671670004,396.7765671670004,396.7765671670004,396.75216437533373,396.7765671670004,396.7765671670004,396.7765671670004,398.8905192500006,402.924063292,396.7765671670004,396.7765671670004,401.9064106670003,397.2615023750004,398.2713865000005,398.8905192500006,399.90393445800055,396.7765671670004,396.7765671670004,396.7688310420004,396.7765671670004,396.7765671670004,396.7765671670004,396.7688310420004,396.7765671670004,396.7765671670004,401.9064106670003,396.7765671670004,401.9064106670003,402.0038675000005,402.6353771670001,396.7765671670004,2,1,1.1190518749999683,reldom2_s012,001,2025-02-03_15h19.02.231,Where-A-Scan_AC,2022.2.5,None,
0,0.0,None,fixation,stimulus/viswhere_stim/blank_white.png,stimulus/viswhere_stim/blank_white.png,stimulus/audwhere_stim/blank_white.png,stimulus/audwhere_stim/blank_white.png,stimulus/viswhere_stim/blank_white.png,stimulus/viswhere_stim/blank_white.png,stimulus/viswhere_stim/blank_white.png,stimulus/viswhere_stim/blank_white.png,0.0,0.0,0.0,0.0,0,0.0,0,0.0,0,0.0,0,0.0,0,0.0,0.0,0,0.0,0,0.0,0,0.0,0,0.0,0,0.0,0,0.0,0,0.0,0,0.0,10,,,,,0,45,45,45,,,,,,,,,402.924063292,402.924063292,402.924063292,402.924063292,402.924063292,402.924063292,402.924063292,402.924063292,402.82196437533395,402.924063292,402.924063292,402.924063292,402.82196437533395,402.924063292,402.924063292,402.924063292,402.924063292,402.924063292,402.924063292,402.924063292,402.924063292,402.924063292,402.924063292,402.924063292,402.924063292,402.924063292,402.924063292,402.87196437533396,402.924063292,402.924063292,402.924063292,402.87196437533396,402.924063292,402.924063292,402.924063292,402.924063292,402.924063292,408.1414638750002,408.1414638750002,413.04218350000065,None,0,,reldom2_s012,001,2025-02-03_15h19.02.231,Where-A-Scan_AC,2022.2.5,None,
35,Second_Order,6.0,viswhere,stimulus/viswhere_stim/60-deg_dot-right_mediumslateblue.png,stimulus/viswhere_stim/150-deg_dot-right_turquoise.png,stimulus/viswhere_stim/90-deg_dot-right_slateblue.png,stimulus/viswhere_stim/90-deg_dot-left_seagreen.png,stimulus/viswhere_stim/match_blank.png,stimulus/viswhere_stim/match_box.png,stimulus/viswhere_stim/match_yes.png,stimulus/viswhere_stim/match_no.png,2.0,Match,Dot,Line,2,5.125,0,5.125,0,5.125,0,5.125,0,0.75,0.75,1,0.5,1,2.125,1,0.5,1,2.125,0,0.0,0,0.0,0,0.0,0,0.0,0,,,,,0,46,46,46,,,,,,,,,413.04218350000065,418.16607083300005,413.5214925,414.5195552080004,415.14268079200065,416.1399730000003,413.04218350000065,413.04218350000065,413.0534271663338,413.04218350000065,413.04218350000065,413.04218350000065,413.0534271663338,413.04218350000065,418.16607083300005,418.9453277500006,421.0363299999999,424.92759908300013,418.9453277500006,418.9453277500006,424.07430795800065,419.4151386250005,420.43285258300057,421.0363299999999,422.03881750000073,418.9453277500006,418.9453277500006,418.9334196253335,418.9453277500006,418.9453277500006,418.9453277500006,418.9334196253335,418.9453277500006,418.9453277500006,424.07430795800065,418.9453277500006,424.07430795800065,424.1744082920004,,418.9453277500006,2,1,0.6160421659997155,reldom2_s012,001,2025-02-03_15h19.02.231,Where-A-Scan_AC,2022.2.5,None,
36,Second_Order,6.0,viswhere,stimulus/viswhere_stim/120-deg_dot-left_royalblue.png,stimulus/viswhere_stim/120-deg_dot-right_cyan.png,stimulus/viswhere_stim/90-deg_dot-left_slateblue.png,stimulus/viswhere_stim/90-deg_dot-right_turquoise.png,stimulus/viswhere_stim/match_blank.png,stimulus/viswhere_stim/match_box.png,stimulus/viswhere_stim/match_yes.png,stimulus/viswhere_stim/match_no.png,1.0,Match,Line,Line,1,5.125,0,5.125,0,5.125,0,5.125,0,0.625,0.625,1,0.5,1,2.125,1,0.5,1,2.125,0,0.0,0,0.0,0,0.0,0,0.0,0,,,,,0,47,47,47,,,,,,,,,424.92759908300013,430.04430350000075,425.41154650000044,426.4007590420006,427.0364112080006,428.0338978330001,424.92759908300013,424.92759908300013,424.93984045800045,424.92759908300013,424.92759908300013,424.92759908300013,424.93984045800045,424.92759908300013,430.04430350000075,430.6990224170004,432.784980208,436.83924925000065,430.6990224170004,430.6990224170004,435.8374814580002,431.1660476249999,432.1800813330001,432.784980208,433.8057396670001,430.6990224170004,430.6990224170004,430.6900900003334,430.6990224170004,430.6990224170004,430.6990224170004,430.6900900003334,430.6990224170004,430.6990224170004,435.8374814580002,430.6990224170004,435.8374814580002,435.907148708,436.5528685830004,430.6990224170004,1,1,0.7821308739994492,reldom2_s012,001,2025-02-03_15h19.02.231,Where-A-Scan_AC,2022.2.5,None,
0,0.0,None,fixation,stimulus/viswhere_stim/blank_white.png,stimulus/viswhere_stim/blank_white.png,stimulus/audwhere_stim/blank_white.png,stimulus/audwhere_stim/blank_white.png,stimulus/viswhere_stim/blank_white.png,stimulus/viswhere_stim/blank_white.png,stimulus/viswhere_stim/blank_white.png,stimulus/viswhere_stim/blank_white.png,0.0,0.0,0.0,0.0,0,0.0,0,0.0,0,0.0,0,0.0,0,0.0,0.0,0,0.0,0,0.0,0,0.0,0,0.0,0,0.0,0,0.0,0,0.0,0,0.0,9,,,,,0,48,48,48,,,,,,,,,436.83924925000065,436.83924925000065,436.83924925000065,436.83924925000065,436.83924925000065,436.83924925000065,436.83924925000065,436.83924925000065,436.7335000833339,436.83924925000065,436.83924925000065,436.83924925000065,436.7335000833339,436.83924925000065,436.83924925000065,436.83924925000065,436.83924925000065,436.83924925000065,436.83924925000065,436.83924925000065,436.83924925000065,436.83924925000065,436.83924925000065,436.83924925000065,436.83924925000065,436.83924925000065,436.83924925000065,436.8001667500006,436.83924925000065,436.83924925000065,436.83924925000065,436.8001667500006,436.83924925000065,436.83924925000065,436.83924925000065,436.83924925000065,436.83924925000065,442.03402475000075,442.03402475000075,446.0681895000007,None,0,,reldom2_s012,001,2025-02-03_15h19.02.231,Where-A-Scan_AC,2022.2.5,None,
37,First_Order,7.0,audwhere,stimulus/audwhere_stim/dummy.wav,stimulus/audwhere_stim/dummy.wav,stimulus/audwhere_stim/left_toward_280h.wav,stimulus/audwhere_stim/left_away_290h.wav,stimulus/audwhere_stim/blank_white.png,stimulus/audwhere_stim/direction_box.png,stimulus/audwhere_stim/direction_yes.png,stimulus/audwhere_stim/direction_no.png,None,Direction,None,Side,2,0.0,0,5.125,0,5.125,0,5.125,0,0.0,0.625,0,0.0,0,0.0,0,0.0,0,0.0,0,0.0,0,0.0,1,0.5,1,2.125,0,,,,,0,49,49,49,,,,,,,,,446.0681895000007,446.0681895000007,446.0681895000007,446.0681895000007,446.0681895000007,446.0681895000007,446.0681895000007,446.0681895000007,445.99005933366664,446.0681895000007,446.0681895000007,446.0681895000007,445.99005933366664,446.0681895000007,446.0681895000007,446.0681895000007,448.1504205830006,452.18846787500024,446.0681895000007,446.0681895000007,451.2246259170006,446.0681895000007,446.0681895000007,446.0681895000007,446.0681895000007,446.5436143750003,447.58469825000066,446.5123525836673,,448.1504205830006,449.19352533300025,448.11966512466665,,446.0681895000007,451.2246259170006,446.0681895000007,451.2246259170006,451.2664358330003,451.93027900000016,446.0681895000007,2,1,1.582010540999363,reldom2_s012,001,2025-02-03_15h19.02.231,Where-A-Scan_AC,2022.2.5,None,
38,First_Order,7.0,audwhere,stimulus/audwhere_stim/dummy.wav,stimulus/audwhere_stim/dummy.wav,stimulus/audwhere_stim/left_away_300h.wav,stimulus/audwhere_stim/right_away_280h.wav,stimulus/audwhere_stim/blank_white.png,stimulus/audwhere_stim/side_box.png,stimulus/audwhere_stim/side_yes.png,stimulus/audwhere_stim/side_no.png,None,Side,None,Direction,2,0.0,0,5.125,0,5.125,0,5.125,0,0.0,0.625,0,0.0,0,0.0,0,0.0,0,0.0,0,0.0,0,0.0,1,0.5,1,2.125,0,,,,,0,50,50,50,,,,,,,,,452.18846787500024,452.18846787500024,452.18846787500024,452.18846787500024,452.18846787500024,452.18846787500024,452.18846787500024,452.18846787500024,452.10521408333364,452.18846787500024,452.18846787500024,452.18846787500024,452.10521408333364,452.18846787500024,452.18846787500024,452.18846787500024,454.2647275830004,,452.18846787500024,452.18846787500024,457.3733066250006,452.18846787500024,452.18846787500024,452.18846787500024,452.18846787500024,452.66281750000053,453.7002622500004,452.6314490836669,,454.2647275830004,455.3036602500006,454.23394395866694,,452.18846787500024,457.3733066250006,452.18846787500024,457.3733066250006,457.4146337080001,458.0770673750003,452.18846787500024,2,1,0.5832753329996194,reldom2_s012,001,2025-02-03_15h19.02.231,Where-A-Scan_AC,2022.2.5,None,
39,First_Order,7.0,audwhere,stimulus/audwhere_stim/dummy.wav,stimulus/audwhere_stim/dummy.wav,stimulus/audwhere_stim/right_toward_280h.wav,stimulus/audwhere_stim/right_away_300h.wav,stimulus/audwhere_stim/blank_white.png,stimulus/audwhere_stim/side_box.png,stimulus/audwhere_stim/side_yes.png,stimulus/audwhere_stim/side_no.png,None,Side,None,Side,1,0.0,0,5.125,0,5.125,0,5.125,0,0.0,0.625,0,0.0,0,0.0,0,0.0,0,0.0,0,0.0,0,0.0,1,0.5,1,2.125,0,,,,,0,51,51,51,,,,,,,,,458.2947438330002,458.2947438330002,458.2947438330002,458.2947438330002,458.2947438330002,458.2947438330002,458.2947438330002,458.2947438330002,458.2104007083336,458.2947438330002,458.2947438330002,458.2947438330002,458.2104007083336,458.2947438330002,458.2947438330002,458.2947438330002,460.36990483299996,,458.2947438330002,458.2947438330002,463.47742670800017,458.2947438330002,458.2947438330002,458.2947438330002,458.2947438330002,458.7657537920004,459.8026534999999,458.73506308366655,,460.36990483299996,461.4092587080004,460.3391502916668,,458.2947438330002,463.47742670800017,458.2947438330002,463.47742670800017,463.5190108750003,464.1820151669999,458.2947438330002,1,1,0.5704168749998644,reldom2_s012,001,2025-02-03_15h19.02.231,Where-A-Scan_AC,2022.2.5,None,
40,First_Order,7.0,audwhere,stimulus/audwhere_stim/dummy.wav,stimulus/audwhere_stim/dummy.wav,stimulus/audwhere_stim/left_away_280h.wav,stimulus/audwhere_stim/left_toward_300h.wav,stimulus/audwhere_stim/blank_white.png,stimulus/audwhere_stim/side_box.png,stimulus/audwhere_stim/side_yes.png,stimulus/audwhere_stim/side_no.png,None,Side,None,Side,1,0.0,0,5.125,0,5.125,0,5.125,0,0.0,0.625,0,0.0,0,0.0,0,0.0,0,0.0,0,0.0,0,0.0,1,0.5,1,2.125,0,,,,,0,52,52,52,,,,,,,,,464.3992779170003,464.3992779170003,464.3992779170003,464.3992779170003,464.3992779170003,464.3992779170003,464.3992779170003,464.3992779170003,464.31534850033324,464.3992779170003,464.3992779170003,464.3992779170003,464.31534850033324,464.3992779170003,464.3992779170003,464.3992779170003,466.47353116700015,,464.3992779170003,464.3992779170003,469.5814306250004,464.3992779170003,464.3992779170003,464.3992779170003,464.3992779170003,464.87117370800024,465.9088776670005,464.84035158366737,,466.47353116700015,467.5119896670003,466.44283695866693,,464.3992779170003,469.5814306250004,464.3992779170003,469.5814306250004,469.622557875,470.287091917,464.3992779170003,1,1,0.7479016659990521,reldom2_s012,001,2025-02-03_15h19.02.231,Where-A-Scan_AC,2022.2.5,None,
0,0.0,None,fixation,stimulus/viswhere_stim/blank_white.png,stimulus/viswhere_stim/blank_white.png,stimulus/audwhere_stim/blank_white.png,stimulus/audwhere_stim/blank_white.png,stimulus/viswhere_stim/blank_white.png,stimulus/viswhere_stim/blank_white.png,stimulus/viswhere_stim/blank_white.png,stimulus/viswhere_stim/blank_white.png,0.0,0.0,0.0,0.0,0,0.0,0,0.0,0,0.0,0,0.0,0,0.0,0.0,0,0.0,0,0.0,0,0.0,0,0.0,0,0.0,0,0.0,0,0.0,0,0.0,8,,,,,0,53,53,53,,,,,,,,,470.5256402920004,470.5256402920004,470.5256402920004,470.5256402920004,470.5256402920004,470.5256402920004,470.5256402920004,470.5256402920004,470.4204252503333,470.5256402920004,470.5256402920004,470.5256402920004,470.4204252503333,470.5256402920004,470.5256402920004,470.5256402920004,470.5256402920004,470.5256402920004,470.5256402920004,470.5256402920004,470.5256402920004,470.5256402920004,470.5256402920004,470.5256402920004,470.5256402920004,470.5256402920004,470.5256402920004,470.487091917,470.5256402920004,470.5256402920004,470.5256402920004,470.487091917,470.5256402920004,470.5256402920004,470.5256402920004,470.5256402920004,470.5256402920004,475.73462070799997,475.73462070799997,478.7049721250005,None,0,,reldom2_s012,001,2025-02-03_15h19.02.231,Where-A-Scan_AC,2022.2.5,None,
41,Second_Order,7.0,audwhere,stimulus/audwhere_stim/left_away_300h.wav,stimulus/audwhere_stim/left_toward_300h.wav,stimulus/audwhere_stim/right_away_290h.wav,stimulus/audwhere_stim/right_toward_290h.wav,stimulus/viswhere_stim/match_blank.png,stimulus/audwhere_stim/match_box.png,stimulus/viswhere_stim/match_yes.png,stimulus/viswhere_stim/match_no.png,1.0,Match,Side,Side,1,5.125,0,5.125,0,5.125,0,5.125,0,0.75,0.75,0,0.0,0,0.0,0,0.0,0,0.0,1,0.5,1,2.125,1,0.5,1,2.125,0,,,,,0,54,54,54,,,,,,,,,478.7049721250005,483.81771183300043,478.7049721250005,478.7049721250005,478.7049721250005,478.7049721250005,479.1558277080003,480.1543534170005,479.1685797086668,480.16222216700044,480.77721525000015,481.7748527500007,480.7890672086671,481.78309787500075,483.81771183300043,484.6467376670007,486.71603179200065,,484.6467376670007,484.6467376670007,489.81272400000034,484.6467376670007,484.6467376670007,484.6467376670007,484.6467376670007,485.1158030830002,486.14973775,485.0849536666667,,486.71603179200065,487.7900089580007,486.68498745866714,,484.6467376670007,489.81272400000034,484.6467376670007,489.81272400000034,489.85380729200006,,484.6467376670007,1,1,1.25891237399901,reldom2_s012,001,2025-02-03_15h19.02.231,Where-A-Scan_AC,2022.2.5,None,
42,Second_Order,7.0,audwhere,stimulus/audwhere_stim/left_away_280h.wav,stimulus/audwhere_stim/right_away_270h.wav,stimulus/audwhere_stim/right_toward_270h.wav,stimulus/audwhere_stim/left_toward_280h.wav,stimulus/viswhere_stim/match_blank.png,stimulus/audwhere_stim/match_box.png,stimulus/viswhere_stim/match_yes.png,stimulus/viswhere_stim/match_no.png,1.0,Match,Direction,Direction,1,5.125,0,5.125,0,5.125,0,5.125,0,0.625,0.625,0,0.0,0,0.0,0,0.0,0,0.0,1,0.5,1,2.125,1,0.5,1,2.125,0,,,,,0,55,55,55,,,,,,,,,490.63613341700056,495.75728179199996,490.63613341700056,490.63613341700056,490.63613341700056,490.63613341700056,491.0837033329999,492.0820959170005,491.09654308366703,492.0901295419999,492.7212926250004,493.7187732500006,492.73323666666715,493.72742925000057,495.75728179199996,496.4724057080002,498.5341766250003,502.6130993750003,496.4724057080002,496.4724057080002,501.63092141700054,496.4724057080002,496.4724057080002,496.4724057080002,496.4724057080002,496.94011429200054,497.97120166700006,496.909690499667,,498.5341766250003,499.5692535830003,498.50376174966664,,496.4724057080002,501.63092141700054,496.4724057080002,501.63092141700054,501.67239583300034,502.33434645800025,496.4724057080002,2,0,1.7466752919999635,reldom2_s012,001,2025-02-03_15h19.02.231,Where-A-Scan_AC,2022.2.5,None,
0,0.0,None,fixation,stimulus/viswhere_stim/blank_white.png,stimulus/viswhere_stim/blank_white.png,stimulus/audwhere_stim/blank_white.png,stimulus/audwhere_stim/blank_white.png,stimulus/viswhere_stim/blank_white.png,stimulus/viswhere_stim/blank_white.png,stimulus/viswhere_stim/blank_white.png,stimulus/viswhere_stim/blank_white.png,0.0,0.0,0.0,0.0,0,0.0,0,0.0,0,0.0,0,0.0,0,0.0,0.0,0,0.0,0,0.0,0,0.0,0,0.0,0,0.0,0,0.0,0,0.0,0,0.0,10,,,,,0,56,56,56,,,,,,,,,502.6130993750003,502.6130993750003,502.6130993750003,502.6130993750003,502.6130993750003,502.6130993750003,502.6130993750003,502.6130993750003,502.50848304133353,502.6130993750003,502.6130993750003,502.6130993750003,502.50848304133353,502.6130993750003,502.6130993750003,502.6130993750003,502.6130993750003,502.6130993750003,502.6130993750003,502.6130993750003,502.6130993750003,502.6130993750003,502.6130993750003,502.6130993750003,502.6130993750003,502.6130993750003,502.6130993750003,502.55848304133355,502.6130993750003,502.6130993750003,502.6130993750003,502.55848304133355,502.6130993750003,502.6130993750003,502.6130993750003,502.6130993750003,502.6130993750003,507.7971169170005,507.7971169170005,512.8879977080005,None,0,,reldom2_s012,001,2025-02-03_15h19.02.231,Where-A-Scan_AC,2022.2.5,None,
43,First_Order,8.0,audwhere,stimulus/audwhere_stim/dummy.wav,stimulus/audwhere_stim/dummy.wav,stimulus/audwhere_stim/left_away_270h.wav,stimulus/audwhere_stim/right_away_300h.wav,stimulus/audwhere_stim/blank_white.png,stimulus/audwhere_stim/direction_box.png,stimulus/audwhere_stim/direction_yes.png,stimulus/audwhere_stim/direction_no.png,None,Direction,None,Direction,1,0.0,0,5.125,0,5.125,0,5.125,0,0.0,0.625,0,0.0,0,0.0,0,0.0,0,0.0,0,0.0,0,0.0,1,0.5,1,2.125,0,,,,,0,57,57,57,,,,,,,,,512.8879977080005,512.8879977080005,512.8879977080005,512.8879977080005,512.8879977080005,512.8879977080005,512.8879977080005,512.8879977080005,512.8106465416673,512.8879977080005,512.8879977080005,512.8879977080005,512.8106465416673,512.8879977080005,512.8879977080005,512.8879977080005,514.9722694580005,519.0098819580007,512.8879977080005,512.8879977080005,518.0452785420002,512.8879977080005,512.8879977080005,512.8879977080005,512.8879977080005,513.3620858330005,514.4046553750004,513.3310074586673,,514.9722694580005,516.0138022500005,514.9415442916672,,512.8879977080005,518.0452785420002,512.8879977080005,518.0452785420002,518.0871384170005,518.751817583,512.8879977080005,1,1,1.6830905829992844,reldom2_s012,001,2025-02-03_15h19.02.231,Where-A-Scan_AC,2022.2.5,None,
44,First_Order,8.0,audwhere,stimulus/audwhere_stim/dummy.wav,stimulus/audwhere_stim/dummy.wav,stimulus/audwhere_stim/left_toward_300h.wav,stimulus/audwhere_stim/left_away_280h.wav,stimulus/audwhere_stim/blank_white.png,stimulus/audwhere_stim/direction_box.png,stimulus/audwhere_stim/direction_yes.png,stimulus/audwhere_stim/direction_no.png,None,Direction,None,Side,2,0.0,0,5.125,0,5.125,0,5.125,0,0.0,0.625,0,0.0,0,0.0,0,0.0,0,0.0,0,0.0,0,0.0,1,0.5,1,2.125,0,,,,,0,58,58,58,,,,,,,,,519.0098819580007,519.0098819580007,519.0098819580007,519.0098819580007,519.0098819580007,519.0098819580007,519.0098819580007,519.0098819580007,518.9266099583339,519.0098819580007,519.0098819580007,519.0098819580007,518.9266099583339,519.0098819580007,519.0098819580007,519.0098819580007,521.0898692500004,525.1313217920006,519.0098819580007,519.0098819580007,524.1624477920004,519.0098819580007,519.0098819580007,519.0098819580007,519.0098819580007,519.4826131670006,520.5229542080006,519.4514116246667,,521.0898692500004,522.1327930000007,521.0589172916673,,519.0098819580007,524.1624477920004,519.0098819580007,524.1624477920004,524.2044690830007,524.8731214170002,519.0098819580007,2,1,1.0329198329991414,reldom2_s012,001,2025-02-03_15h19.02.231,Where-A-Scan_AC,2022.2.5,None,
45,First_Order,8.0,audwhere,stimulus/audwhere_stim/dummy.wav,stimulus/audwhere_stim/dummy.wav,stimulus/audwhere_stim/right_away_290h.wav,stimulus/audwhere_stim/left_away_280h.wav,stimulus/audwhere_stim/blank_white.png,stimulus/audwhere_stim/side_box.png,stimulus/audwhere_stim/side_yes.png,stimulus/audwhere_stim/side_no.png,None,Side,None,Direction,2,0.0,0,5.125,0,5.125,0,5.125,0,0.0,0.625,0,0.0,0,0.0,0,0.0,0,0.0,0,0.0,0,0.0,1,0.5,1,2.125,0,,,,,0,59,59,59,,,,,,,,,525.1313217920006,525.1313217920006,525.1313217920006,525.1313217920006,525.1313217920006,525.1313217920006,525.1313217920006,525.1313217920006,525.0481210833333,525.1313217920006,525.1313217920006,525.1313217920006,525.0481210833333,525.1313217920006,525.1313217920006,525.1313217920006,527.2023367080001,,525.1313217920006,525.1313217920006,530.3080747500007,525.1313217920006,525.1313217920006,525.1313217920006,525.1313217920006,525.6037267500005,526.6386637080004,525.5732280836667,,527.2023367080001,528.2403597080001,527.1721527916673,,525.1313217920006,530.3080747500007,525.1313217920006,530.3080747500007,530.3496370000003,531.0114580420004,525.1313217920006,2,1,1.6590024579991223,reldom2_s012,001,2025-02-03_15h19.02.231,Where-A-Scan_AC,2022.2.5,None,
46,First_Order,8.0,audwhere,stimulus/audwhere_stim/dummy.wav,stimulus/audwhere_stim/dummy.wav,stimulus/audwhere_stim/left_away_270h.wav,stimulus/audwhere_stim/right_away_290h.wav,stimulus/audwhere_stim/blank_white.png,stimulus/audwhere_stim/direction_box.png,stimulus/audwhere_stim/direction_yes.png,stimulus/audwhere_stim/direction_no.png,None,Direction,None,Direction,1,0.0,0,5.125,0,5.125,0,5.125,0,0.0,0.625,0,0.0,0,0.0,0,0.0,0,0.0,0,0.0,0,0.0,1,0.5,1,2.125,0,,,,,0,60,60,60,,,,,,,,,531.2275687500005,531.2275687500005,531.2275687500005,531.2275687500005,531.2275687500005,531.2275687500005,531.2275687500005,531.2275687500005,531.1447913753337,531.2275687500005,531.2275687500005,531.2275687500005,531.1447913753337,531.2275687500005,531.2275687500005,531.2275687500005,533.3189982080003,,531.2275687500005,531.2275687500005,536.4196105830006,531.2275687500005,531.2275687500005,531.2275687500005,531.2275687500005,531.7018730830005,532.7526115830005,531.6710692086674,532.7053772500003,533.3189982080003,534.3650936670001,533.2880879996667,,531.2275687500005,536.4196105830006,531.2275687500005,536.4196105830006,536.4196105830006,537.0838882080006,531.2275687500005,1,1,2.1502915829987614,reldom2_s012,001,2025-02-03_15h19.02.231,Where-A-Scan_AC,2022.2.5,None,
0,0.0,None,fixation,stimulus/viswhere_stim/blank_white.png,stimulus/viswhere_stim/blank_white.png,stimulus/audwhere_stim/blank_white.png,stimulus/audwhere_stim/blank_white.png,stimulus/viswhere_stim/blank_white.png,stimulus/viswhere_stim/blank_white.png,stimulus/viswhere_stim/blank_white.png,stimulus/viswhere_stim/blank_white.png,0.0,0.0,0.0,0.0,0,0.0,0,0.0,0,0.0,0,0.0,0,0.0,0.0,0,0.0,0,0.0,0,0.0,0,0.0,0,0.0,0,0.0,0,0.0,0,0.0,9,,,,,0,61,61,61,,,,,,,,,537.3638569170007,537.3638569170007,537.3638569170007,537.3638569170007,537.3638569170007,537.3638569170007,537.3638569170007,537.3638569170007,537.2586272083337,537.3638569170007,537.3638569170007,537.3638569170007,537.2586272083337,537.3638569170007,537.3638569170007,537.3638569170007,537.3638569170007,537.3638569170007,537.3638569170007,537.3638569170007,537.3638569170007,537.3638569170007,537.3638569170007,537.3638569170007,537.3638569170007,537.3638569170007,537.3638569170007,537.3086272083336,537.3638569170007,537.3638569170007,537.3638569170007,537.3086272083336,537.3638569170007,537.3638569170007,537.3638569170007,537.3638569170007,537.3638569170007,542.5875310420006,542.5875310420006,546.5392053750002,None,0,,reldom2_s012,001,2025-02-03_15h19.02.231,Where-A-Scan_AC,2022.2.5,None,
47,Second_Order,8.0,audwhere,stimulus/audwhere_stim/right_away_280h.wav,stimulus/audwhere_stim/left_away_290h.wav,stimulus/audwhere_stim/right_toward_300h.wav,stimulus/audwhere_stim/right_away_300h.wav,stimulus/viswhere_stim/match_blank.png,stimulus/audwhere_stim/match_box.png,stimulus/viswhere_stim/match_yes.png,stimulus/viswhere_stim/match_no.png,2.0,Match,Direction,Side,2,5.125,0,5.125,0,5.125,0,5.125,0,0.75,0.75,0,0.0,0,0.0,0,0.0,0,0.0,1,0.5,1,2.125,1,0.5,1,2.125,0,,,,,0,62,62,62,,,,,,,,,546.5392053750002,551.6580117080002,546.5392053750002,546.5392053750002,546.5392053750002,546.5392053750002,546.996291333,547.9942901670001,547.0085320416667,548.0021799169999,548.6168648749999,549.6147073330003,548.6288422086666,549.6228820830001,551.6580117080002,552.4894792499999,554.5622197920002,,552.4894792499999,552.4894792499999,557.6641193750002,552.4894792499999,552.4894792499999,552.4894792499999,552.4894792499999,552.9583935420005,553.9946457080005,552.9276626246667,,554.5622197920002,555.5984846669999,554.5313359586673,,552.4894792499999,557.6641193750002,552.4894792499999,557.6641193750002,557.7055728330006,,552.4894792499999,2,1,3.6179029169998103,reldom2_s012,001,2025-02-03_15h19.02.231,Where-A-Scan_AC,2022.2.5,None,
48,Second_Order,8.0,audwhere,stimulus/audwhere_stim/left_away_280h.wav,stimulus/audwhere_stim/right_away_290h.wav,stimulus/audwhere_stim/left_toward_280h.wav,stimulus/audwhere_stim/right_toward_300h.wav,stimulus/viswhere_stim/match_blank.png,stimulus/audwhere_stim/match_box.png,stimulus/viswhere_stim/match_yes.png,stimulus/viswhere_stim/match_no.png,1.0,Match,Direction,Direction,1,5.125,0,5.125,0,5.125,0,5.125,0,0.625,0.625,0,0.0,0,0.0,0,0.0,0,0.0,1,0.5,1,2.125,1,0.5,1,2.125,0,,,,,0,63,63,63,,,,,,,,,558.4909712500003,563.6134455830006,558.4909712500003,558.4909712500003,558.4909712500003,558.4909712500003,558.9405139170003,559.9383836249999,558.9528556246671,559.9461818330001,560.5735288330006,561.562557708,560.578494624667,561.5753530830007,563.6134455830006,564.3167719170006,566.4207043330007,,564.3167719170006,564.3167719170006,569.4690332500004,564.3167719170006,564.3167719170006,564.3167719170006,564.3167719170006,564.7832104580002,565.8572951250007,564.753357124667,,566.4207043330007,567.4533070830003,566.3900962496666,,564.3167719170006,569.4690332500004,564.3167719170006,569.4690332500004,569.5100984999999,570.1697732500006,564.3167719170006,1,1,1.4991082919996188,reldom2_s012,001,2025-02-03_15h19.02.231,Where-A-Scan_AC,2022.2.5,None,
0,0.0,None,fixation,stimulus/viswhere_stim/blank_white.png,stimulus/viswhere_stim/blank_white.png,stimulus/audwhere_stim/blank_white.png,stimulus/audwhere_stim/blank_white.png,stimulus/viswhere_stim/blank_white.png,stimulus/viswhere_stim/blank_white.png,stimulus/viswhere_stim/blank_white.png,stimulus/viswhere_stim/blank_white.png,0.0,0.0,0.0,0.0,0,0.0,0,0.0,0,0.0,0,0.0,0,0.0,0.0,0,0.0,0,0.0,0,0.0,0,0.0,0,0.0,0,0.0,0,0.0,0,0.0,16,,,,,0,64,64,64,,,,,,,,,570.4492330420007,570.4492330420007,570.4492330420007,570.4492330420007,570.4492330420007,570.4492330420007,570.4492330420007,570.4492330420007,570.3438260003333,570.4492330420007,570.4492330420007,570.4492330420007,570.3438260003333,570.4492330420007,570.4492330420007,570.4492330420007,570.4492330420007,570.4492330420007,570.4492330420007,570.4492330420007,570.4492330420007,570.4492330420007,570.4492330420007,570.4492330420007,570.4492330420007,570.4492330420007,570.4492330420007,570.3938260003332,570.4492330420007,570.4492330420007,570.4492330420007,570.3938260003332,570.4492330420007,570.4492330420007,570.4492330420007,570.4492330420007,570.4492330420007,575.6479560420003,575.6479560420003,586.6067117080001,None,0,,reldom2_s012,001,2025-02-03_15h19.02.231,Where-A-Scan_AC,2022.2.5,None,
