Trial,Order,Block,Type,Stimuli_File1,Stimuli_File2,Stimuli_File3,Stimuli_File4,Cue_File1,Cue_File2,Response_File_Yes,Response_File_No,Match,Cue_Dimension,Pair1_Dimension,Pair2_Dimension,Key,Cue1_Duration,Cue1_Onset,Cue2_Duration,Cue2_Onset,ResponseYes_Duration,ResponseYes_Onset,ResponseNo_Duration,ResponseNo_Onset,ITI_Within,ITI_Between,Image1_Duration,Image1_Onset,Image2_Duration,Image2_Onset,Image3_Duration,Image3_Onset,Image4_Duration,Image4_Onset,Sound1_Duration,Sound1_Onset,Sound2_Duration,Sound2_Onset,Sound3_Duration,Sound3_Onset,Sound4_Duration,Sound4_Onset,Fixation_Duration,trials_2.thisRepN,trials_2.thisTrialN,trials_2.thisN,trials_2.thisIndex,trials.thisRepN,trials.thisTrialN,trials.thisN,trials.thisIndex,text_start.started,key_resp_start.started,key_resp_start.keys,key_resp_start.rt,text2.started,key_resp_2.started,key_resp_2.keys,key_resp_2.rt,cue_file1.started,cue_file1.stopped,image_1.started,image_1.stopped,image_2.started,image_2.stopped,sound_icon1.started,sound_icon1.stopped,sound_1.started,sound_1.stopped,sound_icon2.started,sound_icon2.stopped,sound_2.started,sound_2.stopped,image_blank_1.started,image_blank_1.stopped,key_press.started,key_press.stopped,fixation_text.started,cue_file2.started,cue_file2.stopped,image_3.started,image_3.stopped,image_4.started,image_4.stopped,sound_icon3.started,sound_icon3.stopped,sound_3.started,sound_3.stopped,sound_icon4.started,sound_icon4.stopped,sound_4.started,sound_4.stopped,response_yes.started,response_yes.stopped,response_no.started,response_no.stopped,iti_blank.started,iti_blank.stopped,fixation_text.stopped,key_press.keys,key_press.corr,key_press.rt,participant,session,date,expName,psychopyVersion,frameRate,
,,,,,,,,,,,,,,,,,,,,,,,,,,,,,,,,,,,,,,,,,,,,,,,,,,,,8.102371957999821,8.102371957999821,2,0.7594512089999625,,,,,,,,,,,,,,,,,,,,,,,,,,,,,,,,,,,,,,,,,,,,,,,,reldom2_s012,001,2025-02-03_15h31.53.173,Aud-A-Scan_AC,2022.2.5,None,
,,,,,,,,,,,,,,,,,,,,,,,,,,,,,,,,,,,,,,,,,,,,0,0,0,0,,,,,,,,,8.881257582999751,8.881257582999751,5,17.42779616700045,,,,,,,,,,,,,,,,,,,,,,,,,,,,,,,,,,,,,,,,,,,,reldom2_s012,001,2025-02-03_15h31.53.173,Aud-A-Scan_AC,2022.2.5,None,
,,,,,,,,,,,,,,,,,,,,,,,,,,,,,,,,,,,,,,,,,,,,1,0,1,0,,,,,,,,,26.31694512500053,26.31694512500053,5,1.9917167079993305,,,,,,,,,,,,,,,,,,,,,,,,,,,,,,,,,,,,,,,,,,,,reldom2_s012,001,2025-02-03_15h31.53.173,Aud-A-Scan_AC,2022.2.5,None,
,,,,,,,,,,,,,,,,,,,,,,,,,,,,,,,,,,,,,,,,,,,,2,0,2,0,,,,,,,,,28.32559074999972,28.32559074999972,5,1.9825250419999065,,,,,,,,,,,,,,,,,,,,,,,,,,,,,,,,,,,,,,,,,,,,reldom2_s012,001,2025-02-03_15h31.53.173,Aud-A-Scan_AC,2022.2.5,None,
,,,,,,,,,,,,,,,,,,,,,,,,,,,,,,,,,,,,,,,,,,,,3,0,3,0,,,,,,,,,30.320811958000377,30.320811958000377,5,1.987603166999179,,,,,,,,,,,,,,,,,,,,,,,,,,,,,,,,,,,,,,,,,,,,reldom2_s012,001,2025-02-03_15h31.53.173,Aud-A-Scan_AC,2022.2.5,None,
0,0.0,None,fixation,stimulus/audwhere_stim/blank_white.png,stimulus/audwhere_stim/blank_white.png,stimulus/audwhat_stim/blank_white.png,stimulus/audwhat_stim/blank_white.png,stimulus/audwhere_stim/blank_white.png,stimulus/audwhere_stim/blank_white.png,stimulus/audwhere_stim/blank_white.png,stimulus/audwhere_stim/blank_white.png,0.0,0.0,0.0,0.0,0,0.0,0,0.0,0,0.0,0,0.0,0,0.0,0.0,0,0,0,0,0,0,0,0,0,0.0,0,0.0,0,0.0,0,0.0,16,,,,,0,0,0,0,,,,,,,,,32.51209887500045,32.51209887500045,32.51209887500045,32.51209887500045,32.51209887500045,32.51209887500045,32.51209887500045,32.51209887500045,32.40976541600012,32.51209887500045,32.51209887500045,32.51209887500045,32.40976541600012,32.51209887500045,32.51209887500045,32.51209887500045,32.51209887500045,32.51209887500045,32.51209887500045,32.51209887500045,32.51209887500045,32.51209887500045,32.51209887500045,32.51209887500045,32.51209887500045,32.51209887500045,32.51209887500045,32.45976541600012,32.51209887500045,32.51209887500045,32.51209887500045,32.45976541600012,32.51209887500045,32.51209887500045,32.51209887500045,32.51209887500045,32.51209887500045,37.689365750000434,37.689365750000434,48.72813145800046,None,0,,reldom2_s012,001,2025-02-03_15h31.53.173,Aud-A-Scan_AC,2022.2.5,None,
1,First_Order,1.0,audwhere,stimulus/audwhere_stim/dummy.wav,stimulus/audwhere_stim/dummy.wav,stimulus/audwhere_stim/left_away_280h.wav,stimulus/audwhere_stim/right_away_290h.wav,stimulus/audwhere_stim/blank_white.png,stimulus/audwhere_stim/direction_box.png,stimulus/audwhere_stim/direction_yes.png,stimulus/audwhere_stim/direction_no.png,None,Direction,None,Direction,1,0.0,0,5.125,0,5.125,0,5.125,0,0.0,0.625,0,0,0,0,0,0,0,0,0,0.0,0,0.0,1,0.5,1,2.125,0,,,,,0,1,1,1,,,,,,,,,48.72813145800046,48.72813145800046,48.72813145800046,48.72813145800046,48.72813145800046,48.72813145800046,48.72813145800046,48.72813145800046,48.65371412500044,48.72813145800046,48.72813145800046,48.72813145800046,48.65371412500044,48.72813145800046,48.72813145800046,48.72813145800046,50.80258412500007,54.84928104099981,48.72813145800046,48.72813145800046,53.902299125000354,48.72813145800046,48.72813145800046,48.72813145800046,48.72813145800046,49.18977466599972,50.24914616600017,49.160156749666626,,50.80258412500007,51.86677187500027,50.773241666667005,,48.72813145800046,53.902299125000354,48.72813145800046,53.902299125000354,53.94351216599989,54.59609716599971,48.72813145800046,1,1,1.9271252910002659,reldom2_s012,001,2025-02-03_15h31.53.173,Aud-A-Scan_AC,2022.2.5,None,
2,First_Order,1.0,audwhere,stimulus/audwhere_stim/dummy.wav,stimulus/audwhere_stim/dummy.wav,stimulus/audwhere_stim/left_away_270h.wav,stimulus/audwhere_stim/left_toward_270h.wav,stimulus/audwhere_stim/blank_white.png,stimulus/audwhere_stim/direction_box.png,stimulus/audwhere_stim/direction_yes.png,stimulus/audwhere_stim/direction_no.png,None,Direction,None,Side,2,0.0,0,5.125,0,5.125,0,5.125,0,0.0,0.625,0,0,0,0,0,0,0,0,0,0.0,0,0.0,1,0.5,1,2.125,0,,,,,0,2,2,2,,,,,,,,,54.84928104099981,54.84928104099981,54.84928104099981,54.84928104099981,54.84928104099981,54.84928104099981,54.84928104099981,54.84928104099981,54.76995758333317,54.84928104099981,54.84928104099981,54.84928104099981,54.76995758333317,54.84928104099981,54.84928104099981,54.84928104099981,56.932873540999935,,54.84928104099981,54.84928104099981,60.00004866600011,54.84928104099981,54.84928104099981,54.84928104099981,54.84928104099981,55.31183495799996,56.37737108300007,55.28248937466675,,56.932873540999935,58.00073324999994,56.9036640416664,,54.84928104099981,60.00004866600011,54.84928104099981,60.00004866600011,60.0413397909997,60.69516600000043,54.84928104099981,2,1,1.3635658749999493,reldom2_s012,001,2025-02-03_15h31.53.173,Aud-A-Scan_AC,2022.2.5,None,
3,First_Order,1.0,audwhere,stimulus/audwhere_stim/dummy.wav,stimulus/audwhere_stim/dummy.wav,stimulus/audwhere_stim/left_toward_300h.wav,stimulus/audwhere_stim/left_away_280h.wav,stimulus/audwhere_stim/blank_white.png,stimulus/audwhere_stim/direction_box.png,stimulus/audwhere_stim/direction_yes.png,stimulus/audwhere_stim/direction_no.png,None,Direction,None,Side,2,0.0,0,5.125,0,5.125,0,5.125,0,0.0,0.625,0,0,0,0,0,0,0,0,0,0.0,0,0.0,1,0.5,1,2.125,0,,,,,0,3,3,3,,,,,,,,,60.94799479100038,60.94799479100038,60.94799479100038,60.94799479100038,60.94799479100038,60.94799479100038,60.94799479100038,60.94799479100038,60.8689508743338,60.94799479100038,60.94799479100038,60.94799479100038,60.8689508743338,60.94799479100038,60.94799479100038,60.94799479100038,63.04538429100012,67.06701195799997,60.94799479100038,60.94799479100038,66.11721566600045,60.94799479100038,60.94799479100038,60.94799479100038,60.94799479100038,61.416116375000456,62.48922874999971,61.38550612466703,,63.04538429100012,64.11778137500005,63.01518837466689,,60.94799479100038,66.11721566600045,60.94799479100038,66.11721566600045,66.15831658299976,66.81156745800035,60.94799479100038,2,1,0.9481353330002094,reldom2_s012,001,2025-02-03_15h31.53.173,Aud-A-Scan_AC,2022.2.5,None,
4,First_Order,1.0,audwhere,stimulus/audwhere_stim/dummy.wav,stimulus/audwhere_stim/dummy.wav,stimulus/audwhere_stim/left_away_270h.wav,stimulus/audwhere_stim/left_toward_290h.wav,stimulus/audwhere_stim/blank_white.png,stimulus/audwhere_stim/side_box.png,stimulus/audwhere_stim/side_yes.png,stimulus/audwhere_stim/side_no.png,None,Side,None,Side,1,0.0,0,5.125,0,5.125,0,5.125,0,0.0,0.625,0,0,0,0,0,0,0,0,0,0.0,0,0.0,1,0.5,1,2.125,0,,,,,0,4,4,4,,,,,,,,,67.06701195799997,67.06701195799997,67.06701195799997,67.06701195799997,67.06701195799997,67.06701195799997,67.06701195799997,67.06701195799997,66.98572354133387,67.06701195799997,67.06701195799997,67.06701195799997,66.98572354133387,67.06701195799997,67.06701195799997,67.06701195799997,69.16076320800039,73.20165999999972,67.06701195799997,67.06701195799997,72.23089095799969,67.06701195799997,67.06701195799997,67.06701195799997,67.06701195799997,67.53181495799981,68.60324566600048,67.5023635416667,,69.16076320800039,70.23381687500023,69.13018670766657,,67.06701195799997,72.23089095799969,67.06701195799997,72.23089095799969,72.27187983299973,72.92703987500045,67.06701195799997,1,1,0.7976596670005165,reldom2_s012,001,2025-02-03_15h31.53.173,Aud-A-Scan_AC,2022.2.5,None,
0,0.0,None,fixation,stimulus/audwhere_stim/blank_white.png,stimulus/audwhere_stim/blank_white.png,stimulus/audwhat_stim/blank_white.png,stimulus/audwhat_stim/blank_white.png,stimulus/audwhere_stim/blank_white.png,stimulus/audwhere_stim/blank_white.png,stimulus/audwhere_stim/blank_white.png,stimulus/audwhere_stim/blank_white.png,0.0,0.0,0.0,0.0,0,0.0,0,0.0,0,0.0,0,0.0,0,0.0,0.0,0,0,0,0,0,0,0,0,0,0.0,0,0.0,0,0.0,0,0.0,9,,,,,0,5,5,5,,,,,,,,,73.20165999999972,73.20165999999972,73.20165999999972,73.20165999999972,73.20165999999972,73.20165999999972,73.20165999999972,73.20165999999972,73.10128133333376,73.20165999999972,73.20165999999972,73.20165999999972,73.10128133333376,73.20165999999972,73.20165999999972,73.20165999999972,73.20165999999972,73.20165999999972,73.20165999999972,73.20165999999972,73.20165999999972,73.20165999999972,73.20165999999972,73.20165999999972,73.20165999999972,73.20165999999972,73.20165999999972,73.15128133333377,73.20165999999972,73.20165999999972,73.20165999999972,73.15128133333377,73.20165999999972,73.20165999999972,73.20165999999972,73.20165999999972,73.20165999999972,78.40145916599977,78.40145916599977,82.36481491599989,None,0,,reldom2_s012,001,2025-02-03_15h31.53.173,Aud-A-Scan_AC,2022.2.5,None,
5,Second_Order,1.0,audwhere,stimulus/audwhere_stim/left_away_290h.wav,stimulus/audwhere_stim/right_away_300h.wav,stimulus/audwhere_stim/right_toward_290h.wav,stimulus/audwhere_stim/left_toward_300h.wav,stimulus/audwhere_stim/match_blank.png,stimulus/audwhere_stim/match_box.png,stimulus/audwhere_stim/match_yes.png,stimulus/audwhere_stim/match_no.png,1.0,Match,Direction,Direction,1,5.125,0,5.125,0,5.125,0,5.125,0,0.75,0.75,0,0,0,0,0,0,0,0,1,0.5,1,2.125,1,0.5,1,2.125,0,,,,,0,6,6,6,,,,,,,,,82.36481491599989,87.48673387500003,82.36481491599989,82.36481491599989,82.36481491599989,82.36481491599989,82.81361995800034,83.81130399999984,82.82631724966656,83.81878420799967,84.44641091599988,85.435528041,84.44988208266683,85.4485975409998,87.48673387500003,88.32372162499996,90.41360737500054,,88.32372162499996,88.32372162499996,93.49056583299989,88.32372162499996,88.32372162499996,88.32372162499996,88.32372162499996,88.7861221660005,89.85317550000036,88.7568078746665,,90.41360737500054,91.48800145800033,90.38300633266705,,88.32372162499996,93.49056583299989,88.32372162499996,93.49056583299989,93.53206195799976,,88.32372162499996,1,1,2.5382494589994167,reldom2_s012,001,2025-02-03_15h31.53.173,Aud-A-Scan_AC,2022.2.5,None,
6,Second_Order,1.0,audwhere,stimulus/audwhere_stim/left_away_280h.wav,stimulus/audwhere_stim/right_away_280h.wav,stimulus/audwhere_stim/left_away_300h.wav,stimulus/audwhere_stim/left_toward_280h.wav,stimulus/audwhere_stim/match_blank.png,stimulus/audwhere_stim/match_box.png,stimulus/audwhere_stim/match_yes.png,stimulus/audwhere_stim/match_no.png,2.0,Match,Direction,Side,2,5.125,0,5.125,0,5.125,0,5.125,0,0.625,0.625,0,0,0,0,0,0,0,0,1,0.5,1,2.125,1,0.5,1,2.125,0,,,,,0,7,7,7,,,,,,,,,94.30491566599994,99.41955712500021,94.30491566599994,94.30491566599994,94.30491566599994,94.30491566599994,94.7575620409998,95.75579087500046,94.76995683266638,95.76377475000027,96.37794575000044,97.37670666600025,96.39031099966657,97.3846271250004,99.41955712500021,100.12846029100001,102.21490625000024,106.2594895000002,100.12846029100001,100.12846029100001,105.28580995799985,100.12846029100001,100.12846029100001,100.12846029100001,100.12846029100001,100.59168408300047,101.6596786250002,100.56233412466669,,102.21490625000024,103.2845696659997,102.18561745766716,,100.12846029100001,105.28580995799985,100.12846029100001,105.28580995799985,105.3273882909998,105.982932291,100.12846029100001,2,1,1.721657915999458,reldom2_s012,001,2025-02-03_15h31.53.173,Aud-A-Scan_AC,2022.2.5,None,
0,0.0,None,fixation,stimulus/audwhere_stim/blank_white.png,stimulus/audwhere_stim/blank_white.png,stimulus/audwhat_stim/blank_white.png,stimulus/audwhat_stim/blank_white.png,stimulus/audwhere_stim/blank_white.png,stimulus/audwhere_stim/blank_white.png,stimulus/audwhere_stim/blank_white.png,stimulus/audwhere_stim/blank_white.png,0.0,0.0,0.0,0.0,0,0.0,0,0.0,0,0.0,0,0.0,0,0.0,0.0,0,0,0,0,0,0,0,0,0,0.0,0,0.0,0,0.0,0,0.0,10,,,,,0,8,8,8,,,,,,,,,106.2594895000002,106.2594895000002,106.2594895000002,106.2594895000002,106.2594895000002,106.2594895000002,106.2594895000002,106.2594895000002,106.15702379133302,106.2594895000002,106.2594895000002,106.2594895000002,106.15702379133302,106.2594895000002,106.2594895000002,106.2594895000002,106.2594895000002,106.2594895000002,106.2594895000002,106.2594895000002,106.2594895000002,106.2594895000002,106.2594895000002,106.2594895000002,106.2594895000002,106.2594895000002,106.2594895000002,106.20702379133303,106.2594895000002,106.2594895000002,106.2594895000002,106.20702379133303,106.2594895000002,106.2594895000002,106.2594895000002,106.2594895000002,106.2594895000002,111.45745933299986,111.45745933299986,116.51438808300009,None,0,,reldom2_s012,001,2025-02-03_15h31.53.173,Aud-A-Scan_AC,2022.2.5,None,
7,First_Order,2.0,audwhere,stimulus/audwhere_stim/dummy.wav,stimulus/audwhere_stim/dummy.wav,stimulus/audwhere_stim/left_away_300h.wav,stimulus/audwhere_stim/right_away_300h.wav,stimulus/audwhere_stim/blank_white.png,stimulus/audwhere_stim/side_box.png,stimulus/audwhere_stim/side_yes.png,stimulus/audwhere_stim/side_no.png,None,Side,None,Direction,2,0.0,0,5.125,0,5.125,0,5.125,0,0.0,0.625,0,0,0,0,0,0,0,0,0,0.0,0,0.0,1,0.5,1,2.125,0,,,,,0,9,9,9,,,,,,,,,116.51438808300009,116.51438808300009,116.51438808300009,116.51438808300009,116.51438808300009,116.51438808300009,116.51438808300009,116.51438808300009,116.43816845766712,116.51438808300009,116.51438808300009,116.51438808300009,116.43816845766712,116.51438808300009,116.51438808300009,116.51438808300009,118.61937816600039,,116.51438808300009,116.51438808300009,121.70516429100007,116.51438808300009,116.51438808300009,116.51438808300009,116.51438808300009,116.98258695799996,118.05552024999997,116.95250629166664,,118.61937816600039,119.65058337499977,118.58892820766711,,116.51438808300009,121.70516429100007,116.51438808300009,121.70516429100007,121.70516429100007,122.36457491600049,116.51438808300009,2,1,0.6674463330000435,reldom2_s012,001,2025-02-03_15h31.53.173,Aud-A-Scan_AC,2022.2.5,None,
8,First_Order,2.0,audwhere,stimulus/audwhere_stim/dummy.wav,stimulus/audwhere_stim/dummy.wav,stimulus/audwhere_stim/left_away_280h.wav,stimulus/audwhere_stim/right_away_270h.wav,stimulus/audwhere_stim/blank_white.png,stimulus/audwhere_stim/side_box.png,stimulus/audwhere_stim/side_yes.png,stimulus/audwhere_stim/side_no.png,None,Side,None,Direction,2,0.0,0,5.125,0,5.125,0,5.125,0,0.0,0.625,0,0,0,0,0,0,0,0,0,0.0,0,0.0,1,0.5,1,2.125,0,,,,,0,10,10,10,,,,,,,,,122.61921245800022,122.61921245800022,122.61921245800022,122.61921245800022,122.61921245800022,122.61921245800022,122.61921245800022,122.61921245800022,122.538976541333,122.61921245800022,122.61921245800022,122.61921245800022,122.538976541333,122.61921245800022,122.61921245800022,122.61921245800022,124.72652245800055,,122.61921245800022,122.61921245800022,127.76832004100015,122.61921245800022,122.61921245800022,122.61921245800022,122.61921245800022,123.08689970799969,124.11675770800048,123.05725041666689,,124.72652245800055,125.75866258299993,124.69595758266702,,122.61921245800022,127.76832004100015,122.61921245800022,127.76832004100015,127.80956375000005,128.47056283300026,122.61921245800022,2,1,0.5961379589998614,reldom2_s012,001,2025-02-03_15h31.53.173,Aud-A-Scan_AC,2022.2.5,None,
9,First_Order,2.0,audwhere,stimulus/audwhere_stim/dummy.wav,stimulus/audwhere_stim/dummy.wav,stimulus/audwhere_stim/left_away_280h.wav,stimulus/audwhere_stim/right_away_300h.wav,stimulus/audwhere_stim/blank_white.png,stimulus/audwhere_stim/direction_box.png,stimulus/audwhere_stim/direction_yes.png,stimulus/audwhere_stim/direction_no.png,None,Direction,None,Direction,1,0.0,0,5.125,0,5.125,0,5.125,0,0.0,0.625,0,0,0,0,0,0,0,0,0,0.0,0,0.0,1,0.5,1,2.125,0,,,,,0,11,11,11,,,,,,,,,128.72749837500032,128.72749837500032,128.72749837500032,128.72749837500032,128.72749837500032,128.72749837500032,128.72749837500032,128.72749837500032,128.6451509993332,128.72749837500032,128.72749837500032,128.72749837500032,128.6451509993332,128.72749837500032,128.72749837500032,128.72749837500032,130.8017703329997,,128.72749837500032,128.72749837500032,133.91697270799978,128.72749837500032,128.72749837500032,128.72749837500032,128.72749837500032,129.19845075000012,130.23525804099972,129.16802774966644,,130.8017703329997,131.84055350000017,130.77140062466722,,128.72749837500032,133.91697270799978,128.72749837500032,133.91697270799978,133.9582685000005,134.6231299580004,128.72749837500032,2,0,2.709308666999277,reldom2_s012,001,2025-02-03_15h31.53.173,Aud-A-Scan_AC,2022.2.5,None,
10,First_Order,2.0,audwhere,stimulus/audwhere_stim/dummy.wav,stimulus/audwhere_stim/dummy.wav,stimulus/audwhere_stim/right_away_270h.wav,stimulus/audwhere_stim/right_toward_300h.wav,stimulus/audwhere_stim/blank_white.png,stimulus/audwhere_stim/side_box.png,stimulus/audwhere_stim/side_yes.png,stimulus/audwhere_stim/side_no.png,None,Side,None,Side,1,0.0,0,5.125,0,5.125,0,5.125,0,0.0,0.625,0,0,0,0,0,0,0,0,0,0.0,0,0.0,1,0.5,1,2.125,0,,,,,0,12,12,12,,,,,,,,,134.84029129100054,134.84029129100054,134.84029129100054,134.84029129100054,134.84029129100054,134.84029129100054,134.84029129100054,134.84029129100054,134.75646329133374,134.84029129100054,134.84029129100054,134.84029129100054,134.75646329133374,134.84029129100054,134.84029129100054,134.84029129100054,136.95582220800043,140.98762824999994,134.84029129100054,134.84029129100054,140.00481420800043,134.84029129100054,134.84029129100054,134.84029129100054,134.84029129100054,135.31196187499972,136.3462959999997,135.28096149966703,,136.95582220800043,137.98895025000002,136.92492016666645,,134.84029129100054,140.00481420800043,134.84029129100054,140.00481420800043,140.0462129160005,140.70834900000045,134.84029129100054,1,1,0.898530875000688,reldom2_s012,001,2025-02-03_15h31.53.173,Aud-A-Scan_AC,2022.2.5,None,
0,0.0,None,fixation,stimulus/audwhere_stim/blank_white.png,stimulus/audwhere_stim/blank_white.png,stimulus/audwhat_stim/blank_white.png,stimulus/audwhat_stim/blank_white.png,stimulus/audwhere_stim/blank_white.png,stimulus/audwhere_stim/blank_white.png,stimulus/audwhere_stim/blank_white.png,stimulus/audwhere_stim/blank_white.png,0.0,0.0,0.0,0.0,0,0.0,0,0.0,0,0.0,0,0.0,0,0.0,0.0,0,0,0,0,0,0,0,0,0,0.0,0,0.0,0,0.0,0,0.0,8,,,,,0,13,13,13,,,,,,,,,140.98762824999994,140.98762824999994,140.98762824999994,140.98762824999994,140.98762824999994,140.98762824999994,140.98762824999994,140.98762824999994,140.8831934583333,140.98762824999994,140.98762824999994,140.98762824999994,140.8831934583333,140.98762824999994,140.98762824999994,140.98762824999994,140.98762824999994,140.98762824999994,140.98762824999994,140.98762824999994,140.98762824999994,140.98762824999994,140.98762824999994,140.98762824999994,140.98762824999994,140.98762824999994,140.98762824999994,140.93319345833328,140.98762824999994,140.98762824999994,140.98762824999994,140.93319345833328,140.98762824999994,140.98762824999994,140.98762824999994,140.98762824999994,140.98762824999994,146.18137829100033,146.18137829100033,149.14240104100008,None,0,,reldom2_s012,001,2025-02-03_15h31.53.173,Aud-A-Scan_AC,2022.2.5,None,
11,Second_Order,2.0,audwhere,stimulus/audwhere_stim/left_away_280h.wav,stimulus/audwhere_stim/left_toward_280h.wav,stimulus/audwhere_stim/right_toward_280h.wav,stimulus/audwhere_stim/left_toward_270h.wav,stimulus/audwhere_stim/match_blank.png,stimulus/audwhere_stim/match_box.png,stimulus/audwhere_stim/match_yes.png,stimulus/audwhere_stim/match_no.png,2.0,Match,Side,Direction,2,5.125,0,5.125,0,5.125,0,5.125,0,0.75,0.75,0,0,0,0,0,0,0,0,1,0.5,1,2.125,1,0.5,1,2.125,0,,,,,0,14,14,14,,,,,,,,,149.14240104100008,154.26312583300023,149.14240104100008,149.14240104100008,149.14240104100008,149.14240104100008,149.60097445800056,150.59876945799988,149.6136514996672,150.60623745799967,151.22231541600013,152.21904645799987,151.2337592496672,152.22705004100044,154.26312583300023,155.0930149579999,157.15406774999974,,155.0930149579999,155.0930149579999,160.25772879099986,155.0930149579999,155.0930149579999,155.0930149579999,155.0930149579999,155.56197091600006,156.5923732910005,155.53178324966692,,157.15406774999974,158.19336970800032,157.12335445766647,,155.0930149579999,160.25772879099986,155.0930149579999,160.25772879099986,160.2990099159997,,155.0930149579999,2,1,0.5879822500000955,reldom2_s012,001,2025-02-03_15h31.53.173,Aud-A-Scan_AC,2022.2.5,None,
12,Second_Order,2.0,audwhere,stimulus/audwhere_stim/left_away_300h.wav,stimulus/audwhere_stim/right_away_270h.wav,stimulus/audwhere_stim/left_toward_280h.wav,stimulus/audwhere_stim/right_toward_280h.wav,stimulus/audwhere_stim/match_blank.png,stimulus/audwhere_stim/match_box.png,stimulus/audwhere_stim/match_yes.png,stimulus/audwhere_stim/match_no.png,1.0,Match,Direction,Direction,1,5.125,0,5.125,0,5.125,0,5.125,0,0.625,0.625,0,0,0,0,0,0,0,0,1,0.5,1,2.125,1,0.5,1,2.125,0,,,,,0,15,15,15,,,,,,,,,161.07963141599976,166.20147141600046,161.07963141599976,161.07963141599976,161.07963141599976,161.07963141599976,161.52815604100033,162.52621912500035,161.5405910416669,162.53409762499996,163.16584595800032,164.16370854100023,163.17779495766652,164.17173054100022,166.20147141600046,166.9138309580003,169.0090177080001,,166.9138309580003,166.9138309580003,172.09244558299997,166.9138309580003,166.9138309580003,166.9138309580003,166.9138309580003,167.37849566600016,168.44834779099983,167.34864329166638,,169.0090177080001,170.084673458,168.97859504166652,,166.9138309580003,172.09244558299997,166.9138309580003,172.09244558299997,172.13360966599976,172.7931283329999,166.9138309580003,1,1,1.0471089590000702,reldom2_s012,001,2025-02-03_15h31.53.173,Aud-A-Scan_AC,2022.2.5,None,
0,0.0,None,fixation,stimulus/audwhere_stim/blank_white.png,stimulus/audwhere_stim/blank_white.png,stimulus/audwhat_stim/blank_white.png,stimulus/audwhat_stim/blank_white.png,stimulus/audwhere_stim/blank_white.png,stimulus/audwhere_stim/blank_white.png,stimulus/audwhere_stim/blank_white.png,stimulus/audwhere_stim/blank_white.png,0.0,0.0,0.0,0.0,0,0.0,0,0.0,0,0.0,0,0.0,0,0.0,0.0,0,0,0,0,0,0,0,0,0,0.0,0,0.0,0,0.0,0,0.0,8,,,,,0,16,16,16,,,,,,,,,173.0311547500005,173.0311547500005,173.0311547500005,173.0311547500005,173.0311547500005,173.0311547500005,173.0311547500005,173.0311547500005,172.92646166633327,173.0311547500005,173.0311547500005,173.0311547500005,172.92646166633327,173.0311547500005,173.0311547500005,173.0311547500005,173.0311547500005,173.0311547500005,173.0311547500005,173.0311547500005,173.0311547500005,173.0311547500005,173.0311547500005,173.0311547500005,173.0311547500005,173.0311547500005,173.0311547500005,172.97646166633325,173.0311547500005,173.0311547500005,173.0311547500005,172.97646166633325,173.0311547500005,173.0311547500005,173.0311547500005,173.0311547500005,173.0311547500005,178.2473632500005,178.2473632500005,181.2986934999999,None,0,,reldom2_s012,001,2025-02-03_15h31.53.173,Aud-A-Scan_AC,2022.2.5,None,
13,First_Order,3.0,audwhat,stimulus/audwhat_stim/dummy.wav,stimulus/audwhat_stim/dummy.wav,stimulus/audwhat_stim/percussion xylophone_high-pitch_F_loud.wav,stimulus/audwhat_stim/percussion mallet_low-pitch_Dtri_loud.wav,stimulus/audwhat_stim/blank_white.png,stimulus/audwhat_stim/category_box.png,stimulus/audwhat_stim/category_yes.png,stimulus/audwhat_stim/category_no.png,None,Category,None,Category,1,0.0,0,5.125,0,5.125,0,5.125,0,0.0,0.625,0,0,0,0,0,0,0,0,0,0.0,0,0.0,1,0.5,1,2.125,0,,,,,0,17,17,17,,,,,,,,,181.2986934999999,181.2986934999999,181.2986934999999,181.2986934999999,181.2986934999999,181.2986934999999,181.2986934999999,181.2986934999999,181.21956862466658,181.2986934999999,181.2986934999999,181.2986934999999,181.21956862466658,181.2986934999999,181.2986934999999,181.2986934999999,183.37750316599977,187.41321020800024,181.2986934999999,181.2986934999999,186.49300529100037,181.2986934999999,181.2986934999999,181.2986934999999,181.2986934999999,181.7716342499998,182.81356454100023,181.74085329166635,182.81356454100023,183.37750316599977,184.4202700830001,183.34692962466696,,181.2986934999999,186.49300529100037,181.2986934999999,186.49300529100037,186.49300529100037,187.15480695800034,181.2986934999999,1,1,1.2431079580001096,reldom2_s012,001,2025-02-03_15h31.53.173,Aud-A-Scan_AC,2022.2.5,None,
14,First_Order,3.0,audwhat,stimulus/audwhat_stim/dummy.wav,stimulus/audwhat_stim/dummy.wav,stimulus/audwhat_stim/string cello_low-pitch_Ftri_loud.wav,stimulus/audwhat_stim/string viola_high-pitch_F_loud.wav,stimulus/audwhat_stim/blank_white.png,stimulus/audwhat_stim/category_box.png,stimulus/audwhat_stim/category_yes.png,stimulus/audwhat_stim/category_no.png,None,Category,None,Category,1,0.0,0,5.125,0,5.125,0,5.125,0,0.0,0.625,0,0,0,0,0,0,0,0,0,0.0,0,0.0,1,0.5,1,2.125,0,,,,,0,18,18,18,,,,,,,,,187.41321020800024,187.41321020800024,187.41321020800024,187.41321020800024,187.41321020800024,187.41321020800024,187.41321020800024,187.41321020800024,187.3295774163336,187.41321020800024,187.41321020800024,187.41321020800024,187.3295774163336,187.41321020800024,187.41321020800024,187.41321020800024,189.48979654100003,,187.41321020800024,187.41321020800024,192.60027137500037,187.41321020800024,187.41321020800024,187.41321020800024,187.41321020800024,187.88400937500046,188.92506125,187.85307462466724,,189.48979654100003,190.53015637499993,189.4590578746668,,187.41321020800024,192.60027137500037,187.41321020800024,192.60027137500037,192.6419282910001,193.30646112500017,187.41321020800024,1,1,0.5111447499994028,reldom2_s012,001,2025-02-03_15h31.53.173,Aud-A-Scan_AC,2022.2.5,None,
15,First_Order,3.0,audwhat,stimulus/audwhat_stim/dummy.wav,stimulus/audwhat_stim/dummy.wav,stimulus/audwhat_stim/string viola_low-pitch_D_loud.wav,stimulus/audwhat_stim/percussion mallet_low-pitch_D_loud.wav,stimulus/audwhat_stim/blank_white.png,stimulus/audwhat_stim/pitch_box.png,stimulus/audwhat_stim/pitch_yes.png,stimulus/audwhat_stim/pitch_no.png,None,Pitch,None,Pitch,1,0.0,0,5.125,0,5.125,0,5.125,0,0.0,0.625,0,0,0,0,0,0,0,0,0,0.0,0,0.0,1,0.5,1,2.125,0,,,,,0,19,19,19,,,,,,,,,193.52528862500003,193.52528862500003,193.52528862500003,193.52528862500003,193.52528862500003,193.52528862500003,193.52528862500003,193.52528862500003,193.43979445833352,193.52528862500003,193.52528862500003,193.52528862500003,193.43979445833352,193.52528862500003,193.52528862500003,193.52528862500003,195.59607962500013,,193.52528862500003,193.52528862500003,198.70113704100004,193.52528862500003,193.52528862500003,193.52528862500003,193.52528862500003,193.99683679100053,195.0325831250002,193.96664729166721,,195.59607962500013,196.63384316599968,195.5657927916666,,193.52528862500003,198.70113704100004,193.52528862500003,198.70113704100004,198.74296666600003,199.40451166599996,193.52528862500003,1,1,0.9184652080002706,reldom2_s012,001,2025-02-03_15h31.53.173,Aud-A-Scan_AC,2022.2.5,None,
16,First_Order,3.0,audwhat,stimulus/audwhat_stim/dummy.wav,stimulus/audwhat_stim/dummy.wav,stimulus/audwhat_stim/string cello_low-pitch_D_loud.wav,stimulus/audwhat_stim/string viola_high-pitch_Dtri_loud.wav,stimulus/audwhat_stim/blank_white.png,stimulus/audwhat_stim/pitch_box.png,stimulus/audwhat_stim/pitch_yes.png,stimulus/audwhat_stim/pitch_no.png,None,Pitch,None,Category,2,0.0,0,5.125,0,5.125,0,5.125,0,0.0,0.625,0,0,0,0,0,0,0,0,0,0.0,0,0.0,1,0.5,1,2.125,0,,,,,0,20,20,20,,,,,,,,,199.62124316600057,199.62124316600057,199.62124316600057,199.62124316600057,199.62124316600057,199.62124316600057,199.62124316600057,199.62124316600057,199.53784499933332,199.62124316600057,199.62124316600057,199.62124316600057,199.53784499933332,199.62124316600057,199.62124316600057,199.62124316600057,201.6968594580003,,199.62124316600057,199.62124316600057,204.806733333,199.62124316600057,199.62124316600057,199.62124316600057,199.62124316600057,200.09150124999996,201.13252216599994,200.06064949966665,,201.6968594580003,202.7371257499999,201.66644291666697,,199.62124316600057,204.806733333,199.62124316600057,204.806733333,204.8479952910002,205.5097745410003,199.62124316600057,2,1,1.0029005830001552,reldom2_s012,001,2025-02-03_15h31.53.173,Aud-A-Scan_AC,2022.2.5,None,
0,0.0,None,fixation,stimulus/audwhere_stim/blank_white.png,stimulus/audwhere_stim/blank_white.png,stimulus/audwhat_stim/blank_white.png,stimulus/audwhat_stim/blank_white.png,stimulus/audwhere_stim/blank_white.png,stimulus/audwhere_stim/blank_white.png,stimulus/audwhere_stim/blank_white.png,stimulus/audwhere_stim/blank_white.png,0.0,0.0,0.0,0.0,0,0.0,0,0.0,0,0.0,0,0.0,0,0.0,0.0,0,0,0,0,0,0,0,0,0,0.0,0,0.0,0,0.0,0,0.0,8,,,,,0,21,21,21,,,,,,,,,205.74672704099976,205.74672704099976,205.74672704099976,205.74672704099976,205.74672704099976,205.74672704099976,205.74672704099976,205.74672704099976,205.64310787433365,205.74672704099976,205.74672704099976,205.74672704099976,205.64310787433365,205.74672704099976,205.74672704099976,205.74672704099976,205.74672704099976,205.74672704099976,205.74672704099976,205.74672704099976,205.74672704099976,205.74672704099976,205.74672704099976,205.74672704099976,205.74672704099976,205.74672704099976,205.74672704099976,205.69310787433363,205.74672704099976,205.74672704099976,205.74672704099976,205.69310787433363,205.74672704099976,205.74672704099976,205.74672704099976,205.74672704099976,205.74672704099976,210.95209658299973,210.95209658299973,213.92354529099975,None,0,,reldom2_s012,001,2025-02-03_15h31.53.173,Aud-A-Scan_AC,2022.2.5,None,
17,Second_Order,3.0,audwhat,stimulus/audwhat_stim/percussion mallet_high-pitch_F_loud.wav,stimulus/audwhat_stim/string viola_high-pitch_F_loud.wav,stimulus/audwhat_stim/string cello_low-pitch_Ftri_loud.wav,stimulus/audwhat_stim/string cello_high-pitch_Dtri_loud.wav,stimulus/audwhere_stim/match_blank.png,stimulus/audwhat_stim/match_box.png,stimulus/audwhere_stim/match_yes.png,stimulus/audwhere_stim/match_no.png,2.0,Match,Pitch,Category,2,5.125,0,5.125,0,5.125,0,5.125,0,0.75,0.75,0,0,0,0,0,0,0,0,1,0.5,1,2.125,1,0.5,1,2.125,0,,,,,0,22,22,22,,,,,,,,,213.92354529099975,219.04499062500054,213.92354529099975,213.92354529099975,213.92354529099975,213.92354529099975,214.3789475829999,215.37275883300026,214.38212770766702,215.37275883300026,216.00472879100016,217.00189320800018,216.01663412466704,,219.04499062500054,219.87470075000056,221.9369430830002,,219.87470075000056,219.87470075000056,225.04096358300012,219.87470075000056,219.87470075000056,219.87470075000056,219.87470075000056,220.34393512499992,221.37514612500036,220.312208749667,,221.9369430830002,222.97574866600007,221.90686079166724,,219.87470075000056,225.04096358300012,219.87470075000056,225.04096358300012,225.08245087500018,,219.87470075000056,2,1,1.0064597910004522,reldom2_s012,001,2025-02-03_15h31.53.173,Aud-A-Scan_AC,2022.2.5,None,
18,Second_Order,3.0,audwhat,stimulus/audwhat_stim/string viola_low-pitch_F_loud.wav,stimulus/audwhat_stim/percussion mallet_low-pitch_F_loud.wav,stimulus/audwhat_stim/percussion mallet_high-pitch_Ftri_loud.wav,stimulus/audwhat_stim/string cello_high-pitch_Ftri_loud.wav,stimulus/audwhere_stim/match_blank.png,stimulus/audwhat_stim/match_box.png,stimulus/audwhere_stim/match_yes.png,stimulus/audwhere_stim/match_no.png,1.0,Match,Pitch,Pitch,1,5.125,0,5.125,0,5.125,0,5.125,0,0.625,0.625,0,0,0,0,0,0,0,0,1,0.5,1,2.125,1,0.5,1,2.125,0,,,,,0,23,23,23,,,,,,,,,225.8634044999999,230.98427691600045,225.8634044999999,225.8634044999999,225.8634044999999,225.8634044999999,226.31194729100025,227.30925529100023,226.3232524166672,,227.94852233300026,228.94634595800017,227.96036679166653,228.95436266599972,230.98427691600045,231.69939658299973,233.7603153330001,237.83888112499972,231.69939658299973,231.69939658299973,236.85773824999978,231.69939658299973,231.69939658299973,231.69939658299973,231.69939658299973,232.1670941250004,233.19880666600056,232.136897624667,,233.7603153330001,234.79626850000022,233.7298222496668,,231.69939658299973,236.85773824999978,231.69939658299973,236.85773824999978,236.8993597079998,237.5590641660001,231.69939658299973,1,1,0.37138249999952677,reldom2_s012,001,2025-02-03_15h31.53.173,Aud-A-Scan_AC,2022.2.5,None,
0,0.0,None,fixation,stimulus/audwhere_stim/blank_white.png,stimulus/audwhere_stim/blank_white.png,stimulus/audwhat_stim/blank_white.png,stimulus/audwhat_stim/blank_white.png,stimulus/audwhere_stim/blank_white.png,stimulus/audwhere_stim/blank_white.png,stimulus/audwhere_stim/blank_white.png,stimulus/audwhere_stim/blank_white.png,0.0,0.0,0.0,0.0,0,0.0,0,0.0,0,0.0,0,0.0,0,0.0,0.0,0,0,0,0,0,0,0,0,0,0.0,0,0.0,0,0.0,0,0.0,9,,,,,0,24,24,24,,,,,,,,,237.83888112499972,237.83888112499972,237.83888112499972,237.83888112499972,237.83888112499972,237.83888112499972,237.83888112499972,237.83888112499972,237.73388695833378,237.83888112499972,237.83888112499972,237.83888112499972,237.73388695833378,237.83888112499972,237.83888112499972,237.83888112499972,237.83888112499972,237.83888112499972,237.83888112499972,237.83888112499972,237.83888112499972,237.83888112499972,237.83888112499972,237.83888112499972,237.83888112499972,237.83888112499972,237.83888112499972,237.78388695833377,237.83888112499972,237.83888112499972,237.83888112499972,237.78388695833377,237.83888112499972,237.83888112499972,237.83888112499972,237.83888112499972,237.83888112499972,243.0293476249999,243.0293476249999,247.11612745799994,None,0,,reldom2_s012,001,2025-02-03_15h31.53.173,Aud-A-Scan_AC,2022.2.5,None,
19,First_Order,4.0,audwhat,stimulus/audwhat_stim/dummy.wav,stimulus/audwhat_stim/dummy.wav,stimulus/audwhat_stim/percussion mallet_low-pitch_D_loud.wav,stimulus/audwhat_stim/string viola_low-pitch_D_loud.wav,stimulus/audwhat_stim/blank_white.png,stimulus/audwhat_stim/category_box.png,stimulus/audwhat_stim/category_yes.png,stimulus/audwhat_stim/category_no.png,None,Category,None,Pitch,2,0.0,0,5.125,0,5.125,0,5.125,0,0.0,0.625,0,0,0,0,0,0,0,0,0,0.0,0,0.0,1,0.5,1,2.125,0,,,,,0,25,25,25,,,,,,,,,247.11612745799994,247.11612745799994,247.11612745799994,247.11612745799994,247.11612745799994,247.11612745799994,247.11612745799994,247.11612745799994,247.0391591246668,247.11612745799994,247.11612745799994,247.11612745799994,247.0391591246668,247.11612745799994,247.11612745799994,247.11612745799994,249.197297875,253.23068745799992,247.11612745799994,247.11612745799994,252.26638387500043,247.11612745799994,247.11612745799994,247.11612745799994,247.11612745799994,247.59058233300038,248.63104974999987,247.55979345766653,,249.197297875,250.2415542079998,249.16665499966646,,247.11612745799994,252.26638387500043,247.11612745799994,252.26638387500043,252.30758533300013,252.97203937500035,247.11612745799994,2,1,0.6457100419993367,reldom2_s012,001,2025-02-03_15h31.53.173,Aud-A-Scan_AC,2022.2.5,None,
20,First_Order,4.0,audwhat,stimulus/audwhat_stim/dummy.wav,stimulus/audwhat_stim/dummy.wav,stimulus/audwhat_stim/percussion xylophone_high-pitch_Dtri_loud.wav,stimulus/audwhat_stim/string cello_high-pitch_Dtri_loud.wav,stimulus/audwhat_stim/blank_white.png,stimulus/audwhat_stim/pitch_box.png,stimulus/audwhat_stim/pitch_yes.png,stimulus/audwhat_stim/pitch_no.png,None,Pitch,None,Pitch,1,0.0,0,5.125,0,5.125,0,5.125,0,0.0,0.625,0,0,0,0,0,0,0,0,0,0.0,0,0.0,1,0.5,1,2.125,0,,,,,0,26,26,26,,,,,,,,,253.23068745799992,253.23068745799992,253.23068745799992,253.23068745799992,253.23068745799992,253.23068745799992,253.23068745799992,253.23068745799992,253.14671270833347,253.23068745799992,253.23068745799992,253.23068745799992,253.14671270833347,253.23068745799992,253.23068745799992,253.23068745799992,255.3081153330004,,253.23068745799992,253.23068745799992,258.41628791600033,253.23068745799992,253.23068745799992,253.23068745799992,253.23068745799992,253.7031539159998,254.74308745800045,253.67271629166706,254.74308745800045,255.3081153330004,256.3490377500002,255.27777991666724,,253.23068745799992,258.41628791600033,253.23068745799992,258.41628791600033,258.4580557500003,259.12082016600016,253.23068745799992,1,1,0.4748329999993075,reldom2_s012,001,2025-02-03_15h31.53.173,Aud-A-Scan_AC,2022.2.5,None,
21,First_Order,4.0,audwhat,stimulus/audwhat_stim/dummy.wav,stimulus/audwhat_stim/dummy.wav,stimulus/audwhat_stim/string viola_low-pitch_D_loud.wav,stimulus/audwhat_stim/percussion mallet_low-pitch_D_loud.wav,stimulus/audwhat_stim/blank_white.png,stimulus/audwhat_stim/category_box.png,stimulus/audwhat_stim/category_yes.png,stimulus/audwhat_stim/category_no.png,None,Category,None,Pitch,2,0.0,0,5.125,0,5.125,0,5.125,0,0.0,0.625,0,0,0,0,0,0,0,0,0,0.0,0,0.0,1,0.5,1,2.125,0,,,,,0,27,27,27,,,,,,,,,259.3369011249997,259.3369011249997,259.3369011249997,259.3369011249997,259.3369011249997,259.3369011249997,259.3369011249997,259.3369011249997,259.2541534993335,259.3369011249997,259.3369011249997,259.3369011249997,259.2541534993335,259.3369011249997,259.3369011249997,259.3369011249997,261.4170561660003,265.4565565410003,259.3369011249997,259.3369011249997,264.4907540000004,259.3369011249997,259.3369011249997,259.3369011249997,259.3369011249997,259.8098572079998,260.8508836660003,259.77915474966653,,261.4170561660003,262.46266037500027,261.3868217916672,,259.3369011249997,264.4907540000004,259.3369011249997,264.4907540000004,264.53237754099973,265.19777070800046,259.3369011249997,2,1,0.6699177919999784,reldom2_s012,001,2025-02-03_15h31.53.173,Aud-A-Scan_AC,2022.2.5,None,
22,First_Order,4.0,audwhat,stimulus/audwhat_stim/dummy.wav,stimulus/audwhat_stim/dummy.wav,stimulus/audwhat_stim/string viola_low-pitch_Ftri_loud.wav,stimulus/audwhat_stim/string cello_high-pitch_D_loud.wav,stimulus/audwhat_stim/blank_white.png,stimulus/audwhat_stim/pitch_box.png,stimulus/audwhat_stim/pitch_yes.png,stimulus/audwhat_stim/pitch_no.png,None,Pitch,None,Category,2,0.0,0,5.125,0,5.125,0,5.125,0,0.0,0.625,0,0,0,0,0,0,0,0,0,0.0,0,0.0,1,0.5,1,2.125,0,,,,,0,28,28,28,,,,,,,,,265.4565565410003,265.4565565410003,265.4565565410003,265.4565565410003,265.4565565410003,265.4565565410003,265.4565565410003,265.4565565410003,265.3722240833332,265.4565565410003,265.4565565410003,265.4565565410003,265.3722240833332,265.4565565410003,265.4565565410003,265.4565565410003,267.5294442909999,,265.4565565410003,265.4565565410003,270.6399625410004,265.4565565410003,265.4565565410003,265.4565565410003,265.4565565410003,265.92791216600017,266.9653230410004,265.8973226666669,,267.5294442909999,268.5718830830001,267.49869437466646,,265.4565565410003,270.6399625410004,265.4565565410003,270.6399625410004,270.6819472500001,271.34578345800037,265.4565565410003,1,0,0.5917425000006915,reldom2_s012,001,2025-02-03_15h31.53.173,Aud-A-Scan_AC,2022.2.5,None,
0,0.0,None,fixation,stimulus/audwhere_stim/blank_white.png,stimulus/audwhere_stim/blank_white.png,stimulus/audwhat_stim/blank_white.png,stimulus/audwhat_stim/blank_white.png,stimulus/audwhere_stim/blank_white.png,stimulus/audwhere_stim/blank_white.png,stimulus/audwhere_stim/blank_white.png,stimulus/audwhere_stim/blank_white.png,0.0,0.0,0.0,0.0,0,0.0,0,0.0,0,0.0,0,0.0,0,0.0,0.0,0,0,0,0,0,0,0,0,0,0.0,0,0.0,0,0.0,0,0.0,10,,,,,0,29,29,29,,,,,,,,,271.58500754099987,271.58500754099987,271.58500754099987,271.58500754099987,271.58500754099987,271.58500754099987,271.58500754099987,271.58500754099987,271.4791167913337,271.58500754099987,271.58500754099987,271.58500754099987,271.4791167913337,271.58500754099987,271.58500754099987,271.58500754099987,271.58500754099987,271.58500754099987,271.58500754099987,271.58500754099987,271.58500754099987,271.58500754099987,271.58500754099987,271.58500754099987,271.58500754099987,271.58500754099987,271.58500754099987,271.54578345800036,271.58500754099987,271.58500754099987,271.58500754099987,271.54578345800036,271.58500754099987,271.58500754099987,271.58500754099987,271.58500754099987,271.58500754099987,276.801229875,276.801229875,281.7299484160003,None,0,,reldom2_s012,001,2025-02-03_15h31.53.173,Aud-A-Scan_AC,2022.2.5,None,
23,Second_Order,4.0,audwhat,stimulus/audwhat_stim/string cello_low-pitch_F_loud.wav,stimulus/audwhat_stim/string cello_high-pitch_Ftri_loud.wav,stimulus/audwhat_stim/percussion mallet_high-pitch_Ftri_loud.wav,stimulus/audwhat_stim/percussion mallet_low-pitch_F_loud.wav,stimulus/audwhere_stim/match_blank.png,stimulus/audwhat_stim/match_box.png,stimulus/audwhere_stim/match_yes.png,stimulus/audwhere_stim/match_no.png,1.0,Match,Category,Category,1,5.125,0,5.125,0,5.125,0,5.125,0,0.75,0.75,0,0,0,0,0,0,0,0,1,0.5,1,2.125,1,0.5,1,2.125,0,,,,,0,30,30,30,,,,,,,,,281.7299484160003,286.8518696660003,281.7299484160003,281.7299484160003,281.7299484160003,281.7299484160003,282.18563883299976,283.1751215410004,282.188788499667,,283.8108796659999,284.8085899160005,283.82268966666675,,286.8518696660003,287.68397004100007,289.75193300000046,,287.68397004100007,287.68397004100007,292.85712166600024,287.68397004100007,287.68397004100007,287.68397004100007,287.68397004100007,288.1545771660003,289.1885461660004,288.12416320766647,,289.75193300000046,290.7912365000002,289.72106841666687,,287.68397004100007,292.85712166600024,287.68397004100007,292.85712166600024,292.89875550000033,,287.68397004100007,1,1,0.38904616700074257,reldom2_s012,001,2025-02-03_15h31.53.173,Aud-A-Scan_AC,2022.2.5,None,
24,Second_Order,4.0,audwhat,stimulus/audwhat_stim/percussion xylophone_high-pitch_Dtri_loud.wav,stimulus/audwhat_stim/percussion mallet_low-pitch_D_loud.wav,stimulus/audwhat_stim/string cello_low-pitch_Ftri_loud.wav,stimulus/audwhat_stim/string viola_high-pitch_D_loud.wav,stimulus/audwhere_stim/match_blank.png,stimulus/audwhat_stim/match_box.png,stimulus/audwhere_stim/match_yes.png,stimulus/audwhere_stim/match_no.png,1.0,Match,Category,Category,1,5.125,0,5.125,0,5.125,0,5.125,0,0.625,0.625,0,0,0,0,0,0,0,0,1,0.5,1,2.125,1,0.5,1,2.125,0,,,,,0,31,31,31,,,,,,,,,293.68330975000026,298.79652141600036,293.68330975000026,293.68330975000026,293.68330975000026,293.68330975000026,294.1342576249999,295.1322641659999,294.14642612466673,295.14032012500047,295.76713104100054,296.7559712080001,295.77056087466667,296.76917483299985,298.79652141600036,299.5095004579998,301.575588875,,299.5095004579998,299.5095004579998,304.6770866249999,299.5095004579998,299.5095004579998,299.5095004579998,299.5095004579998,299.97840116600037,301.0109620410003,299.94789274966683,,301.575588875,302.61512287500045,301.5448078326665,,299.5095004579998,304.6770866249999,299.5095004579998,304.6770866249999,304.7183315000002,305.3780832909997,299.5095004579998,1,1,0.42865749999964464,reldom2_s012,001,2025-02-03_15h31.53.173,Aud-A-Scan_AC,2022.2.5,None,
0,0.0,None,fixation,stimulus/audwhere_stim/blank_white.png,stimulus/audwhere_stim/blank_white.png,stimulus/audwhat_stim/blank_white.png,stimulus/audwhat_stim/blank_white.png,stimulus/audwhere_stim/blank_white.png,stimulus/audwhere_stim/blank_white.png,stimulus/audwhere_stim/blank_white.png,stimulus/audwhere_stim/blank_white.png,0.0,0.0,0.0,0.0,0,0.0,0,0.0,0,0.0,0,0.0,0,0.0,0.0,0,0,0,0,0,0,0,0,0,0.0,0,0.0,0,0.0,0,0.0,9,,,,,0,32,32,32,,,,,,,,,305.6161413330001,305.6161413330001,305.6161413330001,305.6161413330001,305.6161413330001,305.6161413330001,305.6161413330001,305.6161413330001,305.51141662433304,305.6161413330001,305.6161413330001,305.6161413330001,305.51141662433304,305.6161413330001,305.6161413330001,305.6161413330001,305.6161413330001,305.6161413330001,305.6161413330001,305.6161413330001,305.6161413330001,305.6161413330001,305.6161413330001,305.6161413330001,305.6161413330001,305.6161413330001,305.6161413330001,305.56141662433305,305.6161413330001,305.6161413330001,305.6161413330001,305.56141662433305,305.6161413330001,305.6161413330001,305.6161413330001,305.6161413330001,305.6161413330001,310.80687337499967,310.80687337499967,314.89412479099974,None,0,,reldom2_s012,001,2025-02-03_15h31.53.173,Aud-A-Scan_AC,2022.2.5,None,
25,First_Order,5.0,audwhere,stimulus/audwhere_stim/dummy.wav,stimulus/audwhere_stim/dummy.wav,stimulus/audwhere_stim/right_away_300h.wav,stimulus/audwhere_stim/right_toward_300h.wav,stimulus/audwhere_stim/blank_white.png,stimulus/audwhere_stim/direction_box.png,stimulus/audwhere_stim/direction_yes.png,stimulus/audwhere_stim/direction_no.png,None,Direction,None,Side,2,0.0,0,5.125,0,5.125,0,5.125,0,0.0,0.625,0,0,0,0,0,0,0,0,0,0.0,0,0.0,1,0.5,1,2.125,0,,,,,0,33,33,33,,,,,,,,,314.89412479099974,314.89412479099974,314.89412479099974,314.89412479099974,314.89412479099974,314.89412479099974,314.89412479099974,314.89412479099974,314.8177845826664,314.89412479099974,314.89412479099974,314.89412479099974,314.8177845826664,314.89412479099974,314.89412479099974,314.89412479099974,316.98179091600014,321.0217321250002,314.89412479099974,314.89412479099974,320.05600312499973,314.89412479099974,314.89412479099974,314.89412479099974,314.89412479099974,315.3686533330001,316.41315858300004,315.33761170766707,,316.98179091600014,318.0235435000004,316.9505872496668,,314.89412479099974,320.05600312499973,314.89412479099974,320.05600312499973,320.0977648329999,320.76382108300004,314.89412479099974,1,0,1.4886469579996628,reldom2_s012,001,2025-02-03_15h31.53.173,Aud-A-Scan_AC,2022.2.5,None,
26,First_Order,5.0,audwhere,stimulus/audwhere_stim/dummy.wav,stimulus/audwhere_stim/dummy.wav,stimulus/audwhere_stim/right_away_280h.wav,stimulus/audwhere_stim/left_away_270h.wav,stimulus/audwhere_stim/blank_white.png,stimulus/audwhere_stim/side_box.png,stimulus/audwhere_stim/side_yes.png,stimulus/audwhere_stim/side_no.png,None,Side,None,Direction,2,0.0,0,5.125,0,5.125,0,5.125,0,0.0,0.625,0,0,0,0,0,0,0,0,0,0.0,0,0.0,1,0.5,1,2.125,0,,,,,0,34,34,34,,,,,,,,,321.0217321250002,321.0217321250002,321.0217321250002,321.0217321250002,321.0217321250002,321.0217321250002,321.0217321250002,321.0217321250002,320.9385402913332,321.0217321250002,321.0217321250002,321.0217321250002,320.9385402913332,321.0217321250002,321.0217321250002,321.0217321250002,323.09682520800015,,321.0217321250002,321.0217321250002,326.2085017500003,321.0217321250002,321.0217321250002,321.0217321250002,321.0217321250002,321.49405908300014,322.53237100000024,321.46348174966647,,323.09682520800015,324.1363124999998,323.066152749667,,321.0217321250002,326.2085017500003,321.0217321250002,326.2085017500003,326.2503925000001,326.9162656660001,321.0217321250002,2,1,0.5659791670004779,reldom2_s012,001,2025-02-03_15h31.53.173,Aud-A-Scan_AC,2022.2.5,None,
27,First_Order,5.0,audwhere,stimulus/audwhere_stim/dummy.wav,stimulus/audwhere_stim/dummy.wav,stimulus/audwhere_stim/left_away_300h.wav,stimulus/audwhere_stim/right_away_290h.wav,stimulus/audwhere_stim/blank_white.png,stimulus/audwhere_stim/direction_box.png,stimulus/audwhere_stim/direction_yes.png,stimulus/audwhere_stim/direction_no.png,None,Direction,None,Direction,1,0.0,0,5.125,0,5.125,0,5.125,0,0.0,0.625,0,0,0,0,0,0,0,0,0,0.0,0,0.0,1,0.5,1,2.125,0,,,,,0,35,35,35,,,,,,,,,327.13353000000006,327.13353000000006,327.13353000000006,327.13353000000006,327.13353000000006,327.13353000000006,327.13353000000006,327.13353000000006,327.0495989993334,327.13353000000006,327.13353000000006,327.13353000000006,327.0495989993334,327.13353000000006,327.13353000000006,327.13353000000006,329.21729637499993,333.26180929099974,327.13353000000006,327.13353000000006,332.29320420800013,327.13353000000006,327.13353000000006,327.13353000000006,327.13353000000006,327.6079225829999,328.65138583299995,327.5768005416669,,329.21729637499993,330.2596112500005,329.1866253326664,,327.13353000000006,332.29320420800013,327.13353000000006,332.29320420800013,332.3366166659998,333.0024466249997,327.13353000000006,1,1,2.4616338340001676,reldom2_s012,001,2025-02-03_15h31.53.173,Aud-A-Scan_AC,2022.2.5,None,
28,First_Order,5.0,audwhere,stimulus/audwhere_stim/dummy.wav,stimulus/audwhere_stim/dummy.wav,stimulus/audwhere_stim/left_away_290h.wav,stimulus/audwhere_stim/right_away_280h.wav,stimulus/audwhere_stim/blank_white.png,stimulus/audwhere_stim/direction_box.png,stimulus/audwhere_stim/direction_yes.png,stimulus/audwhere_stim/direction_no.png,None,Direction,None,Direction,1,0.0,0,5.125,0,5.125,0,5.125,0,0.0,0.625,0,0,0,0,0,0,0,0,0,0.0,0,0.0,1,0.5,1,2.125,0,,,,,0,36,36,36,,,,,,,,,333.26180929099974,333.26180929099974,333.26180929099974,333.26180929099974,333.26180929099974,333.26180929099974,333.26180929099974,333.26180929099974,333.1771244583334,333.26180929099974,333.26180929099974,333.26180929099974,333.1771244583334,333.26180929099974,333.26180929099974,333.26180929099974,335.34544150000056,339.4124189160002,333.26180929099974,333.26180929099974,338.4255229999999,333.26180929099974,333.26180929099974,333.26180929099974,333.26180929099974,333.73584679099986,334.7772114159998,333.70484370766667,,335.34544150000056,336.39252662499985,335.31515145766684,,333.26180929099974,338.4255229999999,333.26180929099974,338.4255229999999,338.4674907079998,339.133361833,333.26180929099974,1,1,0.9326702500002284,reldom2_s012,001,2025-02-03_15h31.53.173,Aud-A-Scan_AC,2022.2.5,None,
0,0.0,None,fixation,stimulus/audwhere_stim/blank_white.png,stimulus/audwhere_stim/blank_white.png,stimulus/audwhat_stim/blank_white.png,stimulus/audwhat_stim/blank_white.png,stimulus/audwhere_stim/blank_white.png,stimulus/audwhere_stim/blank_white.png,stimulus/audwhere_stim/blank_white.png,stimulus/audwhere_stim/blank_white.png,0.0,0.0,0.0,0.0,0,0.0,0,0.0,0,0.0,0,0.0,0,0.0,0.0,0,0,0,0,0,0,0,0,0,0.0,0,0.0,0,0.0,0,0.0,9,,,,,0,37,37,37,,,,,,,,,339.4124189160002,339.4124189160002,339.4124189160002,339.4124189160002,339.4124189160002,339.4124189160002,339.4124189160002,339.4124189160002,339.30783370833353,339.4124189160002,339.4124189160002,339.4124189160002,339.30783370833353,339.4124189160002,339.4124189160002,339.4124189160002,339.4124189160002,339.4124189160002,339.4124189160002,339.4124189160002,339.4124189160002,339.4124189160002,339.4124189160002,339.4124189160002,339.4124189160002,339.4124189160002,339.4124189160002,339.35783370833354,339.4124189160002,339.4124189160002,339.4124189160002,339.35783370833354,339.4124189160002,339.4124189160002,339.4124189160002,339.4124189160002,339.4124189160002,344.6371684579999,344.6371684579999,348.5900220000003,None,0,,reldom2_s012,001,2025-02-03_15h31.53.173,Aud-A-Scan_AC,2022.2.5,None,
29,Second_Order,5.0,audwhere,stimulus/audwhere_stim/right_toward_270h.wav,stimulus/audwhere_stim/right_away_280h.wav,stimulus/audwhere_stim/left_toward_290h.wav,stimulus/audwhere_stim/left_away_290h.wav,stimulus/audwhere_stim/match_blank.png,stimulus/audwhere_stim/match_box.png,stimulus/audwhere_stim/match_yes.png,stimulus/audwhere_stim/match_no.png,1.0,Match,Side,Side,1,5.125,0,5.125,0,5.125,0,5.125,0,0.75,0.75,0,0,0,0,0,0,0,0,1,0.5,1,2.125,1,0.5,1,2.125,0,,,,,0,38,38,38,,,,,,,,,348.5900220000003,353.7059798749997,348.5900220000003,348.5900220000003,348.5900220000003,348.5900220000003,349.0439043329998,350.0421806249997,349.0563537916671,350.04987150000034,350.66478308299975,351.6626070829998,350.67677824966654,351.6707018750003,353.7059798749997,354.53477487500004,356.60656141599975,,354.53477487500004,354.53477487500004,359.71247649999987,354.53477487500004,354.53477487500004,354.53477487500004,354.53477487500004,355.00512937500025,356.03959399999985,354.9748969166669,,356.60656141599975,357.64424345800035,356.5756651246668,,354.53477487500004,359.71247649999987,354.53477487500004,359.71247649999987,359.7548236250004,,354.53477487500004,2,0,1.3053762919998917,reldom2_s012,001,2025-02-03_15h31.53.173,Aud-A-Scan_AC,2022.2.5,None,
30,Second_Order,5.0,audwhere,stimulus/audwhere_stim/left_toward_300h.wav,stimulus/audwhere_stim/left_away_290h.wav,stimulus/audwhere_stim/right_away_290h.wav,stimulus/audwhere_stim/right_toward_280h.wav,stimulus/audwhere_stim/match_blank.png,stimulus/audwhere_stim/match_box.png,stimulus/audwhere_stim/match_yes.png,stimulus/audwhere_stim/match_no.png,1.0,Match,Side,Side,1,5.125,0,5.125,0,5.125,0,5.125,0,0.625,0.625,0,0,0,0,0,0,0,0,1,0.5,1,2.125,1,0.5,1,2.125,0,,,,,0,39,39,39,,,,,,,,,360.537292,365.6503807910003,360.537292,360.537292,360.537292,360.537292,360.9879699160001,361.98648437500015,361.0007899166669,361.9940800000004,362.6212836659997,363.61527837500034,362.6249322076667,363.61527837500034,365.6503807910003,366.3603182910001,368.4241703329999,,366.3603182910001,366.3603182910001,371.52468899999985,366.3603182910001,366.3603182910001,366.3603182910001,366.3603182910001,366.82899783300036,367.859412666,366.79850020766685,,368.4241703329999,369.46034000000054,368.39377470766635,,366.3603182910001,371.52468899999985,366.3603182910001,371.52468899999985,371.56665987500037,372.22871424999994,366.3603182910001,1,1,0.4851630829998612,reldom2_s012,001,2025-02-03_15h31.53.173,Aud-A-Scan_AC,2022.2.5,None,
0,0.0,None,fixation,stimulus/audwhere_stim/blank_white.png,stimulus/audwhere_stim/blank_white.png,stimulus/audwhat_stim/blank_white.png,stimulus/audwhat_stim/blank_white.png,stimulus/audwhere_stim/blank_white.png,stimulus/audwhere_stim/blank_white.png,stimulus/audwhere_stim/blank_white.png,stimulus/audwhere_stim/blank_white.png,0.0,0.0,0.0,0.0,0,0.0,0,0.0,0,0.0,0,0.0,0,0.0,0.0,0,0,0,0,0,0,0,0,0,0.0,0,0.0,0,0.0,0,0.0,9,,,,,0,40,40,40,,,,,,,,,372.46872679100034,372.46872679100034,372.46872679100034,372.46872679100034,372.46872679100034,372.46872679100034,372.46872679100034,372.46872679100034,372.36204758333326,372.46872679100034,372.46872679100034,372.46872679100034,372.36204758333326,372.46872679100034,372.46872679100034,372.46872679100034,372.46872679100034,372.46872679100034,372.46872679100034,372.46872679100034,372.46872679100034,372.46872679100034,372.46872679100034,372.46872679100034,372.46872679100034,372.46872679100034,372.46872679100034,372.4287142499999,372.46872679100034,372.46872679100034,372.46872679100034,372.4287142499999,372.46872679100034,372.46872679100034,372.46872679100034,372.46872679100034,372.46872679100034,377.6649395000004,377.6649395000004,381.702558166,None,0,,reldom2_s012,001,2025-02-03_15h31.53.173,Aud-A-Scan_AC,2022.2.5,None,
31,First_Order,6.0,audwhere,stimulus/audwhere_stim/dummy.wav,stimulus/audwhere_stim/dummy.wav,stimulus/audwhere_stim/left_away_300h.wav,stimulus/audwhere_stim/left_toward_300h.wav,stimulus/audwhere_stim/blank_white.png,stimulus/audwhere_stim/side_box.png,stimulus/audwhere_stim/side_yes.png,stimulus/audwhere_stim/side_no.png,None,Side,None,Side,1,0.0,0,5.125,0,5.125,0,5.125,0,0.0,0.625,0,0,0,0,0,0,0,0,0,0.0,0,0.0,1,0.5,1,2.125,0,,,,,0,41,41,41,,,,,,,,,381.702558166,381.702558166,381.702558166,381.702558166,381.702558166,381.702558166,381.702558166,381.702558166,381.6249141666664,381.702558166,381.702558166,381.702558166,381.6249141666664,381.702558166,381.702558166,381.702558166,383.7736744160002,,381.702558166,381.702558166,386.881324125,381.702558166,381.702558166,381.702558166,381.702558166,382.1724570409997,383.20944299999974,382.14226604166674,,383.7736744160002,384.8143479580003,383.7431380416667,,381.702558166,386.881324125,381.702558166,386.881324125,386.9227173750005,387.5849777909998,381.702558166,1,1,1.0239993750001304,reldom2_s012,001,2025-02-03_15h31.53.173,Aud-A-Scan_AC,2022.2.5,None,
32,First_Order,6.0,audwhere,stimulus/audwhere_stim/dummy.wav,stimulus/audwhere_stim/dummy.wav,stimulus/audwhere_stim/right_away_270h.wav,stimulus/audwhere_stim/left_away_280h.wav,stimulus/audwhere_stim/blank_white.png,stimulus/audwhere_stim/side_box.png,stimulus/audwhere_stim/side_yes.png,stimulus/audwhere_stim/side_no.png,None,Side,None,Direction,2,0.0,0,5.125,0,5.125,0,5.125,0,0.0,0.625,0,0,0,0,0,0,0,0,0,0.0,0,0.0,1,0.5,1,2.125,0,,,,,0,42,42,42,,,,,,,,,387.80148075000034,387.80148075000034,387.80148075000034,387.80148075000034,387.80148075000034,387.80148075000034,387.80148075000034,387.80148075000034,387.7183111243331,387.80148075000034,387.80148075000034,387.80148075000034,387.7183111243331,387.80148075000034,387.80148075000034,387.80148075000034,389.87642254100047,,387.80148075000034,387.80148075000034,392.98415600000044,387.80148075000034,387.80148075000034,387.80148075000034,387.80148075000034,388.2728530410004,389.3109374579999,388.24261720766685,,389.87642254100047,390.91510379100055,389.84569520766695,,387.80148075000034,392.98415600000044,387.80148075000034,392.98415600000044,393.0261426249999,393.68842383300034,387.80148075000034,2,1,1.0037426660001074,reldom2_s012,001,2025-02-03_15h31.53.173,Aud-A-Scan_AC,2022.2.5,None,
33,First_Order,6.0,audwhere,stimulus/audwhere_stim/dummy.wav,stimulus/audwhere_stim/dummy.wav,stimulus/audwhere_stim/left_toward_270h.wav,stimulus/audwhere_stim/left_away_270h.wav,stimulus/audwhere_stim/blank_white.png,stimulus/audwhere_stim/direction_box.png,stimulus/audwhere_stim/direction_yes.png,stimulus/audwhere_stim/direction_no.png,None,Direction,None,Side,2,0.0,0,5.125,0,5.125,0,5.125,0,0.0,0.625,0,0,0,0,0,0,0,0,0,0.0,0,0.0,1,0.5,1,2.125,0,,,,,0,43,43,43,,,,,,,,,393.9062322910004,393.9062322910004,393.9062322910004,393.9062322910004,393.9062322910004,393.9062322910004,393.9062322910004,393.9062322910004,393.82175716633367,393.9062322910004,393.9062322910004,393.9062322910004,393.82175716633367,393.9062322910004,393.9062322910004,393.9062322910004,395.99288295800034,,393.9062322910004,393.9062322910004,399.07927491600003,393.9062322910004,393.9062322910004,393.9062322910004,393.9062322910004,394.38356729099996,395.4251142080002,394.35222295766675,,395.99288295800034,397.0443131250004,395.9618158746664,396.9969424159999,393.9062322910004,399.07927491600003,393.9062322910004,399.07927491600003,399.12103987499995,399.78642245799983,393.9062322910004,2,1,1.6139382500005013,reldom2_s012,001,2025-02-03_15h31.53.173,Aud-A-Scan_AC,2022.2.5,None,
34,First_Order,6.0,audwhere,stimulus/audwhere_stim/dummy.wav,stimulus/audwhere_stim/dummy.wav,stimulus/audwhere_stim/left_toward_300h.wav,stimulus/audwhere_stim/left_away_300h.wav,stimulus/audwhere_stim/blank_white.png,stimulus/audwhere_stim/side_box.png,stimulus/audwhere_stim/side_yes.png,stimulus/audwhere_stim/side_no.png,None,Side,None,Side,1,0.0,0,5.125,0,5.125,0,5.125,0,0.0,0.625,0,0,0,0,0,0,0,0,0,0.0,0,0.0,1,0.5,1,2.125,0,,,,,0,44,44,44,,,,,,,,,400.0071777080002,400.0071777080002,400.0071777080002,400.0071777080002,400.0071777080002,400.0071777080002,400.0071777080002,400.0071777080002,399.91975579133316,400.0071777080002,400.0071777080002,400.0071777080002,399.91975579133316,400.0071777080002,400.0071777080002,400.0071777080002,402.08011975000045,,400.0071777080002,400.0071777080002,405.1937982500003,400.0071777080002,400.0071777080002,400.0071777080002,400.0071777080002,400.47944412500055,401.51532599999973,400.4495029576667,,402.08011975000045,403.1213052080002,402.04958616666704,,400.0071777080002,405.1937982500003,400.0071777080002,405.1937982500003,405.23520333299984,405.89873208300014,400.0071777080002,1,1,0.6394120830000247,reldom2_s012,001,2025-02-03_15h31.53.173,Aud-A-Scan_AC,2022.2.5,None,
0,0.0,None,fixation,stimulus/audwhere_stim/blank_white.png,stimulus/audwhere_stim/blank_white.png,stimulus/audwhat_stim/blank_white.png,stimulus/audwhat_stim/blank_white.png,stimulus/audwhere_stim/blank_white.png,stimulus/audwhere_stim/blank_white.png,stimulus/audwhere_stim/blank_white.png,stimulus/audwhere_stim/blank_white.png,0.0,0.0,0.0,0.0,0,0.0,0,0.0,0,0.0,0,0.0,0,0.0,0.0,0,0,0,0,0,0,0,0,0,0.0,0,0.0,0,0.0,0,0.0,10,,,,,0,45,45,45,,,,,,,,,406.1373480000002,406.1373480000002,406.1373480000002,406.1373480000002,406.1373480000002,406.1373480000002,406.1373480000002,406.1373480000002,406.03206541633347,406.1373480000002,406.1373480000002,406.1373480000002,406.03206541633347,406.1373480000002,406.1373480000002,406.1373480000002,406.1373480000002,406.1373480000002,406.1373480000002,406.1373480000002,406.1373480000002,406.1373480000002,406.1373480000002,406.1373480000002,406.1373480000002,406.1373480000002,406.1373480000002,406.0820654163335,406.1373480000002,406.1373480000002,406.1373480000002,406.0820654163335,406.1373480000002,406.1373480000002,406.1373480000002,406.1373480000002,406.1373480000002,411.3458634159997,411.3458634159997,416.2761437910003,None,0,,reldom2_s012,001,2025-02-03_15h31.53.173,Aud-A-Scan_AC,2022.2.5,None,
35,Second_Order,6.0,audwhere,stimulus/audwhere_stim/left_away_280h.wav,stimulus/audwhere_stim/left_toward_300h.wav,stimulus/audwhere_stim/right_away_280h.wav,stimulus/audwhere_stim/right_toward_300h.wav,stimulus/audwhere_stim/match_blank.png,stimulus/audwhere_stim/match_box.png,stimulus/audwhere_stim/match_yes.png,stimulus/audwhere_stim/match_no.png,1.0,Match,Side,Side,1,5.125,0,5.125,0,5.125,0,5.125,0,0.75,0.75,0,0,0,0,0,0,0,0,1,0.5,1,2.125,1,0.5,1,2.125,0,,,,,0,46,46,46,,,,,,,,,416.2761437910003,421.3961340830001,416.2761437910003,416.2761437910003,416.2761437910003,416.2761437910003,416.7334340409998,417.7317914160003,416.74585004166715,417.7398939579998,418.3558795830004,419.3521724580005,418.36670291666655,419.3603102500001,421.3961340830001,422.22807250000005,424.3029407080003,428.2404460409998,422.22807250000005,422.22807250000005,427.4148498750001,422.22807250000005,422.22807250000005,422.22807250000005,422.22807250000005,422.70074904100056,423.7388036250004,422.6705234166668,,424.3029407080003,425.3419282499999,424.27241962466655,,422.22807250000005,427.4148498750001,422.22807250000005,427.4148498750001,427.4148498750001,,422.22807250000005,2,0,1.753545167000084,reldom2_s012,001,2025-02-03_15h31.53.173,Aud-A-Scan_AC,2022.2.5,None,
36,Second_Order,6.0,audwhere,stimulus/audwhere_stim/left_away_290h.wav,stimulus/audwhere_stim/left_toward_270h.wav,stimulus/audwhere_stim/left_toward_290h.wav,stimulus/audwhere_stim/right_toward_270h.wav,stimulus/audwhere_stim/match_blank.png,stimulus/audwhere_stim/match_box.png,stimulus/audwhere_stim/match_yes.png,stimulus/audwhere_stim/match_no.png,2.0,Match,Side,Direction,2,5.125,0,5.125,0,5.125,0,5.125,0,0.625,0.625,0,0,0,0,0,0,0,0,1,0.5,1,2.125,1,0.5,1,2.125,0,,,,,0,47,47,47,,,,,,,,,428.2404460409998,433.3561169579998,428.2404460409998,428.2404460409998,428.2404460409998,428.2404460409998,428.694616625,429.6925191250002,428.70714474966667,429.7003249999998,430.3163226249999,431.31279591600014,430.3277990826666,431.3209560410005,433.3561169579998,434.06707862500025,436.1331246660002,,434.06707862500025,434.06707862500025,439.2431037080005,434.06707862500025,434.06707862500025,434.06707862500025,434.06707862500025,434.53622566600006,435.57008912499987,434.505926791667,,436.1331246660002,437.17535212500024,436.1023569996671,,434.06707862500025,439.2431037080005,434.06707862500025,439.2431037080005,439.2845653330005,439.94619024999974,434.06707862500025,2,1,0.8474875419997261,reldom2_s012,001,2025-02-03_15h31.53.173,Aud-A-Scan_AC,2022.2.5,None,
0,0.0,None,fixation,stimulus/audwhere_stim/blank_white.png,stimulus/audwhere_stim/blank_white.png,stimulus/audwhat_stim/blank_white.png,stimulus/audwhat_stim/blank_white.png,stimulus/audwhere_stim/blank_white.png,stimulus/audwhere_stim/blank_white.png,stimulus/audwhere_stim/blank_white.png,stimulus/audwhere_stim/blank_white.png,0.0,0.0,0.0,0.0,0,0.0,0,0.0,0,0.0,0,0.0,0,0.0,0.0,0,0,0,0,0,0,0,0,0,0.0,0,0.0,0,0.0,0,0.0,9,,,,,0,48,48,48,,,,,,,,,440.1854569160005,440.1854569160005,440.1854569160005,440.1854569160005,440.1854569160005,440.1854569160005,440.1854569160005,440.1854569160005,440.07952358333307,440.1854569160005,440.1854569160005,440.1854569160005,440.07952358333307,440.1854569160005,440.1854569160005,440.1854569160005,440.1854569160005,440.1854569160005,440.1854569160005,440.1854569160005,440.1854569160005,440.1854569160005,440.1854569160005,440.1854569160005,440.1854569160005,440.1854569160005,440.1854569160005,440.14619024999973,440.1854569160005,440.1854569160005,440.1854569160005,440.14619024999973,440.1854569160005,440.1854569160005,440.1854569160005,440.1854569160005,440.1854569160005,445.3816380830003,445.3816380830003,449.4276730829997,None,0,,reldom2_s012,001,2025-02-03_15h31.53.173,Aud-A-Scan_AC,2022.2.5,None,
37,First_Order,7.0,audwhat,stimulus/audwhat_stim/dummy.wav,stimulus/audwhat_stim/dummy.wav,stimulus/audwhat_stim/string cello_low-pitch_Ftri_loud.wav,stimulus/audwhat_stim/string cello_high-pitch_D_loud.wav,stimulus/audwhat_stim/blank_white.png,stimulus/audwhat_stim/pitch_box.png,stimulus/audwhat_stim/pitch_yes.png,stimulus/audwhat_stim/pitch_no.png,None,Pitch,None,Category,2,0.0,0,5.125,0,5.125,0,5.125,0,0.0,0.625,0,0,0,0,0,0,0,0,0,0.0,0,0.0,1,0.5,1,2.125,0,,,,,0,49,49,49,,,,,,,,,449.4276730829997,449.4276730829997,449.4276730829997,449.4276730829997,449.4276730829997,449.4276730829997,449.4276730829997,449.4276730829997,449.347584374667,449.4276730829997,449.4276730829997,449.4276730829997,449.347584374667,449.4276730829997,449.4276730829997,449.4276730829997,451.4983286659999,,449.4276730829997,449.4276730829997,454.61153225,449.4276730829997,449.4276730829997,449.4276730829997,449.4276730829997,449.89885975000016,450.9351241249997,449.86847545766636,,451.4983286659999,452.5383577909997,451.4674888326665,,449.4276730829997,454.61153225,449.4276730829997,454.61153225,454.652932166,455.31892966600026,449.4276730829997,2,1,1.488559541999166,reldom2_s012,001,2025-02-03_15h31.53.173,Aud-A-Scan_AC,2022.2.5,None,
38,First_Order,7.0,audwhat,stimulus/audwhat_stim/dummy.wav,stimulus/audwhat_stim/dummy.wav,stimulus/audwhat_stim/string cello_low-pitch_D_loud.wav,stimulus/audwhat_stim/string cello_high-pitch_Ftri_loud.wav,stimulus/audwhat_stim/blank_white.png,stimulus/audwhat_stim/pitch_box.png,stimulus/audwhat_stim/pitch_yes.png,stimulus/audwhat_stim/pitch_no.png,None,Pitch,None,Category,2,0.0,0,5.125,0,5.125,0,5.125,0,0.0,0.625,0,0,0,0,0,0,0,0,0,0.0,0,0.0,1,0.5,1,2.125,0,,,,,0,50,50,50,,,,,,,,,455.5364119579999,455.5364119579999,455.5364119579999,455.5364119579999,455.5364119579999,455.5364119579999,455.5364119579999,455.5364119579999,455.4522629993336,455.5364119579999,455.5364119579999,455.5364119579999,455.4522629993336,455.5364119579999,455.5364119579999,455.5364119579999,457.6115225000003,461.653829416,455.5364119579999,455.5364119579999,460.7282115830003,455.5364119579999,455.5364119579999,455.5364119579999,455.5364119579999,456.00766841600034,457.04580616600015,455.97716674966637,,457.6115225000003,458.6540659580005,457.5809545826671,,455.5364119579999,460.7282115830003,455.5364119579999,460.7282115830003,460.7282115830003,461.392811916,455.5364119579999,2,1,1.2520916670000588,reldom2_s012,001,2025-02-03_15h31.53.173,Aud-A-Scan_AC,2022.2.5,None,
39,First_Order,7.0,audwhat,stimulus/audwhat_stim/dummy.wav,stimulus/audwhat_stim/dummy.wav,stimulus/audwhat_stim/percussion xylophone_high-pitch_Dtri_loud.wav,stimulus/audwhat_stim/string cello_high-pitch_Dtri_loud.wav,stimulus/audwhat_stim/blank_white.png,stimulus/audwhat_stim/pitch_box.png,stimulus/audwhat_stim/pitch_yes.png,stimulus/audwhat_stim/pitch_no.png,None,Pitch,None,Pitch,1,0.0,0,5.125,0,5.125,0,5.125,0,0.0,0.625,0,0,0,0,0,0,0,0,0,0.0,0,0.0,1,0.5,1,2.125,0,,,,,0,51,51,51,,,,,,,,,461.653829416,461.653829416,461.653829416,461.653829416,461.653829416,461.653829416,461.653829416,461.653829416,461.5842747500004,461.653829416,461.653829416,461.653829416,461.5842747500004,461.653829416,461.653829416,461.653829416,463.7351442910003,467.77121016599995,461.653829416,461.653829416,466.8039833749999,461.653829416,461.653829416,461.653829416,461.653829416,462.12547266599995,463.1706549999999,462.0947266666665,463.1706549999999,463.7351442910003,464.77973516600014,463.70388104166636,,461.653829416,466.8039833749999,461.653829416,466.8039833749999,466.84569037500023,467.510572958,461.653829416,1,1,0.37402820800070913,reldom2_s012,001,2025-02-03_15h31.53.173,Aud-A-Scan_AC,2022.2.5,None,
40,First_Order,7.0,audwhat,stimulus/audwhat_stim/dummy.wav,stimulus/audwhat_stim/dummy.wav,stimulus/audwhat_stim/string cello_low-pitch_D_loud.wav,stimulus/audwhat_stim/percussion mallet_low-pitch_D_loud.wav,stimulus/audwhat_stim/blank_white.png,stimulus/audwhat_stim/pitch_box.png,stimulus/audwhat_stim/pitch_yes.png,stimulus/audwhat_stim/pitch_no.png,None,Pitch,None,Pitch,1,0.0,0,5.125,0,5.125,0,5.125,0,0.0,0.625,0,0,0,0,0,0,0,0,0,0.0,0,0.0,1,0.5,1,2.125,0,,,,,0,52,52,52,,,,,,,,,467.77121016599995,467.77121016599995,467.77121016599995,467.77121016599995,467.77121016599995,467.77121016599995,467.77121016599995,467.77121016599995,467.6855368743337,467.77121016599995,467.77121016599995,467.77121016599995,467.6855368743337,467.77121016599995,467.77121016599995,467.77121016599995,469.8477165000004,,467.77121016599995,467.77121016599995,472.96232716600025,467.77121016599995,467.77121016599995,467.77121016599995,467.77121016599995,468.2433415410005,469.28177320800023,468.21298145766673,,469.8477165000004,470.8877709159997,469.81721233266694,,467.77121016599995,472.96232716600025,467.77121016599995,472.96232716600025,472.96232716600025,473.6260878330004,467.77121016599995,1,1,0.8282119999994393,reldom2_s012,001,2025-02-03_15h31.53.173,Aud-A-Scan_AC,2022.2.5,None,
0,0.0,None,fixation,stimulus/audwhere_stim/blank_white.png,stimulus/audwhere_stim/blank_white.png,stimulus/audwhat_stim/blank_white.png,stimulus/audwhat_stim/blank_white.png,stimulus/audwhere_stim/blank_white.png,stimulus/audwhere_stim/blank_white.png,stimulus/audwhere_stim/blank_white.png,stimulus/audwhere_stim/blank_white.png,0.0,0.0,0.0,0.0,0,0.0,0,0.0,0,0.0,0,0.0,0,0.0,0.0,0,0,0,0,0,0,0,0,0,0.0,0,0.0,0,0.0,0,0.0,10,,,,,0,53,53,53,,,,,,,,,473.90940025000054,473.90940025000054,473.90940025000054,473.90940025000054,473.90940025000054,473.90940025000054,473.90940025000054,473.90940025000054,473.8006892083332,473.90940025000054,473.90940025000054,473.90940025000054,473.8006892083332,473.90940025000054,473.90940025000054,473.90940025000054,473.90940025000054,473.90940025000054,473.90940025000054,473.90940025000054,473.90940025000054,473.90940025000054,473.90940025000054,473.90940025000054,473.90940025000054,473.90940025000054,473.90940025000054,473.8673558749999,473.90940025000054,473.90940025000054,473.90940025000054,473.8673558749999,473.90940025000054,473.90940025000054,473.90940025000054,473.90940025000054,473.90940025000054,479.1313522500004,479.1313522500004,484.0695614160004,None,0,,reldom2_s012,001,2025-02-03_15h31.53.173,Aud-A-Scan_AC,2022.2.5,None,
41,Second_Order,7.0,audwhat,stimulus/audwhat_stim/percussion xylophone_high-pitch_Ftri_loud.wav,stimulus/audwhat_stim/percussion mallet_low-pitch_Dtri_loud.wav,stimulus/audwhat_stim/string viola_low-pitch_Ftri_loud.wav,stimulus/audwhat_stim/percussion mallet_low-pitch_Ftri_loud.wav,stimulus/audwhere_stim/match_blank.png,stimulus/audwhat_stim/match_box.png,stimulus/audwhere_stim/match_yes.png,stimulus/audwhere_stim/match_no.png,2.0,Match,Category,Pitch,2,5.125,0,5.125,0,5.125,0,5.125,0,0.75,0.75,0,0,0,0,0,0,0,0,1,0.5,1,2.125,1,0.5,1,2.125,0,,,,,0,54,54,54,,,,,,,,,484.0695614160004,489.1848123330001,484.0695614160004,484.0695614160004,484.0695614160004,484.0695614160004,484.52408883299995,485.5214500410002,484.5360782496666,485.5292347499999,486.14444345799984,487.14159375000054,486.15629554166685,487.1494819999998,489.1848123330001,490.01289870799974,492.08580774999973,496.025314083,490.01289870799974,490.01289870799974,495.19907862499986,490.01289870799974,490.01289870799974,490.01289870799974,490.01289870799974,490.484689291,491.52080795799975,490.45386570766664,,492.08580774999973,493.12840854099977,492.05510141666696,,490.01289870799974,495.19907862499986,490.01289870799974,495.19907862499986,495.19907862499986,,490.01289870799974,2,1,0.7613237089999529,reldom2_s012,001,2025-02-03_15h31.53.173,Aud-A-Scan_AC,2022.2.5,None,
42,Second_Order,7.0,audwhat,stimulus/audwhat_stim/string cello_high-pitch_Dtri_loud.wav,stimulus/audwhat_stim/percussion mallet_high-pitch_Dtri_loud.wav,stimulus/audwhat_stim/percussion mallet_low-pitch_D_loud.wav,stimulus/audwhat_stim/string cello_low-pitch_D_loud.wav,stimulus/audwhere_stim/match_blank.png,stimulus/audwhat_stim/match_box.png,stimulus/audwhere_stim/match_yes.png,stimulus/audwhere_stim/match_no.png,1.0,Match,Pitch,Pitch,1,5.125,0,5.125,0,5.125,0,5.125,0,0.625,0.625,0,0,0,0,0,0,0,0,1,0.5,1,2.125,1,0.5,1,2.125,0,,,,,0,55,55,55,,,,,,,,,496.025314083,501.14550925000003,496.025314083,496.025314083,496.025314083,496.025314083,496.48371987500013,497.4821510410002,496.4966794576669,,498.1052890410001,499.1027357080002,498.1169816246668,499.11078879100023,501.14550925000003,501.85607920799976,503.92325841599995,,501.85607920799976,501.85607920799976,507.02826566600015,501.85607920799976,501.85607920799976,501.85607920799976,501.85607920799976,502.32784212499973,503.35962229100005,502.29574170766705,,503.92325841599995,504.96269295799993,503.89250941666637,,501.85607920799976,507.02826566600015,501.85607920799976,507.02826566600015,507.06941820800057,507.7320249579998,501.85607920799976,1,1,0.4194587499996487,reldom2_s012,001,2025-02-03_15h31.53.173,Aud-A-Scan_AC,2022.2.5,None,
0,0.0,None,fixation,stimulus/audwhere_stim/blank_white.png,stimulus/audwhere_stim/blank_white.png,stimulus/audwhat_stim/blank_white.png,stimulus/audwhat_stim/blank_white.png,stimulus/audwhere_stim/blank_white.png,stimulus/audwhere_stim/blank_white.png,stimulus/audwhere_stim/blank_white.png,stimulus/audwhere_stim/blank_white.png,0.0,0.0,0.0,0.0,0,0.0,0,0.0,0,0.0,0,0.0,0,0.0,0.0,0,0,0,0,0,0,0,0,0,0.0,0,0.0,0,0.0,0,0.0,9,,,,,0,56,56,56,,,,,,,,,507.9708354160002,507.9708354160002,507.9708354160002,507.9708354160002,507.9708354160002,507.9708354160002,507.9708354160002,507.9708354160002,507.8653582913331,507.9708354160002,507.9708354160002,507.9708354160002,507.8653582913331,507.9708354160002,507.9708354160002,507.9708354160002,507.9708354160002,507.9708354160002,507.9708354160002,507.9708354160002,507.9708354160002,507.9708354160002,507.9708354160002,507.9708354160002,507.9708354160002,507.9708354160002,507.9708354160002,507.9320249579998,507.9708354160002,507.9708354160002,507.9708354160002,507.9320249579998,507.9708354160002,507.9708354160002,507.9708354160002,507.9708354160002,507.9708354160002,513.1709486660002,513.1709486660002,517.2168340830003,None,0,,reldom2_s012,001,2025-02-03_15h31.53.173,Aud-A-Scan_AC,2022.2.5,None,
43,First_Order,8.0,audwhat,stimulus/audwhat_stim/dummy.wav,stimulus/audwhat_stim/dummy.wav,stimulus/audwhat_stim/string viola_low-pitch_F_loud.wav,stimulus/audwhat_stim/percussion mallet_low-pitch_F_loud.wav,stimulus/audwhat_stim/blank_white.png,stimulus/audwhat_stim/category_box.png,stimulus/audwhat_stim/category_yes.png,stimulus/audwhat_stim/category_no.png,None,Category,None,Pitch,2,0.0,0,5.125,0,5.125,0,5.125,0,0.0,0.625,0,0,0,0,0,0,0,0,0,0.0,0,0.0,1,0.5,1,2.125,0,,,,,0,57,57,57,,,,,,,,,517.2168340830003,517.2168340830003,517.2168340830003,517.2168340830003,517.2168340830003,517.2168340830003,517.2168340830003,517.2168340830003,517.1383292916668,517.2168340830003,517.2168340830003,517.2168340830003,517.1383292916668,517.2168340830003,517.2168340830003,517.2168340830003,519.3010157500003,523.3463915000002,517.2168340830003,517.2168340830003,522.3782634999998,517.2168340830003,517.2168340830003,517.2168340830003,517.2168340830003,517.6902765000004,518.7345303330003,517.6595322916667,,519.3010157500003,520.345748916,519.2703108746666,,517.2168340830003,522.3782634999998,517.2168340830003,522.3782634999998,522.4198887080001,523.0861972909997,517.2168340830003,2,1,1.6991065000001981,reldom2_s012,001,2025-02-03_15h31.53.173,Aud-A-Scan_AC,2022.2.5,None,
44,First_Order,8.0,audwhat,stimulus/audwhat_stim/dummy.wav,stimulus/audwhat_stim/dummy.wav,stimulus/audwhat_stim/percussion mallet_low-pitch_Dtri_loud.wav,stimulus/audwhat_stim/percussion xylophone_high-pitch_F_loud.wav,stimulus/audwhat_stim/blank_white.png,stimulus/audwhat_stim/category_box.png,stimulus/audwhat_stim/category_yes.png,stimulus/audwhat_stim/category_no.png,None,Category,None,Category,1,0.0,0,5.125,0,5.125,0,5.125,0,0.0,0.625,0,0,0,0,0,0,0,0,0,0.0,0,0.0,1,0.5,1,2.125,0,,,,,0,58,58,58,,,,,,,,,523.3463915000002,523.3463915000002,523.3463915000002,523.3463915000002,523.3463915000002,523.3463915000002,523.3463915000002,523.3463915000002,523.2606810413337,523.3463915000002,523.3463915000002,523.3463915000002,523.2606810413337,523.3463915000002,523.3463915000002,523.3463915000002,525.429277833,,523.3463915000002,523.3463915000002,528.5117122080001,523.3463915000002,523.3463915000002,523.3463915000002,523.3463915000002,523.8193202499997,524.8621186250002,523.7883775416669,,525.429277833,526.4805992500005,525.3985009576666,526.4334143329997,523.3463915000002,528.5117122080001,523.3463915000002,528.5117122080001,528.5536172080001,529.2197550000001,523.3463915000002,1,1,0.6570524169992495,reldom2_s012,001,2025-02-03_15h31.53.173,Aud-A-Scan_AC,2022.2.5,None,
45,First_Order,8.0,audwhat,stimulus/audwhat_stim/dummy.wav,stimulus/audwhat_stim/dummy.wav,stimulus/audwhat_stim/string cello_high-pitch_Dtri_loud.wav,stimulus/audwhat_stim/percussion xylophone_high-pitch_Dtri_loud.wav,stimulus/audwhat_stim/blank_white.png,stimulus/audwhat_stim/category_box.png,stimulus/audwhat_stim/category_yes.png,stimulus/audwhat_stim/category_no.png,None,Category,None,Pitch,2,0.0,0,5.125,0,5.125,0,5.125,0,0.0,0.625,0,0,0,0,0,0,0,0,0,0.0,0,0.0,1,0.5,1,2.125,0,,,,,0,59,59,59,,,,,,,,,529.4377575409999,529.4377575409999,529.4377575409999,529.4377575409999,529.4377575409999,529.4377575409999,529.4377575409999,529.4377575409999,529.3530883333334,529.4377575409999,529.4377575409999,529.4377575409999,529.3530883333334,529.4377575409999,529.4377575409999,529.4377575409999,531.5234251660004,,529.4377575409999,529.4377575409999,534.6078189999998,529.4377575409999,529.4377575409999,529.4377575409999,529.4377575409999,529.9111767909999,530.9548771660002,529.8805497916667,,531.5234251660004,532.5742639159998,531.4927637496669,532.5742639159998,529.4377575409999,534.6078189999998,529.4377575409999,534.6078189999998,534.6496062080005,535.3147904580001,529.4377575409999,2,1,0.7531579169999532,reldom2_s012,001,2025-02-03_15h31.53.173,Aud-A-Scan_AC,2022.2.5,None,
46,First_Order,8.0,audwhat,stimulus/audwhat_stim/dummy.wav,stimulus/audwhat_stim/dummy.wav,stimulus/audwhat_stim/percussion mallet_low-pitch_Ftri_loud.wav,stimulus/audwhat_stim/percussion mallet_high-pitch_F_loud.wav,stimulus/audwhat_stim/blank_white.png,stimulus/audwhat_stim/category_box.png,stimulus/audwhat_stim/category_yes.png,stimulus/audwhat_stim/category_no.png,None,Category,None,Category,1,0.0,0,5.125,0,5.125,0,5.125,0,0.0,0.625,0,0,0,0,0,0,0,0,0,0.0,0,0.0,1,0.5,1,2.125,0,,,,,0,60,60,60,,,,,,,,,535.538952291,535.538952291,535.538952291,535.538952291,535.538952291,535.538952291,535.538952291,535.538952291,535.4481237913334,535.538952291,535.538952291,535.538952291,535.4481237913334,535.538952291,535.538952291,535.538952291,537.6258119160002,,535.538952291,535.538952291,540.7125745000003,535.538952291,535.538952291,535.538952291,535.538952291,536.011611125,537.0569967910005,535.9809179576671,,537.6258119160002,538.6783500829997,537.5950884996666,538.6309999579998,535.538952291,540.7125745000003,535.538952291,540.7125745000003,540.7546633749998,541.4246515000004,535.538952291,1,1,0.45570970900007524,reldom2_s012,001,2025-02-03_15h31.53.173,Aud-A-Scan_AC,2022.2.5,None,
0,0.0,None,fixation,stimulus/audwhere_stim/blank_white.png,stimulus/audwhere_stim/blank_white.png,stimulus/audwhat_stim/blank_white.png,stimulus/audwhat_stim/blank_white.png,stimulus/audwhere_stim/blank_white.png,stimulus/audwhere_stim/blank_white.png,stimulus/audwhere_stim/blank_white.png,stimulus/audwhere_stim/blank_white.png,0.0,0.0,0.0,0.0,0,0.0,0,0.0,0,0.0,0,0.0,0,0.0,0.0,0,0,0,0,0,0,0,0,0,0.0,0,0.0,0,0.0,0,0.0,8,,,,,0,61,61,61,,,,,,,,,541.6631967909998,541.6631967909998,541.6631967909998,541.6631967909998,541.6631967909998,541.6631967909998,541.6631967909998,541.6631967909998,541.5579848333338,541.6631967909998,541.6631967909998,541.6631967909998,541.5579848333338,541.6631967909998,541.6631967909998,541.6631967909998,541.6631967909998,541.6631967909998,541.6631967909998,541.6631967909998,541.6631967909998,541.6631967909998,541.6631967909998,541.6631967909998,541.6631967909998,541.6631967909998,541.6631967909998,541.6079848333337,541.6631967909998,541.6631967909998,541.6631967909998,541.6079848333337,541.6631967909998,541.6631967909998,541.6631967909998,541.6631967909998,541.6631967909998,546.8922064999997,546.8922064999997,549.816873541,None,0,,reldom2_s012,001,2025-02-03_15h31.53.173,Aud-A-Scan_AC,2022.2.5,None,
47,Second_Order,8.0,audwhat,stimulus/audwhat_stim/string cello_high-pitch_F_loud.wav,stimulus/audwhat_stim/string viola_low-pitch_D_loud.wav,stimulus/audwhat_stim/percussion mallet_low-pitch_Ftri_loud.wav,stimulus/audwhat_stim/percussion xylophone_high-pitch_F_loud.wav,stimulus/audwhere_stim/match_blank.png,stimulus/audwhat_stim/match_box.png,stimulus/audwhere_stim/match_yes.png,stimulus/audwhere_stim/match_no.png,1.0,Match,Category,Category,1,5.125,0,5.125,0,5.125,0,5.125,0,0.75,0.75,0,0,0,0,0,0,0,0,1,0.5,1,2.125,1,0.5,1,2.125,0,,,,,0,62,62,62,,,,,,,,,549.816873541,554.9368638329997,549.816873541,549.816873541,549.816873541,549.816873541,550.275240041,551.2731599159997,550.2870780826672,,551.8957705829998,552.8938148750003,551.9077347076666,,554.9368638329997,555.7665408330004,557.8394686660004,561.7842248750003,555.7665408330004,555.7665408330004,560.959273333,555.7665408330004,555.7665408330004,555.7665408330004,555.7665408330004,556.2373966249997,557.2758005000005,556.2066798326671,,557.8394686660004,558.8848880000005,557.8093725826668,558.8848880000005,555.7665408330004,560.959273333,555.7665408330004,560.959273333,560.959273333,,555.7665408330004,1,1,0.506482832999609,reldom2_s012,001,2025-02-03_15h31.53.173,Aud-A-Scan_AC,2022.2.5,None,
48,Second_Order,8.0,audwhat,stimulus/audwhat_stim/percussion mallet_high-pitch_Ftri_loud.wav,stimulus/audwhat_stim/percussion mallet_low-pitch_D_loud.wav,stimulus/audwhat_stim/string cello_high-pitch_Ftri_loud.wav,stimulus/audwhat_stim/percussion xylophone_high-pitch_Ftri_loud.wav,stimulus/audwhere_stim/match_blank.png,stimulus/audwhat_stim/match_box.png,stimulus/audwhere_stim/match_yes.png,stimulus/audwhere_stim/match_no.png,2.0,Match,Category,Pitch,2,5.125,0,5.125,0,5.125,0,5.125,0,0.625,0.625,0,0,0,0,0,0,0,0,1,0.5,1,2.125,1,0.5,1,2.125,0,,,,,0,63,63,63,,,,,,,,,561.7842248750003,566.8978375409997,561.7842248750003,561.7842248750003,561.7842248750003,561.7842248750003,562.2365420409997,563.2338292499999,562.2487358746669,563.2419532499998,563.857667708,564.8542473329999,563.8690425826665,564.862629708,566.8978375409997,567.6104059999998,569.6800660830004,573.7359824160003,567.6104059999998,567.6104059999998,572.7929307499999,567.6104059999998,567.6104059999998,567.6104059999998,567.6104059999998,568.0807988329998,569.1163187080001,568.0501854996667,,569.6800660830004,570.7237785830002,569.6492538746663,570.7237785830002,567.6104059999998,572.7929307499999,567.6104059999998,572.7929307499999,572.7929307499999,573.4553740410001,567.6104059999998,2,1,0.6986930830007623,reldom2_s012,001,2025-02-03_15h31.53.173,Aud-A-Scan_AC,2022.2.5,None,
0,0.0,None,fixation,stimulus/audwhere_stim/blank_white.png,stimulus/audwhere_stim/blank_white.png,stimulus/audwhat_stim/blank_white.png,stimulus/audwhat_stim/blank_white.png,stimulus/audwhere_stim/blank_white.png,stimulus/audwhere_stim/blank_white.png,stimulus/audwhere_stim/blank_white.png,stimulus/audwhere_stim/blank_white.png,0.0,0.0,0.0,0.0,0,0.0,0,0.0,0,0.0,0,0.0,0,0.0,0.0,0,0,0,0,0,0,0,0,0,0.0,0,0.0,0,0.0,0,0.0,16,,,,,0,64,64,64,,,,,,,,,573.7359824160003,573.7359824160003,573.7359824160003,573.7359824160003,573.7359824160003,573.7359824160003,573.7359824160003,573.7359824160003,573.6303311663333,573.7359824160003,573.7359824160003,573.7359824160003,573.6303311663333,573.7359824160003,573.7359824160003,573.7359824160003,573.7359824160003,573.7359824160003,573.7359824160003,573.7359824160003,573.7359824160003,573.7359824160003,573.7359824160003,573.7359824160003,573.7359824160003,573.7359824160003,573.7359824160003,573.696997833,573.7359824160003,573.7359824160003,573.7359824160003,573.696997833,573.7359824160003,573.7359824160003,573.7359824160003,573.7359824160003,573.7359824160003,578.9413797910001,578.9413797910001,589.8809433329998,None,0,,reldom2_s012,001,2025-02-03_15h31.53.173,Aud-A-Scan_AC,2022.2.5,None,
