Trial,Order,Block,Type,Stimuli_File1,Stimuli_File2,Stimuli_File3,Stimuli_File4,Cue_File1,Cue_File2,Response_File_Yes,Response_File_No,Match,Cue_Dimension,Pair1_Dimension,Pair2_Dimension,Key,Cue1_Duration,Cue1_Onset,Cue2_Duration,Cue2_Onset,ResponseYes_Duration,ResponseYes_Onset,ResponseNo_Duration,ResponseNo_Onset,ITI_Within,ITI_Between,Image1_Duration,Image1_Onset,Image2_Duration,Image2_Onset,Image3_Duration,Image3_Onset,Image4_Duration,Image4_Onset,Sound1_Duration,Sound1_Onset,Sound2_Duration,Sound2_Onset,Sound3_Duration,Sound3_Onset,Sound4_Duration,Sound4_Onset,Fixation_Duration,trials_2.thisRepN,trials_2.thisTrialN,trials_2.thisN,trials_2.thisIndex,trials.thisRepN,trials.thisTrialN,trials.thisN,trials.thisIndex,text_start.started,key_resp_start.started,key_resp_start.keys,key_resp_start.rt,text2.started,key_resp_2.started,key_resp_2.keys,key_resp_2.rt,cue_file1.started,cue_file1.stopped,image_1.started,image_1.stopped,image_2.started,image_2.stopped,sound_icon1.started,sound_icon1.stopped,sound_1.started,sound_1.stopped,sound_icon2.started,sound_icon2.stopped,sound_2.started,sound_2.stopped,image_blank_1.started,image_blank_1.stopped,key_press.started,key_press.stopped,fixation_text.started,cue_file2.started,cue_file2.stopped,image_3.started,image_3.stopped,image_4.started,image_4.stopped,sound_icon3.started,sound_icon3.stopped,sound_3.started,sound_3.stopped,sound_icon4.started,sound_icon4.stopped,sound_4.started,sound_4.stopped,response_yes.started,response_yes.stopped,response_no.started,response_no.stopped,iti_blank.started,iti_blank.stopped,fixation_text.stopped,key_press.keys,key_press.corr,key_press.rt,participant,session,date,expName,psychopyVersion,frameRate,
,,,,,,,,,,,,,,,,,,,,,,,,,,,,,,,,,,,,,,,,,,,,,,,,,,,,7.712815457999568,7.712815457999568,2,0.676921041001151,,,,,,,,,,,,,,,,,,,,,,,,,,,,,,,,,,,,,,,,,,,,,,,,reldom2_s012,001,2025-02-03_15h43.01.774,Vis-A-Scan_AC,2022.2.5,None,
,,,,,,,,,,,,,,,,,,,,,,,,,,,,,,,,,,,,,,,,,,,,0,0,0,0,,,,,,,,,8.412922333000097,8.412922333000097,5,17.29130799900031,,,,,,,,,,,,,,,,,,,,,,,,,,,,,,,,,,,,,,,,,,,,reldom2_s012,001,2025-02-03_15h43.01.774,Vis-A-Scan_AC,2022.2.5,None,
,,,,,,,,,,,,,,,,,,,,,,,,,,,,,,,,,,,,,,,,,,,,1,0,1,0,,,,,,,,,25.71833429199978,25.71833429199978,5,1.985444333000487,,,,,,,,,,,,,,,,,,,,,,,,,,,,,,,,,,,,,,,,,,,,reldom2_s012,001,2025-02-03_15h43.01.774,Vis-A-Scan_AC,2022.2.5,None,
,,,,,,,,,,,,,,,,,,,,,,,,,,,,,,,,,,,,,,,,,,,,2,0,2,0,,,,,,,,,27.709434542000054,27.709434542000054,5,1.994396666999819,,,,,,,,,,,,,,,,,,,,,,,,,,,,,,,,,,,,,,,,,,,,reldom2_s012,001,2025-02-03_15h43.01.774,Vis-A-Scan_AC,2022.2.5,None,
,,,,,,,,,,,,,,,,,,,,,,,,,,,,,,,,,,,,,,,,,,,,3,0,3,0,,,,,,,,,29.726726625000083,29.726726625000083,5,1.9765182080009254,,,,,,,,,,,,,,,,,,,,,,,,,,,,,,,,,,,,,,,,,,,,reldom2_s012,001,2025-02-03_15h43.01.774,Vis-A-Scan_AC,2022.2.5,None,
0,0.0,None,fixation,stimulus/viswhat_stim/blank_white.png,stimulus/viswhat_stim/blank_white.png,stimulus/viswhere_stim/blank_white.png,stimulus/viswhere_stim/blank_white.png,stimulus/viswhat_stim/blank_white.png,stimulus/viswhat_stim/blank_white.png,stimulus/viswhat_stim/blank_white.png,stimulus/viswhat_stim/blank_white.png,0.0,0.0,0.0,0.0,0,0.0,0,0.0,0,0.0,0,0.0,0,0.0,0.0,0,0.0,0,0.0,0,0.0,0,0.0,0,0,0,0,0,0,0,0,16,,,,,0,0,0,0,,,,,,,,,31.908673041999464,31.908673041999464,31.908673041999464,31.908673041999464,31.908673041999464,31.908673041999464,31.908673041999464,31.908673041999464,31.81553579200008,31.908673041999464,31.908673041999464,31.908673041999464,31.81553579200008,31.908673041999464,31.908673041999464,31.908673041999464,31.908673041999464,31.908673041999464,31.908673041999464,31.908673041999464,31.908673041999464,31.908673041999464,31.908673041999464,31.908673041999464,31.908673041999464,31.908673041999464,31.908673041999464,31.86553579200008,31.908673041999464,31.908673041999464,31.908673041999464,31.86553579200008,31.908673041999464,31.908673041999464,31.908673041999464,31.908673041999464,31.908673041999464,37.08611304199985,37.08611304199985,48.173370458000136,None,0,,reldom2_s012,001,2025-02-03_15h43.01.774,Vis-A-Scan_AC,2022.2.5,None,
1,First_Order,1.0,viswhat,stimulus/viswhat_stim/blank_white.png,stimulus/viswhat_stim/blank_white.png,stimulus/viswhat_stim/land_animal-moose.png,stimulus/viswhat_stim/water_animal-seaturtle.png,stimulus/viswhat_stim/blank_white.png,stimulus/viswhat_stim/type_box.png,stimulus/viswhat_stim/type_yes.png,stimulus/viswhat_stim/type_no.png,None,Type,None,Type,1,0.0,0,5.125,0,5.125,0,5.125,0,0.0,0.625,0,0.0,0,0.0,1,0.5,1,2.125,0,0,0,0,0,0,0,0,0,,,,,0,1,1,1,,,,,,,,,48.173370458000136,48.173370458000136,48.173370458000136,48.173370458000136,48.173370458000136,48.173370458000136,48.173370458000136,48.173370458000136,48.06834029199981,48.173370458000136,48.173370458000136,48.173370458000136,48.06834029199981,48.173370458000136,48.173370458000136,48.173370458000136,50.23763704199973,,48.173370458000136,48.173370458000136,53.36642454199955,48.64426820799963,49.70560966699941,50.23763704199973,51.30199754200021,48.173370458000136,48.173370458000136,48.11834029199981,48.173370458000136,48.173370458000136,48.173370458000136,48.11834029199981,48.173370458000136,48.173370458000136,53.36642454199955,48.173370458000136,53.36642454199955,53.36642454199955,54.21136170799946,48.173370458000136,1,1,0.8136597080010688,reldom2_s012,001,2025-02-03_15h43.01.774,Vis-A-Scan_AC,2022.2.5,None,
2,First_Order,1.0,viswhat,stimulus/viswhat_stim/blank_white.png,stimulus/viswhat_stim/blank_white.png,stimulus/viswhat_stim/water_vehicle-submarine.png,stimulus/viswhat_stim/land_vehicle-firetruck.png,stimulus/viswhat_stim/blank_white.png,stimulus/viswhat_stim/type_box.png,stimulus/viswhat_stim/type_yes.png,stimulus/viswhat_stim/type_no.png,None,Type,None,Type,1,0.0,0,5.125,0,5.125,0,5.125,0,0.0,0.625,0,0.0,0,0.0,1,0.5,1,2.125,0,0,0,0,0,0,0,0,0,,,,,0,2,2,2,,,,,,,,,54.21136170799946,54.21136170799946,54.21136170799946,54.21136170799946,54.21136170799946,54.21136170799946,54.21136170799946,54.21136170799946,54.177962916666424,54.21136170799946,54.21136170799946,54.21136170799946,54.177962916666424,54.21136170799946,54.21136170799946,54.21136170799946,56.30457275000026,60.30944237499989,54.21136170799946,54.21136170799946,59.34853145800025,54.681515374999435,55.70153416699941,56.30457275000026,57.32961524999973,54.21136170799946,54.21136170799946,54.19462958333309,54.21136170799946,54.21136170799946,54.21136170799946,54.19462958333309,54.21136170799946,54.21136170799946,59.34853145800025,54.21136170799946,59.34853145800025,59.430725707999954,60.0709472919998,54.21136170799946,1,1,1.3614197080005397,reldom2_s012,001,2025-02-03_15h43.01.774,Vis-A-Scan_AC,2022.2.5,None,
3,First_Order,1.0,viswhat,stimulus/viswhat_stim/blank_white.png,stimulus/viswhat_stim/blank_white.png,stimulus/viswhat_stim/water_vehicle-kayak.png,stimulus/viswhat_stim/land_vehicle-vespa.png,stimulus/viswhat_stim/blank_white.png,stimulus/viswhat_stim/location_box.png,stimulus/viswhat_stim/location_yes.png,stimulus/viswhat_stim/location_no.png,None,Location,None,Type,2,0.0,0,5.125,0,5.125,0,5.125,0,0.0,0.625,0,0.0,0,0.0,1,0.5,1,2.125,0,0,0,0,0,0,0,0,0,,,,,0,3,3,3,,,,,,,,,60.30944237499989,60.30944237499989,60.30944237499989,60.30944237499989,60.30944237499989,60.30944237499989,60.30944237499989,60.30944237499989,60.25282954200029,60.30944237499989,60.30944237499989,60.30944237499989,60.25282954200029,60.30944237499989,60.30944237499989,60.30944237499989,62.39784191699982,,60.30944237499989,60.30944237499989,65.46338770799957,60.79489154200019,61.838117541999964,62.39784191699982,63.44538004199967,60.30944237499989,60.30944237499989,60.28616287533362,60.30944237499989,60.30944237499989,60.30944237499989,60.28616287533362,60.30944237499989,60.30944237499989,65.46338770799957,60.30944237499989,65.46338770799957,65.5267489580001,66.19198504199994,60.30944237499989,2,1,1.1186404580003,reldom2_s012,001,2025-02-03_15h43.01.774,Vis-A-Scan_AC,2022.2.5,None,
4,First_Order,1.0,viswhat,stimulus/viswhat_stim/blank_white.png,stimulus/viswhat_stim/blank_white.png,stimulus/viswhat_stim/water_vehicle-pirateship.png,stimulus/viswhat_stim/land_vehicle-buldozer.png,stimulus/viswhat_stim/blank_white.png,stimulus/viswhat_stim/location_box.png,stimulus/viswhat_stim/location_yes.png,stimulus/viswhat_stim/location_no.png,None,Location,None,Type,2,0.0,0,5.125,0,5.125,0,5.125,0,0.0,0.625,0,0.0,0,0.0,1,0.5,1,2.125,0,0,0,0,0,0,0,0,0,,,,,0,4,4,4,,,,,,,,,66.39586700000018,66.39586700000018,66.39586700000018,66.39586700000018,66.39586700000018,66.39586700000018,66.39586700000018,66.39586700000018,66.3402136246667,66.39586700000018,66.39586700000018,66.39586700000018,66.3402136246667,66.39586700000018,66.39586700000018,66.39586700000018,68.48930741699951,72.53260608300025,66.39586700000018,66.39586700000018,71.53243808299976,66.88524216699989,67.93227612499959,68.48930741699951,69.54022808299942,66.39586700000018,66.39586700000018,66.37354695800005,66.39586700000018,66.39586700000018,66.39586700000018,66.37354695800005,66.39586700000018,66.39586700000018,71.53243808299976,66.39586700000018,71.53243808299976,71.61967724999977,72.26164233300005,66.39586700000018,2,1,1.3026196660002825,reldom2_s012,001,2025-02-03_15h43.01.774,Vis-A-Scan_AC,2022.2.5,None,
0,0.0,None,fixation,stimulus/viswhat_stim/blank_white.png,stimulus/viswhat_stim/blank_white.png,stimulus/viswhere_stim/blank_white.png,stimulus/viswhere_stim/blank_white.png,stimulus/viswhat_stim/blank_white.png,stimulus/viswhat_stim/blank_white.png,stimulus/viswhat_stim/blank_white.png,stimulus/viswhat_stim/blank_white.png,0.0,0.0,0.0,0.0,0,0.0,0,0.0,0,0.0,0,0.0,0,0.0,0.0,0,0.0,0,0.0,0,0.0,0,0.0,0,0,0,0,0,0,0,0,9,,,,,0,5,5,5,,,,,,,,,72.53260608300025,72.53260608300025,72.53260608300025,72.53260608300025,72.53260608300025,72.53260608300025,72.53260608300025,72.53260608300025,72.43656933366661,72.53260608300025,72.53260608300025,72.53260608300025,72.43656933366661,72.53260608300025,72.53260608300025,72.53260608300025,72.53260608300025,72.53260608300025,72.53260608300025,72.53260608300025,72.53260608300025,72.53260608300025,72.53260608300025,72.53260608300025,72.53260608300025,72.53260608300025,72.53260608300025,72.48656933366662,72.53260608300025,72.53260608300025,72.53260608300025,72.48656933366662,72.53260608300025,72.53260608300025,72.53260608300025,72.53260608300025,72.53260608300025,77.74395116699998,77.74395116699998,81.73577475000002,None,0,,reldom2_s012,001,2025-02-03_15h43.01.774,Vis-A-Scan_AC,2022.2.5,None,
5,Second_Order,1.0,viswhat,stimulus/viswhat_stim/water_vehicle-cruiser.png,stimulus/viswhat_stim/land_vehicle-pickuptruck.png,stimulus/viswhat_stim/land_animal-snake.png,stimulus/viswhat_stim/land_vehicle-trolley.png,stimulus/viswhat_stim/match_blank.png,stimulus/viswhat_stim/match_box.png,stimulus/viswhat_stim/match_yes.png,stimulus/viswhat_stim/match_no.png,2.0,Match,Type,Location,2,5.125,0,5.125,0,5.125,0,5.125,0,0.75,0.75,1,0.5,1,2.125,1,0.5,1,2.125,0,0,0,0,0,0,0,0,0,,,,,0,6,6,6,,,,,,,,,81.73577475000002,86.85925570800009,82.15244795800027,83.15046687499944,83.79044062499997,84.78741379199982,81.73577475000002,81.73577475000002,81.74386770833365,81.73577475000002,81.73577475000002,81.73577475000002,81.74386770833365,81.73577475000002,86.85925570800009,87.64892012499968,89.74752408299992,93.65753512499941,87.64892012499968,87.64892012499968,92.7749740829995,88.110952,89.12535874999958,89.74752408299992,90.76630800000021,87.64892012499968,87.64892012499968,87.62766120833342,87.64892012499968,87.64892012499968,87.64892012499968,87.62766120833342,87.64892012499968,87.64892012499968,92.7749740829995,87.64892012499968,92.7749740829995,92.86113616700004,93.65753512499941,87.64892012499968,2,1,1.5673242500006381,reldom2_s012,001,2025-02-03_15h43.01.774,Vis-A-Scan_AC,2022.2.5,None,
6,Second_Order,1.0,viswhat,stimulus/viswhat_stim/land_vehicle-firetruck.png,stimulus/viswhat_stim/land_animal-dog.png,stimulus/viswhat_stim/water_animal-seaturtle.png,stimulus/viswhat_stim/water_vehicle-sailboat.png,stimulus/viswhat_stim/match_blank.png,stimulus/viswhat_stim/match_box.png,stimulus/viswhat_stim/match_yes.png,stimulus/viswhat_stim/match_no.png,1.0,Match,Location,Location,1,5.125,0,5.125,0,5.125,0,5.125,0,0.625,0.625,1,0.5,1,2.125,1,0.5,1,2.125,0,0,0,0,0,0,0,0,0,,,,,0,7,7,7,,,,,,,,,93.65753512499941,98.77558016700004,94.12977016700006,95.12831075000031,95.76286341699961,96.75251516699973,93.65753512499941,93.65753512499941,93.6573225,93.65753512499941,93.65753512499941,93.65753512499941,93.6573225,93.65753512499941,98.77558016700004,99.49884949999978,101.58861945799981,105.62986420800007,99.49884949999978,99.49884949999978,104.70445966700026,99.932216917,101.00169904199993,101.58861945799981,102.66846366699974,99.49884949999978,99.49884949999978,99.45496287466636,99.49884949999978,99.49884949999978,99.49884949999978,99.45496287466636,99.49884949999978,99.49884949999978,104.70445966700026,99.49884949999978,104.70445966700026,104.70445966700026,105.37439366699982,99.49884949999978,1,1,0.743795250000403,reldom2_s012,001,2025-02-03_15h43.01.774,Vis-A-Scan_AC,2022.2.5,None,
0,0.0,None,fixation,stimulus/viswhat_stim/blank_white.png,stimulus/viswhat_stim/blank_white.png,stimulus/viswhere_stim/blank_white.png,stimulus/viswhere_stim/blank_white.png,stimulus/viswhat_stim/blank_white.png,stimulus/viswhat_stim/blank_white.png,stimulus/viswhat_stim/blank_white.png,stimulus/viswhat_stim/blank_white.png,0.0,0.0,0.0,0.0,0,0.0,0,0.0,0,0.0,0,0.0,0,0.0,0.0,0,0.0,0,0.0,0,0.0,0,0.0,0,0,0,0,0,0,0,0,9,,,,,0,8,8,8,,,,,,,,,105.62986420800007,105.62986420800007,105.62986420800007,105.62986420800007,105.62986420800007,105.62986420800007,105.62986420800007,105.62986420800007,105.52439366699983,105.62986420800007,105.62986420800007,105.62986420800007,105.52439366699983,105.62986420800007,105.62986420800007,105.62986420800007,105.62986420800007,105.62986420800007,105.62986420800007,105.62986420800007,105.62986420800007,105.62986420800007,105.62986420800007,105.62986420800007,105.62986420800007,105.62986420800007,105.62986420800007,105.57439366699982,105.62986420800007,105.62986420800007,105.62986420800007,105.57439366699982,105.62986420800007,105.62986420800007,105.62986420800007,105.62986420800007,105.62986420800007,110.84343604199967,110.84343604199967,114.93223191699963,None,0,,reldom2_s012,001,2025-02-03_15h43.01.774,Vis-A-Scan_AC,2022.2.5,None,
7,First_Order,2.0,viswhat,stimulus/viswhat_stim/blank_white.png,stimulus/viswhat_stim/blank_white.png,stimulus/viswhat_stim/water_vehicle-ship.png,stimulus/viswhat_stim/water_animal-stingray.png,stimulus/viswhat_stim/blank_white.png,stimulus/viswhat_stim/type_box.png,stimulus/viswhat_stim/type_yes.png,stimulus/viswhat_stim/type_no.png,None,Type,None,Location,2,0.0,0,5.125,0,5.125,0,5.125,0,0.0,0.625,0,0.0,0,0.0,1,0.5,1,2.125,0,0,0,0,0,0,0,0,0,,,,,0,9,9,9,,,,,,,,,114.93223191699963,114.93223191699963,114.93223191699963,114.93223191699963,114.93223191699963,114.93223191699963,114.93223191699963,114.93223191699963,114.83136629166681,114.93223191699963,114.93223191699963,114.93223191699963,114.83136629166681,114.93223191699963,114.93223191699963,114.93223191699963,117.01007679200029,120.99441770799967,114.93223191699963,114.93223191699963,120.10036470799969,115.37996037499943,116.44904687500002,117.01007679200029,118.07886362499994,114.93223191699963,114.93223191699963,114.88136629166681,114.93223191699963,114.93223191699963,114.93223191699963,114.88136629166681,114.93223191699963,114.93223191699963,120.10036470799969,114.93223191699963,120.10036470799969,120.1518370419999,120.99441770799967,114.93223191699963,2,1,2.2472292910006217,reldom2_s012,001,2025-02-03_15h43.01.774,Vis-A-Scan_AC,2022.2.5,None,
8,First_Order,2.0,viswhat,stimulus/viswhat_stim/blank_white.png,stimulus/viswhat_stim/blank_white.png,stimulus/viswhat_stim/land_vehicle-train.png,stimulus/viswhat_stim/land_animal-fox.png,stimulus/viswhat_stim/blank_white.png,stimulus/viswhat_stim/type_box.png,stimulus/viswhat_stim/type_yes.png,stimulus/viswhat_stim/type_no.png,None,Type,None,Location,2,0.0,0,5.125,0,5.125,0,5.125,0,0.0,0.625,0,0.0,0,0.0,1,0.5,1,2.125,0,0,0,0,0,0,0,0,0,,,,,0,10,10,10,,,,,,,,,120.99441770799967,120.99441770799967,120.99441770799967,120.99441770799967,120.99441770799967,120.99441770799967,120.99441770799967,120.99441770799967,120.95694708299962,120.99441770799967,120.99441770799967,120.99441770799967,120.95694708299962,120.99441770799967,120.99441770799967,120.99441770799967,123.09855591699943,127.10566466699947,120.99441770799967,120.99441770799967,126.14053375000003,121.48195991699959,122.5018455419995,123.09855591699943,124.12339462499949,120.99441770799967,120.99441770799967,120.97361374966628,120.99441770799967,120.99441770799967,120.99441770799967,120.97361374966628,120.99441770799967,120.99441770799967,126.14053375000003,120.99441770799967,126.14053375000003,126.20676283299963,126.8369974999996,120.99441770799967,2,1,1.2177515830007906,reldom2_s012,001,2025-02-03_15h43.01.774,Vis-A-Scan_AC,2022.2.5,None,
9,First_Order,2.0,viswhat,stimulus/viswhat_stim/blank_white.png,stimulus/viswhat_stim/blank_white.png,stimulus/viswhat_stim/land_animal-lion.png,stimulus/viswhat_stim/land_vehicle-bus.png,stimulus/viswhat_stim/blank_white.png,stimulus/viswhat_stim/location_box.png,stimulus/viswhat_stim/location_yes.png,stimulus/viswhat_stim/location_no.png,None,Location,None,Location,1,0.0,0,5.125,0,5.125,0,5.125,0,0.0,0.625,0,0.0,0,0.0,1,0.5,1,2.125,0,0,0,0,0,0,0,0,0,,,,,0,11,11,11,,,,,,,,,127.10566466699947,127.10566466699947,127.10566466699947,127.10566466699947,127.10566466699947,127.10566466699947,127.10566466699947,127.10566466699947,127.03662795833345,127.10566466699947,127.10566466699947,127.10566466699947,127.03662795833345,127.10566466699947,127.10566466699947,127.10566466699947,129.21588062499995,133.27471370799958,127.10566466699947,127.10566466699947,132.26337154199973,127.57418091699947,128.63184212499982,129.21588062499995,130.2726877919995,127.10566466699947,127.10566466699947,127.06996129166679,127.10566466699947,127.10566466699947,127.10566466699947,127.06996129166679,127.10566466699947,127.10566466699947,132.26337154199973,127.10566466699947,132.26337154199973,132.33018487499976,132.99579166700005,127.10566466699947,1,1,2.4175179160010885,reldom2_s012,001,2025-02-03_15h43.01.774,Vis-A-Scan_AC,2022.2.5,None,
10,First_Order,2.0,viswhat,stimulus/viswhat_stim/blank_white.png,stimulus/viswhat_stim/blank_white.png,stimulus/viswhat_stim/land_animal-elephant.png,stimulus/viswhat_stim/land_vehicle-motorcycle.png,stimulus/viswhat_stim/blank_white.png,stimulus/viswhat_stim/location_box.png,stimulus/viswhat_stim/location_yes.png,stimulus/viswhat_stim/location_no.png,None,Location,None,Location,1,0.0,0,5.125,0,5.125,0,5.125,0,0.0,0.625,0,0.0,0,0.0,1,0.5,1,2.125,0,0,0,0,0,0,0,0,0,,,,,0,12,12,12,,,,,,,,,133.27471370799958,133.27471370799958,133.27471370799958,133.27471370799958,133.27471370799958,133.27471370799958,133.27471370799958,133.27471370799958,133.14555408366675,133.27471370799958,133.27471370799958,133.27471370799958,133.14555408366675,133.27471370799958,133.27471370799958,133.27471370799958,135.32165149999946,139.42776400000002,133.27471370799958,133.27471370799958,138.46006804199988,133.75313870799982,134.84526424999967,135.32165149999946,136.41856479199942,133.27471370799958,133.27471370799958,133.21222075033342,133.27471370799958,133.27471370799958,133.27471370799958,133.21222075033342,133.27471370799958,133.27471370799958,138.46006804199988,133.27471370799958,138.46006804199988,138.46006804199988,139.14544520799973,133.27471370799958,1,1,0.7533558750001248,reldom2_s012,001,2025-02-03_15h43.01.774,Vis-A-Scan_AC,2022.2.5,None,
0,0.0,None,fixation,stimulus/viswhat_stim/blank_white.png,stimulus/viswhat_stim/blank_white.png,stimulus/viswhere_stim/blank_white.png,stimulus/viswhere_stim/blank_white.png,stimulus/viswhat_stim/blank_white.png,stimulus/viswhat_stim/blank_white.png,stimulus/viswhat_stim/blank_white.png,stimulus/viswhat_stim/blank_white.png,0.0,0.0,0.0,0.0,0,0.0,0,0.0,0,0.0,0,0.0,0,0.0,0.0,0,0.0,0,0.0,0,0.0,0,0.0,0,0,0,0,0,0,0,0,10,,,,,0,13,13,13,,,,,,,,,139.42776400000002,139.42776400000002,139.42776400000002,139.42776400000002,139.42776400000002,139.42776400000002,139.42776400000002,139.42776400000002,139.32877854133307,139.42776400000002,139.42776400000002,139.42776400000002,139.32877854133307,139.42776400000002,139.42776400000002,139.42776400000002,139.42776400000002,139.42776400000002,139.42776400000002,139.42776400000002,139.42776400000002,139.42776400000002,139.42776400000002,139.42776400000002,139.42776400000002,139.42776400000002,139.42776400000002,139.37877854133308,139.42776400000002,139.42776400000002,139.42776400000002,139.37877854133308,139.42776400000002,139.42776400000002,139.42776400000002,139.42776400000002,139.42776400000002,144.65308266699958,144.65308266699958,149.5787703750002,None,0,,reldom2_s012,001,2025-02-03_15h43.01.774,Vis-A-Scan_AC,2022.2.5,None,
11,Second_Order,2.0,viswhat,stimulus/viswhat_stim/water_vehicle-cabincruiser.png,stimulus/viswhat_stim/land_vehicle-scooter.png,stimulus/viswhat_stim/land_animal-giraffe.png,stimulus/viswhat_stim/water_animal-squid.png,stimulus/viswhat_stim/match_blank.png,stimulus/viswhat_stim/match_box.png,stimulus/viswhat_stim/match_yes.png,stimulus/viswhat_stim/match_no.png,1.0,Match,Type,Type,1,5.125,0,5.125,0,5.125,0,5.125,0,0.75,0.75,1,0.5,1,2.125,1,0.5,1,2.125,0,0,0,0,0,0,0,0,0,,,,,0,14,14,14,,,,,,,,,149.5787703750002,154.6991756669995,150.04101945799994,151.0275592500002,151.6631712919998,152.6608061249999,149.5787703750002,149.5787703750002,149.59253904200014,149.5787703750002,149.5787703750002,149.5787703750002,149.59253904200014,149.5787703750002,154.6991756669995,155.55365337500007,157.62420645800012,,155.55365337500007,155.55365337500007,160.7574271249996,156.00294399999984,157.0658807079999,157.62420645800012,158.68874083299943,155.55365337500007,155.55365337500007,155.5006286246663,155.55365337500007,155.55365337500007,155.55365337500007,155.5006286246663,155.55365337500007,155.55365337500007,160.7574271249996,155.55365337500007,160.7574271249996,160.7574271249996,,155.55365337500007,1,1,2.234586166000554,reldom2_s012,001,2025-02-03_15h43.01.774,Vis-A-Scan_AC,2022.2.5,None,
12,Second_Order,2.0,viswhat,stimulus/viswhat_stim/land_animal-bunny.png,stimulus/viswhat_stim/land_vehicle-shortbus.png,stimulus/viswhat_stim/water_vehicle-sailboat.png,stimulus/viswhat_stim/water_animal-whale.png,stimulus/viswhat_stim/match_blank.png,stimulus/viswhat_stim/match_box.png,stimulus/viswhat_stim/match_yes.png,stimulus/viswhat_stim/match_no.png,1.0,Match,Location,Location,1,5.125,0,5.125,0,5.125,0,5.125,0,0.625,0.625,1,0.5,1,2.125,1,0.5,1,2.125,0,0,0,0,0,0,0,0,0,,,,,0,15,15,15,,,,,,,,,161.5558297919997,166.67699274999995,162.00175616700017,162.98925079199944,163.62564120800016,164.62207024999952,161.5558297919997,161.5558297919997,161.55821470799984,161.5558297919997,161.5558297919997,161.5558297919997,161.55821470799984,161.5558297919997,166.67699274999995,167.40815116700014,169.46848899999986,,167.40815116700014,167.40815116700014,172.5962742920001,167.83390554200014,168.88918862500032,169.46848899999986,170.53007383299973,167.40815116700014,167.40815116700014,167.36140604166675,167.40815116700014,167.40815116700014,167.40815116700014,167.36140604166675,167.40815116700014,167.40815116700014,172.5962742920001,167.40815116700014,172.5962742920001,172.5962742920001,173.2536516250002,167.40815116700014,1,1,0.6518148330005715,reldom2_s012,001,2025-02-03_15h43.01.774,Vis-A-Scan_AC,2022.2.5,None,
0,0.0,None,fixation,stimulus/viswhat_stim/blank_white.png,stimulus/viswhat_stim/blank_white.png,stimulus/viswhere_stim/blank_white.png,stimulus/viswhere_stim/blank_white.png,stimulus/viswhat_stim/blank_white.png,stimulus/viswhat_stim/blank_white.png,stimulus/viswhat_stim/blank_white.png,stimulus/viswhat_stim/blank_white.png,0.0,0.0,0.0,0.0,0,0.0,0,0.0,0,0.0,0,0.0,0,0.0,0.0,0,0.0,0,0.0,0,0.0,0,0.0,0,0,0,0,0,0,0,0,9,,,,,0,16,16,16,,,,,,,,,173.51499420799973,173.51499420799973,173.51499420799973,173.51499420799973,173.51499420799973,173.51499420799973,173.51499420799973,173.51499420799973,173.4036516250002,173.51499420799973,173.51499420799973,173.51499420799973,173.4036516250002,173.51499420799973,173.51499420799973,173.51499420799973,173.51499420799973,173.51499420799973,173.51499420799973,173.51499420799973,173.51499420799973,173.51499420799973,173.51499420799973,173.51499420799973,173.51499420799973,173.51499420799973,173.51499420799973,173.47031829166687,173.51499420799973,173.51499420799973,173.51499420799973,173.47031829166687,173.51499420799973,173.51499420799973,173.51499420799973,173.51499420799973,173.51499420799973,178.71130758300023,178.71130758300023,182.7027535420002,None,0,,reldom2_s012,001,2025-02-03_15h43.01.774,Vis-A-Scan_AC,2022.2.5,None,
13,First_Order,3.0,viswhere,stimulus/viswhere_stim/blank_white.png,stimulus/viswhere_stim/blank_white.png,stimulus/viswhere_stim/90-deg_dot-left_slateblue.png,stimulus/viswhere_stim/120-deg_dot-left_slateblue.png,stimulus/viswhere_stim/blank_white.png,stimulus/viswhere_stim/dot_box.png,stimulus/viswhere_stim/dot_yes.png,stimulus/viswhere_stim/dot_no.png,None,Dot,None,Dot,1,0.0,0,5.125,0,5.125,0,5.125,0,0.0,0.625,0,0.0,0,0.0,1,0.5,1,2.125,0,0,0,0,0,0,0,0,0,,,,,0,17,17,17,,,,,,,,,182.7027535420002,182.7027535420002,182.7027535420002,182.7027535420002,182.7027535420002,182.7027535420002,182.7027535420002,182.7027535420002,182.6777965416665,182.7027535420002,182.7027535420002,182.7027535420002,182.6777965416665,182.7027535420002,182.7027535420002,182.7027535420002,184.81239883299986,188.78339662500002,182.7027535420002,182.7027535420002,187.82782924999992,183.1730885420002,184.18829316699976,184.81239883299986,185.8175837079998,182.7027535420002,182.7027535420002,182.69446320833316,182.7027535420002,182.7027535420002,182.7027535420002,182.69446320833316,182.7027535420002,182.7027535420002,187.82782924999992,182.7027535420002,187.82782924999992,187.91639470799964,188.5478252920002,182.7027535420002,1,1,0.9664328750004643,reldom2_s012,001,2025-02-03_15h43.01.774,Vis-A-Scan_AC,2022.2.5,None,
14,First_Order,3.0,viswhere,stimulus/viswhere_stim/blank_white.png,stimulus/viswhere_stim/blank_white.png,stimulus/viswhere_stim/30-deg_dot-left_royalblue.png,stimulus/viswhere_stim/30-deg_dot-right_peru.png,stimulus/viswhere_stim/blank_white.png,stimulus/viswhere_stim/dot_box.png,stimulus/viswhere_stim/dot_yes.png,stimulus/viswhere_stim/dot_no.png,None,Dot,None,Line,2,0.0,0,5.125,0,5.125,0,5.125,0,0.0,0.625,0,0.0,0,0.0,1,0.5,1,2.125,0,0,0,0,0,0,0,0,0,,,,,0,18,18,18,,,,,,,,,188.78339662500002,188.78339662500002,188.78339662500002,188.78339662500002,188.78339662500002,188.78339662500002,188.78339662500002,188.78339662500002,188.75990225033306,188.78339662500002,188.78339662500002,188.78339662500002,188.75990225033306,188.78339662500002,188.78339662500002,188.78339662500002,190.88952999999947,194.84930591699958,188.78339662500002,188.78339662500002,193.93875079200006,189.27001804199972,190.28684112500014,190.88952999999947,191.89184470799955,188.78339662500002,188.78339662500002,188.77656891699974,188.78339662500002,188.78339662500002,188.78339662500002,188.77656891699974,188.78339662500002,188.78339662500002,193.93875079200006,188.78339662500002,193.93875079200006,194.01110074999997,194.6401710829996,188.78339662500002,2,1,0.6629190830008156,reldom2_s012,001,2025-02-03_15h43.01.774,Vis-A-Scan_AC,2022.2.5,None,
15,First_Order,3.0,viswhere,stimulus/viswhere_stim/blank_white.png,stimulus/viswhere_stim/blank_white.png,stimulus/viswhere_stim/150-deg_dot-right_turquoise.png,stimulus/viswhere_stim/150-deg_dot-left_cyan.png,stimulus/viswhere_stim/blank_white.png,stimulus/viswhere_stim/line_box.png,stimulus/viswhere_stim/line_yes.png,stimulus/viswhere_stim/line_no.png,None,Line,None,Line,1,0.0,0,5.125,0,5.125,0,5.125,0,0.0,0.625,0,0.0,0,0.0,1,0.5,1,2.125,0,0,0,0,0,0,0,0,0,,,,,0,19,19,19,,,,,,,,,194.84930591699958,194.84930591699958,194.84930591699958,194.84930591699958,194.84930591699958,194.84930591699958,194.84930591699958,194.84930591699958,194.82099395833333,194.84930591699958,194.84930591699958,194.84930591699958,194.82099395833333,194.84930591699958,194.84930591699958,194.84930591699958,196.947365,200.916035792,194.84930591699958,194.84930591699958,199.97841470799995,195.3244354999997,196.3359755419997,196.947365,197.96278237499973,194.84930591699958,194.84930591699958,194.837660625,194.84930591699958,194.84930591699958,194.84930591699958,194.837660625,194.84930591699958,194.84930591699958,199.97841470799995,194.84930591699958,199.97841470799995,200.06957624999995,200.69354241699966,194.84930591699958,1,1,0.8999798330005433,reldom2_s012,001,2025-02-03_15h43.01.774,Vis-A-Scan_AC,2022.2.5,None,
16,First_Order,3.0,viswhere,stimulus/viswhere_stim/blank_white.png,stimulus/viswhere_stim/blank_white.png,stimulus/viswhere_stim/120-deg_dot-right_mediumslateblue.png,stimulus/viswhere_stim/150-deg_dot-right_royalblue.png,stimulus/viswhere_stim/blank_white.png,stimulus/viswhere_stim/line_box.png,stimulus/viswhere_stim/line_yes.png,stimulus/viswhere_stim/line_no.png,None,Line,None,Dot,2,0.0,0,5.125,0,5.125,0,5.125,0,0.0,0.625,0,0.0,0,0.0,1,0.5,1,2.125,0,0,0,0,0,0,0,0,0,,,,,0,20,20,20,,,,,,,,,200.916035792,200.916035792,200.916035792,200.916035792,200.916035792,200.916035792,200.916035792,200.916035792,200.89095504133306,200.916035792,200.916035792,200.916035792,200.89095504133306,200.916035792,200.916035792,200.916035792,203.01602770799946,207.0594676669998,200.916035792,200.916035792,206.05265970799974,201.4066053329998,202.40947379199952,203.01602770799946,204.02603791699948,200.916035792,200.916035792,200.90762170799974,200.916035792,200.916035792,200.916035792,200.90762170799974,200.916035792,200.916035792,206.05265970799974,200.916035792,206.05265970799974,206.13671524999972,206.76003425,200.916035792,2,1,0.8513845830002538,reldom2_s012,001,2025-02-03_15h43.01.774,Vis-A-Scan_AC,2022.2.5,None,
0,0.0,None,fixation,stimulus/viswhat_stim/blank_white.png,stimulus/viswhat_stim/blank_white.png,stimulus/viswhere_stim/blank_white.png,stimulus/viswhere_stim/blank_white.png,stimulus/viswhat_stim/blank_white.png,stimulus/viswhat_stim/blank_white.png,stimulus/viswhat_stim/blank_white.png,stimulus/viswhat_stim/blank_white.png,0.0,0.0,0.0,0.0,0,0.0,0,0.0,0,0.0,0,0.0,0,0.0,0.0,0,0.0,0,0.0,0,0.0,0,0.0,0,0,0,0,0,0,0,0,8,,,,,0,21,21,21,,,,,,,,,207.0594676669998,207.0594676669998,207.0594676669998,207.0594676669998,207.0594676669998,207.0594676669998,207.0594676669998,207.0594676669998,206.95446004133314,207.0594676669998,207.0594676669998,207.0594676669998,206.95446004133314,207.0594676669998,207.0594676669998,207.0594676669998,207.0594676669998,207.0594676669998,207.0594676669998,207.0594676669998,207.0594676669998,207.0594676669998,207.0594676669998,207.0594676669998,207.0594676669998,207.0594676669998,207.0594676669998,207.00446004133315,207.0594676669998,207.0594676669998,207.0594676669998,207.00446004133315,207.0594676669998,207.0594676669998,207.0594676669998,207.0594676669998,207.0594676669998,212.2387482920003,212.2387482920003,215.19421950000014,None,0,,reldom2_s012,001,2025-02-03_15h43.01.774,Vis-A-Scan_AC,2022.2.5,None,
17,Second_Order,3.0,viswhere,stimulus/viswhere_stim/60-deg_dot-right_seagreen.png,stimulus/viswhere_stim/150-deg_dot-right_seagreen.png,stimulus/viswhere_stim/90-deg_dot-right_salmon.png,stimulus/viswhere_stim/90-deg_dot-left_seagreen.png,stimulus/viswhat_stim/match_blank.png,stimulus/viswhat_stim/match_box.png,stimulus/viswhat_stim/match_yes.png,stimulus/viswhat_stim/match_no.png,2.0,Match,Dot,Line,2,5.125,0,5.125,0,5.125,0,5.125,0,0.75,0.75,1,0.5,1,2.125,1,0.5,1,2.125,0,0,0,0,0,0,0,0,0,,,,,0,22,22,22,,,,,,,,,215.19421950000014,220.31708287499987,215.67709479199948,216.6749822920001,217.29848024999956,218.29564929200023,215.19421950000014,215.19421950000014,215.20577462533325,215.19421950000014,215.19421950000014,215.19421950000014,215.20577462533325,215.19421950000014,220.31708287499987,221.09730041700004,223.18486699999994,227.08362012499947,221.09730041700004,221.09730041700004,226.23000387499997,221.5701133749999,222.57711833299982,223.18486699999994,224.1952162919997,221.09730041700004,221.09730041700004,221.08536133333342,221.09730041700004,221.09730041700004,221.09730041700004,221.08536133333342,221.09730041700004,221.09730041700004,226.23000387499997,221.09730041700004,226.23000387499997,226.30001512499985,227.08362012499947,221.09730041700004,2,1,1.8345596250010203,reldom2_s012,001,2025-02-03_15h43.01.774,Vis-A-Scan_AC,2022.2.5,None,
18,Second_Order,3.0,viswhere,stimulus/viswhere_stim/150-deg_dot-right_goldenrod.png,stimulus/viswhere_stim/150-deg_dot-left_cyan.png,stimulus/viswhere_stim/120-deg_dot-left_royalblue.png,stimulus/viswhere_stim/60-deg_dot-left_royalblue.png,stimulus/viswhat_stim/match_blank.png,stimulus/viswhat_stim/match_box.png,stimulus/viswhat_stim/match_yes.png,stimulus/viswhat_stim/match_no.png,2.0,Match,Line,Dot,2,5.125,0,5.125,0,5.125,0,5.125,0,0.625,0.625,1,0.5,1,2.125,1,0.5,1,2.125,0,0,0,0,0,0,0,0,0,,,,,0,23,23,23,,,,,,,,,227.08362012499947,232.1998851669996,227.5671064170001,228.5564172080003,229.1928144579997,230.18976337499953,227.08362012499947,227.08362012499947,227.09556333300026,227.08362012499947,227.08362012499947,227.08362012499947,227.09556333300026,227.08362012499947,232.1998851669996,232.8472743330003,234.94126374999996,238.98698004200014,232.8472743330003,232.8472743330003,237.98365445800027,233.31650654199984,234.33552712500023,234.94126374999996,235.94671483299953,232.8472743330003,232.8472743330003,232.82938649966698,232.8472743330003,232.8472743330003,232.8472743330003,232.82938649966698,232.8472743330003,232.8472743330003,237.98365445800027,232.8472743330003,237.98365445800027,238.06820620799954,238.70005033300004,232.8472743330003,2,1,0.7056989580005393,reldom2_s012,001,2025-02-03_15h43.01.774,Vis-A-Scan_AC,2022.2.5,None,
0,0.0,None,fixation,stimulus/viswhat_stim/blank_white.png,stimulus/viswhat_stim/blank_white.png,stimulus/viswhere_stim/blank_white.png,stimulus/viswhere_stim/blank_white.png,stimulus/viswhat_stim/blank_white.png,stimulus/viswhat_stim/blank_white.png,stimulus/viswhat_stim/blank_white.png,stimulus/viswhat_stim/blank_white.png,0.0,0.0,0.0,0.0,0,0.0,0,0.0,0,0.0,0,0.0,0,0.0,0.0,0,0.0,0,0.0,0,0.0,0,0.0,0,0,0,0,0,0,0,0,10,,,,,0,24,24,24,,,,,,,,,238.98698004200014,238.98698004200014,238.98698004200014,238.98698004200014,238.98698004200014,238.98698004200014,238.98698004200014,238.98698004200014,238.88037845833364,238.98698004200014,238.98698004200014,238.98698004200014,238.88037845833364,238.98698004200014,238.98698004200014,238.98698004200014,238.98698004200014,238.98698004200014,238.98698004200014,238.98698004200014,238.98698004200014,238.98698004200014,238.98698004200014,238.98698004200014,238.98698004200014,238.98698004200014,238.98698004200014,238.9470451250003,238.98698004200014,238.98698004200014,238.98698004200014,238.9470451250003,238.98698004200014,238.98698004200014,238.98698004200014,238.98698004200014,238.98698004200014,244.2118036669999,244.2118036669999,249.19347666700014,None,0,,reldom2_s012,001,2025-02-03_15h43.01.774,Vis-A-Scan_AC,2022.2.5,None,
19,First_Order,4.0,viswhere,stimulus/viswhere_stim/blank_white.png,stimulus/viswhere_stim/blank_white.png,stimulus/viswhere_stim/90-deg_dot-right_royalblue.png,stimulus/viswhere_stim/120-deg_dot-right_goldenrod.png,stimulus/viswhere_stim/blank_white.png,stimulus/viswhere_stim/dot_box.png,stimulus/viswhere_stim/dot_yes.png,stimulus/viswhere_stim/dot_no.png,None,Dot,None,Dot,1,0.0,0,5.125,0,5.125,0,5.125,0,0.0,0.625,0,0.0,0,0.0,1,0.5,1,2.125,0,0,0,0,0,0,0,0,0,,,,,0,25,25,25,,,,,,,,,249.19347666700014,249.19347666700014,249.19347666700014,249.19347666700014,249.19347666700014,249.19347666700014,249.19347666700014,249.19347666700014,249.1692453746661,249.19347666700014,249.19347666700014,249.19347666700014,249.1692453746661,249.19347666700014,249.19347666700014,249.19347666700014,251.30242224999984,255.26575845800016,249.19347666700014,249.19347666700014,254.32194779200017,249.6815228329997,250.69865516699974,251.30242224999984,252.30849062499965,249.19347666700014,249.19347666700014,249.18591204133276,249.19347666700014,249.19347666700014,249.19347666700014,249.18591204133276,249.19347666700014,249.19347666700014,254.32194779200017,249.19347666700014,254.32194779200017,254.4199354579996,255.0461766669996,249.19347666700014,1,1,0.6751634990005186,reldom2_s012,001,2025-02-03_15h43.01.774,Vis-A-Scan_AC,2022.2.5,None,
20,First_Order,4.0,viswhere,stimulus/viswhere_stim/blank_white.png,stimulus/viswhere_stim/blank_white.png,stimulus/viswhere_stim/90-deg_dot-left_peru.png,stimulus/viswhere_stim/90-deg_dot-right_royalblue.png,stimulus/viswhere_stim/blank_white.png,stimulus/viswhere_stim/dot_box.png,stimulus/viswhere_stim/dot_yes.png,stimulus/viswhere_stim/dot_no.png,None,Dot,None,Line,2,0.0,0,5.125,0,5.125,0,5.125,0,0.0,0.625,0,0.0,0,0.0,1,0.5,1,2.125,0,0,0,0,0,0,0,0,0,,,,,0,26,26,26,,,,,,,,,255.26575845800016,255.26575845800016,255.26575845800016,255.26575845800016,255.26575845800016,255.26575845800016,255.26575845800016,255.26575845800016,255.24063579133357,255.26575845800016,255.26575845800016,255.26575845800016,255.24063579133357,255.26575845800016,255.26575845800016,255.26575845800016,257.3817644999999,261.32618099999945,255.26575845800016,255.26575845800016,260.40885033299946,255.75688091699976,256.776168333,257.3817644999999,258.3890789999996,255.26575845800016,255.26575845800016,255.25730245800025,255.26575845800016,255.26575845800016,255.26575845800016,255.25730245800025,255.26575845800016,255.26575845800016,260.40885033299946,255.26575845800016,260.40885033299946,260.49211387499963,261.1213148329998,255.26575845800016,2,1,0.6006411670005036,reldom2_s012,001,2025-02-03_15h43.01.774,Vis-A-Scan_AC,2022.2.5,None,
21,First_Order,4.0,viswhere,stimulus/viswhere_stim/blank_white.png,stimulus/viswhere_stim/blank_white.png,stimulus/viswhere_stim/120-deg_dot-left_cyan.png,stimulus/viswhere_stim/150-deg_dot-left_seagreen.png,stimulus/viswhere_stim/blank_white.png,stimulus/viswhere_stim/line_box.png,stimulus/viswhere_stim/line_yes.png,stimulus/viswhere_stim/line_no.png,None,Line,None,Dot,2,0.0,0,5.125,0,5.125,0,5.125,0,0.0,0.625,0,0.0,0,0.0,1,0.5,1,2.125,0,0,0,0,0,0,0,0,0,,,,,0,27,27,27,,,,,,,,,261.32618099999945,261.32618099999945,261.32618099999945,261.32618099999945,261.32618099999945,261.32618099999945,261.32618099999945,261.32618099999945,261.3020218333334,261.32618099999945,261.32618099999945,261.32618099999945,261.3020218333334,261.32618099999945,261.32618099999945,261.32618099999945,263.4317929580002,267.39642854199974,261.32618099999945,261.32618099999945,266.4513955000002,261.8001534169998,262.80336041699957,263.4317929580002,264.44236004199956,261.32618099999945,261.32618099999945,261.31868850000006,261.32618099999945,261.32618099999945,261.32618099999945,261.31868850000006,261.32618099999945,261.32618099999945,266.4513955000002,261.32618099999945,266.4513955000002,266.55083916700005,267.17695512499995,261.32618099999945,2,1,1.0080384580005557,reldom2_s012,001,2025-02-03_15h43.01.774,Vis-A-Scan_AC,2022.2.5,None,
22,First_Order,4.0,viswhere,stimulus/viswhere_stim/blank_white.png,stimulus/viswhere_stim/blank_white.png,stimulus/viswhere_stim/150-deg_dot-right_seagreen.png,stimulus/viswhere_stim/150-deg_dot-left_slateblue.png,stimulus/viswhere_stim/blank_white.png,stimulus/viswhere_stim/line_box.png,stimulus/viswhere_stim/line_yes.png,stimulus/viswhere_stim/line_no.png,None,Line,None,Line,1,0.0,0,5.125,0,5.125,0,5.125,0,0.0,0.625,0,0.0,0,0.0,1,0.5,1,2.125,0,0,0,0,0,0,0,0,0,,,,,0,28,28,28,,,,,,,,,267.39642854199974,267.39642854199974,267.39642854199974,267.39642854199974,267.39642854199974,267.39642854199974,267.39642854199974,267.39642854199974,267.37175575033353,267.39642854199974,267.39642854199974,267.39642854199974,267.37175575033353,267.39642854199974,267.39642854199974,267.39642854199974,269.4952840830001,273.53552649999983,267.39642854199974,267.39642854199974,272.53677425000024,267.872535083,268.8829107920001,269.4952840830001,270.51494258299954,267.39642854199974,267.39642854199974,267.3884224170002,267.39642854199974,267.39642854199974,267.39642854199974,267.3884224170002,267.39642854199974,267.39642854199974,272.53677425000024,267.39642854199974,272.53677425000024,272.6230145419995,273.24995016699995,267.39642854199974,1,1,0.7145621250001568,reldom2_s012,001,2025-02-03_15h43.01.774,Vis-A-Scan_AC,2022.2.5,None,
0,0.0,None,fixation,stimulus/viswhat_stim/blank_white.png,stimulus/viswhat_stim/blank_white.png,stimulus/viswhere_stim/blank_white.png,stimulus/viswhere_stim/blank_white.png,stimulus/viswhat_stim/blank_white.png,stimulus/viswhat_stim/blank_white.png,stimulus/viswhat_stim/blank_white.png,stimulus/viswhat_stim/blank_white.png,0.0,0.0,0.0,0.0,0,0.0,0,0.0,0,0.0,0,0.0,0,0.0,0.0,0,0.0,0,0.0,0,0.0,0,0.0,0,0,0,0,0,0,0,0,9,,,,,0,29,29,29,,,,,,,,,273.53552649999983,273.53552649999983,273.53552649999983,273.53552649999983,273.53552649999983,273.53552649999983,273.53552649999983,273.53552649999983,273.4330162913332,273.53552649999983,273.53552649999983,273.53552649999983,273.4330162913332,273.53552649999983,273.53552649999983,273.53552649999983,273.53552649999983,273.53552649999983,273.53552649999983,273.53552649999983,273.53552649999983,273.53552649999983,273.53552649999983,273.53552649999983,273.53552649999983,273.53552649999983,273.53552649999983,273.48301629133323,273.53552649999983,273.53552649999983,273.53552649999983,273.48301629133323,273.53552649999983,273.53552649999983,273.53552649999983,273.53552649999983,273.53552649999983,278.72003312499965,278.72003312499965,282.66103162499985,None,0,,reldom2_s012,001,2025-02-03_15h43.01.774,Vis-A-Scan_AC,2022.2.5,None,
23,Second_Order,4.0,viswhere,stimulus/viswhere_stim/90-deg_dot-right_salmon.png,stimulus/viswhere_stim/150-deg_dot-right_seagreen.png,stimulus/viswhere_stim/150-deg_dot-right_mediumslateblue.png,stimulus/viswhere_stim/150-deg_dot-left_lightsseagreen.png,stimulus/viswhat_stim/match_blank.png,stimulus/viswhat_stim/match_box.png,stimulus/viswhat_stim/match_yes.png,stimulus/viswhat_stim/match_no.png,2.0,Match,Dot,Line,2,5.125,0,5.125,0,5.125,0,5.125,0,0.75,0.75,1,0.5,1,2.125,1,0.5,1,2.125,0,0,0,0,0,0,0,0,0,,,,,0,30,30,30,,,,,,,,,282.66103162499985,287.77760791699984,283.13287649999984,284.1307759579995,284.7702630419999,285.7679821669999,282.66103162499985,282.66103162499985,282.672859583333,282.66103162499985,282.66103162499985,282.66103162499985,282.672859583333,282.66103162499985,287.77760791699984,288.5597822919999,290.6420538329994,294.53983937500016,288.5597822919999,288.5597822919999,293.68531766700016,289.016502083,290.0287212080002,290.6420538329994,291.65985779199946,288.5597822919999,288.5597822919999,288.5454755003334,288.5597822919999,288.5597822919999,288.5597822919999,288.5454755003334,288.5597822919999,288.5597822919999,293.68531766700016,288.5597822919999,293.68531766700016,293.7715906249996,,288.5597822919999,2,1,0.7789539160003187,reldom2_s012,001,2025-02-03_15h43.01.774,Vis-A-Scan_AC,2022.2.5,None,
24,Second_Order,4.0,viswhere,stimulus/viswhere_stim/90-deg_dot-left_cyan.png,stimulus/viswhere_stim/60-deg_dot-left_slateblue.png,stimulus/viswhere_stim/120-deg_dot-right_goldenrod.png,stimulus/viswhere_stim/90-deg_dot-right_seagreen.png,stimulus/viswhat_stim/match_blank.png,stimulus/viswhat_stim/match_box.png,stimulus/viswhat_stim/match_yes.png,stimulus/viswhat_stim/match_no.png,1.0,Match,Dot,Dot,1,5.125,0,5.125,0,5.125,0,5.125,0,0.625,0.625,1,0.5,1,2.125,1,0.5,1,2.125,0,0,0,0,0,0,0,0,0,,,,,0,31,31,31,,,,,,,,,294.53983937500016,299.6562716669996,295.0267414580003,296.0252283330001,296.6476665829996,297.64514108299954,294.53983937500016,294.53983937500016,294.55142383299955,294.53983937500016,294.53983937500016,294.53983937500016,294.55142383299955,294.53983937500016,299.6562716669996,300.3130464579999,302.4089308749999,306.444787208,300.3130464579999,300.3130464579999,305.4419533749997,300.7820181249999,301.8023069999999,302.4089308749999,303.4136663749996,300.3130464579999,300.3130464579999,300.3016566663332,300.3130464579999,300.3130464579999,300.3130464579999,300.3016566663332,300.3130464579999,300.3130464579999,305.4419533749997,300.3130464579999,305.4419533749997,305.5462035829996,306.19758275000004,300.3130464579999,1,1,1.8206965000008495,reldom2_s012,001,2025-02-03_15h43.01.774,Vis-A-Scan_AC,2022.2.5,None,
0,0.0,None,fixation,stimulus/viswhat_stim/blank_white.png,stimulus/viswhat_stim/blank_white.png,stimulus/viswhere_stim/blank_white.png,stimulus/viswhere_stim/blank_white.png,stimulus/viswhat_stim/blank_white.png,stimulus/viswhat_stim/blank_white.png,stimulus/viswhat_stim/blank_white.png,stimulus/viswhat_stim/blank_white.png,0.0,0.0,0.0,0.0,0,0.0,0,0.0,0,0.0,0,0.0,0,0.0,0.0,0,0.0,0,0.0,0,0.0,0,0.0,0,0,0,0,0,0,0,0,10,,,,,0,32,32,32,,,,,,,,,306.444787208,306.444787208,306.444787208,306.444787208,306.444787208,306.444787208,306.444787208,306.444787208,306.3392187913335,306.444787208,306.444787208,306.444787208,306.3392187913335,306.444787208,306.444787208,306.444787208,306.444787208,306.444787208,306.444787208,306.444787208,306.444787208,306.444787208,306.444787208,306.444787208,306.444787208,306.444787208,306.444787208,306.3892187913335,306.444787208,306.444787208,306.444787208,306.3892187913335,306.444787208,306.444787208,306.444787208,306.444787208,306.444787208,311.67273108300014,311.67273108300014,316.68240091699954,None,0,,reldom2_s012,001,2025-02-03_15h43.01.774,Vis-A-Scan_AC,2022.2.5,None,
25,First_Order,5.0,viswhat,stimulus/viswhat_stim/blank_white.png,stimulus/viswhat_stim/blank_white.png,stimulus/viswhat_stim/land_vehicle-shortbus.png,stimulus/viswhat_stim/land_animal-pig.png,stimulus/viswhat_stim/blank_white.png,stimulus/viswhat_stim/location_box.png,stimulus/viswhat_stim/location_yes.png,stimulus/viswhat_stim/location_no.png,None,Location,None,Location,1,0.0,0,5.125,0,5.125,0,5.125,0,0.0,0.625,0,0.0,0,0.0,1,0.5,1,2.125,0,0,0,0,0,0,0,0,0,,,,,0,33,33,33,,,,,,,,,316.68240091699954,316.68240091699954,316.68240091699954,316.68240091699954,316.68240091699954,316.68240091699954,316.68240091699954,316.68240091699954,316.63771570866686,316.68240091699954,316.68240091699954,316.68240091699954,316.63771570866686,316.68240091699954,316.68240091699954,316.68240091699954,318.76809024999966,322.81950358299946,316.68240091699954,316.68240091699954,321.8431127920003,317.1587799580002,318.1736902499997,318.76809024999966,319.7864652919998,316.68240091699954,316.68240091699954,316.65438237533357,316.68240091699954,316.68240091699954,316.68240091699954,316.65438237533357,316.68240091699954,316.68240091699954,321.8431127920003,316.68240091699954,321.8431127920003,321.8912224579999,322.5362379170001,316.68240091699954,1,1,0.6323345830005564,reldom2_s012,001,2025-02-03_15h43.01.774,Vis-A-Scan_AC,2022.2.5,None,
26,First_Order,5.0,viswhat,stimulus/viswhat_stim/blank_white.png,stimulus/viswhat_stim/blank_white.png,stimulus/viswhat_stim/land_vehicle-rv.png,stimulus/viswhat_stim/land_animal-bunny.png,stimulus/viswhat_stim/blank_white.png,stimulus/viswhat_stim/type_box.png,stimulus/viswhat_stim/type_yes.png,stimulus/viswhat_stim/type_no.png,None,Type,None,Location,2,0.0,0,5.125,0,5.125,0,5.125,0,0.0,0.625,0,0.0,0,0.0,1,0.5,1,2.125,0,0,0,0,0,0,0,0,0,,,,,0,34,34,34,,,,,,,,,322.81950358299946,322.81950358299946,322.81950358299946,322.81950358299946,322.81950358299946,322.81950358299946,322.81950358299946,322.81950358299946,322.7311652080003,322.81950358299946,322.81950358299946,322.81950358299946,322.7311652080003,322.81950358299946,322.81950358299946,322.81950358299946,324.9066357499996,,322.81950358299946,322.81950358299946,328.01105491699946,323.3055524169995,324.3741165829997,324.9066357499996,325.9796477919999,322.81950358299946,322.81950358299946,322.7811652080003,322.81950358299946,322.81950358299946,322.81950358299946,322.7811652080003,322.81950358299946,322.81950358299946,328.01105491699946,322.81950358299946,328.01105491699946,328.01105491699946,328.69295166699976,322.81950358299946,2,1,1.1149377080000704,reldom2_s012,001,2025-02-03_15h43.01.774,Vis-A-Scan_AC,2022.2.5,None,
27,First_Order,5.0,viswhat,stimulus/viswhat_stim/blank_white.png,stimulus/viswhat_stim/blank_white.png,stimulus/viswhat_stim/land_animal-zebra.png,stimulus/viswhat_stim/land_vehicle-oldcar.png,stimulus/viswhat_stim/blank_white.png,stimulus/viswhat_stim/location_box.png,stimulus/viswhat_stim/location_yes.png,stimulus/viswhat_stim/location_no.png,None,Location,None,Location,1,0.0,0,5.125,0,5.125,0,5.125,0,0.0,0.625,0,0.0,0,0.0,1,0.5,1,2.125,0,0,0,0,0,0,0,0,0,,,,,0,35,35,35,,,,,,,,,328.9087617919995,328.9087617919995,328.9087617919995,328.9087617919995,328.9087617919995,328.9087617919995,328.9087617919995,328.9087617919995,328.84295166699974,328.9087617919995,328.9087617919995,328.9087617919995,328.84295166699974,328.9087617919995,328.9087617919995,328.9087617919995,331.0172613750001,334.98859337500016,328.9087617919995,328.9087617919995,334.0741048330001,329.3572762920003,330.38901474999966,331.0172613750001,332.05675625000003,328.9087617919995,328.9087617919995,328.8762850003331,328.9087617919995,328.9087617919995,328.9087617919995,328.8762850003331,328.9087617919995,328.9087617919995,334.0741048330001,328.9087617919995,334.0741048330001,334.11375212500025,334.77674087499963,328.9087617919995,1,1,0.5958927909996419,reldom2_s012,001,2025-02-03_15h43.01.774,Vis-A-Scan_AC,2022.2.5,None,
28,First_Order,5.0,viswhat,stimulus/viswhat_stim/blank_white.png,stimulus/viswhat_stim/blank_white.png,stimulus/viswhat_stim/water_vehicle-canoe.png,stimulus/viswhat_stim/land_vehicle-trolley.png,stimulus/viswhat_stim/blank_white.png,stimulus/viswhat_stim/type_box.png,stimulus/viswhat_stim/type_yes.png,stimulus/viswhat_stim/type_no.png,None,Type,None,Type,1,0.0,0,5.125,0,5.125,0,5.125,0,0.0,0.625,0,0.0,0,0.0,1,0.5,1,2.125,0,0,0,0,0,0,0,0,0,,,,,0,36,36,36,,,,,,,,,334.98859337500016,334.98859337500016,334.98859337500016,334.98859337500016,334.98859337500016,334.98859337500016,334.98859337500016,334.98859337500016,334.9486755833333,334.98859337500016,334.98859337500016,334.98859337500016,334.9486755833333,334.98859337500016,334.98859337500016,334.98859337500016,337.0950266250002,341.1271700420002,334.98859337500016,334.98859337500016,340.1271684579997,335.46162020799966,336.4906398329995,337.0950266250002,338.127099542,334.98859337500016,334.98859337500016,334.96534224999994,334.98859337500016,334.98859337500016,334.98859337500016,334.96534224999994,334.98859337500016,334.98859337500016,340.1271684579997,334.98859337500016,340.1271684579997,340.2093530000002,340.84530062500016,334.98859337500016,1,1,1.5677452079999057,reldom2_s012,001,2025-02-03_15h43.01.774,Vis-A-Scan_AC,2022.2.5,None,
0,0.0,None,fixation,stimulus/viswhat_stim/blank_white.png,stimulus/viswhat_stim/blank_white.png,stimulus/viswhere_stim/blank_white.png,stimulus/viswhere_stim/blank_white.png,stimulus/viswhat_stim/blank_white.png,stimulus/viswhat_stim/blank_white.png,stimulus/viswhat_stim/blank_white.png,stimulus/viswhat_stim/blank_white.png,0.0,0.0,0.0,0.0,0,0.0,0,0.0,0,0.0,0,0.0,0,0.0,0.0,0,0.0,0,0.0,0,0.0,0,0.0,0,0,0,0,0,0,0,0,9,,,,,0,37,37,37,,,,,,,,,341.1271700420002,341.1271700420002,341.1271700420002,341.1271700420002,341.1271700420002,341.1271700420002,341.1271700420002,341.1271700420002,341.0269902079995,341.1271700420002,341.1271700420002,341.1271700420002,341.0269902079995,341.1271700420002,341.1271700420002,341.1271700420002,341.1271700420002,341.1271700420002,341.1271700420002,341.1271700420002,341.1271700420002,341.1271700420002,341.1271700420002,341.1271700420002,341.1271700420002,341.1271700420002,341.1271700420002,341.07699020799953,341.1271700420002,341.1271700420002,341.1271700420002,341.07699020799953,341.1271700420002,341.1271700420002,341.1271700420002,341.1271700420002,341.1271700420002,346.3105807920001,346.3105807920001,350.25437970799976,None,0,,reldom2_s012,001,2025-02-03_15h43.01.774,Vis-A-Scan_AC,2022.2.5,None,
29,Second_Order,5.0,viswhat,stimulus/viswhat_stim/land_vehicle-schoolbus.png,stimulus/viswhat_stim/land_animal-snake.png,stimulus/viswhat_stim/water_vehicle-cruiser.png,stimulus/viswhat_stim/water_animal-whale.png,stimulus/viswhat_stim/match_blank.png,stimulus/viswhat_stim/match_box.png,stimulus/viswhat_stim/match_yes.png,stimulus/viswhat_stim/match_no.png,1.0,Match,Location,Location,1,5.125,0,5.125,0,5.125,0,5.125,0,0.75,0.75,1,0.5,1,2.125,1,0.5,1,2.125,0,0,0,0,0,0,0,0,0,,,,,0,38,38,38,,,,,,,,,350.25437970799976,355.3791240829996,350.72193270800017,351.72005770800024,352.3550485420001,353.3439937920002,350.25437970799976,350.25437970799976,350.2598712503333,350.25437970799976,350.25437970799976,350.25437970799976,350.2598712503333,350.25437970799976,355.3791240829996,356.2642462499998,358.2997177500001,362.25495125,356.2642462499998,356.2642462499998,361.4569578749997,356.68499879199953,357.74028541699954,358.2997177500001,359.35773345799953,356.2642462499998,356.2642462499998,356.1968221663331,356.2642462499998,356.2642462499998,356.2642462499998,356.1968221663331,356.2642462499998,356.2642462499998,361.4569578749997,356.2642462499998,361.4569578749997,361.4569578749997,,356.2642462499998,1,1,0.46702141700006905,reldom2_s012,001,2025-02-03_15h43.01.774,Vis-A-Scan_AC,2022.2.5,None,
30,Second_Order,5.0,viswhat,stimulus/viswhat_stim/land_vehicle-tank.png,stimulus/viswhat_stim/water_vehicle-cabincruiser.png,stimulus/viswhat_stim/land_animal-pig.png,stimulus/viswhat_stim/water_animal-stingray.png,stimulus/viswhat_stim/match_blank.png,stimulus/viswhat_stim/match_box.png,stimulus/viswhat_stim/match_yes.png,stimulus/viswhat_stim/match_no.png,1.0,Match,Type,Type,1,5.125,0,5.125,0,5.125,0,5.125,0,0.625,0.625,1,0.5,1,2.125,1,0.5,1,2.125,0,0,0,0,0,0,0,0,0,,,,,0,39,39,39,,,,,,,,,362.25495125,367.37786591700024,362.7151285,363.7011307920002,364.3491750000003,365.3389778749997,362.25495125,362.25495125,362.26775412466634,362.25495125,362.25495125,362.25495125,362.26775412466634,362.25495125,367.37786591700024,368.0414531669994,370.12183724999977,374.1801594999997,368.0414531669994,368.0414531669994,373.1855288329998,368.51075904200025,369.5174298330003,370.12183724999977,371.13054591699984,368.0414531669994,368.0414531669994,368.0245194163331,368.0414531669994,368.0414531669994,368.0414531669994,368.0245194163331,368.0414531669994,368.0414531669994,373.1855288329998,368.0414531669994,373.1855288329998,373.2521599169995,373.8857561670002,368.0414531669994,1,1,1.2582179580003867,reldom2_s012,001,2025-02-03_15h43.01.774,Vis-A-Scan_AC,2022.2.5,None,
0,0.0,None,fixation,stimulus/viswhat_stim/blank_white.png,stimulus/viswhat_stim/blank_white.png,stimulus/viswhere_stim/blank_white.png,stimulus/viswhere_stim/blank_white.png,stimulus/viswhat_stim/blank_white.png,stimulus/viswhat_stim/blank_white.png,stimulus/viswhat_stim/blank_white.png,stimulus/viswhat_stim/blank_white.png,0.0,0.0,0.0,0.0,0,0.0,0,0.0,0,0.0,0,0.0,0,0.0,0.0,0,0.0,0,0.0,0,0.0,0,0.0,0,0,0,0,0,0,0,0,10,,,,,0,40,40,40,,,,,,,,,374.1801594999997,374.1801594999997,374.1801594999997,374.1801594999997,374.1801594999997,374.1801594999997,374.1801594999997,374.1801594999997,374.0849579169995,374.1801594999997,374.1801594999997,374.1801594999997,374.0849579169995,374.1801594999997,374.1801594999997,374.1801594999997,374.1801594999997,374.1801594999997,374.1801594999997,374.1801594999997,374.1801594999997,374.1801594999997,374.1801594999997,374.1801594999997,374.1801594999997,374.1801594999997,374.1801594999997,374.1349579169995,374.1801594999997,374.1801594999997,374.1801594999997,374.1349579169995,374.1801594999997,374.1801594999997,374.1801594999997,374.1801594999997,374.1801594999997,379.40635991699946,379.40635991699946,384.4036662919998,None,0,,reldom2_s012,001,2025-02-03_15h43.01.774,Vis-A-Scan_AC,2022.2.5,None,
31,First_Order,6.0,viswhat,stimulus/viswhat_stim/blank_white.png,stimulus/viswhat_stim/blank_white.png,stimulus/viswhat_stim/land_vehicle-rv.png,stimulus/viswhat_stim/land_animal-ostrich.png,stimulus/viswhat_stim/blank_white.png,stimulus/viswhat_stim/type_box.png,stimulus/viswhat_stim/type_yes.png,stimulus/viswhat_stim/type_no.png,None,Type,None,Location,2,0.0,0,5.125,0,5.125,0,5.125,0,0.0,0.625,0,0.0,0,0.0,1,0.5,1,2.125,0,0,0,0,0,0,0,0,0,,,,,0,41,41,41,,,,,,,,,384.4036662919998,384.4036662919998,384.4036662919998,384.4036662919998,384.4036662919998,384.4036662919998,384.4036662919998,384.4036662919998,384.3684444166662,384.4036662919998,384.4036662919998,384.4036662919998,384.3684444166662,384.4036662919998,384.4036662919998,384.4036662919998,386.4952001249994,390.54588995799986,384.4036662919998,384.4036662919998,389.5514975420001,384.87138666699957,385.88296329199966,386.4952001249994,387.50771941699986,384.4036662919998,384.4036662919998,384.3851110833329,384.4036662919998,384.4036662919998,384.4036662919998,384.3851110833329,384.4036662919998,384.4036662919998,389.5514975420001,384.4036662919998,389.5514975420001,389.6273329579999,390.27144920799947,384.4036662919998,2,1,1.2558969580004486,reldom2_s012,001,2025-02-03_15h43.01.774,Vis-A-Scan_AC,2022.2.5,None,
32,First_Order,6.0,viswhat,stimulus/viswhat_stim/blank_white.png,stimulus/viswhat_stim/blank_white.png,stimulus/viswhat_stim/land_animal-moose.png,stimulus/viswhat_stim/water_animal-dolphin.png,stimulus/viswhat_stim/blank_white.png,stimulus/viswhat_stim/type_box.png,stimulus/viswhat_stim/type_yes.png,stimulus/viswhat_stim/type_no.png,None,Type,None,Type,1,0.0,0,5.125,0,5.125,0,5.125,0,0.0,0.625,0,0.0,0,0.0,1,0.5,1,2.125,0,0,0,0,0,0,0,0,0,,,,,0,42,42,42,,,,,,,,,390.54588995799986,390.54588995799986,390.54588995799986,390.54588995799986,390.54588995799986,390.54588995799986,390.54588995799986,390.54588995799986,390.44632145799966,390.54588995799986,390.54588995799986,390.54588995799986,390.44632145799966,390.54588995799986,390.54588995799986,390.54588995799986,392.6357406669995,396.6516254580001,390.54588995799986,390.54588995799986,395.730824792,391.0239871249996,392.0999892079999,392.6357406669995,393.7093448329997,390.54588995799986,390.54588995799986,390.49632145799967,390.54588995799986,390.54588995799986,390.54588995799986,390.49632145799967,390.54588995799986,390.54588995799986,395.730824792,390.54588995799986,395.730824792,395.730824792,396.43040949999977,390.54588995799986,1,1,1.0198128750007527,reldom2_s012,001,2025-02-03_15h43.01.774,Vis-A-Scan_AC,2022.2.5,None,
33,First_Order,6.0,viswhat,stimulus/viswhat_stim/blank_white.png,stimulus/viswhat_stim/blank_white.png,stimulus/viswhat_stim/land_vehicle-buldozer.png,stimulus/viswhat_stim/water_vehicle-canoe.png,stimulus/viswhat_stim/blank_white.png,stimulus/viswhat_stim/location_box.png,stimulus/viswhat_stim/location_yes.png,stimulus/viswhat_stim/location_no.png,None,Location,None,Type,2,0.0,0,5.125,0,5.125,0,5.125,0,0.0,0.625,0,0.0,0,0.0,1,0.5,1,2.125,0,0,0,0,0,0,0,0,0,,,,,0,43,43,43,,,,,,,,,396.6516254580001,396.6516254580001,396.6516254580001,396.6516254580001,396.6516254580001,396.6516254580001,396.6516254580001,396.6516254580001,396.5970761666664,396.6516254580001,396.6516254580001,396.6516254580001,396.5970761666664,396.6516254580001,396.6516254580001,396.6516254580001,398.756904375,402.7166605419998,396.6516254580001,396.6516254580001,401.8251803329995,397.1306139170001,398.1671164999998,398.756904375,399.79391266699986,396.6516254580001,396.6516254580001,396.63040949999976,396.6516254580001,396.6516254580001,396.6516254580001,396.63040949999976,396.6516254580001,396.6516254580001,401.8251803329995,396.6516254580001,401.8251803329995,401.8563961250002,402.50818145799985,396.6516254580001,2,1,1.266011540999898,reldom2_s012,001,2025-02-03_15h43.01.774,Vis-A-Scan_AC,2022.2.5,None,
34,First_Order,6.0,viswhat,stimulus/viswhat_stim/blank_white.png,stimulus/viswhat_stim/blank_white.png,stimulus/viswhat_stim/land_vehicle-scooter.png,stimulus/viswhat_stim/water_vehicle-motorboatraft.png,stimulus/viswhat_stim/blank_white.png,stimulus/viswhat_stim/location_box.png,stimulus/viswhat_stim/location_yes.png,stimulus/viswhat_stim/location_no.png,None,Location,None,Type,2,0.0,0,5.125,0,5.125,0,5.125,0,0.0,0.625,0,0.0,0,0.0,1,0.5,1,2.125,0,0,0,0,0,0,0,0,0,,,,,0,44,44,44,,,,,,,,,402.7166605419998,402.7166605419998,402.7166605419998,402.7166605419998,402.7166605419998,402.7166605419998,402.7166605419998,402.7166605419998,402.6867715416664,402.7166605419998,402.7166605419998,402.7166605419998,402.6867715416664,402.7166605419998,402.7166605419998,402.7166605419998,404.8291766249995,408.8610032919996,402.7166605419998,402.7166605419998,407.84406229199976,403.2072790000002,404.2117707919997,404.8291766249995,405.83789224999964,402.7166605419998,402.7166605419998,402.70343820833307,402.7166605419998,402.7166605419998,402.7166605419998,402.70343820833307,402.7166605419998,402.7166605419998,407.84406229199976,402.7166605419998,407.84406229199976,407.9377702080001,408.5693717080003,402.7166605419998,2,1,2.740925457999765,reldom2_s012,001,2025-02-03_15h43.01.774,Vis-A-Scan_AC,2022.2.5,None,
0,0.0,None,fixation,stimulus/viswhat_stim/blank_white.png,stimulus/viswhat_stim/blank_white.png,stimulus/viswhere_stim/blank_white.png,stimulus/viswhere_stim/blank_white.png,stimulus/viswhat_stim/blank_white.png,stimulus/viswhat_stim/blank_white.png,stimulus/viswhat_stim/blank_white.png,stimulus/viswhat_stim/blank_white.png,0.0,0.0,0.0,0.0,0,0.0,0,0.0,0,0.0,0,0.0,0,0.0,0.0,0,0.0,0,0.0,0,0.0,0,0.0,0,0,0,0,0,0,0,0,8,,,,,0,45,45,45,,,,,,,,,408.8610032919996,408.8610032919996,408.8610032919996,408.8610032919996,408.8610032919996,408.8610032919996,408.8610032919996,408.8610032919996,408.7528313333335,408.8610032919996,408.8610032919996,408.8610032919996,408.7528313333335,408.8610032919996,408.8610032919996,408.8610032919996,408.8610032919996,408.8610032919996,408.8610032919996,408.8610032919996,408.8610032919996,408.8610032919996,408.8610032919996,408.8610032919996,408.8610032919996,408.8610032919996,408.8610032919996,408.8194980000002,408.8610032919996,408.8610032919996,408.8610032919996,408.8194980000002,408.8610032919996,408.8610032919996,408.8610032919996,408.8610032919996,408.8610032919996,414.0588669580002,414.0588669580002,417.00693195799977,None,0,,reldom2_s012,001,2025-02-03_15h43.01.774,Vis-A-Scan_AC,2022.2.5,None,
35,Second_Order,6.0,viswhat,stimulus/viswhat_stim/land_vehicle-train.png,stimulus/viswhat_stim/land_animal-moose.png,stimulus/viswhat_stim/land_vehicle-schoolbus.png,stimulus/viswhat_stim/water_vehicle-sailboat.png,stimulus/viswhat_stim/match_blank.png,stimulus/viswhat_stim/match_box.png,stimulus/viswhat_stim/match_yes.png,stimulus/viswhat_stim/match_no.png,2.0,Match,Location,Type,2,5.125,0,5.125,0,5.125,0,5.125,0,0.75,0.75,1,0.5,1,2.125,1,0.5,1,2.125,0,0,0,0,0,0,0,0,0,,,,,0,46,46,46,,,,,,,,,417.00693195799977,422.1210008329999,417.4425646669997,418.4407875420002,419.08055933299966,420.07761158299945,417.00693195799977,417.00693195799977,417.01610679166663,417.00693195799977,417.00693195799977,417.00693195799977,417.01610679166663,417.00693195799977,422.1210008329999,422.9672632920001,425.01692399999956,,422.9672632920001,422.9672632920001,428.1215393329994,423.4405926669997,424.48962525000024,425.01692399999956,426.07503570799963,422.9672632920001,422.9672632920001,422.9216690836666,422.9672632920001,422.9672632920001,422.9672632920001,422.9216690836666,422.9672632920001,422.9672632920001,428.1215393329994,422.9672632920001,428.1215393329994,428.16816279199975,,422.9672632920001,2,1,1.0224080000007234,reldom2_s012,001,2025-02-03_15h43.01.774,Vis-A-Scan_AC,2022.2.5,None,
36,Second_Order,6.0,viswhat,stimulus/viswhat_stim/land_animal-moose.png,stimulus/viswhat_stim/land_vehicle-schoolbus.png,stimulus/viswhat_stim/land_vehicle-pickuptruck.png,stimulus/viswhat_stim/water_vehicle-canoe(1).png,stimulus/viswhat_stim/match_blank.png,stimulus/viswhat_stim/match_box.png,stimulus/viswhat_stim/match_yes.png,stimulus/viswhat_stim/match_no.png,2.0,Match,Location,Type,2,5.125,0,5.125,0,5.125,0,5.125,0,0.625,0.625,1,0.5,1,2.125,1,0.5,1,2.125,0,0,0,0,0,0,0,0,0,,,,,0,47,47,47,,,,,,,,,428.96666429200013,434.0811618329999,429.4033577499995,430.4012548749997,431.0367244580002,432.02525549999973,428.96666429200013,428.96666429200013,428.9732263749996,428.96666429200013,428.96666429200013,428.96666429200013,428.9732263749996,428.96666429200013,434.0811618329999,434.7449319999996,436.8378635829995,440.8884512079994,434.7449319999996,434.7449319999996,439.88660558299944,435.20661366700006,436.22283620799953,436.8378635829995,437.8583602919998,434.7449319999996,434.7449319999996,434.72815866633346,434.7449319999996,434.7449319999996,434.7449319999996,434.72815866633346,434.7449319999996,434.7449319999996,439.88660558299944,434.7449319999996,439.88660558299944,439.951656792,440.5768804170002,434.7449319999996,2,1,1.0425191660006021,reldom2_s012,001,2025-02-03_15h43.01.774,Vis-A-Scan_AC,2022.2.5,None,
0,0.0,None,fixation,stimulus/viswhat_stim/blank_white.png,stimulus/viswhat_stim/blank_white.png,stimulus/viswhere_stim/blank_white.png,stimulus/viswhere_stim/blank_white.png,stimulus/viswhat_stim/blank_white.png,stimulus/viswhat_stim/blank_white.png,stimulus/viswhat_stim/blank_white.png,stimulus/viswhat_stim/blank_white.png,0.0,0.0,0.0,0.0,0,0.0,0,0.0,0,0.0,0,0.0,0,0.0,0.0,0,0.0,0,0.0,0,0.0,0,0.0,0,0,0,0,0,0,0,0,8,,,,,0,48,48,48,,,,,,,,,440.8884512079994,440.8884512079994,440.8884512079994,440.8884512079994,440.8884512079994,440.8884512079994,440.8884512079994,440.8884512079994,440.7937484999998,440.8884512079994,440.8884512079994,440.8884512079994,440.7937484999998,440.8884512079994,440.8884512079994,440.8884512079994,440.8884512079994,440.8884512079994,440.8884512079994,440.8884512079994,440.8884512079994,440.8884512079994,440.8884512079994,440.8884512079994,440.8884512079994,440.8884512079994,440.8884512079994,440.84374849999983,440.8884512079994,440.8884512079994,440.8884512079994,440.84374849999983,440.8884512079994,440.8884512079994,440.8884512079994,440.8884512079994,440.8884512079994,446.0686336250001,446.0686336250001,449.08976062500005,None,0,,reldom2_s012,001,2025-02-03_15h43.01.774,Vis-A-Scan_AC,2022.2.5,None,
37,First_Order,7.0,viswhere,stimulus/viswhere_stim/blank_white.png,stimulus/viswhere_stim/blank_white.png,stimulus/viswhere_stim/120-deg_dot-right_turquoise.png,stimulus/viswhere_stim/120-deg_dot-left_slateblue.png,stimulus/viswhere_stim/blank_white.png,stimulus/viswhere_stim/line_box.png,stimulus/viswhere_stim/line_yes.png,stimulus/viswhere_stim/line_no.png,None,Line,None,Line,1,0.0,0,5.125,0,5.125,0,5.125,0,0.0,0.625,0,0.0,0,0.0,1,0.5,1,2.125,0,0,0,0,0,0,0,0,0,,,,,0,49,49,49,,,,,,,,,449.08976062500005,449.08976062500005,449.08976062500005,449.08976062500005,449.08976062500005,449.08976062500005,449.08976062500005,449.08976062500005,449.06579395866686,449.08976062500005,449.08976062500005,449.08976062500005,449.06579395866686,449.08976062500005,449.08976062500005,449.08976062500005,451.19910766700013,455.15359887500017,449.08976062500005,449.08976062500005,454.2182122920003,449.57791691700004,450.59421762500006,451.19910766700013,452.20314295800017,449.08976062500005,449.08976062500005,449.08246062533357,449.08976062500005,449.08976062500005,449.08976062500005,449.08246062533357,449.08976062500005,449.08976062500005,454.2182122920003,449.08976062500005,454.2182122920003,454.3167193749996,454.94856224999967,449.08976062500005,1,1,1.0273911660005979,reldom2_s012,001,2025-02-03_15h43.01.774,Vis-A-Scan_AC,2022.2.5,None,
38,First_Order,7.0,viswhere,stimulus/viswhere_stim/blank_white.png,stimulus/viswhere_stim/blank_white.png,stimulus/viswhere_stim/30-deg_dot-right_royalblue.png,stimulus/viswhere_stim/30-deg_dot-left_royalblue.png,stimulus/viswhere_stim/blank_white.png,stimulus/viswhere_stim/dot_box.png,stimulus/viswhere_stim/dot_yes.png,stimulus/viswhere_stim/dot_no.png,None,Dot,None,Line,2,0.0,0,5.125,0,5.125,0,5.125,0,0.0,0.625,0,0.0,0,0.0,1,0.5,1,2.125,0,0,0,0,0,0,0,0,0,,,,,0,50,50,50,,,,,,,,,455.15359887500017,455.15359887500017,455.15359887500017,455.15359887500017,455.15359887500017,455.15359887500017,455.15359887500017,455.15359887500017,455.1288299163328,455.15359887500017,455.15359887500017,455.15359887500017,455.1288299163328,455.15359887500017,455.15359887500017,455.15359887500017,457.26401437499953,461.2240858750001,455.15359887500017,455.15359887500017,460.2825734170001,455.64251562499976,456.6600843750002,457.26401437499953,458.2685819170001,455.15359887500017,455.15359887500017,455.14549658299944,455.15359887500017,455.15359887500017,455.15359887500017,455.14549658299944,455.15359887500017,455.15359887500017,460.2825734170001,455.15359887500017,460.2825734170001,460.38657774999956,461.01849462500013,455.15359887500017,2,1,0.8847400419999758,reldom2_s012,001,2025-02-03_15h43.01.774,Vis-A-Scan_AC,2022.2.5,None,
39,First_Order,7.0,viswhere,stimulus/viswhere_stim/blank_white.png,stimulus/viswhere_stim/blank_white.png,stimulus/viswhere_stim/150-deg_dot-left_peru.png,stimulus/viswhere_stim/30-deg_dot-left_goldenrod.png,stimulus/viswhere_stim/blank_white.png,stimulus/viswhere_stim/line_box.png,stimulus/viswhere_stim/line_yes.png,stimulus/viswhere_stim/line_no.png,None,Line,None,Dot,2,0.0,0,5.125,0,5.125,0,5.125,0,0.0,0.625,0,0.0,0,0.0,1,0.5,1,2.125,0,0,0,0,0,0,0,0,0,,,,,0,51,51,51,,,,,,,,,461.2240858750001,461.2240858750001,461.2240858750001,461.2240858750001,461.2240858750001,461.2240858750001,461.2240858750001,461.2240858750001,461.199092000333,461.2240858750001,461.2240858750001,461.2240858750001,461.199092000333,461.2240858750001,461.2240858750001,461.2240858750001,463.3363099999997,467.28394520799975,461.2240858750001,461.2240858750001,466.36036241700003,461.69900787499955,462.7068369999997,463.3363099999997,464.3480386250003,461.2240858750001,461.2240858750001,461.21575866699965,461.2240858750001,461.2240858750001,461.2240858750001,461.21575866699965,461.2240858750001,461.2240858750001,466.36036241700003,461.2240858750001,466.36036241700003,466.4504003330003,467.07462833299996,461.2240858750001,2,1,1.133411041000727,reldom2_s012,001,2025-02-03_15h43.01.774,Vis-A-Scan_AC,2022.2.5,None,
40,First_Order,7.0,viswhere,stimulus/viswhere_stim/blank_white.png,stimulus/viswhere_stim/blank_white.png,stimulus/viswhere_stim/120-deg_dot-left_royalblue.png,stimulus/viswhere_stim/120-deg_dot-right_slateblue.png,stimulus/viswhere_stim/blank_white.png,stimulus/viswhere_stim/dot_box.png,stimulus/viswhere_stim/dot_yes.png,stimulus/viswhere_stim/dot_no.png,None,Dot,None,Line,2,0.0,0,5.125,0,5.125,0,5.125,0,0.0,0.625,0,0.0,0,0.0,1,0.5,1,2.125,0,0,0,0,0,0,0,0,0,,,,,0,52,52,52,,,,,,,,,467.28394520799975,467.28394520799975,467.28394520799975,467.28394520799975,467.28394520799975,467.28394520799975,467.28394520799975,467.28394520799975,467.2604187083328,467.28394520799975,467.28394520799975,467.28394520799975,467.2604187083328,467.28394520799975,467.28394520799975,467.28394520799975,469.39435933299956,473.4296064580003,467.28394520799975,467.28394520799975,472.41426837499966,467.7748847920002,468.790885292,469.39435933299956,470.39776558299945,467.28394520799975,467.28394520799975,467.27708537499944,467.28394520799975,467.28394520799975,467.28394520799975,467.27708537499944,467.28394520799975,467.28394520799975,472.41426837499966,467.28394520799975,472.41426837499966,472.51185720800004,473.14326970799993,467.28394520799975,2,1,0.9463752910005496,reldom2_s012,001,2025-02-03_15h43.01.774,Vis-A-Scan_AC,2022.2.5,None,
0,0.0,None,fixation,stimulus/viswhat_stim/blank_white.png,stimulus/viswhat_stim/blank_white.png,stimulus/viswhere_stim/blank_white.png,stimulus/viswhere_stim/blank_white.png,stimulus/viswhat_stim/blank_white.png,stimulus/viswhat_stim/blank_white.png,stimulus/viswhat_stim/blank_white.png,stimulus/viswhat_stim/blank_white.png,0.0,0.0,0.0,0.0,0,0.0,0,0.0,0,0.0,0,0.0,0,0.0,0.0,0,0.0,0,0.0,0,0.0,0,0.0,0,0,0,0,0,0,0,0,9,,,,,0,53,53,53,,,,,,,,,473.4296064580003,473.4296064580003,473.4296064580003,473.4296064580003,473.4296064580003,473.4296064580003,473.4296064580003,473.4296064580003,473.3243426663333,473.4296064580003,473.4296064580003,473.4296064580003,473.3243426663333,473.4296064580003,473.4296064580003,473.4296064580003,473.4296064580003,473.4296064580003,473.4296064580003,473.4296064580003,473.4296064580003,473.4296064580003,473.4296064580003,473.4296064580003,473.4296064580003,473.4296064580003,473.4296064580003,473.3743426663333,473.4296064580003,473.4296064580003,473.4296064580003,473.3743426663333,473.4296064580003,473.4296064580003,473.4296064580003,473.4296064580003,473.4296064580003,478.6125002079998,478.6125002079998,482.5521900829999,None,0,,reldom2_s012,001,2025-02-03_15h43.01.774,Vis-A-Scan_AC,2022.2.5,None,
41,Second_Order,7.0,viswhere,stimulus/viswhere_stim/90-deg_dot-right_seagreen.png,stimulus/viswhere_stim/90-deg_dot-left_salmon.png,stimulus/viswhere_stim/60-deg_dot-left_slateblue.png,stimulus/viswhere_stim/60-deg_dot-right_lightsseagreen.png,stimulus/viswhat_stim/match_blank.png,stimulus/viswhat_stim/match_box.png,stimulus/viswhat_stim/match_yes.png,stimulus/viswhat_stim/match_no.png,1.0,Match,Line,Line,1,5.125,0,5.125,0,5.125,0,5.125,0,0.75,0.75,1,0.5,1,2.125,1,0.5,1,2.125,0,0,0,0,0,0,0,0,0,,,,,0,54,54,54,,,,,,,,,482.5521900829999,487.6717429999999,483.02681120800025,484.02554679199966,484.6598919580001,485.64943508299984,482.5521900829999,482.5521900829999,482.56409625033314,482.5521900829999,482.5521900829999,482.5521900829999,482.56409625033314,482.5521900829999,487.6717429999999,488.4534777500003,490.5524586669999,494.44081520799955,488.4534777500003,488.4534777500003,493.57975304199954,488.9248032919995,489.9460282079999,490.5524586669999,491.55937558299956,488.4534777500003,488.4534777500003,488.4399519583335,488.4534777500003,488.4534777500003,488.4534777500003,488.4399519583335,488.4534777500003,488.4534777500003,493.57975304199954,488.4534777500003,493.57975304199954,493.6800842499997,,488.4534777500003,1,1,0.6906717080000817,reldom2_s012,001,2025-02-03_15h43.01.774,Vis-A-Scan_AC,2022.2.5,None,
42,Second_Order,7.0,viswhere,stimulus/viswhere_stim/150-deg_dot-left_cyan.png,stimulus/viswhere_stim/60-deg_dot-left_royalblue.png,stimulus/viswhere_stim/30-deg_dot-right_mediumslateblue.png,stimulus/viswhere_stim/90-deg_dot-right_peru.png,stimulus/viswhat_stim/match_blank.png,stimulus/viswhat_stim/match_box.png,stimulus/viswhat_stim/match_yes.png,stimulus/viswhat_stim/match_no.png,1.0,Match,Dot,Dot,1,5.125,0,5.125,0,5.125,0,5.125,0,0.625,0.625,1,0.5,1,2.125,1,0.5,1,2.125,0,0,0,0,0,0,0,0,0,,,,,0,55,55,55,,,,,,,,,494.44081520799955,499.5614449579998,494.92139187500015,495.91932820799957,496.5421432080002,497.53949074999946,494.44081520799955,494.44081520799955,494.45353241699996,494.44081520799955,494.44081520799955,494.44081520799955,494.45353241699996,494.44081520799955,499.5614449579998,500.2221840000002,502.3262298749996,506.36501045800014,500.2221840000002,500.2221840000002,505.35967083299965,500.69336574999943,501.69671633300004,502.3262298749996,503.33206962500026,500.2221840000002,500.2221840000002,500.21235312533327,500.2221840000002,500.2221840000002,500.2221840000002,500.21235312533327,500.2221840000002,500.2221840000002,505.35967083299965,500.2221840000002,505.35967083299965,505.429538417,506.06125925000015,500.2221840000002,1,1,1.0341200830007438,reldom2_s012,001,2025-02-03_15h43.01.774,Vis-A-Scan_AC,2022.2.5,None,
0,0.0,None,fixation,stimulus/viswhat_stim/blank_white.png,stimulus/viswhat_stim/blank_white.png,stimulus/viswhere_stim/blank_white.png,stimulus/viswhere_stim/blank_white.png,stimulus/viswhat_stim/blank_white.png,stimulus/viswhat_stim/blank_white.png,stimulus/viswhat_stim/blank_white.png,stimulus/viswhat_stim/blank_white.png,0.0,0.0,0.0,0.0,0,0.0,0,0.0,0,0.0,0,0.0,0,0.0,0.0,0,0.0,0,0.0,0,0.0,0,0.0,0,0,0,0,0,0,0,0,8,,,,,0,56,56,56,,,,,,,,,506.36501045800014,506.36501045800014,506.36501045800014,506.36501045800014,506.36501045800014,506.36501045800014,506.36501045800014,506.36501045800014,506.2589636253336,506.36501045800014,506.36501045800014,506.36501045800014,506.2589636253336,506.36501045800014,506.36501045800014,506.36501045800014,506.36501045800014,506.36501045800014,506.36501045800014,506.36501045800014,506.36501045800014,506.36501045800014,506.36501045800014,506.36501045800014,506.36501045800014,506.36501045800014,506.36501045800014,506.32563029200026,506.36501045800014,506.36501045800014,506.36501045800014,506.32563029200026,506.36501045800014,506.36501045800014,506.36501045800014,506.36501045800014,506.36501045800014,511.5968975830001,511.5968975830001,514.5717475000001,None,0,,reldom2_s012,001,2025-02-03_15h43.01.774,Vis-A-Scan_AC,2022.2.5,None,
43,First_Order,8.0,viswhere,stimulus/viswhere_stim/blank_white.png,stimulus/viswhere_stim/blank_white.png,stimulus/viswhere_stim/150-deg_dot-left_lightsseagreen.png,stimulus/viswhere_stim/30-deg_dot-left_salmon.png,stimulus/viswhere_stim/blank_white.png,stimulus/viswhere_stim/dot_box.png,stimulus/viswhere_stim/dot_yes.png,stimulus/viswhere_stim/dot_no.png,None,Dot,None,Dot,1,0.0,0,5.125,0,5.125,0,5.125,0,0.0,0.625,0,0.0,0,0.0,1,0.5,1,2.125,0,0,0,0,0,0,0,0,0,,,,,0,57,57,57,,,,,,,,,514.5717475000001,514.5717475000001,514.5717475000001,514.5717475000001,514.5717475000001,514.5717475000001,514.5717475000001,514.5717475000001,514.5464829586668,514.5717475000001,514.5717475000001,514.5717475000001,514.5464829586668,514.5717475000001,514.5717475000001,514.5717475000001,516.6761450419999,520.6348457080003,514.5717475000001,514.5717475000001,519.7111561249994,515.0440702079995,516.048555292,516.6761450419999,517.6847824999995,514.5717475000001,514.5717475000001,514.5631496253335,514.5717475000001,514.5717475000001,514.5717475000001,514.5631496253335,514.5717475000001,514.5717475000001,519.7111561249994,514.5717475000001,519.7111561249994,519.7881613330001,520.4416560419995,514.5717475000001,1,1,1.0009875410005407,reldom2_s012,001,2025-02-03_15h43.01.774,Vis-A-Scan_AC,2022.2.5,None,
44,First_Order,8.0,viswhere,stimulus/viswhere_stim/blank_white.png,stimulus/viswhere_stim/blank_white.png,stimulus/viswhere_stim/150-deg_dot-right_seagreen.png,stimulus/viswhere_stim/150-deg_dot-left_goldenrod.png,stimulus/viswhere_stim/blank_white.png,stimulus/viswhere_stim/line_box.png,stimulus/viswhere_stim/line_yes.png,stimulus/viswhere_stim/line_no.png,None,Line,None,Line,1,0.0,0,5.125,0,5.125,0,5.125,0,0.0,0.625,0,0.0,0,0.0,1,0.5,1,2.125,0,0,0,0,0,0,0,0,0,,,,,0,58,58,58,,,,,,,,,520.6348457080003,520.6348457080003,520.6348457080003,520.6348457080003,520.6348457080003,520.6348457080003,520.6348457080003,520.6348457080003,520.6084656253337,520.6348457080003,520.6348457080003,520.6348457080003,520.6084656253337,520.6348457080003,520.6348457080003,520.6348457080003,522.7340531669997,526.700329792,520.6348457080003,520.6348457080003,525.7582936669996,521.1106782079996,522.1225975420002,522.7340531669997,523.75198275,520.6348457080003,520.6348457080003,520.6251322920003,520.6348457080003,520.6348457080003,520.6348457080003,520.6251322920003,520.6348457080003,520.6348457080003,525.7582936669996,520.6348457080003,525.7582936669996,525.8631874579996,526.5057672920002,520.6348457080003,1,1,0.8759877080010483,reldom2_s012,001,2025-02-03_15h43.01.774,Vis-A-Scan_AC,2022.2.5,None,
45,First_Order,8.0,viswhere,stimulus/viswhere_stim/blank_white.png,stimulus/viswhere_stim/blank_white.png,stimulus/viswhere_stim/150-deg_dot-left_seagreen.png,stimulus/viswhere_stim/60-deg_dot-left_turquoise.png,stimulus/viswhere_stim/blank_white.png,stimulus/viswhere_stim/dot_box.png,stimulus/viswhere_stim/dot_yes.png,stimulus/viswhere_stim/dot_no.png,None,Dot,None,Dot,1,0.0,0,5.125,0,5.125,0,5.125,0,0.0,0.625,0,0.0,0,0.0,1,0.5,1,2.125,0,0,0,0,0,0,0,0,0,,,,,0,59,59,59,,,,,,,,,526.700329792,526.700329792,526.700329792,526.700329792,526.700329792,526.700329792,526.700329792,526.700329792,526.6758484583328,526.700329792,526.700329792,526.700329792,526.6758484583328,526.700329792,526.700329792,526.700329792,528.8057966249999,532.7619192080001,526.700329792,526.700329792,531.8225672079998,527.1921768749999,528.1979468749996,528.8057966249999,529.8152560419994,526.700329792,526.700329792,526.6925151249994,526.700329792,526.700329792,526.700329792,526.6925151249994,526.700329792,526.700329792,531.8225672079998,526.700329792,531.8225672079998,531.9216362079997,532.5530474999996,526.700329792,1,1,0.9567334170005779,reldom2_s012,001,2025-02-03_15h43.01.774,Vis-A-Scan_AC,2022.2.5,None,
46,First_Order,8.0,viswhere,stimulus/viswhere_stim/blank_white.png,stimulus/viswhere_stim/blank_white.png,stimulus/viswhere_stim/150-deg_dot-left_lightsseagreen.png,stimulus/viswhere_stim/60-deg_dot-left_royalblue.png,stimulus/viswhere_stim/blank_white.png,stimulus/viswhere_stim/line_box.png,stimulus/viswhere_stim/line_yes.png,stimulus/viswhere_stim/line_no.png,None,Line,None,Dot,2,0.0,0,5.125,0,5.125,0,5.125,0,0.0,0.625,0,0.0,0,0.0,1,0.5,1,2.125,0,0,0,0,0,0,0,0,0,,,,,0,60,60,60,,,,,,,,,532.7619192080001,532.7619192080001,532.7619192080001,532.7619192080001,532.7619192080001,532.7619192080001,532.7619192080001,532.7619192080001,532.7365941663332,532.7619192080001,532.7619192080001,532.7619192080001,532.7365941663332,532.7619192080001,532.7619192080001,532.7619192080001,534.8709298329995,538.9056248329998,532.7619192080001,532.7619192080001,537.8989549580001,533.2360990420002,534.2414682079998,534.8709298329995,535.8844892079996,532.7619192080001,532.7619192080001,532.7532608329999,532.7619192080001,532.7619192080001,532.7619192080001,532.7532608329999,532.7619192080001,532.7619192080001,537.8989549580001,532.7619192080001,537.8989549580001,537.9849928329995,538.6170057919999,532.7619192080001,2,1,1.4145266240011551,reldom2_s012,001,2025-02-03_15h43.01.774,Vis-A-Scan_AC,2022.2.5,None,
0,0.0,None,fixation,stimulus/viswhat_stim/blank_white.png,stimulus/viswhat_stim/blank_white.png,stimulus/viswhere_stim/blank_white.png,stimulus/viswhere_stim/blank_white.png,stimulus/viswhat_stim/blank_white.png,stimulus/viswhat_stim/blank_white.png,stimulus/viswhat_stim/blank_white.png,stimulus/viswhat_stim/blank_white.png,0.0,0.0,0.0,0.0,0,0.0,0,0.0,0,0.0,0,0.0,0,0.0,0.0,0,0.0,0,0.0,0,0.0,0,0.0,0,0,0,0,0,0,0,0,9,,,,,0,61,61,61,,,,,,,,,538.9056248329998,538.9056248329998,538.9056248329998,538.9056248329998,538.9056248329998,538.9056248329998,538.9056248329998,538.9056248329998,538.8004725003333,538.9056248329998,538.9056248329998,538.9056248329998,538.8004725003333,538.9056248329998,538.9056248329998,538.9056248329998,538.9056248329998,538.9056248329998,538.9056248329998,538.9056248329998,538.9056248329998,538.9056248329998,538.9056248329998,538.9056248329998,538.9056248329998,538.9056248329998,538.9056248329998,538.8504725003332,538.9056248329998,538.9056248329998,538.9056248329998,538.8504725003332,538.9056248329998,538.9056248329998,538.9056248329998,538.9056248329998,538.9056248329998,544.0957641249997,544.0957641249997,548.038808667,None,0,,reldom2_s012,001,2025-02-03_15h43.01.774,Vis-A-Scan_AC,2022.2.5,None,
47,Second_Order,8.0,viswhere,stimulus/viswhere_stim/120-deg_dot-left_goldenrod.png,stimulus/viswhere_stim/120-deg_dot-right_seagreen.png,stimulus/viswhere_stim/90-deg_dot-left_peru.png,stimulus/viswhere_stim/90-deg_dot-right_turquoise.png,stimulus/viswhat_stim/match_blank.png,stimulus/viswhat_stim/match_box.png,stimulus/viswhat_stim/match_yes.png,stimulus/viswhat_stim/match_no.png,1.0,Match,Line,Line,1,5.125,0,5.125,0,5.125,0,5.125,0,0.75,0.75,1,0.5,1,2.125,1,0.5,1,2.125,0,0,0,0,0,0,0,0,0,,,,,0,62,62,62,,,,,,,,,548.038808667,553.1567904169997,548.5095078329996,549.4963669999997,550.1446371669999,551.1336097920002,548.038808667,548.038808667,548.0505807083329,548.038808667,548.038808667,548.038808667,548.0505807083329,548.038808667,553.1567904169997,553.9262403329994,556.0368357079997,559.9198879999994,553.9262403329994,553.9262403329994,559.0641953329996,554.3994965419997,555.4048177499999,556.0368357079997,557.0496086249996,553.9262403329994,553.9262403329994,553.9062968336668,553.9262403329994,553.9262403329994,553.9262403329994,553.9062968336668,553.9262403329994,553.9262403329994,559.0641953329996,553.9262403329994,559.0641953329996,559.1501857499998,559.9198879999994,553.9262403329994,1,1,0.6762352910000118,reldom2_s012,001,2025-02-03_15h43.01.774,Vis-A-Scan_AC,2022.2.5,None,
48,Second_Order,8.0,viswhere,stimulus/viswhere_stim/150-deg_dot-right_salmon.png,stimulus/viswhere_stim/90-deg_dot-right_cyan.png,stimulus/viswhere_stim/60-deg_dot-left_mediumslateblue.png,stimulus/viswhere_stim/30-deg_dot-left_turquoise.png,stimulus/viswhat_stim/match_blank.png,stimulus/viswhat_stim/match_box.png,stimulus/viswhat_stim/match_yes.png,stimulus/viswhat_stim/match_no.png,1.0,Match,Dot,Dot,1,5.125,0,5.125,0,5.125,0,5.125,0,0.625,0.625,1,0.5,1,2.125,1,0.5,1,2.125,0,0,0,0,0,0,0,0,0,,,,,0,63,63,63,,,,,,,,,559.9198879999994,565.0340139999998,560.4051828330003,561.4036711669996,562.0271277499996,563.0241387079996,559.9198879999994,559.9198879999994,559.9325742500002,559.9198879999994,559.9198879999994,559.9198879999994,559.9325742500002,559.9198879999994,565.0340139999998,565.6921468749997,567.7764644170002,571.8270204170003,565.6921468749997,565.6921468749997,570.8270704999995,566.1654190829995,567.1678009999996,567.7764644170002,568.7842573329999,565.6921468749997,565.6921468749997,565.6800804583331,565.6921468749997,565.6921468749997,565.6921468749997,565.6800804583331,565.6921468749997,565.6921468749997,570.8270704999995,565.6921468749997,570.8270704999995,570.8970974169997,571.5261772080003,565.6921468749997,1,1,0.6857666659998358,reldom2_s012,001,2025-02-03_15h43.01.774,Vis-A-Scan_AC,2022.2.5,None,
0,0.0,None,fixation,stimulus/viswhat_stim/blank_white.png,stimulus/viswhat_stim/blank_white.png,stimulus/viswhere_stim/blank_white.png,stimulus/viswhere_stim/blank_white.png,stimulus/viswhat_stim/blank_white.png,stimulus/viswhat_stim/blank_white.png,stimulus/viswhat_stim/blank_white.png,stimulus/viswhat_stim/blank_white.png,0.0,0.0,0.0,0.0,0,0.0,0,0.0,0,0.0,0,0.0,0,0.0,0.0,0,0.0,0,0.0,0,0.0,0,0.0,0,0,0,0,0,0,0,0,16,,,,,0,64,64,64,,,,,,,,,571.8270204170003,571.8270204170003,571.8270204170003,571.8270204170003,571.8270204170003,571.8270204170003,571.8270204170003,571.8270204170003,571.7207584163328,571.8270204170003,571.8270204170003,571.8270204170003,571.7207584163328,571.8270204170003,571.8270204170003,571.8270204170003,571.8270204170003,571.8270204170003,571.8270204170003,571.8270204170003,571.8270204170003,571.8270204170003,571.8270204170003,571.8270204170003,571.8270204170003,571.8270204170003,571.8270204170003,571.7707584163328,571.8270204170003,571.8270204170003,571.8270204170003,571.7707584163328,571.8270204170003,571.8270204170003,571.8270204170003,571.8270204170003,571.8270204170003,577.0569153329998,577.0569153329998,587.991897375,None,0,,reldom2_s012,001,2025-02-03_15h43.01.774,Vis-A-Scan_AC,2022.2.5,None,
