Trial,Order,Block,Type,Stimuli_File1,Stimuli_File2,Stimuli_File3,Stimuli_File4,Cue_File1,Cue_File2,Response_File_Yes,Response_File_No,Match,Cue_Dimension,Pair1_Dimension,Pair2_Dimension,Key,Cue1_Duration,Cue1_Onset,Cue2_Duration,Cue2_Onset,ResponseYes_Duration,ResponseYes_Onset,ResponseNo_Duration,ResponseNo_Onset,ITI_Within,ITI_Between,Image1_Duration,Image1_Onset,Image2_Duration,Image2_Onset,Image3_Duration,Image3_Onset,Image4_Duration,Image4_Onset,Sound1_Duration,Sound1_Onset,Sound2_Duration,Sound2_Onset,Sound3_Duration,Sound3_Onset,Sound4_Duration,Sound4_Onset,Fixation_Duration,trials_2.thisRepN,trials_2.thisTrialN,trials_2.thisN,trials_2.thisIndex,trials.thisRepN,trials.thisTrialN,trials.thisN,trials.thisIndex,text_start.started,key_resp_start.started,key_resp_start.keys,key_resp_start.rt,text2.started,key_resp_2.started,key_resp_2.keys,key_resp_2.rt,cue_file1.started,cue_file1.stopped,image_1.started,image_1.stopped,image_2.started,image_2.stopped,sound_icon1.started,sound_icon1.stopped,sound_1.started,sound_1.stopped,sound_icon2.started,sound_icon2.stopped,sound_2.started,sound_2.stopped,image_blank_1.started,image_blank_1.stopped,key_press.started,key_press.stopped,fixation_text.started,cue_file2.started,cue_file2.stopped,image_3.started,image_3.stopped,image_4.started,image_4.stopped,sound_icon3.started,sound_icon3.stopped,sound_3.started,sound_3.stopped,sound_icon4.started,sound_icon4.stopped,sound_4.started,sound_4.stopped,response_yes.started,response_yes.stopped,response_no.started,response_no.stopped,iti_blank.started,iti_blank.stopped,fixation_text.stopped,key_press.keys,key_press.corr,key_press.rt,participant,session,date,expName,psychopyVersion,frameRate,
,,,,,,,,,,,,,,,,,,,,,,,,,,,,,,,,,,,,,,,,,,,,,,,,,,,,8.589997375000166,8.589997375000166,2,0.8132373329999609,,,,,,,,,,,,,,,,,,,,,,,,,,,,,,,,,,,,,,,,,,,,,,,,reldom2_s012,001,2025-02-03_15h07.48.442,What-A-Scan_AC,2022.2.5,None,
,,,,,,,,,,,,,,,,,,,,,,,,,,,,,,,,,,,,,,,,,,,,0,0,0,0,,,,,,,,,9.42006100000026,9.42006100000026,5,18.815157083999566,,,,,,,,,,,,,,,,,,,,,,,,,,,,,,,,,,,,,,,,,,,,reldom2_s012,001,2025-02-03_15h07.48.442,What-A-Scan_AC,2022.2.5,None,
,,,,,,,,,,,,,,,,,,,,,,,,,,,,,,,,,,,,,,,,,,,,1,0,1,0,,,,,,,,,28.250183416000255,28.250183416000255,5,1.9841948749999574,,,,,,,,,,,,,,,,,,,,,,,,,,,,,,,,,,,,,,,,,,,,reldom2_s012,001,2025-02-03_15h07.48.442,What-A-Scan_AC,2022.2.5,None,
,,,,,,,,,,,,,,,,,,,,,,,,,,,,,,,,,,,,,,,,,,,,2,0,2,0,,,,,,,,,30.24821679100023,30.24821679100023,5,1.9869939159998466,,,,,,,,,,,,,,,,,,,,,,,,,,,,,,,,,,,,,,,,,,,,reldom2_s012,001,2025-02-03_15h07.48.442,What-A-Scan_AC,2022.2.5,None,
,,,,,,,,,,,,,,,,,,,,,,,,,,,,,,,,,,,,,,,,,,,,3,0,3,0,,,,,,,,,32.24001104099989,32.24001104099989,5,1.994821208999383,,,,,,,,,,,,,,,,,,,,,,,,,,,,,,,,,,,,,,,,,,,,reldom2_s012,001,2025-02-03_15h07.48.442,What-A-Scan_AC,2022.2.5,None,
0,0.0,None,fixation,stimulus/audwhat_stim/blank_white.png,stimulus/audwhat_stim/blank_white.png,stimulus/viswhat_stim/blank_white.png,stimulus/viswhat_stim/blank_white.png,stimulus/audwhat_stim/blank_white.png,stimulus/audwhat_stim/blank_white.png,stimulus/audwhat_stim/blank_white.png,stimulus/audwhat_stim/blank_white.png,0.0,0.0,0.0,0.0,0,0.0,0,0.0,0,0.0,0,0.0,0,0.0,0.0,0,0.0,0,0.0,0,0.0,0,0.0,0,0.0,0,0.0,0,0.0,0,0.0,16,,,,,0,0,0,0,,,,,,,,,34.43601741600014,34.43601741600014,34.43601741600014,34.43601741600014,34.43601741600014,34.43601741600014,34.43601741600014,34.43601741600014,34.34028466600021,34.43601741600014,34.43601741600014,34.43601741600014,34.34028466600021,34.43601741600014,34.43601741600014,34.43601741600014,34.43601741600014,34.43601741600014,34.43601741600014,34.43601741600014,34.43601741600014,34.43601741600014,34.43601741600014,34.43601741600014,34.43601741600014,34.43601741600014,34.43601741600014,34.390284666000206,34.43601741600014,34.43601741600014,34.43601741600014,34.390284666000206,34.43601741600014,34.43601741600014,34.43601741600014,34.43601741600014,34.43601741600014,39.61670404100005,39.61670404100005,50.64951612499999,None,0,,reldom2_s012,001,2025-02-03_15h07.48.442,What-A-Scan_AC,2022.2.5,None,
1,First_Order,1.0,audwhat,stimulus/audwhat_stim/dummy.wav,stimulus/audwhat_stim/dummy.wav,stimulus/audwhat_stim/percussion mallet_low-pitch_Dtri_loud.wav,stimulus/audwhat_stim/percussion xylophone_high-pitch_F_loud.wav,stimulus/audwhat_stim/blank_white.png,stimulus/audwhat_stim/pitch_box.png,stimulus/audwhat_stim/pitch_yes.png,stimulus/audwhat_stim/pitch_no.png,None,Pitch,None,Category,2,0.0,0,5.125,0,5.125,0,5.125,0,0.0,0.625,0,0.0,0,0.0,0,0.0,0,0.0,0,0.0,0,0.0,1,0.5,1,2.125,0,,,,,0,1,1,1,,,,,,,,,50.64951612499999,50.64951612499999,50.64951612499999,50.64951612499999,50.64951612499999,50.64951612499999,50.64951612499999,50.64951612499999,50.576605749999906,50.64951612499999,50.64951612499999,50.64951612499999,50.576605749999906,50.64951612499999,50.64951612499999,50.64951612499999,52.72637050000003,56.76584704100014,50.64951612499999,50.64951612499999,55.79726750000009,50.64951612499999,50.64951612499999,50.64951612499999,50.64951612499999,51.10309370799996,52.14038445799997,51.07412404166668,,52.72637050000003,53.769197749999876,52.697177416666605,53.769197749999876,50.64951612499999,55.79726750000009,50.64951612499999,55.79726750000009,55.876432625000234,56.55413029100009,50.64951612499999,2,1,2.915131291999842,reldom2_s012,001,2025-02-03_15h07.48.442,What-A-Scan_AC,2022.2.5,None,
2,First_Order,1.0,audwhat,stimulus/audwhat_stim/dummy.wav,stimulus/audwhat_stim/dummy.wav,stimulus/audwhat_stim/percussion xylophone_high-pitch_Dtri_loud.wav,stimulus/audwhat_stim/percussion mallet_low-pitch_D_loud.wav,stimulus/audwhat_stim/blank_white.png,stimulus/audwhat_stim/pitch_box.png,stimulus/audwhat_stim/pitch_yes.png,stimulus/audwhat_stim/pitch_no.png,None,Pitch,None,Category,2,0.0,0,5.125,0,5.125,0,5.125,0,0.0,0.625,0,0.0,0,0.0,0,0.0,0,0.0,0,0.0,0,0.0,1,0.5,1,2.125,0,,,,,0,2,2,2,,,,,,,,,56.76584704100014,56.76584704100014,56.76584704100014,56.76584704100014,56.76584704100014,56.76584704100014,56.76584704100014,56.76584704100014,56.687463624333425,56.76584704100014,56.76584704100014,56.76584704100014,56.687463624333425,56.76584704100014,56.76584704100014,56.76584704100014,58.851315333,62.89003150000008,56.76584704100014,56.76584704100014,61.926593624999896,56.76584704100014,56.76584704100014,56.76584704100014,56.76584704100014,57.2180659579999,58.26196725,57.189314707666895,58.26196725,58.851315333,59.890929125000184,58.82299887466685,,56.76584704100014,61.926593624999896,56.76584704100014,61.926593624999896,61.96637212499991,62.64168891600002,56.76584704100014,2,1,0.9618802079999114,reldom2_s012,001,2025-02-03_15h07.48.442,What-A-Scan_AC,2022.2.5,None,
3,First_Order,1.0,audwhat,stimulus/audwhat_stim/dummy.wav,stimulus/audwhat_stim/dummy.wav,stimulus/audwhat_stim/percussion mallet_low-pitch_F_loud.wav,stimulus/audwhat_stim/percussion xylophone_high-pitch_Ftri_loud.wav,stimulus/audwhat_stim/blank_white.png,stimulus/audwhat_stim/category_box.png,stimulus/audwhat_stim/category_yes.png,stimulus/audwhat_stim/category_no.png,None,Category,None,Category,1,0.0,0,5.125,0,5.125,0,5.125,0,0.0,0.625,0,0.0,0,0.0,0,0.0,0,0.0,0,0.0,0,0.0,1,0.5,1,2.125,0,,,,,0,3,3,3,,,,,,,,,62.89003150000008,62.89003150000008,62.89003150000008,62.89003150000008,62.89003150000008,62.89003150000008,62.89003150000008,62.89003150000008,62.814612708333364,62.89003150000008,62.89003150000008,62.89003150000008,62.814612708333364,62.89003150000008,62.89003150000008,62.89003150000008,64.98619858300026,69.00793445799991,62.89003150000008,62.89003150000008,68.03858412499994,62.89003150000008,62.89003150000008,62.89003150000008,62.89003150000008,63.345776500000284,64.39771891600003,63.317032332666955,64.3521894999999,64.98619858300026,66.03910654099991,64.95762099966693,65.99371512500011,62.89003150000008,68.03858412499994,62.89003150000008,68.03858412499994,68.11859391600001,68.7972342500002,62.89003150000008,1,1,0.6689921249994768,reldom2_s012,001,2025-02-03_15h07.48.442,What-A-Scan_AC,2022.2.5,None,
4,First_Order,1.0,audwhat,stimulus/audwhat_stim/dummy.wav,stimulus/audwhat_stim/dummy.wav,stimulus/audwhat_stim/percussion mallet_low-pitch_Dtri_loud.wav,stimulus/audwhat_stim/percussion mallet_high-pitch_F_loud.wav,stimulus/audwhat_stim/blank_white.png,stimulus/audwhat_stim/category_box.png,stimulus/audwhat_stim/category_yes.png,stimulus/audwhat_stim/category_no.png,None,Category,None,Category,1,0.0,0,5.125,0,5.125,0,5.125,0,0.0,0.625,0,0.0,0,0.0,0,0.0,0,0.0,0,0.0,0,0.0,1,0.5,1,2.125,0,,,,,0,4,4,4,,,,,,,,,69.00793445799991,69.00793445799991,69.00793445799991,69.00793445799991,69.00793445799991,69.00793445799991,69.00793445799991,69.00793445799991,68.93056758333353,69.00793445799991,69.00793445799991,69.00793445799991,68.93056758333353,69.00793445799991,69.00793445799991,69.00793445799991,71.11146970800019,75.14511504100028,69.00793445799991,69.00793445799991,74.18509441600008,69.00793445799991,69.00793445799991,69.00793445799991,69.00793445799991,69.46262529100022,70.51781133300028,69.43358483266663,70.47223191600006,71.11146970800019,72.16734420800003,71.08147533266653,,69.00793445799991,74.18509441600008,69.00793445799991,74.18509441600008,74.22587133300021,74.87435349999987,69.00793445799991,1,1,0.7120661670001027,reldom2_s012,001,2025-02-03_15h07.48.442,What-A-Scan_AC,2022.2.5,None,
0,0.0,None,fixation,stimulus/audwhat_stim/blank_white.png,stimulus/audwhat_stim/blank_white.png,stimulus/viswhat_stim/blank_white.png,stimulus/viswhat_stim/blank_white.png,stimulus/audwhat_stim/blank_white.png,stimulus/audwhat_stim/blank_white.png,stimulus/audwhat_stim/blank_white.png,stimulus/audwhat_stim/blank_white.png,0.0,0.0,0.0,0.0,0,0.0,0,0.0,0,0.0,0,0.0,0,0.0,0.0,0,0.0,0,0.0,0,0.0,0,0.0,0,0.0,0,0.0,0,0.0,0,0.0,10,,,,,0,5,5,5,,,,,,,,,75.14511504100028,75.14511504100028,75.14511504100028,75.14511504100028,75.14511504100028,75.14511504100028,75.14511504100028,75.14511504100028,75.04797883333333,75.14511504100028,75.14511504100028,75.14511504100028,75.04797883333333,75.14511504100028,75.14511504100028,75.14511504100028,75.14511504100028,75.14511504100028,75.14511504100028,75.14511504100028,75.14511504100028,75.14511504100028,75.14511504100028,75.14511504100028,75.14511504100028,75.14511504100028,75.14511504100028,75.09797883333334,75.14511504100028,75.14511504100028,75.14511504100028,75.09797883333334,75.14511504100028,75.14511504100028,75.14511504100028,75.14511504100028,75.14511504100028,80.34082775000024,80.34082775000024,85.32579479100013,None,0,,reldom2_s012,001,2025-02-03_15h07.48.442,What-A-Scan_AC,2022.2.5,None,
5,Second_Order,1.0,audwhat,stimulus/audwhat_stim/string cello_low-pitch_D_loud.wav,stimulus/audwhat_stim/string viola_high-pitch_Dtri_loud.wav,stimulus/audwhat_stim/percussion mallet_low-pitch_D_loud.wav,stimulus/audwhat_stim/string viola_low-pitch_D_loud.wav,stimulus/audwhat_stim/match_blank.png,stimulus/audwhat_stim/match_box.png,stimulus/audwhat_stim/match_yes.png,stimulus/audwhat_stim/match_no.png,2.0,Match,Category,Pitch,2,5.125,0,5.125,0,5.125,0,5.125,0,0.75,0.75,0,0.0,0,0.0,0,0.0,0,0.0,1,0.5,1,2.125,1,0.5,1,2.125,0,,,,,0,6,6,6,,,,,,,,,85.32579479100013,90.44093537500021,85.32579479100013,85.32579479100013,85.32579479100013,85.32579479100013,85.7807062500001,86.77822645800006,85.7930578326666,,87.40264212500006,88.39858437500015,87.41359383266696,,90.44093537500021,91.2717889999999,93.36993154099991,97.2800615000001,91.2717889999999,91.2717889999999,96.43958116600015,91.2717889999999,91.2717889999999,91.2717889999999,91.2717889999999,91.7261899160003,92.77850458300009,91.69733920766681,92.73324058300022,93.36993154099991,94.42648162500018,93.34115020766673,,91.2717889999999,96.43958116600015,91.2717889999999,96.43958116600015,96.47958308299985,,91.2717889999999,2,1,0.9422899159999361,reldom2_s012,001,2025-02-03_15h07.48.442,What-A-Scan_AC,2022.2.5,None,
6,Second_Order,1.0,audwhat,stimulus/audwhat_stim/string cello_high-pitch_Dtri_loud.wav,stimulus/audwhat_stim/percussion mallet_high-pitch_Dtri_loud.wav,stimulus/audwhat_stim/percussion mallet_low-pitch_Ftri_loud.wav,stimulus/audwhat_stim/string cello_low-pitch_Ftri_loud.wav,stimulus/audwhat_stim/match_blank.png,stimulus/audwhat_stim/match_box.png,stimulus/audwhat_stim/match_yes.png,stimulus/audwhat_stim/match_no.png,1.0,Match,Pitch,Pitch,1,5.125,0,5.125,0,5.125,0,5.125,0,0.625,0.625,0,0.0,0,0.0,0,0.0,0,0.0,1,0.5,1,2.125,1,0.5,1,2.125,0,,,,,0,7,7,7,,,,,,,,,97.2800615000001,102.40182387499999,97.2800615000001,97.2800615000001,97.2800615000001,97.2800615000001,97.73668275,98.72680983300006,97.73972804166694,,99.3616937910001,100.35988066600021,99.37360554166686,100.36784533299988,102.40182387499999,103.11164179100024,105.20925783300027,,103.11164179100024,103.11164179100024,108.26444829100001,103.11164179100024,103.11164179100024,103.11164179100024,103.11164179100024,103.56542024999999,104.61853016600026,103.53678333266659,104.57318220800016,105.20925783300027,106.2595839579999,105.18023899966671,,103.11164179100024,108.26444829100001,103.11164179100024,108.26444829100001,108.30614541600016,108.99012166600005,103.11164179100024,1,1,1.5471616249997169,reldom2_s012,001,2025-02-03_15h07.48.442,What-A-Scan_AC,2022.2.5,None,
0,0.0,None,fixation,stimulus/audwhat_stim/blank_white.png,stimulus/audwhat_stim/blank_white.png,stimulus/viswhat_stim/blank_white.png,stimulus/viswhat_stim/blank_white.png,stimulus/audwhat_stim/blank_white.png,stimulus/audwhat_stim/blank_white.png,stimulus/audwhat_stim/blank_white.png,stimulus/audwhat_stim/blank_white.png,0.0,0.0,0.0,0.0,0,0.0,0,0.0,0,0.0,0,0.0,0,0.0,0.0,0,0.0,0,0.0,0,0.0,0,0.0,0,0.0,0,0.0,0,0.0,0,0.0,9,,,,,0,8,8,8,,,,,,,,,109.22118883300027,109.22118883300027,109.22118883300027,109.22118883300027,109.22118883300027,109.22118883300027,109.22118883300027,109.22118883300027,109.12345499933338,109.22118883300027,109.22118883300027,109.22118883300027,109.12345499933338,109.22118883300027,109.22118883300027,109.22118883300027,109.22118883300027,109.22118883300027,109.22118883300027,109.22118883300027,109.22118883300027,109.22118883300027,109.22118883300027,109.22118883300027,109.22118883300027,109.22118883300027,109.22118883300027,109.17345499933339,109.22118883300027,109.22118883300027,109.22118883300027,109.17345499933339,109.22118883300027,109.22118883300027,109.22118883300027,109.22118883300027,109.22118883300027,114.41962720800029,114.41962720800029,118.48158591599986,None,0,,reldom2_s012,001,2025-02-03_15h07.48.442,What-A-Scan_AC,2022.2.5,None,
7,First_Order,2.0,audwhat,stimulus/audwhat_stim/dummy.wav,stimulus/audwhat_stim/dummy.wav,stimulus/audwhat_stim/string cello_low-pitch_F_loud.wav,stimulus/audwhat_stim/percussion mallet_low-pitch_F_loud.wav,stimulus/audwhat_stim/blank_white.png,stimulus/audwhat_stim/pitch_box.png,stimulus/audwhat_stim/pitch_yes.png,stimulus/audwhat_stim/pitch_no.png,None,Pitch,None,Pitch,1,0.0,0,5.125,0,5.125,0,5.125,0,0.0,0.625,0,0.0,0,0.0,0,0.0,0,0.0,0,0.0,0,0.0,1,0.5,1,2.125,0,,,,,0,9,9,9,,,,,,,,,118.48158591599986,118.48158591599986,118.48158591599986,118.48158591599986,118.48158591599986,118.48158591599986,118.48158591599986,118.48158591599986,118.41024204166676,118.48158591599986,118.48158591599986,118.48158591599986,118.41024204166676,118.48158591599986,118.48158591599986,118.48158591599986,120.55747358300005,,118.48158591599986,118.48158591599986,123.64588195800025,118.48158591599986,118.48158591599986,118.48158591599986,118.48158591599986,118.9429929160001,120.00383783300003,118.91326062466693,,120.55747358300005,121.61842400000023,120.52790474966675,,118.48158591599986,123.64588195800025,118.48158591599986,123.64588195800025,123.68642120799996,124.37403212500021,118.48158591599986,1,1,1.864656291999836,reldom2_s012,001,2025-02-03_15h07.48.442,What-A-Scan_AC,2022.2.5,None,
8,First_Order,2.0,audwhat,stimulus/audwhat_stim/dummy.wav,stimulus/audwhat_stim/dummy.wav,stimulus/audwhat_stim/string cello_low-pitch_Dtri_loud.wav,stimulus/audwhat_stim/percussion mallet_low-pitch_Dtri_loud.wav,stimulus/audwhat_stim/blank_white.png,stimulus/audwhat_stim/category_box.png,stimulus/audwhat_stim/category_yes.png,stimulus/audwhat_stim/category_no.png,None,Category,None,Pitch,2,0.0,0,5.125,0,5.125,0,5.125,0,0.0,0.625,0,0.0,0,0.0,0,0.0,0,0.0,0,0.0,0,0.0,1,0.5,1,2.125,0,,,,,0,10,10,10,,,,,,,,,124.58666949999997,124.58666949999997,124.58666949999997,124.58666949999997,124.58666949999997,124.58666949999997,124.58666949999997,124.58666949999997,124.50736545833354,124.58666949999997,124.58666949999997,124.58666949999997,124.50736545833354,124.58666949999997,124.58666949999997,124.58666949999997,126.67860195799994,,124.58666949999997,124.58666949999997,129.74403516600023,124.58666949999997,124.58666949999997,124.58666949999997,124.58666949999997,125.0494347910003,126.11854600000015,125.01951716666669,,126.67860195799994,127.7496943330002,126.64828949966683,,124.58666949999997,129.74403516600023,124.58666949999997,129.74403516600023,129.78473120800027,130.43941133299995,124.58666949999997,2,1,0.6841024159994049,reldom2_s012,001,2025-02-03_15h07.48.442,What-A-Scan_AC,2022.2.5,None,
9,First_Order,2.0,audwhat,stimulus/audwhat_stim/dummy.wav,stimulus/audwhat_stim/dummy.wav,stimulus/audwhat_stim/string cello_high-pitch_F_loud.wav,stimulus/audwhat_stim/percussion mallet_high-pitch_F_loud.wav,stimulus/audwhat_stim/blank_white.png,stimulus/audwhat_stim/pitch_box.png,stimulus/audwhat_stim/pitch_yes.png,stimulus/audwhat_stim/pitch_no.png,None,Pitch,None,Pitch,1,0.0,0,5.125,0,5.125,0,5.125,0,0.0,0.625,0,0.0,0,0.0,0,0.0,0,0.0,0,0.0,0,0.0,1,0.5,1,2.125,0,,,,,0,11,11,11,,,,,,,,,130.6955022080001,130.6955022080001,130.6955022080001,130.6955022080001,130.6955022080001,130.6955022080001,130.6955022080001,130.6955022080001,130.61369083333344,130.6955022080001,130.6955022080001,130.6955022080001,130.61369083333344,130.6955022080001,130.6955022080001,130.6955022080001,132.7764660830003,,130.6955022080001,130.6955022080001,135.88187954100022,130.6955022080001,130.6955022080001,130.6955022080001,130.6955022080001,131.15812991600023,132.22066533299994,131.12840770766687,,132.7764660830003,133.845996,132.74600029166666,,130.6955022080001,135.88187954100022,130.6955022080001,135.88187954100022,135.9227840409999,136.57367787500016,130.6955022080001,1,1,0.48143104199971276,reldom2_s012,001,2025-02-03_15h07.48.442,What-A-Scan_AC,2022.2.5,None,
10,First_Order,2.0,audwhat,stimulus/audwhat_stim/dummy.wav,stimulus/audwhat_stim/dummy.wav,stimulus/audwhat_stim/percussion xylophone_high-pitch_D_loud.wav,stimulus/audwhat_stim/string cello_high-pitch_D_loud.wav,stimulus/audwhat_stim/blank_white.png,stimulus/audwhat_stim/category_box.png,stimulus/audwhat_stim/category_yes.png,stimulus/audwhat_stim/category_no.png,None,Category,None,Pitch,2,0.0,0,5.125,0,5.125,0,5.125,0,0.0,0.625,0,0.0,0,0.0,0,0.0,0,0.0,0,0.0,0,0.0,1,0.5,1,2.125,0,,,,,0,12,12,12,,,,,,,,,136.78947741599995,136.78947741599995,136.78947741599995,136.78947741599995,136.78947741599995,136.78947741599995,136.78947741599995,136.78947741599995,136.7070112083335,136.78947741599995,136.78947741599995,136.78947741599995,136.7070112083335,136.78947741599995,136.78947741599995,136.78947741599995,138.8943461660001,,136.78947741599995,136.78947741599995,141.9754357910001,136.78947741599995,136.78947741599995,136.78947741599995,136.78947741599995,137.25470029100006,138.33359425000026,137.2252809576669,138.28687433300001,138.8943461660001,139.9688128329999,138.8646235416666,,136.78947741599995,141.9754357910001,136.78947741599995,141.9754357910001,142.01708208299988,142.67310212500024,136.78947741599995,2,1,0.9019879579996086,reldom2_s012,001,2025-02-03_15h07.48.442,What-A-Scan_AC,2022.2.5,None,
0,0.0,None,fixation,stimulus/audwhat_stim/blank_white.png,stimulus/audwhat_stim/blank_white.png,stimulus/viswhat_stim/blank_white.png,stimulus/viswhat_stim/blank_white.png,stimulus/audwhat_stim/blank_white.png,stimulus/audwhat_stim/blank_white.png,stimulus/audwhat_stim/blank_white.png,stimulus/audwhat_stim/blank_white.png,0.0,0.0,0.0,0.0,0,0.0,0,0.0,0,0.0,0,0.0,0,0.0,0.0,0,0.0,0,0.0,0,0.0,0,0.0,0,0.0,0,0.0,0,0.0,0,0.0,10,,,,,0,13,13,13,,,,,,,,,142.90682025000024,142.90682025000024,142.90682025000024,142.90682025000024,142.90682025000024,142.90682025000024,142.90682025000024,142.90682025000024,142.8064354583336,142.90682025000024,142.90682025000024,142.90682025000024,142.8064354583336,142.90682025000024,142.90682025000024,142.90682025000024,142.90682025000024,142.90682025000024,142.90682025000024,142.90682025000024,142.90682025000024,142.90682025000024,142.90682025000024,142.90682025000024,142.90682025000024,142.90682025000024,142.90682025000024,142.85643545833358,142.90682025000024,142.90682025000024,142.90682025000024,142.85643545833358,142.90682025000024,142.90682025000024,142.90682025000024,142.90682025000024,142.90682025000024,148.09088900000006,148.09088900000006,153.05674950000002,None,0,,reldom2_s012,001,2025-02-03_15h07.48.442,What-A-Scan_AC,2022.2.5,None,
11,Second_Order,2.0,audwhat,stimulus/audwhat_stim/string viola_high-pitch_D_loud.wav,stimulus/audwhat_stim/percussion xylophone_high-pitch_D_loud.wav,stimulus/audwhat_stim/percussion mallet_low-pitch_F_loud.wav,stimulus/audwhat_stim/string viola_low-pitch_F_loud.wav,stimulus/audwhat_stim/match_blank.png,stimulus/audwhat_stim/match_box.png,stimulus/audwhat_stim/match_yes.png,stimulus/audwhat_stim/match_no.png,1.0,Match,Pitch,Pitch,1,5.125,0,5.125,0,5.125,0,5.125,0,0.75,0.75,0,0.0,0,0.0,0,0.0,0,0.0,1,0.5,1,2.125,1,0.5,1,2.125,0,,,,,0,14,14,14,,,,,,,,,153.05674950000002,158.1768440830001,153.05674950000002,153.05674950000002,153.05674950000002,153.05674950000002,153.51536075000013,154.5044559160001,153.51875008266668,,155.14094087500007,156.13831254100023,155.15240266666686,156.14636158300027,158.1768440830001,159.01094841600025,161.08920045800005,,159.01094841600025,159.01094841600025,164.19376224999996,159.01094841600025,159.01094841600025,159.01094841600025,159.01094841600025,159.47043970799996,160.5348065000003,159.44085058266663,,161.08920045800005,162.154467416,161.05968791666672,,159.01094841600025,164.19376224999996,159.01094841600025,164.19376224999996,164.19376224999996,,159.01094841600025,1,1,2.53362637500004,reldom2_s012,001,2025-02-03_15h07.48.442,What-A-Scan_AC,2022.2.5,None,
12,Second_Order,2.0,audwhat,stimulus/audwhat_stim/percussion mallet_high-pitch_Dtri_loud.wav,stimulus/audwhat_stim/string viola_high-pitch_Dtri_loud.wav,stimulus/audwhat_stim/string viola_low-pitch_Dtri_loud.wav,stimulus/audwhat_stim/percussion mallet_low-pitch_Dtri_loud.wav,stimulus/audwhat_stim/match_blank.png,stimulus/audwhat_stim/match_box.png,stimulus/audwhat_stim/match_yes.png,stimulus/audwhat_stim/match_no.png,1.0,Match,Pitch,Pitch,1,5.125,0,5.125,0,5.125,0,5.125,0,0.625,0.625,0,0.0,0,0.0,0,0.0,0,0.0,1,0.5,1,2.125,1,0.5,1,2.125,0,,,,,0,15,15,15,,,,,,,,,165.00575887500008,170.12462679100008,165.00575887500008,165.00575887500008,165.00575887500008,165.00575887500008,165.4635685000003,166.4617856660002,165.4763197496666,166.470249041,167.08512412500022,168.08209925000028,167.0970739576667,,170.12462679100008,170.83529725000017,172.9051696659999,176.955624833,170.83529725000017,170.83529725000017,175.99127079100026,170.83529725000017,170.83529725000017,170.83529725000017,170.83529725000017,171.29381775000002,172.35318320800025,171.26398787466658,,172.9051696659999,173.96447366600023,172.87572733266668,,170.83529725000017,175.99127079100026,170.83529725000017,175.99127079100026,176.0310421250001,176.6839002910001,170.83529725000017,1,1,0.8214974169995912,reldom2_s012,001,2025-02-03_15h07.48.442,What-A-Scan_AC,2022.2.5,None,
0,0.0,None,fixation,stimulus/audwhat_stim/blank_white.png,stimulus/audwhat_stim/blank_white.png,stimulus/viswhat_stim/blank_white.png,stimulus/viswhat_stim/blank_white.png,stimulus/audwhat_stim/blank_white.png,stimulus/audwhat_stim/blank_white.png,stimulus/audwhat_stim/blank_white.png,stimulus/audwhat_stim/blank_white.png,0.0,0.0,0.0,0.0,0,0.0,0,0.0,0,0.0,0,0.0,0,0.0,0.0,0,0.0,0,0.0,0,0.0,0,0.0,0,0.0,0,0.0,0,0.0,0,0.0,8,,,,,0,16,16,16,,,,,,,,,176.955624833,176.955624833,176.955624833,176.955624833,176.955624833,176.955624833,176.955624833,176.955624833,176.8572453743333,176.955624833,176.955624833,176.955624833,176.8572453743333,176.955624833,176.955624833,176.955624833,176.955624833,176.955624833,176.955624833,176.955624833,176.955624833,176.955624833,176.955624833,176.955624833,176.955624833,176.955624833,176.955624833,176.90724537433329,176.955624833,176.955624833,176.955624833,176.90724537433329,176.955624833,176.955624833,176.955624833,176.955624833,176.955624833,182.14562945800026,182.14562945800026,185.3254677079999,None,0,,reldom2_s012,001,2025-02-03_15h07.48.442,What-A-Scan_AC,2022.2.5,None,
13,First_Order,3.0,viswhat,stimulus/viswhat_stim/blank_white.png,stimulus/viswhat_stim/blank_white.png,stimulus/viswhat_stim/water_vehicle-cruiseship.png,stimulus/viswhat_stim/land_vehicle-pickuptruck.png,stimulus/viswhat_stim/blank_white.png,stimulus/viswhat_stim/type_box.png,stimulus/viswhat_stim/type_yes.png,stimulus/viswhat_stim/type_no.png,None,Type,None,Type,1,0.0,0,5.125,0,5.125,0,5.125,0,0.0,0.625,0,0.0,0,0.0,1,0.5,1,2.125,0,0.0,0,0.0,0,0.0,0,0.0,0,,,,,0,17,17,17,,,,,,,,,185.3254677079999,185.3254677079999,185.3254677079999,185.3254677079999,185.3254677079999,185.3254677079999,185.3254677079999,185.3254677079999,185.12737266666653,185.3254677079999,185.3254677079999,185.3254677079999,185.12737266666653,185.3254677079999,185.3254677079999,185.3254677079999,187.3897914160002,,185.3254677079999,185.3254677079999,190.62290929100027,185.71833950000018,186.801620791,187.3897914160002,188.56929229100024,185.3254677079999,185.3254677079999,185.22737266666653,185.3254677079999,185.3254677079999,185.3254677079999,185.22737266666653,185.3254677079999,185.3254677079999,190.62290929100027,185.3254677079999,190.62290929100027,190.53063462499995,,185.3254677079999,1,1,1.0466042089997245,reldom2_s012,001,2025-02-03_15h07.48.442,What-A-Scan_AC,2022.2.5,None,
14,First_Order,3.0,viswhat,stimulus/viswhat_stim/blank_white.png,stimulus/viswhat_stim/blank_white.png,stimulus/viswhat_stim/water_animal-lobster.png,stimulus/viswhat_stim/water_vehicle-cruiseship.png,stimulus/viswhat_stim/blank_white.png,stimulus/viswhat_stim/location_box.png,stimulus/viswhat_stim/location_yes.png,stimulus/viswhat_stim/location_no.png,None,Location,None,Location,1,0.0,0,5.125,0,5.125,0,5.125,0,0.0,0.625,0,0.0,0,0.0,1,0.5,1,2.125,0,0.0,0,0.0,0,0.0,0,0.0,0,,,,,0,18,18,18,,,,,,,,,191.7694633750002,191.7694633750002,191.7694633750002,191.7694633750002,191.7694633750002,191.7694633750002,191.7694633750002,191.7694633750002,191.31709154133364,191.7694633750002,191.7694633750002,191.7694633750002,191.31709154133364,191.7694633750002,191.7694633750002,191.7694633750002,193.7865508750001,,191.7694633750002,191.7694633750002,197.1457821250001,192.22015658300006,193.56231633300013,193.7865508750001,195.13782475000016,191.7694633750002,191.7694633750002,191.55042487466696,191.7694633750002,191.7694633750002,191.7694633750002,191.55042487466696,191.7694633750002,191.7694633750002,197.1457821250001,191.7694633750002,197.1457821250001,196.92832079100026,,191.7694633750002,1,1,1.1201609169997937,reldom2_s012,001,2025-02-03_15h07.48.442,What-A-Scan_AC,2022.2.5,None,
15,First_Order,3.0,viswhat,stimulus/viswhat_stim/blank_white.png,stimulus/viswhat_stim/blank_white.png,stimulus/viswhat_stim/water_vehicle-cruiseship.png,stimulus/viswhat_stim/land_vehicle-bus.png,stimulus/viswhat_stim/blank_white.png,stimulus/viswhat_stim/location_box.png,stimulus/viswhat_stim/location_yes.png,stimulus/viswhat_stim/location_no.png,None,Location,None,Type,2,0.0,0,5.125,0,5.125,0,5.125,0,0.0,0.625,0,0.0,0,0.0,1,0.5,1,2.125,0,0.0,0,0.0,0,0.0,0,0.0,0,,,,,0,19,19,19,,,,,,,,,197.83869562500013,197.83869562500013,197.83869562500013,197.83869562500013,197.83869562500013,197.83869562500013,197.83869562500013,197.83869562500013,197.62911545833344,197.83869562500013,197.83869562500013,197.83869562500013,197.62911545833344,197.83869562500013,197.83869562500013,197.83869562500013,199.88896779100014,,197.83869562500013,197.83869562500013,203.0639510000001,198.2509123330001,199.37740516600024,199.88896779100014,201.01624075000018,197.83869562500013,197.83869562500013,197.74578212500012,197.83869562500013,197.83869562500013,197.83869562500013,197.74578212500012,197.83869562500013,197.83869562500013,203.0639510000001,197.83869562500013,203.0639510000001,203.0639510000001,,197.83869562500013,2,1,1.817159874999561,reldom2_s012,001,2025-02-03_15h07.48.442,What-A-Scan_AC,2022.2.5,None,
16,First_Order,3.0,viswhat,stimulus/viswhat_stim/blank_white.png,stimulus/viswhat_stim/blank_white.png,stimulus/viswhat_stim/land_vehicle-oldcar.png,stimulus/viswhat_stim/water_vehicle-pirateship.png,stimulus/viswhat_stim/blank_white.png,stimulus/viswhat_stim/type_box.png,stimulus/viswhat_stim/type_yes.png,stimulus/viswhat_stim/type_no.png,None,Type,None,Type,1,0.0,0,5.125,0,5.125,0,5.125,0,0.0,0.625,0,0.0,0,0.0,1,0.5,1,2.125,0,0.0,0,0.0,0,0.0,0,0.0,0,,,,,0,20,20,20,,,,,,,,,203.87428954100005,203.87428954100005,203.87428954100005,203.87428954100005,203.87428954100005,203.87428954100005,203.87428954100005,203.87428954100005,203.79833370799997,203.87428954100005,203.87428954100005,203.87428954100005,203.79833370799997,203.87428954100005,203.87428954100005,203.87428954100005,205.95362787500017,210.0155199159999,203.87428954100005,203.87428954100005,209.03283041600025,204.3516761660003,205.3914266249999,205.95362787500017,207.00123079100013,203.87428954100005,203.87428954100005,203.83166704133333,203.87428954100005,203.87428954100005,203.87428954100005,203.83166704133333,203.87428954100005,203.87428954100005,209.03283041600025,203.87428954100005,209.03283041600025,209.07063358300002,209.746936,203.87428954100005,1,1,0.7629607919998307,reldom2_s012,001,2025-02-03_15h07.48.442,What-A-Scan_AC,2022.2.5,None,
0,0.0,None,fixation,stimulus/audwhat_stim/blank_white.png,stimulus/audwhat_stim/blank_white.png,stimulus/viswhat_stim/blank_white.png,stimulus/viswhat_stim/blank_white.png,stimulus/audwhat_stim/blank_white.png,stimulus/audwhat_stim/blank_white.png,stimulus/audwhat_stim/blank_white.png,stimulus/audwhat_stim/blank_white.png,0.0,0.0,0.0,0.0,0,0.0,0,0.0,0,0.0,0,0.0,0,0.0,0.0,0,0.0,0,0.0,0,0.0,0,0.0,0,0.0,0,0.0,0,0.0,0,0.0,9,,,,,0,21,21,21,,,,,,,,,210.0155199159999,210.0155199159999,210.0155199159999,210.0155199159999,210.0155199159999,210.0155199159999,210.0155199159999,210.0155199159999,209.9173543333333,210.0155199159999,210.0155199159999,210.0155199159999,209.9173543333333,210.0155199159999,210.0155199159999,210.0155199159999,210.0155199159999,210.0155199159999,210.0155199159999,210.0155199159999,210.0155199159999,210.0155199159999,210.0155199159999,210.0155199159999,210.0155199159999,210.0155199159999,210.0155199159999,209.96735433333328,210.0155199159999,210.0155199159999,210.0155199159999,209.96735433333328,210.0155199159999,210.0155199159999,210.0155199159999,210.0155199159999,210.0155199159999,215.22752929099988,215.22752929099988,219.18459366600018,None,0,,reldom2_s012,001,2025-02-03_15h07.48.442,What-A-Scan_AC,2022.2.5,None,
17,Second_Order,3.0,viswhat,stimulus/viswhat_stim/water_animal-shark.png,stimulus/viswhat_stim/water_vehicle-pirateship.png,stimulus/viswhat_stim/water_animal-squid.png,stimulus/viswhat_stim/land_animal-elephant.png,stimulus/audwhat_stim/match_blank.png,stimulus/audwhat_stim/match_box.png,stimulus/audwhat_stim/match_yes.png,stimulus/audwhat_stim/match_no.png,2.0,Match,Location,Type,2,5.125,0,5.125,0,5.125,0,5.125,0,0.75,0.75,1,0.5,1,2.125,1,0.5,1,2.125,0,0.0,0,0.0,0,0.0,0,0.0,0,,,,,0,22,22,22,,,,,,,,,219.18459366600018,224.30009900000005,219.63883041600002,220.6370269160002,221.27190441599987,222.26102450000008,219.18459366600018,219.18459366600018,219.1925681249999,219.18459366600018,219.18459366600018,219.18459366600018,219.1925681249999,219.18459366600018,224.30009900000005,225.1773262910001,227.25597558300024,,225.1773262910001,225.1773262910001,230.35779058300022,225.64508962499986,226.71932795800012,227.25597558300024,228.340882041,225.1773262910001,225.1773262910001,225.11711891633362,225.1773262910001,225.1773262910001,225.1773262910001,225.11711891633362,225.1773262910001,225.1773262910001,230.35779058300022,225.1773262910001,230.35779058300022,230.35779058300022,,225.1773262910001,2,1,0.8595292919999338,reldom2_s012,001,2025-02-03_15h07.48.442,What-A-Scan_AC,2022.2.5,None,
18,Second_Order,3.0,viswhat,stimulus/viswhat_stim/land_vehicle-pickuptruck.png,stimulus/viswhat_stim/water_vehicle-pirateship.png,stimulus/viswhat_stim/water_animal-jellyfish.png,stimulus/viswhat_stim/land_animal-snake.png,stimulus/audwhat_stim/match_blank.png,stimulus/audwhat_stim/match_box.png,stimulus/audwhat_stim/match_yes.png,stimulus/audwhat_stim/match_no.png,1.0,Match,Type,Type,1,5.125,0,5.125,0,5.125,0,5.125,0,0.625,0.625,1,0.5,1,2.125,1,0.5,1,2.125,0,0.0,0,0.0,0,0.0,0,0.0,0,,,,,0,23,23,23,,,,,,,,,231.11387783300006,236.2279275410001,231.58331295800008,232.58088316600015,233.2161021249999,234.2052157080002,231.11387783300006,231.11387783300006,231.1242504159999,231.11387783300006,231.11387783300006,231.11387783300006,231.1242504159999,231.11387783300006,236.2279275410001,236.89532854100025,238.9930396660002,243.0367133750001,236.89532854100025,236.89532854100025,242.04130575,237.36294216600027,238.38658283299992,238.9930396660002,240.0193585830002,236.89532854100025,236.89532854100025,236.87477724933348,236.89532854100025,236.89532854100025,236.89532854100025,236.87477724933348,236.89532854100025,236.89532854100025,242.04130575,236.89532854100025,242.04130575,242.10728462499992,242.74809633299992,236.89532854100025,1,1,0.5753628329998719,reldom2_s012,001,2025-02-03_15h07.48.442,What-A-Scan_AC,2022.2.5,None,
0,0.0,None,fixation,stimulus/audwhat_stim/blank_white.png,stimulus/audwhat_stim/blank_white.png,stimulus/viswhat_stim/blank_white.png,stimulus/viswhat_stim/blank_white.png,stimulus/audwhat_stim/blank_white.png,stimulus/audwhat_stim/blank_white.png,stimulus/audwhat_stim/blank_white.png,stimulus/audwhat_stim/blank_white.png,0.0,0.0,0.0,0.0,0,0.0,0,0.0,0,0.0,0,0.0,0,0.0,0.0,0,0.0,0,0.0,0,0.0,0,0.0,0,0.0,0,0.0,0,0.0,0,0.0,8,,,,,0,24,24,24,,,,,,,,,243.0367133750001,243.0367133750001,243.0367133750001,243.0367133750001,243.0367133750001,243.0367133750001,243.0367133750001,243.0367133750001,242.9362244160003,243.0367133750001,243.0367133750001,243.0367133750001,242.9362244160003,243.0367133750001,243.0367133750001,243.0367133750001,243.0367133750001,243.0367133750001,243.0367133750001,243.0367133750001,243.0367133750001,243.0367133750001,243.0367133750001,243.0367133750001,243.0367133750001,243.0367133750001,243.0367133750001,242.98622441600028,243.0367133750001,243.0367133750001,243.0367133750001,242.98622441600028,243.0367133750001,243.0367133750001,243.0367133750001,243.0367133750001,243.0367133750001,248.2596791660003,248.2596791660003,251.25396987500017,None,0,,reldom2_s012,001,2025-02-03_15h07.48.442,What-A-Scan_AC,2022.2.5,None,
19,First_Order,4.0,viswhat,stimulus/viswhat_stim/blank_white.png,stimulus/viswhat_stim/blank_white.png,stimulus/viswhat_stim/land_animal-wolf.png,stimulus/viswhat_stim/water_animal-squid.png,stimulus/viswhat_stim/blank_white.png,stimulus/viswhat_stim/location_box.png,stimulus/viswhat_stim/location_yes.png,stimulus/viswhat_stim/location_no.png,None,Location,None,Type,2,0.0,0,5.125,0,5.125,0,5.125,0,0.0,0.625,0,0.0,0,0.0,1,0.5,1,2.125,0,0.0,0,0.0,0,0.0,0,0.0,0,,,,,0,25,25,25,,,,,,,,,251.25396987500017,251.25396987500017,251.25396987500017,251.25396987500017,251.25396987500017,251.25396987500017,251.25396987500017,251.25396987500017,251.20894029166692,251.25396987500017,251.25396987500017,251.25396987500017,251.20894029166692,251.25396987500017,251.25396987500017,251.25396987500017,253.34483091599986,257.33790320800017,251.25396987500017,251.25396987500017,256.39167291600006,251.71660650000013,252.7326547910002,253.34483091599986,254.3645717909999,251.25396987500017,251.25396987500017,251.22560695833357,251.25396987500017,251.25396987500017,251.25396987500017,251.22560695833357,251.25396987500017,251.25396987500017,256.39167291600006,251.25396987500017,256.39167291600006,256.4667925409999,257.11674004099996,251.25396987500017,2,1,1.8066868749997411,reldom2_s012,001,2025-02-03_15h07.48.442,What-A-Scan_AC,2022.2.5,None,
20,First_Order,4.0,viswhat,stimulus/viswhat_stim/blank_white.png,stimulus/viswhat_stim/blank_white.png,stimulus/viswhat_stim/water_animal-jellyfish.png,stimulus/viswhat_stim/water_vehicle-motorboatraft.png,stimulus/viswhat_stim/blank_white.png,stimulus/viswhat_stim/location_box.png,stimulus/viswhat_stim/location_yes.png,stimulus/viswhat_stim/location_no.png,None,Location,None,Location,1,0.0,0,5.125,0,5.125,0,5.125,0,0.0,0.625,0,0.0,0,0.0,1,0.5,1,2.125,0,0.0,0,0.0,0,0.0,0,0.0,0,,,,,0,26,26,26,,,,,,,,,257.33790320800017,257.33790320800017,257.33790320800017,257.33790320800017,257.33790320800017,257.33790320800017,257.33790320800017,257.33790320800017,257.29144883299983,257.33790320800017,257.33790320800017,257.33790320800017,257.29144883299983,257.33790320800017,257.33790320800017,257.33790320800017,259.43673987500006,263.51338087500017,257.33790320800017,257.33790320800017,262.47941304100004,257.8072615410001,258.8304773750001,259.43673987500006,260.46418295800004,257.33790320800017,257.33790320800017,257.3247821663332,257.33790320800017,257.33790320800017,257.33790320800017,257.3247821663332,257.33790320800017,257.33790320800017,262.47941304100004,257.33790320800017,262.47941304100004,262.54480245800005,263.17740620799987,257.33790320800017,1,1,1.2640244999997776,reldom2_s012,001,2025-02-03_15h07.48.442,What-A-Scan_AC,2022.2.5,None,
21,First_Order,4.0,viswhat,stimulus/viswhat_stim/blank_white.png,stimulus/viswhat_stim/blank_white.png,stimulus/viswhat_stim/land_animal-elephant.png,stimulus/viswhat_stim/land_vehicle-buldozer.png,stimulus/viswhat_stim/blank_white.png,stimulus/viswhat_stim/type_box.png,stimulus/viswhat_stim/type_yes.png,stimulus/viswhat_stim/type_no.png,None,Type,None,Location,2,0.0,0,5.125,0,5.125,0,5.125,0,0.0,0.625,0,0.0,0,0.0,1,0.5,1,2.125,0,0.0,0,0.0,0,0.0,0,0.0,0,,,,,0,27,27,27,,,,,,,,,263.51338087500017,263.51338087500017,263.51338087500017,263.51338087500017,263.51338087500017,263.51338087500017,263.51338087500017,263.51338087500017,263.3860812909998,263.51338087500017,263.51338087500017,263.51338087500017,263.3860812909998,263.51338087500017,263.51338087500017,263.51338087500017,265.55864020800027,269.6447534580002,263.51338087500017,263.51338087500017,268.72749283300027,263.9358239580001,264.99674970800015,265.55864020800027,266.617622666,263.51338087500017,263.51338087500017,263.4527479576665,263.51338087500017,263.51338087500017,263.51338087500017,263.4527479576665,263.51338087500017,263.51338087500017,268.72749283300027,263.51338087500017,268.72749283300027,268.72749283300027,269.6447534580002,263.51338087500017,1,0,3.1012451669994334,reldom2_s012,001,2025-02-03_15h07.48.442,What-A-Scan_AC,2022.2.5,None,
22,First_Order,4.0,viswhat,stimulus/viswhat_stim/blank_white.png,stimulus/viswhat_stim/blank_white.png,stimulus/viswhat_stim/water_animal-shark.png,stimulus/viswhat_stim/water_vehicle-cabincruiser.png,stimulus/viswhat_stim/blank_white.png,stimulus/viswhat_stim/type_box.png,stimulus/viswhat_stim/type_yes.png,stimulus/viswhat_stim/type_no.png,None,Type,None,Location,2,0.0,0,5.125,0,5.125,0,5.125,0,0.0,0.625,0,0.0,0,0.0,1,0.5,1,2.125,0,0.0,0,0.0,0,0.0,0,0.0,0,,,,,0,28,28,28,,,,,,,,,269.6447534580002,269.6447534580002,269.6447534580002,269.6447534580002,269.6447534580002,269.6447534580002,269.6447534580002,269.6447534580002,269.55680766633344,269.6447534580002,269.6447534580002,269.6447534580002,269.55680766633344,269.6447534580002,269.6447534580002,269.6447534580002,271.7168071250003,,269.6447534580002,269.6447534580002,274.8036367909999,270.1253603330001,271.187326708,271.7168071250003,272.78065295800025,269.6447534580002,269.6447534580002,269.6068076663334,269.6447534580002,269.6447534580002,269.6447534580002,269.6068076663334,269.6447534580002,269.6447534580002,274.8036367909999,269.6447534580002,274.8036367909999,274.846132958,275.5252259580002,269.6447534580002,2,1,1.4665513749996535,reldom2_s012,001,2025-02-03_15h07.48.442,What-A-Scan_AC,2022.2.5,None,
0,0.0,None,fixation,stimulus/audwhat_stim/blank_white.png,stimulus/audwhat_stim/blank_white.png,stimulus/viswhat_stim/blank_white.png,stimulus/viswhat_stim/blank_white.png,stimulus/audwhat_stim/blank_white.png,stimulus/audwhat_stim/blank_white.png,stimulus/audwhat_stim/blank_white.png,stimulus/audwhat_stim/blank_white.png,0.0,0.0,0.0,0.0,0,0.0,0,0.0,0,0.0,0,0.0,0,0.0,0.0,0,0.0,0,0.0,0,0.0,0,0.0,0,0.0,0,0.0,0,0.0,0,0.0,9,,,,,0,29,29,29,,,,,,,,,275.7671614159999,275.7671614159999,275.7671614159999,275.7671614159999,275.7671614159999,275.7671614159999,275.7671614159999,275.7671614159999,275.6585592913335,275.7671614159999,275.7671614159999,275.7671614159999,275.6585592913335,275.7671614159999,275.7671614159999,275.7671614159999,275.7671614159999,275.7671614159999,275.7671614159999,275.7671614159999,275.7671614159999,275.7671614159999,275.7671614159999,275.7671614159999,275.7671614159999,275.7671614159999,275.7671614159999,275.7252259580002,275.7671614159999,275.7671614159999,275.7671614159999,275.7252259580002,275.7671614159999,275.7671614159999,275.7671614159999,275.7671614159999,275.7671614159999,280.99425795800016,280.99425795800016,284.90202425000007,None,0,,reldom2_s012,001,2025-02-03_15h07.48.442,What-A-Scan_AC,2022.2.5,None,
23,Second_Order,4.0,viswhat,stimulus/viswhat_stim/water_vehicle-canoe(1).png,stimulus/viswhat_stim/land_vehicle-vespa.png,stimulus/viswhat_stim/land_animal-dog.png,stimulus/viswhat_stim/water_animal-jellyfish.png,stimulus/audwhat_stim/match_blank.png,stimulus/audwhat_stim/match_box.png,stimulus/audwhat_stim/match_yes.png,stimulus/audwhat_stim/match_no.png,1.0,Match,Type,Type,1,5.125,0,5.125,0,5.125,0,5.125,0,0.75,0.75,1,0.5,1,2.125,1,0.5,1,2.125,0,0.0,0,0.0,0,0.0,0,0.0,0,,,,,0,30,30,30,,,,,,,,,284.90202425000007,290.018542583,285.3696114160002,286.35855520799987,286.99457812499986,287.99296458300023,284.90202425000007,284.90202425000007,284.91607712500024,284.90202425000007,284.90202425000007,284.90202425000007,284.91607712500024,284.90202425000007,290.018542583,290.81301462500005,292.9177802080003,296.80100900000025,290.81301462500005,290.81301462500005,295.95496616599985,291.2736127500002,292.31296420800027,292.9177802080003,293.9353967080001,290.81301462500005,290.81301462500005,290.7857114583335,290.81301462500005,290.81301462500005,290.81301462500005,290.7857114583335,290.81301462500005,290.81301462500005,295.95496616599985,290.81301462500005,295.95496616599985,296.02464599999985,,290.81301462500005,1,1,0.5634707079998407,reldom2_s012,001,2025-02-03_15h07.48.442,What-A-Scan_AC,2022.2.5,None,
24,Second_Order,4.0,viswhat,stimulus/viswhat_stim/land_vehicle-tank.png,stimulus/viswhat_stim/water_vehicle-canoe(1).png,stimulus/viswhat_stim/water_animal-orka.png,stimulus/viswhat_stim/water_vehicle-cabincruiser.png,stimulus/audwhat_stim/match_blank.png,stimulus/audwhat_stim/match_box.png,stimulus/audwhat_stim/match_yes.png,stimulus/audwhat_stim/match_no.png,2.0,Match,Type,Location,2,5.125,0,5.125,0,5.125,0,5.125,0,0.625,0.625,1,0.5,1,2.125,1,0.5,1,2.125,0,0.0,0,0.0,0,0.0,0,0.0,0,,,,,0,31,31,31,,,,,,,,,296.80100900000025,301.92471324999997,297.2849590830001,298.283526791,298.90705816599984,299.903305583,296.80100900000025,296.80100900000025,296.8091820826667,296.80100900000025,296.80100900000025,296.80100900000025,296.8091820826667,296.80100900000025,301.92471324999997,302.70977645799985,304.75263358300026,,302.70977645799985,302.70977645799985,307.8976632500003,303.18026450000025,304.281953791,304.75263358300026,305.85195620800005,302.70977645799985,302.70977645799985,302.64280700000023,302.70977645799985,302.70977645799985,302.70977645799985,302.64280700000023,302.70977645799985,302.70977645799985,307.8976632500003,302.70977645799985,307.8976632500003,307.8976632500003,,302.70977645799985,2,1,1.2491744169997219,reldom2_s012,001,2025-02-03_15h07.48.442,What-A-Scan_AC,2022.2.5,None,
0,0.0,None,fixation,stimulus/audwhat_stim/blank_white.png,stimulus/audwhat_stim/blank_white.png,stimulus/viswhat_stim/blank_white.png,stimulus/viswhat_stim/blank_white.png,stimulus/audwhat_stim/blank_white.png,stimulus/audwhat_stim/blank_white.png,stimulus/audwhat_stim/blank_white.png,stimulus/audwhat_stim/blank_white.png,0.0,0.0,0.0,0.0,0,0.0,0,0.0,0,0.0,0,0.0,0,0.0,0.0,0,0.0,0,0.0,0,0.0,0,0.0,0,0.0,0,0.0,0,0.0,0,0.0,9,,,,,0,32,32,32,,,,,,,,,308.7854474999999,308.7854474999999,308.7854474999999,308.7854474999999,308.7854474999999,308.7854474999999,308.7854474999999,308.7854474999999,308.6816594580002,308.7854474999999,308.7854474999999,308.7854474999999,308.6816594580002,308.7854474999999,308.7854474999999,308.7854474999999,308.7854474999999,308.7854474999999,308.7854474999999,308.7854474999999,308.7854474999999,308.7854474999999,308.7854474999999,308.7854474999999,308.7854474999999,308.7854474999999,308.7854474999999,308.7316594580002,308.7854474999999,308.7854474999999,308.7854474999999,308.7316594580002,308.7854474999999,308.7854474999999,308.7854474999999,308.7854474999999,308.7854474999999,313.97528654100006,313.97528654100006,318.025518291,None,0,,reldom2_s012,001,2025-02-03_15h07.48.442,What-A-Scan_AC,2022.2.5,None,
25,First_Order,5.0,audwhat,stimulus/audwhat_stim/dummy.wav,stimulus/audwhat_stim/dummy.wav,stimulus/audwhat_stim/string cello_low-pitch_Dtri_loud.wav,stimulus/audwhat_stim/percussion mallet_low-pitch_Dtri_loud.wav,stimulus/audwhat_stim/blank_white.png,stimulus/audwhat_stim/pitch_box.png,stimulus/audwhat_stim/pitch_yes.png,stimulus/audwhat_stim/pitch_no.png,None,Pitch,None,Pitch,1,0.0,0,5.125,0,5.125,0,5.125,0,0.0,0.625,0,0.0,0,0.0,0,0.0,0,0.0,0,0.0,0,0.0,1,0.5,1,2.125,0,,,,,0,33,33,33,,,,,,,,,318.025518291,318.025518291,318.025518291,318.025518291,318.025518291,318.025518291,318.025518291,318.025518291,317.95165566666685,318.025518291,318.025518291,318.025518291,317.95165566666685,318.025518291,318.025518291,318.025518291,320.13180116600006,,318.025518291,318.025518291,323.21908808299986,318.025518291,318.025518291,318.025518291,318.025518291,318.49599795799986,319.57222649999994,318.4649820826669,,320.13180116600006,321.16347216600025,320.10177774966655,,318.025518291,323.21908808299986,318.025518291,323.21908808299986,323.21908808299986,323.87638129100014,318.025518291,1,1,2.3918602499998087,reldom2_s012,001,2025-02-03_15h07.48.442,What-A-Scan_AC,2022.2.5,None,
26,First_Order,5.0,audwhat,stimulus/audwhat_stim/dummy.wav,stimulus/audwhat_stim/dummy.wav,stimulus/audwhat_stim/string cello_low-pitch_F_loud.wav,stimulus/audwhat_stim/percussion mallet_low-pitch_F_loud.wav,stimulus/audwhat_stim/blank_white.png,stimulus/audwhat_stim/pitch_box.png,stimulus/audwhat_stim/pitch_yes.png,stimulus/audwhat_stim/pitch_no.png,None,Pitch,None,Pitch,1,0.0,0,5.125,0,5.125,0,5.125,0,0.0,0.625,0,0.0,0,0.0,0,0.0,0,0.0,0,0.0,0,0.0,1,0.5,1,2.125,0,,,,,0,34,34,34,,,,,,,,,324.1325578330002,324.1325578330002,324.1325578330002,324.1325578330002,324.1325578330002,324.1325578330002,324.1325578330002,324.1325578330002,324.0502813333334,324.1325578330002,324.1325578330002,324.1325578330002,324.0502813333334,324.1325578330002,324.1325578330002,324.1325578330002,326.2389829580002,,324.1325578330002,324.1325578330002,329.3253785830002,324.1325578330002,324.1325578330002,324.1325578330002,324.1325578330002,324.6006860000002,325.630679333,324.5703528326669,,326.2389829580002,327.27273912500004,326.2071225416669,,324.1325578330002,329.3253785830002,324.1325578330002,329.3253785830002,329.3253785830002,329.98262020799984,324.1325578330002,1,1,0.6464812919998622,reldom2_s012,001,2025-02-03_15h07.48.442,What-A-Scan_AC,2022.2.5,None,
27,First_Order,5.0,audwhat,stimulus/audwhat_stim/dummy.wav,stimulus/audwhat_stim/dummy.wav,stimulus/audwhat_stim/string cello_high-pitch_D_loud.wav,stimulus/audwhat_stim/percussion mallet_high-pitch_D_loud.wav,stimulus/audwhat_stim/blank_white.png,stimulus/audwhat_stim/category_box.png,stimulus/audwhat_stim/category_yes.png,stimulus/audwhat_stim/category_no.png,None,Category,None,Pitch,2,0.0,0,5.125,0,5.125,0,5.125,0,0.0,0.625,0,0.0,0,0.0,0,0.0,0,0.0,0,0.0,0,0.0,1,0.5,1,2.125,0,,,,,0,35,35,35,,,,,,,,,330.2414698329999,330.2414698329999,330.2414698329999,330.2414698329999,330.2414698329999,330.2414698329999,330.2414698329999,330.2414698329999,330.15646058333334,330.2414698329999,330.2414698329999,330.2414698329999,330.15646058333334,330.2414698329999,330.2414698329999,330.2414698329999,332.315874333,,330.2414698329999,330.2414698329999,335.42085691600005,330.2414698329999,330.2414698329999,330.2414698329999,330.2414698329999,330.7137605410003,331.75045016600006,330.68283029166673,,332.315874333,333.35342812499994,332.2847255826666,,330.2414698329999,335.42085691600005,330.2414698329999,335.42085691600005,335.46271108300016,336.12280120800006,330.2414698329999,2,1,2.0444130409996433,reldom2_s012,001,2025-02-03_15h07.48.442,What-A-Scan_AC,2022.2.5,None,
28,First_Order,5.0,audwhat,stimulus/audwhat_stim/dummy.wav,stimulus/audwhat_stim/dummy.wav,stimulus/audwhat_stim/percussion mallet_low-pitch_Ftri_loud.wav,stimulus/audwhat_stim/percussion mallet_high-pitch_F_loud.wav,stimulus/audwhat_stim/blank_white.png,stimulus/audwhat_stim/category_box.png,stimulus/audwhat_stim/category_yes.png,stimulus/audwhat_stim/category_no.png,None,Category,None,Category,1,0.0,0,5.125,0,5.125,0,5.125,0,0.0,0.625,0,0.0,0,0.0,0,0.0,0,0.0,0,0.0,0,0.0,1,0.5,1,2.125,0,,,,,0,36,36,36,,,,,,,,,336.34082241600026,336.34082241600026,336.34082241600026,336.34082241600026,336.34082241600026,336.34082241600026,336.34082241600026,336.34082241600026,336.2561345413334,336.34082241600026,336.34082241600026,336.34082241600026,336.2561345413334,336.34082241600026,336.34082241600026,336.34082241600026,338.4136119580003,,336.34082241600026,336.34082241600026,341.52182700000003,336.34082241600026,336.34082241600026,336.34082241600026,336.34082241600026,336.8096331659999,337.84675641600006,336.7792202496669,,338.4136119580003,339.4521465830003,338.3827205826667,,336.34082241600026,341.52182700000003,336.34082241600026,341.52182700000003,341.56339987499996,342.22421266599986,336.34082241600026,1,1,0.8375726669996766,reldom2_s012,001,2025-02-03_15h07.48.442,What-A-Scan_AC,2022.2.5,None,
0,0.0,None,fixation,stimulus/audwhat_stim/blank_white.png,stimulus/audwhat_stim/blank_white.png,stimulus/viswhat_stim/blank_white.png,stimulus/viswhat_stim/blank_white.png,stimulus/audwhat_stim/blank_white.png,stimulus/audwhat_stim/blank_white.png,stimulus/audwhat_stim/blank_white.png,stimulus/audwhat_stim/blank_white.png,0.0,0.0,0.0,0.0,0,0.0,0,0.0,0,0.0,0,0.0,0,0.0,0.0,0,0.0,0,0.0,0,0.0,0,0.0,0,0.0,0,0.0,0,0.0,0,0.0,8,,,,,0,37,37,37,,,,,,,,,342.4630054580002,342.4630054580002,342.4630054580002,342.4630054580002,342.4630054580002,342.4630054580002,342.4630054580002,342.4630054580002,342.3575459993332,342.4630054580002,342.4630054580002,342.4630054580002,342.3575459993332,342.4630054580002,342.4630054580002,342.4630054580002,342.4630054580002,342.4630054580002,342.4630054580002,342.4630054580002,342.4630054580002,342.4630054580002,342.4630054580002,342.4630054580002,342.4630054580002,342.4630054580002,342.4630054580002,342.4075459993332,342.4630054580002,342.4630054580002,342.4630054580002,342.4075459993332,342.4630054580002,342.4630054580002,342.4630054580002,342.4630054580002,342.4630054580002,347.65236770799993,347.65236770799993,350.61389050000025,None,0,,reldom2_s012,001,2025-02-03_15h07.48.442,What-A-Scan_AC,2022.2.5,None,
29,Second_Order,5.0,audwhat,stimulus/audwhat_stim/percussion xylophone_high-pitch_Dtri_loud.wav,stimulus/audwhat_stim/percussion mallet_low-pitch_Ftri_loud.wav,stimulus/audwhat_stim/string viola_high-pitch_Ftri_loud.wav,stimulus/audwhat_stim/string viola_low-pitch_Dtri_loud.wav,stimulus/audwhat_stim/match_blank.png,stimulus/audwhat_stim/match_box.png,stimulus/audwhat_stim/match_yes.png,stimulus/audwhat_stim/match_no.png,1.0,Match,Category,Category,1,5.125,0,5.125,0,5.125,0,5.125,0,0.75,0.75,0,0.0,0,0.0,0,0.0,0,0.0,1,0.5,1,2.125,1,0.5,1,2.125,0,,,,,0,38,38,38,,,,,,,,,350.61389050000025,355.73793950000027,350.61389050000025,350.61389050000025,350.61389050000025,350.61389050000025,351.07113075000007,352.0652824160002,351.07453741666654,352.0652824160002,352.69687354100006,353.69369912499997,352.7082786246667,353.7019828749999,355.73793950000027,356.5678817500002,358.66829925,362.5752729159999,356.5678817500002,356.5678817500002,361.756298625,356.5678817500002,356.5678817500002,356.5678817500002,356.5678817500002,357.0331630410001,358.10453529100005,357.00311362466687,,358.66829925,359.7011367079999,358.63864124966653,,356.5678817500002,361.756298625,356.5678817500002,361.756298625,361.756298625,,356.5678817500002,1,1,0.43002562499987107,reldom2_s012,001,2025-02-03_15h07.48.442,What-A-Scan_AC,2022.2.5,None,
30,Second_Order,5.0,audwhat,stimulus/audwhat_stim/percussion mallet_low-pitch_F_loud.wav,stimulus/audwhat_stim/percussion mallet_high-pitch_Ftri_loud.wav,stimulus/audwhat_stim/string viola_low-pitch_F_loud.wav,stimulus/audwhat_stim/string viola_high-pitch_Ftri_loud.wav,stimulus/audwhat_stim/match_blank.png,stimulus/audwhat_stim/match_box.png,stimulus/audwhat_stim/match_yes.png,stimulus/audwhat_stim/match_no.png,1.0,Match,Category,Category,1,5.125,0,5.125,0,5.125,0,5.125,0,0.625,0.625,0,0.0,0,0.0,0,0.0,0,0.0,1,0.5,1,2.125,1,0.5,1,2.125,0,,,,,0,39,39,39,,,,,,,,,362.5752729159999,367.698416875,362.5752729159999,362.5752729159999,362.5752729159999,362.5752729159999,363.0324519159999,364.02137916599986,363.0353960416667,364.0340244580002,364.6578813330002,365.6547403750001,364.6693734996668,365.6625080409999,367.698416875,368.4032671660002,370.4899653329999,374.54575645800014,368.4032671660002,368.4032671660002,373.56853224999986,368.4032671660002,368.4032671660002,368.4032671660002,368.4032671660002,368.86710066600017,369.9328475000002,368.83719970766674,,370.4899653329999,371.56505854099987,370.4597222916666,,368.4032671660002,373.56853224999986,368.4032671660002,373.56853224999986,373.6099912909999,374.26682837499993,368.4032671660002,1,1,0.44270887499942546,reldom2_s012,001,2025-02-03_15h07.48.442,What-A-Scan_AC,2022.2.5,None,
0,0.0,None,fixation,stimulus/audwhat_stim/blank_white.png,stimulus/audwhat_stim/blank_white.png,stimulus/viswhat_stim/blank_white.png,stimulus/viswhat_stim/blank_white.png,stimulus/audwhat_stim/blank_white.png,stimulus/audwhat_stim/blank_white.png,stimulus/audwhat_stim/blank_white.png,stimulus/audwhat_stim/blank_white.png,0.0,0.0,0.0,0.0,0,0.0,0,0.0,0,0.0,0,0.0,0,0.0,0.0,0,0.0,0,0.0,0,0.0,0,0.0,0,0.0,0,0.0,0,0.0,0,0.0,9,,,,,0,40,40,40,,,,,,,,,374.54575645800014,374.54575645800014,374.54575645800014,374.54575645800014,374.54575645800014,374.54575645800014,374.54575645800014,374.54575645800014,374.4415632083334,374.54575645800014,374.54575645800014,374.54575645800014,374.4415632083334,374.54575645800014,374.54575645800014,374.54575645800014,374.54575645800014,374.54575645800014,374.54575645800014,374.54575645800014,374.54575645800014,374.54575645800014,374.54575645800014,374.54575645800014,374.54575645800014,374.54575645800014,374.54575645800014,374.4915632083334,374.54575645800014,374.54575645800014,374.54575645800014,374.4915632083334,374.54575645800014,374.54575645800014,374.54575645800014,374.54575645800014,374.54575645800014,379.741300875,379.741300875,383.79253295800027,None,0,,reldom2_s012,001,2025-02-03_15h07.48.442,What-A-Scan_AC,2022.2.5,None,
31,First_Order,6.0,audwhat,stimulus/audwhat_stim/dummy.wav,stimulus/audwhat_stim/dummy.wav,stimulus/audwhat_stim/string viola_high-pitch_F_loud.wav,stimulus/audwhat_stim/percussion xylophone_high-pitch_F_loud.wav,stimulus/audwhat_stim/blank_white.png,stimulus/audwhat_stim/category_box.png,stimulus/audwhat_stim/category_yes.png,stimulus/audwhat_stim/category_no.png,None,Category,None,Pitch,2,0.0,0,5.125,0,5.125,0,5.125,0,0.0,0.625,0,0.0,0,0.0,0,0.0,0,0.0,0,0.0,0,0.0,1,0.5,1,2.125,0,,,,,0,41,41,41,,,,,,,,,383.79253295800027,383.79253295800027,383.79253295800027,383.79253295800027,383.79253295800027,383.79253295800027,383.79253295800027,383.79253295800027,383.71504270766684,383.79253295800027,383.79253295800027,383.79253295800027,383.71504270766684,383.79253295800027,383.79253295800027,383.79253295800027,385.86208050000005,,383.79253295800027,383.79253295800027,388.96963212499986,383.79253295800027,383.79253295800027,383.79253295800027,383.79253295800027,384.2633612499999,385.29936179100014,384.23182933266685,,385.86208050000005,386.900972291,385.83173929166674,386.900972291,383.79253295800027,388.96963212499986,383.79253295800027,388.96963212499986,389.0114618749999,389.673693833,383.79253295800027,2,1,2.84019249999983,reldom2_s012,001,2025-02-03_15h07.48.442,What-A-Scan_AC,2022.2.5,None,
32,First_Order,6.0,audwhat,stimulus/audwhat_stim/dummy.wav,stimulus/audwhat_stim/dummy.wav,stimulus/audwhat_stim/percussion mallet_high-pitch_F_loud.wav,stimulus/audwhat_stim/percussion mallet_low-pitch_D_loud.wav,stimulus/audwhat_stim/blank_white.png,stimulus/audwhat_stim/pitch_box.png,stimulus/audwhat_stim/pitch_yes.png,stimulus/audwhat_stim/pitch_no.png,None,Pitch,None,Category,2,0.0,0,5.125,0,5.125,0,5.125,0,0.0,0.625,0,0.0,0,0.0,0,0.0,0,0.0,0,0.0,0,0.0,1,0.5,1,2.125,0,,,,,0,42,42,42,,,,,,,,,389.88903775000017,389.88903775000017,389.88903775000017,389.88903775000017,389.88903775000017,389.88903775000017,389.88903775000017,389.88903775000017,389.80702716633334,389.88903775000017,389.88903775000017,389.88903775000017,389.80702716633334,389.88903775000017,389.88903775000017,389.88903775000017,392.0006343330001,396.00930204099996,389.88903775000017,389.88903775000017,395.051135833,389.88903775000017,389.88903775000017,389.88903775000017,389.88903775000017,390.3600254580001,391.39054558299995,390.3301426666669,,392.0006343330001,393.038898583,391.9700596246669,,389.88903775000017,395.051135833,389.88903775000017,395.051135833,395.09294662499997,395.75345874999994,389.88903775000017,2,1,0.7642604589996154,reldom2_s012,001,2025-02-03_15h07.48.442,What-A-Scan_AC,2022.2.5,None,
33,First_Order,6.0,audwhat,stimulus/audwhat_stim/dummy.wav,stimulus/audwhat_stim/dummy.wav,stimulus/audwhat_stim/string cello_high-pitch_D_loud.wav,stimulus/audwhat_stim/string cello_low-pitch_Dtri_loud.wav,stimulus/audwhat_stim/blank_white.png,stimulus/audwhat_stim/category_box.png,stimulus/audwhat_stim/category_yes.png,stimulus/audwhat_stim/category_no.png,None,Category,None,Category,1,0.0,0,5.125,0,5.125,0,5.125,0,0.0,0.625,0,0.0,0,0.0,0,0.0,0,0.0,0,0.0,0,0.0,1,0.5,1,2.125,0,,,,,0,43,43,43,,,,,,,,,396.00930204099996,396.00930204099996,396.00930204099996,396.00930204099996,396.00930204099996,396.00930204099996,396.00930204099996,396.00930204099996,395.9278805833334,396.00930204099996,396.00930204099996,396.00930204099996,395.9278805833334,396.00930204099996,396.00930204099996,396.00930204099996,398.0832868749999,,396.00930204099996,396.00930204099996,401.20193204099996,396.00930204099996,396.00930204099996,396.00930204099996,396.00930204099996,396.48300391600014,397.51985537500013,396.4521204576665,,398.0832868749999,399.1275894579999,398.0523211246666,,396.00930204099996,401.20193204099996,396.00930204099996,401.20193204099996,401.20193204099996,401.8631109580001,396.00930204099996,1,1,0.7038070419994256,reldom2_s012,001,2025-02-03_15h07.48.442,What-A-Scan_AC,2022.2.5,None,
34,First_Order,6.0,audwhat,stimulus/audwhat_stim/dummy.wav,stimulus/audwhat_stim/dummy.wav,stimulus/audwhat_stim/string cello_high-pitch_F_loud.wav,stimulus/audwhat_stim/string viola_low-pitch_Ftri_loud.wav,stimulus/audwhat_stim/blank_white.png,stimulus/audwhat_stim/pitch_box.png,stimulus/audwhat_stim/pitch_yes.png,stimulus/audwhat_stim/pitch_no.png,None,Pitch,None,Category,2,0.0,0,5.125,0,5.125,0,5.125,0,0.0,0.625,0,0.0,0,0.0,0,0.0,0,0.0,0,0.0,0,0.0,1,0.5,1,2.125,0,,,,,0,44,44,44,,,,,,,,,402.122103833,402.122103833,402.122103833,402.122103833,402.122103833,402.122103833,402.122103833,402.122103833,402.0378805833335,402.122103833,402.122103833,402.122103833,402.0378805833335,402.122103833,402.122103833,402.122103833,404.19178349999993,408.2730337500002,402.122103833,402.122103833,407.2924042909999,402.122103833,402.122103833,402.122103833,402.122103833,402.59605550000015,403.6289334580001,402.5652402916669,,404.19178349999993,405.2284917500001,404.1614242496669,,402.122103833,407.2924042909999,402.122103833,407.2924042909999,407.333796333,407.99405537500024,402.122103833,2,1,1.0680974159995458,reldom2_s012,001,2025-02-03_15h07.48.442,What-A-Scan_AC,2022.2.5,None,
0,0.0,None,fixation,stimulus/audwhat_stim/blank_white.png,stimulus/audwhat_stim/blank_white.png,stimulus/viswhat_stim/blank_white.png,stimulus/viswhat_stim/blank_white.png,stimulus/audwhat_stim/blank_white.png,stimulus/audwhat_stim/blank_white.png,stimulus/audwhat_stim/blank_white.png,stimulus/audwhat_stim/blank_white.png,0.0,0.0,0.0,0.0,0,0.0,0,0.0,0,0.0,0,0.0,0,0.0,0.0,0,0.0,0,0.0,0,0.0,0,0.0,0,0.0,0,0.0,0,0.0,0,0.0,10,,,,,0,45,45,45,,,,,,,,,408.2730337500002,408.2730337500002,408.2730337500002,408.2730337500002,408.2730337500002,408.2730337500002,408.2730337500002,408.2730337500002,408.1690936243332,408.2730337500002,408.2730337500002,408.2730337500002,408.1690936243332,408.2730337500002,408.2730337500002,408.2730337500002,408.2730337500002,408.2730337500002,408.2730337500002,408.2730337500002,408.2730337500002,408.2730337500002,408.2730337500002,408.2730337500002,408.2730337500002,408.2730337500002,408.2730337500002,408.2190936243332,408.2730337500002,408.2730337500002,408.2730337500002,408.2190936243332,408.2730337500002,408.2730337500002,408.2730337500002,408.2730337500002,408.2730337500002,413.46562404099996,413.46562404099996,418.4244893750001,None,0,,reldom2_s012,001,2025-02-03_15h07.48.442,What-A-Scan_AC,2022.2.5,None,
35,Second_Order,6.0,audwhat,stimulus/audwhat_stim/percussion xylophone_high-pitch_D_loud.wav,stimulus/audwhat_stim/string viola_high-pitch_D_loud.wav,stimulus/audwhat_stim/percussion mallet_high-pitch_Dtri_loud.wav,stimulus/audwhat_stim/percussion mallet_low-pitch_D_loud.wav,stimulus/audwhat_stim/match_blank.png,stimulus/audwhat_stim/match_box.png,stimulus/audwhat_stim/match_yes.png,stimulus/audwhat_stim/match_no.png,2.0,Match,Pitch,Category,2,5.125,0,5.125,0,5.125,0,5.125,0,0.75,0.75,0,0.0,0,0.0,0,0.0,0,0.0,1,0.5,1,2.125,1,0.5,1,2.125,0,,,,,0,46,46,46,,,,,,,,,418.4244893750001,423.5427943750001,418.4244893750001,418.4244893750001,418.4244893750001,418.4244893750001,418.88192449999997,419.8795303330003,418.89462354166676,419.8879758329999,420.50257583300026,421.50024158299993,420.5147322496666,,423.5427943750001,424.3666493750002,426.47116804100006,,424.3666493750002,424.3666493750002,429.55712591600013,424.3666493750002,424.3666493750002,424.3666493750002,424.3666493750002,424.83277079100026,425.90726291600004,424.8025920416669,,426.47116804100006,427.50205645799997,426.4394630416666,,424.3666493750002,429.55712591600013,424.3666493750002,429.55712591600013,429.55712591600013,,424.3666493750002,2,1,3.291408624999349,reldom2_s012,001,2025-02-03_15h07.48.442,What-A-Scan_AC,2022.2.5,None,
36,Second_Order,6.0,audwhat,stimulus/audwhat_stim/percussion mallet_high-pitch_Dtri_loud.wav,stimulus/audwhat_stim/string viola_high-pitch_Dtri_loud.wav,stimulus/audwhat_stim/string cello_high-pitch_Dtri_loud.wav,stimulus/audwhat_stim/string viola_low-pitch_F_loud.wav,stimulus/audwhat_stim/match_blank.png,stimulus/audwhat_stim/match_box.png,stimulus/audwhat_stim/match_yes.png,stimulus/audwhat_stim/match_no.png,2.0,Match,Pitch,Category,2,5.125,0,5.125,0,5.125,0,5.125,0,0.625,0.625,0,0.0,0,0.0,0,0.0,0,0.0,1,0.5,1,2.125,1,0.5,1,2.125,0,,,,,0,47,47,47,,,,,,,,,430.3773887080001,435.4993657079999,430.3773887080001,430.3773887080001,430.3773887080001,430.3773887080001,430.82594162500027,431.8242009579999,430.83829612466684,431.83226216599996,432.4589846250001,433.4484540829999,432.46193749966665,,435.4993657079999,436.21387245799997,438.30822683299994,442.35786962500015,436.21387245799997,436.21387245799997,441.3796379579999,436.21387245799997,436.21387245799997,436.21387245799997,436.21387245799997,436.6784635409999,437.7487457080001,436.6493183746668,,438.30822683299994,439.38201229100014,438.2777373746669,,436.21387245799997,441.3796379579999,436.21387245799997,441.3796379579999,441.42060579100007,442.0767973330003,436.21387245799997,2,1,0.7400779169997804,reldom2_s012,001,2025-02-03_15h07.48.442,What-A-Scan_AC,2022.2.5,None,
0,0.0,None,fixation,stimulus/audwhat_stim/blank_white.png,stimulus/audwhat_stim/blank_white.png,stimulus/viswhat_stim/blank_white.png,stimulus/viswhat_stim/blank_white.png,stimulus/audwhat_stim/blank_white.png,stimulus/audwhat_stim/blank_white.png,stimulus/audwhat_stim/blank_white.png,stimulus/audwhat_stim/blank_white.png,0.0,0.0,0.0,0.0,0,0.0,0,0.0,0,0.0,0,0.0,0,0.0,0.0,0,0.0,0,0.0,0,0.0,0,0.0,0,0.0,0,0.0,0,0.0,0,0.0,8,,,,,0,48,48,48,,,,,,,,,442.35786962500015,442.35786962500015,442.35786962500015,442.35786962500015,442.35786962500015,442.35786962500015,442.35786962500015,442.35786962500015,442.25096183333346,442.35786962500015,442.35786962500015,442.35786962500015,442.25096183333346,442.35786962500015,442.35786962500015,442.35786962500015,442.35786962500015,442.35786962500015,442.35786962500015,442.35786962500015,442.35786962500015,442.35786962500015,442.35786962500015,442.35786962500015,442.35786962500015,442.35786962500015,442.35786962500015,442.3176285000001,442.35786962500015,442.35786962500015,442.35786962500015,442.3176285000001,442.35786962500015,442.35786962500015,442.35786962500015,442.35786962500015,442.35786962500015,447.5615486249999,447.5615486249999,450.57754162499987,None,0,,reldom2_s012,001,2025-02-03_15h07.48.442,What-A-Scan_AC,2022.2.5,None,
37,First_Order,7.0,viswhat,stimulus/viswhat_stim/blank_white.png,stimulus/viswhat_stim/blank_white.png,stimulus/viswhat_stim/land_animal-zebra.png,stimulus/viswhat_stim/water_animal-squid.png,stimulus/viswhat_stim/blank_white.png,stimulus/viswhat_stim/type_box.png,stimulus/viswhat_stim/type_yes.png,stimulus/viswhat_stim/type_no.png,None,Type,None,Type,1,0.0,0,5.125,0,5.125,0,5.125,0,0.0,0.625,0,0.0,0,0.0,1,0.5,1,2.125,0,0.0,0,0.0,0,0.0,0,0.0,0,,,,,0,49,49,49,,,,,,,,,450.57754162499987,450.57754162499987,450.57754162499987,450.57754162499987,450.57754162499987,450.57754162499987,450.57754162499987,450.57754162499987,450.5286421246666,450.57754162499987,450.57754162499987,450.57754162499987,450.5286421246666,450.57754162499987,450.57754162499987,450.57754162499987,452.66213908300006,456.9111239160002,450.57754162499987,450.57754162499987,455.7271726250001,451.03432033299987,452.07528604100025,452.66213908300006,453.70854870799985,450.57754162499987,450.57754162499987,450.5453087913333,450.57754162499987,450.57754162499987,450.57754162499987,450.5453087913333,450.57754162499987,450.57754162499987,455.7271726250001,450.57754162499987,455.7271726250001,455.78106933300023,456.4267306249999,450.57754162499987,1,1,1.1076779159998296,reldom2_s012,001,2025-02-03_15h07.48.442,What-A-Scan_AC,2022.2.5,None,
38,First_Order,7.0,viswhat,stimulus/viswhat_stim/blank_white.png,stimulus/viswhat_stim/blank_white.png,stimulus/viswhat_stim/water_vehicle-submarine.png,stimulus/viswhat_stim/water_animal-lobster.png,stimulus/viswhat_stim/blank_white.png,stimulus/viswhat_stim/location_box.png,stimulus/viswhat_stim/location_yes.png,stimulus/viswhat_stim/location_no.png,None,Location,None,Location,1,0.0,0,5.125,0,5.125,0,5.125,0,0.0,0.625,0,0.0,0,0.0,1,0.5,1,2.125,0,0.0,0,0.0,0,0.0,0,0.0,0,,,,,0,50,50,50,,,,,,,,,456.9111239160002,456.9111239160002,456.9111239160002,456.9111239160002,456.9111239160002,456.9111239160002,456.9111239160002,456.9111239160002,456.62316083266694,456.9111239160002,456.9111239160002,456.9111239160002,456.62316083266694,456.9111239160002,456.9111239160002,456.9111239160002,458.90011537500004,,456.9111239160002,456.9111239160002,462.26184145800016,457.37048349999986,458.5945072909999,458.90011537500004,460.1254254999999,456.9111239160002,456.9111239160002,456.75649416600027,456.9111239160002,456.9111239160002,456.9111239160002,456.75649416600027,456.9111239160002,456.9111239160002,462.26184145800016,456.9111239160002,462.26184145800016,462.11333587499985,,456.9111239160002,1,1,0.7167332089998126,reldom2_s012,001,2025-02-03_15h07.48.442,What-A-Scan_AC,2022.2.5,None,
39,First_Order,7.0,viswhat,stimulus/viswhat_stim/blank_white.png,stimulus/viswhat_stim/blank_white.png,stimulus/viswhat_stim/land_vehicle-vespa.png,stimulus/viswhat_stim/water_vehicle-yacht.png,stimulus/viswhat_stim/blank_white.png,stimulus/viswhat_stim/location_box.png,stimulus/viswhat_stim/location_yes.png,stimulus/viswhat_stim/location_no.png,None,Location,None,Type,2,0.0,0,5.125,0,5.125,0,5.125,0,0.0,0.625,0,0.0,0,0.0,1,0.5,1,2.125,0,0.0,0,0.0,0,0.0,0,0.0,0,,,,,0,51,51,51,,,,,,,,,462.9796361660001,462.9796361660001,462.9796361660001,462.9796361660001,462.9796361660001,462.9796361660001,462.9796361660001,462.9796361660001,462.90735891599985,462.9796361660001,462.9796361660001,462.9796361660001,462.90735891599985,462.9796361660001,462.9796361660001,462.9796361660001,465.06258204100004,469.07555887499984,462.9796361660001,462.9796361660001,468.1628703330002,463.4456515410002,464.5098575830002,465.06258204100004,466.125707875,462.9796361660001,462.9796361660001,462.9406922493332,462.9796361660001,462.9796361660001,462.9796361660001,462.9406922493332,462.9796361660001,462.9796361660001,468.1628703330002,462.9796361660001,468.1628703330002,468.199609666,468.86398450000024,462.9796361660001,2,1,1.5295007499998974,reldom2_s012,001,2025-02-03_15h07.48.442,What-A-Scan_AC,2022.2.5,None,
40,First_Order,7.0,viswhat,stimulus/viswhat_stim/blank_white.png,stimulus/viswhat_stim/blank_white.png,stimulus/viswhat_stim/water_vehicle-canoe.png,stimulus/viswhat_stim/water_animal-whale (1).png,stimulus/viswhat_stim/blank_white.png,stimulus/viswhat_stim/location_box.png,stimulus/viswhat_stim/location_yes.png,stimulus/viswhat_stim/location_no.png,None,Location,None,Location,1,0.0,0,5.125,0,5.125,0,5.125,0,0.0,0.625,0,0.0,0,0.0,1,0.5,1,2.125,0,0.0,0,0.0,0,0.0,0,0.0,0,,,,,0,52,52,52,,,,,,,,,469.07555887499984,469.07555887499984,469.07555887499984,469.07555887499984,469.07555887499984,469.07555887499984,469.07555887499984,469.07555887499984,469.0338093333336,469.07555887499984,469.07555887499984,469.07555887499984,469.0338093333336,469.07555887499984,469.07555887499984,469.07555887499984,471.18222270800015,475.2141181249999,469.07555887499984,469.07555887499984,474.2177966250001,469.55052020799985,470.59036225,471.18222270800015,472.2014505000002,469.07555887499984,469.07555887499984,469.05047600000023,469.07555887499984,469.07555887499984,469.07555887499984,469.05047600000023,469.07555887499984,469.07555887499984,474.2177966250001,469.07555887499984,474.2177966250001,474.29138783300004,474.9372208330001,469.07555887499984,1,1,0.7038688329998877,reldom2_s012,001,2025-02-03_15h07.48.442,What-A-Scan_AC,2022.2.5,None,
0,0.0,None,fixation,stimulus/audwhat_stim/blank_white.png,stimulus/audwhat_stim/blank_white.png,stimulus/viswhat_stim/blank_white.png,stimulus/viswhat_stim/blank_white.png,stimulus/audwhat_stim/blank_white.png,stimulus/audwhat_stim/blank_white.png,stimulus/audwhat_stim/blank_white.png,stimulus/audwhat_stim/blank_white.png,0.0,0.0,0.0,0.0,0,0.0,0,0.0,0,0.0,0,0.0,0,0.0,0.0,0,0.0,0,0.0,0,0.0,0,0.0,0,0.0,0,0.0,0,0.0,0,0.0,10,,,,,0,53,53,53,,,,,,,,,475.2141181249999,475.2141181249999,475.2141181249999,475.2141181249999,475.2141181249999,475.2141181249999,475.2141181249999,475.2141181249999,475.10872558299985,475.2141181249999,475.2141181249999,475.2141181249999,475.10872558299985,475.2141181249999,475.2141181249999,475.2141181249999,475.2141181249999,475.2141181249999,475.2141181249999,475.2141181249999,475.2141181249999,475.2141181249999,475.2141181249999,475.2141181249999,475.2141181249999,475.2141181249999,475.2141181249999,475.1753922496665,475.2141181249999,475.2141181249999,475.2141181249999,475.1753922496665,475.2141181249999,475.2141181249999,475.2141181249999,475.2141181249999,475.2141181249999,480.42783495799995,480.42783495799995,485.37402475,None,0,,reldom2_s012,001,2025-02-03_15h07.48.442,What-A-Scan_AC,2022.2.5,None,
41,Second_Order,7.0,viswhat,stimulus/viswhat_stim/water_vehicle-cruiser.png,stimulus/viswhat_stim/land_vehicle-bus.png,stimulus/viswhat_stim/land_animal-fox.png,stimulus/viswhat_stim/water_animal-dolphin.png,stimulus/audwhat_stim/match_blank.png,stimulus/audwhat_stim/match_box.png,stimulus/audwhat_stim/match_yes.png,stimulus/audwhat_stim/match_no.png,1.0,Match,Type,Type,1,5.125,0,5.125,0,5.125,0,5.125,0,0.75,0.75,1,0.5,1,2.125,1,0.5,1,2.125,0,0.0,0,0.0,0,0.0,0,0.0,0,,,,,0,54,54,54,,,,,,,,,485.37402475,490.4970659159999,485.80293808299984,486.80068866600004,487.4241150830003,488.42090925,485.37402475,485.37402475,485.38298729133334,485.37402475,485.37402475,485.37402475,485.38298729133334,485.37402475,490.4970659159999,491.29343329099993,493.36748524999985,497.2939487910003,491.29343329099993,491.29343329099993,496.43077825,491.74442879100025,492.75653762499996,493.36748524999985,494.38537637499985,491.29343329099993,491.29343329099993,491.2817531660001,491.29343329099993,491.29343329099993,491.29343329099993,491.2817531660001,491.29343329099993,491.29343329099993,496.43077825,491.29343329099993,496.43077825,496.49338370800024,,491.29343329099993,1,1,0.73192891699955,reldom2_s012,001,2025-02-03_15h07.48.442,What-A-Scan_AC,2022.2.5,None,
42,Second_Order,7.0,viswhat,stimulus/viswhat_stim/water_animal-whale.png,stimulus/viswhat_stim/water_vehicle-ferryboat.png,stimulus/viswhat_stim/land_vehicle-tank.png,stimulus/viswhat_stim/land_animal-wolf.png,stimulus/audwhat_stim/match_blank.png,stimulus/audwhat_stim/match_box.png,stimulus/audwhat_stim/match_yes.png,stimulus/audwhat_stim/match_no.png,1.0,Match,Location,Location,1,5.125,0,5.125,0,5.125,0,5.125,0,0.625,0.625,1,0.5,1,2.125,1,0.5,1,2.125,0,0.0,0,0.0,0,0.0,0,0.0,0,,,,,0,55,55,55,,,,,,,,,497.2939487910003,502.407943833,497.7592938329999,498.7484427909999,499.385575583,500.3819843330002,497.2939487910003,497.2939487910003,497.3070009993333,497.2939487910003,497.2939487910003,497.2939487910003,497.3070009993333,497.2939487910003,502.407943833,503.06701150000026,505.16127587500023,509.2113168750002,503.06701150000026,503.06701150000026,508.2070612910002,503.536605625,504.542493291,505.16127587500023,506.1722641659999,503.06701150000026,503.06701150000026,503.05477816633356,503.06701150000026,503.06701150000026,503.06701150000026,503.05477816633356,503.06701150000026,503.06701150000026,508.2070612910002,503.06701150000026,508.2070612910002,508.271613291,508.90315520800004,503.06701150000026,1,1,1.262161040999672,reldom2_s012,001,2025-02-03_15h07.48.442,What-A-Scan_AC,2022.2.5,None,
0,0.0,None,fixation,stimulus/audwhat_stim/blank_white.png,stimulus/audwhat_stim/blank_white.png,stimulus/viswhat_stim/blank_white.png,stimulus/viswhat_stim/blank_white.png,stimulus/audwhat_stim/blank_white.png,stimulus/audwhat_stim/blank_white.png,stimulus/audwhat_stim/blank_white.png,stimulus/audwhat_stim/blank_white.png,0.0,0.0,0.0,0.0,0,0.0,0,0.0,0,0.0,0,0.0,0,0.0,0.0,0,0.0,0,0.0,0,0.0,0,0.0,0,0.0,0,0.0,0,0.0,0,0.0,9,,,,,0,56,56,56,,,,,,,,,509.2113168750002,509.2113168750002,509.2113168750002,509.2113168750002,509.2113168750002,509.2113168750002,509.2113168750002,509.2113168750002,509.10358895833343,509.2113168750002,509.2113168750002,509.2113168750002,509.10358895833343,509.2113168750002,509.2113168750002,509.2113168750002,509.2113168750002,509.2113168750002,509.2113168750002,509.2113168750002,509.2113168750002,509.2113168750002,509.2113168750002,509.2113168750002,509.2113168750002,509.2113168750002,509.2113168750002,509.1702556250001,509.2113168750002,509.2113168750002,509.2113168750002,509.1702556250001,509.2113168750002,509.2113168750002,509.2113168750002,509.2113168750002,509.2113168750002,514.428911,514.428911,518.425885958,None,0,,reldom2_s012,001,2025-02-03_15h07.48.442,What-A-Scan_AC,2022.2.5,None,
43,First_Order,8.0,viswhat,stimulus/viswhat_stim/blank_white.png,stimulus/viswhat_stim/blank_white.png,stimulus/viswhat_stim/water_vehicle-canoe.png,stimulus/viswhat_stim/water_animal-octopus.png,stimulus/viswhat_stim/blank_white.png,stimulus/viswhat_stim/type_box.png,stimulus/viswhat_stim/type_yes.png,stimulus/viswhat_stim/type_no.png,None,Type,None,Location,2,0.0,0,5.125,0,5.125,0,5.125,0,0.0,0.625,0,0.0,0,0.0,1,0.5,1,2.125,0,0.0,0,0.0,0,0.0,0,0.0,0,,,,,0,57,57,57,,,,,,,,,518.425885958,518.425885958,518.425885958,518.425885958,518.425885958,518.425885958,518.425885958,518.425885958,518.3705399166666,518.425885958,518.425885958,518.425885958,518.3705399166666,518.425885958,518.425885958,518.425885958,520.5372177499999,,518.425885958,518.425885958,523.584402,518.9104684580002,519.949551958,520.5372177499999,521.5767109580001,518.425885958,518.425885958,518.40387325,518.425885958,518.425885958,518.425885958,518.40387325,518.425885958,518.425885958,523.584402,518.425885958,523.584402,523.6421247500002,524.2783750409999,518.425885958,2,1,1.482849332999649,reldom2_s012,001,2025-02-03_15h07.48.442,What-A-Scan_AC,2022.2.5,None,
44,First_Order,8.0,viswhat,stimulus/viswhat_stim/blank_white.png,stimulus/viswhat_stim/blank_white.png,stimulus/viswhat_stim/water_animal-octopus.png,stimulus/viswhat_stim/land_animal-snake.png,stimulus/viswhat_stim/blank_white.png,stimulus/viswhat_stim/type_box.png,stimulus/viswhat_stim/type_yes.png,stimulus/viswhat_stim/type_no.png,None,Type,None,Type,1,0.0,0,5.125,0,5.125,0,5.125,0,0.0,0.625,0,0.0,0,0.0,1,0.5,1,2.125,0,0.0,0,0.0,0,0.0,0,0.0,0,,,,,0,58,58,58,,,,,,,,,524.4972712080003,524.4972712080003,524.4972712080003,524.4972712080003,524.4972712080003,524.4972712080003,524.4972712080003,524.4972712080003,524.452979749667,524.4972712080003,524.4972712080003,524.4972712080003,524.452979749667,524.4972712080003,524.4972712080003,524.4972712080003,526.5829509579999,,524.4972712080003,524.4972712080003,529.6468165410001,524.9705708750002,526.0112826250001,526.5829509579999,527.5977010410002,524.4972712080003,524.4972712080003,524.4696464163336,524.4972712080003,524.4972712080003,524.4972712080003,524.4696464163336,524.4972712080003,524.4972712080003,529.6468165410001,524.4972712080003,529.6468165410001,529.7244191250002,530.371529125,524.4972712080003,1,1,0.5381289169999945,reldom2_s012,001,2025-02-03_15h07.48.442,What-A-Scan_AC,2022.2.5,None,
45,First_Order,8.0,viswhat,stimulus/viswhat_stim/blank_white.png,stimulus/viswhat_stim/blank_white.png,stimulus/viswhat_stim/land_vehicle-schoolbus.png,stimulus/viswhat_stim/land_animal-pig.png,stimulus/viswhat_stim/blank_white.png,stimulus/viswhat_stim/type_box.png,stimulus/viswhat_stim/type_yes.png,stimulus/viswhat_stim/type_no.png,None,Type,None,Location,2,0.0,0,5.125,0,5.125,0,5.125,0,0.0,0.625,0,0.0,0,0.0,1,0.5,1,2.125,0,0.0,0,0.0,0,0.0,0,0.0,0,,,,,0,59,59,59,,,,,,,,,530.570143125,530.570143125,530.570143125,530.570143125,530.570143125,530.570143125,530.570143125,530.570143125,530.5229809160002,530.570143125,530.570143125,530.570143125,530.5229809160002,530.570143125,530.570143125,530.570143125,532.6586045409999,536.6824174579997,530.570143125,530.570143125,535.7166963330001,531.0519818749999,532.0685751659998,532.6586045409999,533.681018583,530.570143125,530.570143125,530.5563142493335,530.570143125,530.570143125,530.570143125,530.5563142493335,530.570143125,530.570143125,535.7166963330001,530.570143125,535.7166963330001,535.7792802909998,536.4105033329997,530.570143125,2,1,0.8537744999998722,reldom2_s012,001,2025-02-03_15h07.48.442,What-A-Scan_AC,2022.2.5,None,
46,First_Order,8.0,viswhat,stimulus/viswhat_stim/blank_white.png,stimulus/viswhat_stim/blank_white.png,stimulus/viswhat_stim/land_vehicle-oldcar.png,stimulus/viswhat_stim/water_vehicle-powercruiser.png,stimulus/viswhat_stim/blank_white.png,stimulus/viswhat_stim/location_box.png,stimulus/viswhat_stim/location_yes.png,stimulus/viswhat_stim/location_no.png,None,Location,None,Type,2,0.0,0,5.125,0,5.125,0,5.125,0,0.0,0.625,0,0.0,0,0.0,1,0.5,1,2.125,0,0.0,0,0.0,0,0.0,0,0.0,0,,,,,0,60,60,60,,,,,,,,,536.6824174579997,536.6824174579997,536.6824174579997,536.6824174579997,536.6824174579997,536.6824174579997,536.6824174579997,536.6824174579997,536.6149800830004,536.6824174579997,536.6824174579997,536.6824174579997,536.6149800830004,536.6824174579997,536.6824174579997,536.6824174579997,538.7725142500003,,536.6824174579997,536.6824174579997,541.8667055409996,537.1419272499998,538.1876244160003,538.7725142500003,539.8233692080003,536.6824174579997,536.6824174579997,536.6483134163337,536.6824174579997,536.6824174579997,536.6824174579997,536.6483134163337,536.6824174579997,536.6824174579997,541.8667055409996,536.6824174579997,541.8667055409996,541.9026932500001,542.5525268330002,536.6824174579997,2,1,0.6209562499993808,reldom2_s012,001,2025-02-03_15h07.48.442,What-A-Scan_AC,2022.2.5,None,
0,0.0,None,fixation,stimulus/audwhat_stim/blank_white.png,stimulus/audwhat_stim/blank_white.png,stimulus/viswhat_stim/blank_white.png,stimulus/viswhat_stim/blank_white.png,stimulus/audwhat_stim/blank_white.png,stimulus/audwhat_stim/blank_white.png,stimulus/audwhat_stim/blank_white.png,stimulus/audwhat_stim/blank_white.png,0.0,0.0,0.0,0.0,0,0.0,0,0.0,0,0.0,0,0.0,0,0.0,0.0,0,0.0,0,0.0,0,0.0,0,0.0,0,0.0,0,0.0,0,0.0,0,0.0,9,,,,,0,61,61,61,,,,,,,,,542.8177835830002,542.8177835830002,542.8177835830002,542.8177835830002,542.8177835830002,542.8177835830002,542.8177835830002,542.8177835830002,542.7218111663334,542.8177835830002,542.8177835830002,542.8177835830002,542.7218111663334,542.8177835830002,542.8177835830002,542.8177835830002,542.8177835830002,542.8177835830002,542.8177835830002,542.8177835830002,542.8177835830002,542.8177835830002,542.8177835830002,542.8177835830002,542.8177835830002,542.8177835830002,542.8177835830002,542.7718111663334,542.8177835830002,542.8177835830002,542.8177835830002,542.7718111663334,542.8177835830002,542.8177835830002,542.8177835830002,542.8177835830002,542.8177835830002,548.0405123330002,548.0405123330002,552.0471148329998,None,0,,reldom2_s012,001,2025-02-03_15h07.48.442,What-A-Scan_AC,2022.2.5,None,
47,Second_Order,8.0,viswhat,stimulus/viswhat_stim/water_animal-dolphin.png,stimulus/viswhat_stim/water_vehicle-cruiseship.png,stimulus/viswhat_stim/land_vehicle-oldcar.png,stimulus/viswhat_stim/land_animal-giraffe.png,stimulus/audwhat_stim/match_blank.png,stimulus/audwhat_stim/match_box.png,stimulus/audwhat_stim/match_yes.png,stimulus/audwhat_stim/match_no.png,1.0,Match,Location,Location,1,5.125,0,5.125,0,5.125,0,5.125,0,0.75,0.75,1,0.5,1,2.125,1,0.5,1,2.125,0,0.0,0,0.0,0,0.0,0,0.0,0,,,,,0,62,62,62,,,,,,,,,552.0471148329998,557.1685095000003,552.4374691250005,553.4250797080003,554.0621977910005,555.0581858750002,552.0471148329998,552.0471148329998,552.0584036666664,552.0471148329998,552.0471148329998,552.0471148329998,552.0584036666664,552.0471148329998,557.1685095000003,558.0439582079998,560.1314954580002,,558.0439582079998,558.0439582079998,563.231472083,558.5158597500003,559.5930021249997,560.1314954580002,561.2135429999998,558.0439582079998,558.0439582079998,557.9852325413334,558.0439582079998,558.0439582079998,558.0439582079998,557.9852325413334,558.0439582079998,558.0439582079998,563.231472083,558.0439582079998,563.231472083,563.231472083,,558.0439582079998,1,1,1.0725123329998496,reldom2_s012,001,2025-02-03_15h07.48.442,What-A-Scan_AC,2022.2.5,None,
48,Second_Order,8.0,viswhat,stimulus/viswhat_stim/land_animal-ostrich.png,stimulus/viswhat_stim/water_animal-shark.png,stimulus/viswhat_stim/water_animal-whale.png,stimulus/viswhat_stim/water_vehicle-cargoboat.png,stimulus/audwhat_stim/match_blank.png,stimulus/audwhat_stim/match_box.png,stimulus/audwhat_stim/match_yes.png,stimulus/audwhat_stim/match_no.png,2.0,Match,Type,Location,2,5.125,0,5.125,0,5.125,0,5.125,0,0.625,0.625,1,0.5,1,2.125,1,0.5,1,2.125,0,0.0,0,0.0,0,0.0,0,0.0,0,,,,,0,63,63,63,,,,,,,,,564.0034648330002,569.1241358329999,564.4674987079998,565.4656310830005,566.0895335000005,567.0858483330003,564.0034648330002,564.0034648330002,564.0140472496665,564.0034648330002,564.0034648330002,564.0034648330002,564.0140472496665,564.0034648330002,569.1241358329999,569.8039546250002,571.8839500410004,575.9412039580002,569.8039546250002,569.8039546250002,574.9472715410002,570.2627105000001,571.2915888750003,571.8839500410004,572.9167324580003,569.8039546250002,569.8039546250002,569.792043958,569.8039546250002,569.8039546250002,569.8039546250002,569.792043958,569.8039546250002,569.8039546250002,574.9472715410002,569.8039546250002,574.9472715410002,575.0109937500001,575.6513896659999,569.8039546250002,2,1,1.4377199169998676,reldom2_s012,001,2025-02-03_15h07.48.442,What-A-Scan_AC,2022.2.5,None,
0,0.0,None,fixation,stimulus/audwhat_stim/blank_white.png,stimulus/audwhat_stim/blank_white.png,stimulus/viswhat_stim/blank_white.png,stimulus/viswhat_stim/blank_white.png,stimulus/audwhat_stim/blank_white.png,stimulus/audwhat_stim/blank_white.png,stimulus/audwhat_stim/blank_white.png,stimulus/audwhat_stim/blank_white.png,0.0,0.0,0.0,0.0,0,0.0,0,0.0,0,0.0,0,0.0,0,0.0,0.0,0,0.0,0,0.0,0,0.0,0,0.0,0,0.0,0,0.0,0,0.0,0,0.0,16,,,,,0,64,64,64,,,,,,,,,575.9412039580002,575.9412039580002,575.9412039580002,575.9412039580002,575.9412039580002,575.9412039580002,575.9412039580002,575.9412039580002,575.8363042910001,575.9412039580002,575.9412039580002,575.9412039580002,575.8363042910001,575.9412039580002,575.9412039580002,575.9412039580002,575.9412039580002,575.9412039580002,575.9412039580002,575.9412039580002,575.9412039580002,575.9412039580002,575.9412039580002,575.9412039580002,575.9412039580002,575.9412039580002,575.9412039580002,575.8863042910001,575.9412039580002,575.9412039580002,575.9412039580002,575.8863042910001,575.9412039580002,575.9412039580002,575.9412039580002,575.9412039580002,575.9412039580002,581.1719207080005,581.1719207080005,592.1136197080004,None,0,,reldom2_s012,001,2025-02-03_15h07.48.442,What-A-Scan_AC,2022.2.5,None,
