Trial,Order,Block,Type,Stimuli_File1,Stimuli_File2,Stimuli_File3,Stimuli_File4,Cue_File1,Cue_File2,Response_File_Yes,Response_File_No,Match,Cue_Dimension,Pair1_Dimension,Pair2_Dimension,Key,Cue1_Duration,Cue1_Onset,Cue2_Duration,Cue2_Onset,ResponseYes_Duration,ResponseYes_Onset,ResponseNo_Duration,ResponseNo_Onset,ITI_Within,ITI_Between,Image1_Duration,Image1_Onset,Image2_Duration,Image2_Onset,Image3_Duration,Image3_Onset,Image4_Duration,Image4_Onset,Sound1_Duration,Sound1_Onset,Sound2_Duration,Sound2_Onset,Sound3_Duration,Sound3_Onset,Sound4_Duration,Sound4_Onset,Fixation_Duration,trials_2.thisRepN,trials_2.thisTrialN,trials_2.thisN,trials_2.thisIndex,trials.thisRepN,trials.thisTrialN,trials.thisN,trials.thisIndex,text_start.started,key_resp_start.started,key_resp_start.keys,key_resp_start.rt,text2.started,key_resp_2.started,key_resp_2.keys,key_resp_2.rt,cue_file1.started,cue_file1.stopped,image_1.started,image_1.stopped,image_2.started,image_2.stopped,sound_icon1.started,sound_icon1.stopped,sound_1.started,sound_1.stopped,sound_icon2.started,sound_icon2.stopped,sound_2.started,sound_2.stopped,image_blank_1.started,image_blank_1.stopped,key_press.started,key_press.stopped,fixation_text.started,cue_file2.started,cue_file2.stopped,image_3.started,image_3.stopped,image_4.started,image_4.stopped,sound_icon3.started,sound_icon3.stopped,sound_3.started,sound_3.stopped,sound_icon4.started,sound_icon4.stopped,sound_4.started,sound_4.stopped,response_yes.started,response_yes.stopped,response_no.started,response_no.stopped,iti_blank.started,iti_blank.stopped,fixation_text.stopped,key_press.keys,key_press.corr,key_press.rt,participant,session,date,expName,psychopyVersion,frameRate,
,,,,,,,,,,,,,,,,,,,,,,,,,,,,,,,,,,,,,,,,,,,,,,,,,,,,16.750208875,16.750208875,2,1.3190127070001836,,,,,,,,,,,,,,,,,,,,,,,,,,,,,,,,,,,,,,,,,,,,,,,,reldom2_s011,001,2025-02-05_16h01.25.778,Vis-B-Scan_AC,2022.2.5,None,
,,,,,,,,,,,,,,,,,,,,,,,,,,,,,,,,,,,,,,,,,,,,0,0,0,0,,,,,,,,,18.09657266699992,18.09657266699992,5,18.147734540999863,,,,,,,,,,,,,,,,,,,,,,,,,,,,,,,,,,,,,,,,,,,,reldom2_s011,001,2025-02-05_16h01.25.778,Vis-B-Scan_AC,2022.2.5,None,
,,,,,,,,,,,,,,,,,,,,,,,,,,,,,,,,,,,,,,,,,,,,1,0,1,0,,,,,,,,,36.25836620900009,36.25836620900009,5,1.986394250000103,,,,,,,,,,,,,,,,,,,,,,,,,,,,,,,,,,,,,,,,,,,,reldom2_s011,001,2025-02-05_16h01.25.778,Vis-B-Scan_AC,2022.2.5,None,
,,,,,,,,,,,,,,,,,,,,,,,,,,,,,,,,,,,,,,,,,,,,2,0,2,0,,,,,,,,,38.249928083999976,38.249928083999976,5,1.993760790999886,,,,,,,,,,,,,,,,,,,,,,,,,,,,,,,,,,,,,,,,,,,,reldom2_s011,001,2025-02-05_16h01.25.778,Vis-B-Scan_AC,2022.2.5,None,
,,,,,,,,,,,,,,,,,,,,,,,,,,,,,,,,,,,,,,,,,,,,3,0,3,0,,,,,,,,,40.25968054200007,40.25968054200007,5,1.9844321660000332,,,,,,,,,,,,,,,,,,,,,,,,,,,,,,,,,,,,,,,,,,,,reldom2_s011,001,2025-02-05_16h01.25.778,Vis-B-Scan_AC,2022.2.5,None,
0,0.0,None,fixation,stimulus/viswhere_stim/blank_white.png,stimulus/viswhere_stim/blank_white.png,stimulus/viswhat_stim/blank_white.png,stimulus/viswhat_stim/blank_white.png,stimulus/viswhere_stim/blank_white.png,stimulus/viswhere_stim/blank_white.png,stimulus/viswhere_stim/blank_white.png,stimulus/viswhere_stim/blank_white.png,0.0,0.0,0.0,0.0,0,0.0,0,0.0,0,0.0,0,0.0,0,0.0,0.0,0,0.0,0,0.0,0,0.0,0,0.0,0,0,0,0,0,0,0,0,16,,,,,0,0,0,0,,,,,,,,,42.4437754170001,42.4437754170001,42.4437754170001,42.4437754170001,42.4437754170001,42.4437754170001,42.4437754170001,42.4437754170001,42.34464349999994,42.4437754170001,42.4437754170001,42.4437754170001,42.34464349999994,42.4437754170001,42.4437754170001,42.4437754170001,42.4437754170001,42.4437754170001,42.4437754170001,42.4437754170001,42.4437754170001,42.4437754170001,42.4437754170001,42.4437754170001,42.4437754170001,42.4437754170001,42.4437754170001,42.39464349999994,42.4437754170001,42.4437754170001,42.4437754170001,42.39464349999994,42.4437754170001,42.4437754170001,42.4437754170001,42.4437754170001,42.4437754170001,47.61841533400002,47.61841533400002,58.63930004200006,None,0,,reldom2_s011,001,2025-02-05_16h01.25.778,Vis-B-Scan_AC,2022.2.5,None,
1,First_Order,1.0,viswhere,stimulus/viswhere_stim/blank_white.png,stimulus/viswhere_stim/blank_white.png,stimulus/viswhere_stim/150-deg_dot-left_royalblue.png,stimulus/viswhere_stim/150-deg_dot-right_peru.png,stimulus/viswhere_stim/blank_white.png,stimulus/viswhere_stim/dot_box.png,stimulus/viswhere_stim/dot_yes.png,stimulus/viswhere_stim/dot_no.png,None,Dot,None,Line,2,0.0,0,5.125,0,5.125,0,5.125,0,0.0,0.625,0,0.0,0,0.0,1,0.5,1,2.125,0,0,0,0,0,0,0,0,0,,,,,0,1,1,1,,,,,,,,,58.63930004200006,58.63930004200006,58.63930004200006,58.63930004200006,58.63930004200006,58.63930004200006,58.63930004200006,58.63930004200006,58.61659587499994,58.63930004200006,58.63930004200006,58.63930004200006,58.61659587499994,58.63930004200006,58.63930004200006,58.63930004200006,60.751184834000014,64.70212491699999,58.63930004200006,58.63930004200006,63.773974209000016,59.12374633400009,60.133019500000046,60.751184834000014,61.765968334000036,58.63930004200006,58.63930004200006,58.6332625416666,58.63930004200006,58.63930004200006,58.63930004200006,58.6332625416666,58.63930004200006,58.63930004200006,63.773974209000016,58.63930004200006,63.773974209000016,63.871766624999964,64.49255704200004,58.63930004200006,2,1,0.934527707999905,reldom2_s011,001,2025-02-05_16h01.25.778,Vis-B-Scan_AC,2022.2.5,None,
2,First_Order,1.0,viswhere,stimulus/viswhere_stim/blank_white.png,stimulus/viswhere_stim/blank_white.png,stimulus/viswhere_stim/30-deg_dot-left_salmon.png,stimulus/viswhere_stim/30-deg_dot-right_seagreen.png,stimulus/viswhere_stim/blank_white.png,stimulus/viswhere_stim/dot_box.png,stimulus/viswhere_stim/dot_yes.png,stimulus/viswhere_stim/dot_no.png,None,Dot,None,Line,2,0.0,0,5.125,0,5.125,0,5.125,0,0.0,0.625,0,0.0,0,0.0,1,0.5,1,2.125,0,0,0,0,0,0,0,0,0,,,,,0,2,2,2,,,,,,,,,64.70212491699999,64.70212491699999,64.70212491699999,64.70212491699999,64.70212491699999,64.70212491699999,64.70212491699999,64.70212491699999,64.68354200033339,64.70212491699999,64.70212491699999,64.70212491699999,64.68354200033339,64.70212491699999,64.70212491699999,64.70212491699999,66.80202233399996,70.76246029200001,64.70212491699999,64.70212491699999,69.82876041700001,65.18475545899992,66.18756099999996,66.80202233399996,67.81307133399991,64.70212491699999,64.70212491699999,64.68354200033339,64.70212491699999,64.70212491699999,64.70212491699999,64.68354200033339,64.70212491699999,64.70212491699999,69.82876041700001,64.70212491699999,69.82876041700001,69.92218670900002,70.5538274999999,64.70212491699999,2,1,0.9141721659998439,reldom2_s011,001,2025-02-05_16h01.25.778,Vis-B-Scan_AC,2022.2.5,None,
3,First_Order,1.0,viswhere,stimulus/viswhere_stim/blank_white.png,stimulus/viswhere_stim/blank_white.png,stimulus/viswhere_stim/120-deg_dot-left_goldenrod.png,stimulus/viswhere_stim/30-deg_dot-left_slateblue.png,stimulus/viswhere_stim/blank_white.png,stimulus/viswhere_stim/dot_box.png,stimulus/viswhere_stim/dot_yes.png,stimulus/viswhere_stim/dot_no.png,None,Dot,None,Dot,1,0.0,0,5.125,0,5.125,0,5.125,0,0.0,0.625,0,0.0,0,0.0,1,0.5,1,2.125,0,0,0,0,0,0,0,0,0,,,,,0,3,3,3,,,,,,,,,70.76246029200001,70.76246029200001,70.76246029200001,70.76246029200001,70.76246029200001,70.76246029200001,70.76246029200001,70.76246029200001,70.7436177923333,70.76246029200001,70.76246029200001,70.76246029200001,70.7436177923333,70.76246029200001,70.76246029200001,70.76246029200001,72.86143729199989,76.82773454199992,70.76246029200001,70.76246029200001,75.88666666699987,71.24974108399988,72.26113274999989,72.86143729199989,73.87672195899995,70.76246029200001,70.76246029200001,70.7436177923333,70.76246029200001,70.76246029200001,70.76246029200001,70.7436177923333,70.76246029200001,70.76246029200001,75.88666666699987,70.76246029200001,75.88666666699987,75.98621550000007,76.61785887499991,70.76246029200001,1,1,1.1436925409998366,reldom2_s011,001,2025-02-05_16h01.25.778,Vis-B-Scan_AC,2022.2.5,None,
4,First_Order,1.0,viswhere,stimulus/viswhere_stim/blank_white.png,stimulus/viswhere_stim/blank_white.png,stimulus/viswhere_stim/150-deg_dot-right_royalblue.png,stimulus/viswhere_stim/30-deg_dot-right_salmon.png,stimulus/viswhere_stim/blank_white.png,stimulus/viswhere_stim/line_box.png,stimulus/viswhere_stim/line_yes.png,stimulus/viswhere_stim/line_no.png,None,Line,None,Dot,2,0.0,0,5.125,0,5.125,0,5.125,0,0.0,0.625,0,0.0,0,0.0,1,0.5,1,2.125,0,0,0,0,0,0,0,0,0,,,,,0,4,4,4,,,,,,,,,76.82773454199992,76.82773454199992,76.82773454199992,76.82773454199992,76.82773454199992,76.82773454199992,76.82773454199992,76.82773454199992,76.80746512533331,76.82773454199992,76.82773454199992,76.82773454199992,76.80746512533331,76.82773454199992,76.82773454199992,76.82773454199992,78.93639675000009,82.95932362500002,76.82773454199992,76.82773454199992,81.94935633399996,77.30282462500008,78.31009274999997,78.93639675000009,79.94890633399996,76.82773454199992,76.82773454199992,76.80746512533331,76.82773454199992,76.82773454199992,76.82773454199992,76.80746512533331,76.82773454199992,76.82773454199992,81.94935633399996,76.82773454199992,81.94935633399996,82.0637939589999,82.69864087499991,76.82773454199992,2,1,1.1821164579998822,reldom2_s011,001,2025-02-05_16h01.25.778,Vis-B-Scan_AC,2022.2.5,None,
0,0.0,None,fixation,stimulus/viswhere_stim/blank_white.png,stimulus/viswhere_stim/blank_white.png,stimulus/viswhat_stim/blank_white.png,stimulus/viswhat_stim/blank_white.png,stimulus/viswhere_stim/blank_white.png,stimulus/viswhere_stim/blank_white.png,stimulus/viswhere_stim/blank_white.png,stimulus/viswhere_stim/blank_white.png,0.0,0.0,0.0,0.0,0,0.0,0,0.0,0,0.0,0,0.0,0,0.0,0.0,0,0.0,0,0.0,0,0.0,0,0.0,0,0,0,0,0,0,0,0,9,,,,,0,5,5,5,,,,,,,,,82.95932362500002,82.95932362500002,82.95932362500002,82.95932362500002,82.95932362500002,82.95932362500002,82.95932362500002,82.95932362500002,82.86559037533341,82.95932362500002,82.95932362500002,82.95932362500002,82.86559037533341,82.95932362500002,82.95932362500002,82.95932362500002,82.95932362500002,82.95932362500002,82.95932362500002,82.95932362500002,82.95932362500002,82.95932362500002,82.95932362500002,82.95932362500002,82.95932362500002,82.95932362500002,82.95932362500002,82.91559037533341,82.95932362500002,82.95932362500002,82.95932362500002,82.91559037533341,82.95932362500002,82.95932362500002,82.95932362500002,82.95932362500002,82.95932362500002,88.18032995899989,88.18032995899989,92.08667329199989,None,0,,reldom2_s011,001,2025-02-05_16h01.25.778,Vis-B-Scan_AC,2022.2.5,None,
5,Second_Order,1.0,viswhere,stimulus/viswhere_stim/90-deg_dot-left_mediumslateblue.png,stimulus/viswhere_stim/30-deg_dot-left_slateblue.png,stimulus/viswhere_stim/90-deg_dot-left_royalblue.png,stimulus/viswhere_stim/90-deg_dot-right_goldenrod.png,stimulus/viswhere_stim/match_blank.png,stimulus/viswhere_stim/match_box.png,stimulus/viswhere_stim/match_yes.png,stimulus/viswhere_stim/match_no.png,2.0,Match,Dot,Line,2,5.125,0,5.125,0,5.125,0,5.125,0,0.75,0.75,1,0.5,1,2.125,1,0.5,1,2.125,0,0,0,0,0,0,0,0,0,,,,,0,6,6,6,,,,,,,,,92.08667329199989,97.20532012500007,92.55939566699999,93.55749179200006,94.19274412499999,95.18172616700008,92.08667329199989,92.08667329199989,92.08704566666675,92.08667329199989,92.08667329199989,92.08667329199989,92.08704566666675,92.08667329199989,97.20532012500007,97.98506770900008,100.06981229200005,103.96761920900008,97.98506770900008,97.98506770900008,103.12313558400001,98.44470583399993,99.45882220899989,100.06981229200005,101.08928804199991,97.98506770900008,97.98506770900008,97.9720515833333,97.98506770900008,97.98506770900008,97.98506770900008,97.9720515833333,97.98506770900008,97.98506770900008,103.12313558400001,97.98506770900008,103.12313558400001,103.19273116699992,103.96761920900008,97.98506770900008,2,1,1.4708063749999383,reldom2_s011,001,2025-02-05_16h01.25.778,Vis-B-Scan_AC,2022.2.5,None,
6,Second_Order,1.0,viswhere,stimulus/viswhere_stim/30-deg_dot-right_turquoise.png,stimulus/viswhere_stim/30-deg_dot-left_goldenrod.png,stimulus/viswhere_stim/60-deg_dot-left_salmon.png,stimulus/viswhere_stim/60-deg_dot-right_slateblue.png,stimulus/viswhere_stim/match_blank.png,stimulus/viswhere_stim/match_box.png,stimulus/viswhere_stim/match_yes.png,stimulus/viswhere_stim/match_no.png,1.0,Match,Line,Line,1,5.125,0,5.125,0,5.125,0,5.125,0,0.625,0.625,1,0.5,1,2.125,1,0.5,1,2.125,0,0,0,0,0,0,0,0,0,,,,,0,7,7,7,,,,,,,,,103.96761920900008,109.08280941699991,104.45344049999994,105.4518415,106.07588320900004,107.07211141700009,103.96761920900008,103.96761920900008,103.98084683400002,103.96761920900008,103.96761920900008,103.96761920900008,103.98084683400002,103.96761920900008,109.08280941699991,109.73848516699991,111.82384045899994,115.8724803749999,109.73848516699991,109.73848516699991,114.877079375,110.210787084,111.21830262499998,111.82384045899994,112.83974699999999,109.73848516699991,109.73848516699991,109.72816591733343,109.73848516699991,109.73848516699991,109.73848516699991,109.72816591733343,109.73848516699991,109.73848516699991,114.877079375,109.73848516699991,114.877079375,114.94692424999994,115.59116579200008,109.73848516699991,1,1,0.9790512489998946,reldom2_s011,001,2025-02-05_16h01.25.778,Vis-B-Scan_AC,2022.2.5,None,
0,0.0,None,fixation,stimulus/viswhere_stim/blank_white.png,stimulus/viswhere_stim/blank_white.png,stimulus/viswhat_stim/blank_white.png,stimulus/viswhat_stim/blank_white.png,stimulus/viswhere_stim/blank_white.png,stimulus/viswhere_stim/blank_white.png,stimulus/viswhere_stim/blank_white.png,stimulus/viswhere_stim/blank_white.png,0.0,0.0,0.0,0.0,0,0.0,0,0.0,0,0.0,0,0.0,0,0.0,0.0,0,0.0,0,0.0,0,0.0,0,0.0,0,0,0,0,0,0,0,0,9,,,,,0,8,8,8,,,,,,,,,115.8724803749999,115.8724803749999,115.8724803749999,115.8724803749999,115.8724803749999,115.8724803749999,115.8724803749999,115.8724803749999,115.7747338333332,115.8724803749999,115.8724803749999,115.8724803749999,115.7747338333332,115.8724803749999,115.8724803749999,115.8724803749999,115.8724803749999,115.8724803749999,115.8724803749999,115.8724803749999,115.8724803749999,115.8724803749999,115.8724803749999,115.8724803749999,115.8724803749999,115.8724803749999,115.8724803749999,115.8247338333332,115.8724803749999,115.8724803749999,115.8724803749999,115.8247338333332,115.8724803749999,115.8724803749999,115.8724803749999,115.8724803749999,115.8724803749999,121.06572262500003,121.06572262500003,125.06099966700003,None,0,,reldom2_s011,001,2025-02-05_16h01.25.778,Vis-B-Scan_AC,2022.2.5,None,
7,First_Order,2.0,viswhere,stimulus/viswhere_stim/blank_white.png,stimulus/viswhere_stim/blank_white.png,stimulus/viswhere_stim/60-deg_dot-right_peru.png,stimulus/viswhere_stim/120-deg_dot-right_goldenrod.png,stimulus/viswhere_stim/blank_white.png,stimulus/viswhere_stim/line_box.png,stimulus/viswhere_stim/line_yes.png,stimulus/viswhere_stim/line_no.png,None,Line,None,Dot,2,0.0,0,5.125,0,5.125,0,5.125,0,0.0,0.625,0,0.0,0,0.0,1,0.5,1,2.125,0,0,0,0,0,0,0,0,0,,,,,0,9,9,9,,,,,,,,,125.06099966700003,125.06099966700003,125.06099966700003,125.06099966700003,125.06099966700003,125.06099966700003,125.06099966700003,125.06099966700003,125.04114762566671,125.06099966700003,125.06099966700003,125.06099966700003,125.04114762566671,125.06099966700003,125.06099966700003,125.06099966700003,127.16396883399989,131.1170118749999,125.06099966700003,125.06099966700003,130.19364766700005,125.53864404199999,126.55285062500002,127.16396883399989,128.18092683400005,125.06099966700003,125.06099966700003,125.04114762566671,125.06099966700003,125.06099966700003,125.06099966700003,125.04114762566671,125.06099966700003,125.06099966700003,130.19364766700005,125.06099966700003,130.19364766700005,130.27769654200006,130.9263598340001,125.06099966700003,2,1,1.4396604159999242,reldom2_s011,001,2025-02-05_16h01.25.778,Vis-B-Scan_AC,2022.2.5,None,
8,First_Order,2.0,viswhere,stimulus/viswhere_stim/blank_white.png,stimulus/viswhere_stim/blank_white.png,stimulus/viswhere_stim/90-deg_dot-left_turquoise.png,stimulus/viswhere_stim/90-deg_dot-right_peru.png,stimulus/viswhere_stim/blank_white.png,stimulus/viswhere_stim/line_box.png,stimulus/viswhere_stim/line_yes.png,stimulus/viswhere_stim/line_no.png,None,Line,None,Line,1,0.0,0,5.125,0,5.125,0,5.125,0,0.0,0.625,0,0.0,0,0.0,1,0.5,1,2.125,0,0,0,0,0,0,0,0,0,,,,,0,10,10,10,,,,,,,,,131.1170118749999,131.1170118749999,131.1170118749999,131.1170118749999,131.1170118749999,131.1170118749999,131.1170118749999,131.1170118749999,131.09562304233336,131.1170118749999,131.1170118749999,131.1170118749999,131.09562304233336,131.1170118749999,131.1170118749999,131.1170118749999,133.23040941699992,137.17863899999998,131.1170118749999,131.1170118749999,136.23912629200004,131.59678145899989,132.6175515,133.23040941699992,134.23515758400004,131.1170118749999,131.1170118749999,131.11228970900004,131.1170118749999,131.1170118749999,131.1170118749999,131.11228970900004,131.1170118749999,131.1170118749999,136.23912629200004,131.1170118749999,136.23912629200004,136.33619920899991,136.96136116699995,131.1170118749999,1,1,1.233288291000008,reldom2_s011,001,2025-02-05_16h01.25.778,Vis-B-Scan_AC,2022.2.5,None,
9,First_Order,2.0,viswhere,stimulus/viswhere_stim/blank_white.png,stimulus/viswhere_stim/blank_white.png,stimulus/viswhere_stim/60-deg_dot-right_seagreen.png,stimulus/viswhere_stim/120-deg_dot-right_salmon.png,stimulus/viswhere_stim/blank_white.png,stimulus/viswhere_stim/dot_box.png,stimulus/viswhere_stim/dot_yes.png,stimulus/viswhere_stim/dot_no.png,None,Dot,None,Dot,1,0.0,0,5.125,0,5.125,0,5.125,0,0.0,0.625,0,0.0,0,0.0,1,0.5,1,2.125,0,0,0,0,0,0,0,0,0,,,,,0,11,11,11,,,,,,,,,137.17863899999998,137.17863899999998,137.17863899999998,137.17863899999998,137.17863899999998,137.17863899999998,137.17863899999998,137.17863899999998,137.15719383333325,137.17863899999998,137.17863899999998,137.17863899999998,137.15719383333325,137.17863899999998,137.17863899999998,137.17863899999998,139.2843701249999,143.25902208399998,137.17863899999998,137.17863899999998,142.31959766699993,137.65798291700003,138.67367891699996,139.2843701249999,140.30507650000004,137.17863899999998,137.17863899999998,137.17386049999993,137.17863899999998,137.17863899999998,137.17863899999998,137.17386049999993,137.17863899999998,137.17863899999998,142.31959766699993,137.17863899999998,142.31959766699993,142.40291550000006,143.02817179199997,137.17863899999998,1,1,1.5877159579997624,reldom2_s011,001,2025-02-05_16h01.25.778,Vis-B-Scan_AC,2022.2.5,None,
10,First_Order,2.0,viswhere,stimulus/viswhere_stim/blank_white.png,stimulus/viswhere_stim/blank_white.png,stimulus/viswhere_stim/120-deg_dot-right_cyan.png,stimulus/viswhere_stim/120-deg_dot-left_turquoise.png,stimulus/viswhere_stim/blank_white.png,stimulus/viswhere_stim/line_box.png,stimulus/viswhere_stim/line_yes.png,stimulus/viswhere_stim/line_no.png,None,Line,None,Line,1,0.0,0,5.125,0,5.125,0,5.125,0,0.0,0.625,0,0.0,0,0.0,1,0.5,1,2.125,0,0,0,0,0,0,0,0,0,,,,,0,12,12,12,,,,,,,,,143.25902208399998,143.25902208399998,143.25902208399998,143.25902208399998,143.25902208399998,143.25902208399998,143.25902208399998,143.25902208399998,143.2380821253333,143.25902208399998,143.25902208399998,143.25902208399998,143.2380821253333,143.25902208399998,143.25902208399998,143.25902208399998,145.37112324999998,149.4020539589999,143.25902208399998,143.25902208399998,148.40026525000007,143.73859454199987,144.7588237089999,145.37112324999998,146.376218375,143.25902208399998,143.25902208399998,143.254748792,143.25902208399998,143.25902208399998,143.25902208399998,143.254748792,143.25902208399998,143.25902208399998,148.40026525000007,143.25902208399998,148.40026525000007,148.4836084169999,149.10890291700002,143.25902208399998,1,1,1.1484823319999578,reldom2_s011,001,2025-02-05_16h01.25.778,Vis-B-Scan_AC,2022.2.5,None,
0,0.0,None,fixation,stimulus/viswhere_stim/blank_white.png,stimulus/viswhere_stim/blank_white.png,stimulus/viswhat_stim/blank_white.png,stimulus/viswhat_stim/blank_white.png,stimulus/viswhere_stim/blank_white.png,stimulus/viswhere_stim/blank_white.png,stimulus/viswhere_stim/blank_white.png,stimulus/viswhere_stim/blank_white.png,0.0,0.0,0.0,0.0,0,0.0,0,0.0,0,0.0,0,0.0,0,0.0,0.0,0,0.0,0,0.0,0,0.0,0,0.0,0,0,0,0,0,0,0,0,8,,,,,0,13,13,13,,,,,,,,,149.4020539589999,149.4020539589999,149.4020539589999,149.4020539589999,149.4020539589999,149.4020539589999,149.4020539589999,149.4020539589999,149.3043278753333,149.4020539589999,149.4020539589999,149.4020539589999,149.3043278753333,149.4020539589999,149.4020539589999,149.4020539589999,149.4020539589999,149.4020539589999,149.4020539589999,149.4020539589999,149.4020539589999,149.4020539589999,149.4020539589999,149.4020539589999,149.4020539589999,149.4020539589999,149.4020539589999,149.35432787533333,149.4020539589999,149.4020539589999,149.4020539589999,149.35432787533333,149.4020539589999,149.4020539589999,149.4020539589999,149.4020539589999,149.4020539589999,154.61508716699996,154.61508716699996,157.551802792,None,0,,reldom2_s011,001,2025-02-05_16h01.25.778,Vis-B-Scan_AC,2022.2.5,None,
11,Second_Order,2.0,viswhere,stimulus/viswhere_stim/120-deg_dot-left_slateblue.png,stimulus/viswhere_stim/60-deg_dot-left_seagreen.png,stimulus/viswhere_stim/90-deg_dot-right_seagreen.png,stimulus/viswhere_stim/30-deg_dot-right_mediumslateblue.png,stimulus/viswhere_stim/match_blank.png,stimulus/viswhere_stim/match_box.png,stimulus/viswhere_stim/match_yes.png,stimulus/viswhere_stim/match_no.png,1.0,Match,Dot,Dot,1,5.125,0,5.125,0,5.125,0,5.125,0,0.75,0.75,1,0.5,1,2.125,1,0.5,1,2.125,0,0,0,0,0,0,0,0,0,,,,,0,14,14,14,,,,,,,,,157.551802792,162.67283270899998,158.02722266699993,159.02563454200003,159.66029208400005,160.6491792500001,157.551802792,157.551802792,157.56457254233342,157.551802792,157.551802792,157.551802792,157.56457254233342,157.551802792,162.67283270899998,163.45130937499994,165.53842429199995,169.4384809999999,163.45130937499994,163.45130937499994,168.58005854199996,163.91522704199997,164.921758125,165.53842429199995,166.54932633399994,163.45130937499994,163.45130937499994,163.43954533333346,163.45130937499994,163.45130937499994,163.45130937499994,163.43954533333346,163.45130937499994,163.45130937499994,168.58005854199996,163.45130937499994,168.58005854199996,168.66345712499992,169.4384809999999,163.45130937499994,1,1,0.9056964159999552,reldom2_s011,001,2025-02-05_16h01.25.778,Vis-B-Scan_AC,2022.2.5,None,
12,Second_Order,2.0,viswhere,stimulus/viswhere_stim/90-deg_dot-right_cyan.png,stimulus/viswhere_stim/90-deg_dot-left_salmon.png,stimulus/viswhere_stim/30-deg_dot-left_goldenrod.png,stimulus/viswhere_stim/60-deg_dot-left_turquoise.png,stimulus/viswhere_stim/match_blank.png,stimulus/viswhere_stim/match_box.png,stimulus/viswhere_stim/match_yes.png,stimulus/viswhere_stim/match_no.png,2.0,Match,Line,Dot,2,5.125,0,5.125,0,5.125,0,5.125,0,0.625,0.625,1,0.5,1,2.125,1,0.5,1,2.125,0,0,0,0,0,0,0,0,0,,,,,0,15,15,15,,,,,,,,,169.4384809999999,174.56131304199994,169.9211513339999,170.9193097499999,171.54236379200006,172.53985512500003,169.4384809999999,169.4384809999999,169.45097958399998,169.4384809999999,169.4384809999999,169.4384809999999,169.45097958399998,169.4384809999999,174.56131304199994,175.22159366699998,177.31497308400003,181.351769417,175.22159366699998,175.22159366699998,180.34366491700007,175.70076270899995,176.720920042,177.31497308400003,178.3218831669999,175.22159366699998,175.22159366699998,175.21270154233326,175.22159366699998,175.22159366699998,175.22159366699998,175.21270154233326,175.22159366699998,175.22159366699998,180.34366491700007,175.22159366699998,180.34366491700007,180.43169112500004,181.05871849999994,175.22159366699998,2,1,1.538208166000004,reldom2_s011,001,2025-02-05_16h01.25.778,Vis-B-Scan_AC,2022.2.5,None,
0,0.0,None,fixation,stimulus/viswhere_stim/blank_white.png,stimulus/viswhere_stim/blank_white.png,stimulus/viswhat_stim/blank_white.png,stimulus/viswhat_stim/blank_white.png,stimulus/viswhere_stim/blank_white.png,stimulus/viswhere_stim/blank_white.png,stimulus/viswhere_stim/blank_white.png,stimulus/viswhere_stim/blank_white.png,0.0,0.0,0.0,0.0,0,0.0,0,0.0,0,0.0,0,0.0,0,0.0,0.0,0,0.0,0,0.0,0,0.0,0,0.0,0,0,0,0,0,0,0,0,10,,,,,0,16,16,16,,,,,,,,,181.351769417,181.351769417,181.351769417,181.351769417,181.351769417,181.351769417,181.351769417,181.351769417,181.2527620833333,181.351769417,181.351769417,181.351769417,181.2527620833333,181.351769417,181.351769417,181.351769417,181.351769417,181.351769417,181.351769417,181.351769417,181.351769417,181.351769417,181.351769417,181.351769417,181.351769417,181.351769417,181.351769417,181.3027620833333,181.351769417,181.351769417,181.351769417,181.3027620833333,181.351769417,181.351769417,181.351769417,181.351769417,181.351769417,186.57905462500003,186.57905462500003,191.61790704200007,None,0,,reldom2_s011,001,2025-02-05_16h01.25.778,Vis-B-Scan_AC,2022.2.5,None,
13,First_Order,3.0,viswhat,stimulus/viswhat_stim/blank_white.png,stimulus/viswhat_stim/blank_white.png,stimulus/viswhat_stim/land_animal-moose.png,stimulus/viswhat_stim/water_animal-whale (1).png,stimulus/viswhat_stim/blank_white.png,stimulus/viswhat_stim/type_box.png,stimulus/viswhat_stim/type_yes.png,stimulus/viswhat_stim/type_no.png,None,Type,None,Type,1,0.0,0,5.125,0,5.125,0,5.125,0,0.0,0.625,0,0.0,0,0.0,1,0.5,1,2.125,0,0,0,0,0,0,0,0,0,,,,,0,17,17,17,,,,,,,,,191.61790704200007,191.61790704200007,191.61790704200007,191.61790704200007,191.61790704200007,191.61790704200007,191.61790704200007,191.61790704200007,191.51125808366663,191.61790704200007,191.61790704200007,191.61790704200007,191.51125808366663,191.61790704200007,191.61790704200007,191.61790704200007,193.68440658400004,,191.61790704200007,191.61790704200007,196.81570424999995,192.09220075000007,193.156831625,193.68440658400004,194.75179783399994,191.61790704200007,191.61790704200007,191.56125808366662,191.61790704200007,191.61790704200007,191.61790704200007,191.56125808366662,191.61790704200007,191.61790704200007,196.81570424999995,191.61790704200007,196.81570424999995,196.81570424999995,197.6568252919999,191.61790704200007,1,1,1.8154881659997955,reldom2_s011,001,2025-02-05_16h01.25.778,Vis-B-Scan_AC,2022.2.5,None,
14,First_Order,3.0,viswhat,stimulus/viswhat_stim/blank_white.png,stimulus/viswhat_stim/blank_white.png,stimulus/viswhat_stim/land_vehicle-trolley.png,stimulus/viswhat_stim/water_vehicle-jetski.png,stimulus/viswhat_stim/blank_white.png,stimulus/viswhat_stim/location_box.png,stimulus/viswhat_stim/location_yes.png,stimulus/viswhat_stim/location_no.png,None,Location,None,Type,2,0.0,0,5.125,0,5.125,0,5.125,0,0.0,0.625,0,0.0,0,0.0,1,0.5,1,2.125,0,0,0,0,0,0,0,0,0,,,,,0,18,18,18,,,,,,,,,197.6568252919999,197.6568252919999,197.6568252919999,197.6568252919999,197.6568252919999,197.6568252919999,197.6568252919999,197.6568252919999,197.62236616666672,197.6568252919999,197.6568252919999,197.6568252919999,197.62236616666672,197.6568252919999,197.6568252919999,197.6568252919999,199.7628890420001,203.7357764589999,197.6568252919999,197.6568252919999,202.7877719999999,198.13861970900007,199.15425395900002,199.7628890420001,200.78283704199998,197.6568252919999,197.6568252919999,197.63903283333337,197.6568252919999,197.6568252919999,197.6568252919999,197.63903283333337,197.6568252919999,197.6568252919999,202.7877719999999,197.6568252919999,202.7877719999999,202.8666424170001,203.5111133339999,197.6568252919999,2,1,1.283165998999948,reldom2_s011,001,2025-02-05_16h01.25.778,Vis-B-Scan_AC,2022.2.5,None,
15,First_Order,3.0,viswhat,stimulus/viswhat_stim/blank_white.png,stimulus/viswhat_stim/blank_white.png,stimulus/viswhat_stim/land_animal-ostrich.png,stimulus/viswhat_stim/land_vehicle-train.png,stimulus/viswhat_stim/blank_white.png,stimulus/viswhat_stim/location_box.png,stimulus/viswhat_stim/location_yes.png,stimulus/viswhat_stim/location_no.png,None,Location,None,Location,1,0.0,0,5.125,0,5.125,0,5.125,0,0.0,0.625,0,0.0,0,0.0,1,0.5,1,2.125,0,0,0,0,0,0,0,0,0,,,,,0,19,19,19,,,,,,,,,203.7357764589999,203.7357764589999,203.7357764589999,203.7357764589999,203.7357764589999,203.7357764589999,203.7357764589999,203.7357764589999,203.70851358400012,203.7357764589999,203.7357764589999,203.7357764589999,203.70851358400012,203.7357764589999,203.7357764589999,203.7357764589999,205.82989249999991,210.14716387499993,203.7357764589999,203.7357764589999,208.86250566700005,204.223747,205.247962959,205.82989249999991,206.83816283400006,203.7357764589999,203.7357764589999,203.72518025066677,203.7357764589999,203.7357764589999,203.7357764589999,203.72518025066677,203.7357764589999,203.7357764589999,208.86250566700005,203.7357764589999,208.86250566700005,208.9504206669999,209.58293475000005,203.7357764589999,1,1,0.979578581999931,reldom2_s011,001,2025-02-05_16h01.25.778,Vis-B-Scan_AC,2022.2.5,None,
16,First_Order,3.0,viswhat,stimulus/viswhat_stim/blank_white.png,stimulus/viswhat_stim/blank_white.png,stimulus/viswhat_stim/water_animal-lobster.png,stimulus/viswhat_stim/land_animal-moose.png,stimulus/viswhat_stim/blank_white.png,stimulus/viswhat_stim/location_box.png,stimulus/viswhat_stim/location_yes.png,stimulus/viswhat_stim/location_no.png,None,Location,None,Type,2,0.0,0,5.125,0,5.125,0,5.125,0,0.0,0.625,0,0.0,0,0.0,1,0.5,1,2.125,0,0,0,0,0,0,0,0,0,,,,,0,20,20,20,,,,,,,,,210.14716387499993,210.14716387499993,210.14716387499993,210.14716387499993,210.14716387499993,210.14716387499993,210.14716387499993,210.14716387499993,209.7709450003334,210.14716387499993,210.14716387499993,210.14716387499993,209.7709450003334,210.14716387499993,210.14716387499993,210.14716387499993,212.1445128339999,216.27297991699993,210.14716387499993,210.14716387499993,215.58855654199988,210.51217199999996,211.78186220899988,212.1445128339999,213.415764459,210.14716387499993,210.14716387499993,209.97094500033342,210.14716387499993,210.14716387499993,210.14716387499993,209.97094500033342,210.14716387499993,210.14716387499993,215.58855654199988,210.14716387499993,215.58855654199988,215.23183649999987,,210.14716387499993,2,1,2.211431166000011,reldom2_s011,001,2025-02-05_16h01.25.778,Vis-B-Scan_AC,2022.2.5,None,
0,0.0,None,fixation,stimulus/viswhere_stim/blank_white.png,stimulus/viswhere_stim/blank_white.png,stimulus/viswhat_stim/blank_white.png,stimulus/viswhat_stim/blank_white.png,stimulus/viswhere_stim/blank_white.png,stimulus/viswhere_stim/blank_white.png,stimulus/viswhere_stim/blank_white.png,stimulus/viswhere_stim/blank_white.png,0.0,0.0,0.0,0.0,0,0.0,0,0.0,0,0.0,0,0.0,0,0.0,0.0,0,0.0,0,0.0,0,0.0,0,0.0,0,0,0,0,0,0,0,0,8,,,,,0,21,21,21,,,,,,,,,216.27297991699993,216.27297991699993,216.27297991699993,216.27297991699993,216.27297991699993,216.27297991699993,216.27297991699993,216.27297991699993,216.163430042,216.27297991699993,216.27297991699993,216.27297991699993,216.163430042,216.27297991699993,216.27297991699993,216.27297991699993,216.27297991699993,216.27297991699993,216.27297991699993,216.27297991699993,216.27297991699993,216.27297991699993,216.27297991699993,216.27297991699993,216.27297991699993,216.27297991699993,216.27297991699993,216.23009670866665,216.27297991699993,216.27297991699993,216.27297991699993,216.23009670866665,216.27297991699993,216.27297991699993,216.27297991699993,216.27297991699993,216.27297991699993,221.47866816700002,221.47866816700002,224.42780683399997,None,0,,reldom2_s011,001,2025-02-05_16h01.25.778,Vis-B-Scan_AC,2022.2.5,None,
17,Second_Order,3.0,viswhat,stimulus/viswhat_stim/land_animal-giraffe.png,stimulus/viswhat_stim/water_animal-stingray.png,stimulus/viswhat_stim/water_animal-squid.png,stimulus/viswhat_stim/water_vehicle-yacht.png,stimulus/viswhere_stim/match_blank.png,stimulus/viswhere_stim/match_box.png,stimulus/viswhere_stim/match_yes.png,stimulus/viswhere_stim/match_no.png,2.0,Match,Type,Location,2,5.125,0,5.125,0,5.125,0,5.125,0,0.75,0.75,1,0.5,1,2.125,1,0.5,1,2.125,0,0,0,0,0,0,0,0,0,,,,,0,22,22,22,,,,,,,,,224.42780683399997,229.54302504199995,224.87706495899988,225.86631029199998,226.50197945900004,227.500210917,224.42780683399997,224.42780683399997,224.42302195900007,224.42780683399997,224.42780683399997,224.42780683399997,224.42302195900007,224.42780683399997,229.54302504199995,230.35643070900005,232.445170125,236.370935875,230.35643070900005,230.35643070900005,235.52825345899987,230.81204024999988,231.837872542,232.445170125,233.473098167,230.35643070900005,230.35643070900005,230.326733875,230.35643070900005,230.35643070900005,230.35643070900005,230.326733875,230.35643070900005,230.35643070900005,235.52825345899987,230.35643070900005,235.52825345899987,235.56072562500003,,230.35643070900005,2,1,1.967243708000069,reldom2_s011,001,2025-02-05_16h01.25.778,Vis-B-Scan_AC,2022.2.5,None,
18,Second_Order,3.0,viswhat,stimulus/viswhat_stim/water_animal-whale (1).png,stimulus/viswhat_stim/land_animal-tiger.png,stimulus/viswhat_stim/water_animal-orka.png,stimulus/viswhat_stim/water_vehicle-cargoboat.png,stimulus/viswhere_stim/match_blank.png,stimulus/viswhere_stim/match_box.png,stimulus/viswhere_stim/match_yes.png,stimulus/viswhere_stim/match_no.png,2.0,Match,Type,Location,2,5.125,0,5.125,0,5.125,0,5.125,0,0.625,0.625,1,0.5,1,2.125,1,0.5,1,2.125,0,0,0,0,0,0,0,0,0,,,,,0,23,23,23,,,,,,,,,236.370935875,241.48723583399988,236.825846167,237.82424354199998,238.45878212499997,239.4482096669999,236.370935875,236.370935875,236.37363804199993,236.370935875,236.370935875,236.370935875,236.37363804199993,236.370935875,241.48723583399988,242.24382041700005,244.298121584,248.3683085,242.24382041700005,242.24382041700005,247.41985295900008,242.70726958399996,243.7677134999999,244.298121584,245.36320320899995,242.24382041700005,242.24382041700005,242.1837871253334,242.24382041700005,242.24382041700005,242.24382041700005,242.1837871253334,242.24382041700005,242.24382041700005,247.41985295900008,242.24382041700005,247.41985295900008,247.41985295900008,248.3683085,242.24382041700005,2,1,1.838936332000003,reldom2_s011,001,2025-02-05_16h01.25.778,Vis-B-Scan_AC,2022.2.5,None,
0,0.0,None,fixation,stimulus/viswhere_stim/blank_white.png,stimulus/viswhere_stim/blank_white.png,stimulus/viswhat_stim/blank_white.png,stimulus/viswhat_stim/blank_white.png,stimulus/viswhere_stim/blank_white.png,stimulus/viswhere_stim/blank_white.png,stimulus/viswhere_stim/blank_white.png,stimulus/viswhere_stim/blank_white.png,0.0,0.0,0.0,0.0,0,0.0,0,0.0,0,0.0,0,0.0,0,0.0,0.0,0,0.0,0,0.0,0,0.0,0,0.0,0,0,0,0,0,0,0,0,9,,,,,0,24,24,24,,,,,,,,,248.3683085,248.3683085,248.3683085,248.3683085,248.3683085,248.3683085,248.3683085,248.3683085,248.26891537533328,248.3683085,248.3683085,248.3683085,248.26891537533328,248.3683085,248.3683085,248.3683085,248.3683085,248.3683085,248.3683085,248.3683085,248.3683085,248.3683085,248.3683085,248.3683085,248.3683085,248.3683085,248.3683085,248.3189153753333,248.3683085,248.3683085,248.3683085,248.3189153753333,248.3683085,248.3683085,248.3683085,248.3683085,248.3683085,253.5770602089999,253.5770602089999,257.611623,None,0,,reldom2_s011,001,2025-02-05_16h01.25.778,Vis-B-Scan_AC,2022.2.5,None,
19,First_Order,4.0,viswhat,stimulus/viswhat_stim/blank_white.png,stimulus/viswhat_stim/blank_white.png,stimulus/viswhat_stim/water_animal-dolphin.png,stimulus/viswhat_stim/water_vehicle-canoe.png,stimulus/viswhat_stim/blank_white.png,stimulus/viswhat_stim/type_box.png,stimulus/viswhat_stim/type_yes.png,stimulus/viswhat_stim/type_no.png,None,Type,None,Location,2,0.0,0,5.125,0,5.125,0,5.125,0,0.0,0.625,0,0.0,0,0.0,1,0.5,1,2.125,0,0,0,0,0,0,0,0,0,,,,,0,25,25,25,,,,,,,,,257.611623,257.611623,257.611623,257.611623,257.611623,257.611623,257.611623,257.611623,257.5695923756665,257.611623,257.611623,257.611623,257.5695923756665,257.611623,257.611623,257.611623,259.719985084,263.7591332499999,257.611623,257.611623,262.76799712499997,258.07988858399995,259.10607475000006,259.719985084,260.74869158399997,257.611623,257.611623,257.5862590423332,257.611623,257.611623,257.611623,257.5862590423332,257.611623,257.611623,262.76799712499997,257.611623,262.76799712499997,262.815264459,263.453344667,257.611623,2,1,1.9356832069997836,reldom2_s011,001,2025-02-05_16h01.25.778,Vis-B-Scan_AC,2022.2.5,None,
20,First_Order,4.0,viswhat,stimulus/viswhat_stim/blank_white.png,stimulus/viswhat_stim/blank_white.png,stimulus/viswhat_stim/land_animal-elephant.png,stimulus/viswhat_stim/land_vehicle-pickuptruck.png,stimulus/viswhat_stim/blank_white.png,stimulus/viswhat_stim/type_box.png,stimulus/viswhat_stim/type_yes.png,stimulus/viswhat_stim/type_no.png,None,Type,None,Location,2,0.0,0,5.125,0,5.125,0,5.125,0,0.0,0.625,0,0.0,0,0.0,1,0.5,1,2.125,0,0,0,0,0,0,0,0,0,,,,,0,26,26,26,,,,,,,,,263.7591332499999,263.7591332499999,263.7591332499999,263.7591332499999,263.7591332499999,263.7591332499999,263.7591332499999,263.7591332499999,263.6466868339999,263.7591332499999,263.7591332499999,263.7591332499999,263.6466868339999,263.7591332499999,263.7591332499999,263.7591332499999,265.863596875,270.04508229199996,263.7591332499999,263.7591332499999,268.93459937500006,264.2394139999999,265.3232350420001,265.863596875,266.948811667,263.7591332499999,263.7591332499999,263.7133535006666,263.7591332499999,263.7591332499999,263.7591332499999,263.7133535006666,263.7591332499999,263.7591332499999,268.93459937500006,263.7591332499999,268.93459937500006,268.93459937500006,269.64310758400006,263.7591332499999,2,1,1.9033032080001249,reldom2_s011,001,2025-02-05_16h01.25.778,Vis-B-Scan_AC,2022.2.5,None,
21,First_Order,4.0,viswhat,stimulus/viswhat_stim/blank_white.png,stimulus/viswhat_stim/blank_white.png,stimulus/viswhat_stim/water_vehicle-cruiseship.png,stimulus/viswhat_stim/land_vehicle-oldcar.png,stimulus/viswhat_stim/blank_white.png,stimulus/viswhat_stim/type_box.png,stimulus/viswhat_stim/type_yes.png,stimulus/viswhat_stim/type_no.png,None,Type,None,Type,1,0.0,0,5.125,0,5.125,0,5.125,0,0.0,0.625,0,0.0,0,0.0,1,0.5,1,2.125,0,0,0,0,0,0,0,0,0,,,,,0,27,27,27,,,,,,,,,270.04508229199996,270.04508229199996,270.04508229199996,270.04508229199996,270.04508229199996,270.04508229199996,270.04508229199996,270.04508229199996,269.8097742506667,270.04508229199996,270.04508229199996,270.04508229199996,269.8097742506667,270.04508229199996,270.04508229199996,270.04508229199996,272.034330125,,270.04508229199996,270.04508229199996,275.3096820840001,270.51426979200005,271.6836865,272.034330125,273.2079241250001,270.04508229199996,270.04508229199996,269.92644091733337,270.04508229199996,270.04508229199996,270.04508229199996,269.92644091733337,270.04508229199996,270.04508229199996,275.3096820840001,270.04508229199996,275.3096820840001,275.19852779200005,,270.04508229199996,1,1,0.867417291000038,reldom2_s011,001,2025-02-05_16h01.25.778,Vis-B-Scan_AC,2022.2.5,None,
22,First_Order,4.0,viswhat,stimulus/viswhat_stim/blank_white.png,stimulus/viswhat_stim/blank_white.png,stimulus/viswhat_stim/water_vehicle-pirateship.png,stimulus/viswhat_stim/water_animal-orka.png,stimulus/viswhat_stim/blank_white.png,stimulus/viswhat_stim/location_box.png,stimulus/viswhat_stim/location_yes.png,stimulus/viswhat_stim/location_no.png,None,Location,None,Location,1,0.0,0,5.125,0,5.125,0,5.125,0,0.0,0.625,0,0.0,0,0.0,1,0.5,1,2.125,0,0,0,0,0,0,0,0,0,,,,,0,28,28,28,,,,,,,,,276.15952612499996,276.15952612499996,276.15952612499996,276.15952612499996,276.15952612499996,276.15952612499996,276.15952612499996,276.15952612499996,276.0385015833333,276.15952612499996,276.15952612499996,276.15952612499996,276.0385015833333,276.15952612499996,276.15952612499996,276.15952612499996,278.26471104200004,282.299406417,276.15952612499996,276.15952612499996,281.39357362500004,276.6365450420001,277.72102741699996,278.26471104200004,279.35518045899994,276.15952612499996,276.15952612499996,276.10516824999996,276.15952612499996,276.15952612499996,276.15952612499996,276.10516824999996,276.15952612499996,276.15952612499996,281.39357362500004,276.15952612499996,281.39357362500004,281.33103974999995,282.0163615839999,276.15952612499996,1,1,1.3094630830000824,reldom2_s011,001,2025-02-05_16h01.25.778,Vis-B-Scan_AC,2022.2.5,None,
0,0.0,None,fixation,stimulus/viswhere_stim/blank_white.png,stimulus/viswhere_stim/blank_white.png,stimulus/viswhat_stim/blank_white.png,stimulus/viswhat_stim/blank_white.png,stimulus/viswhere_stim/blank_white.png,stimulus/viswhere_stim/blank_white.png,stimulus/viswhere_stim/blank_white.png,stimulus/viswhere_stim/blank_white.png,0.0,0.0,0.0,0.0,0,0.0,0,0.0,0,0.0,0,0.0,0,0.0,0.0,0,0.0,0,0.0,0,0.0,0,0.0,0,0,0,0,0,0,0,0,10,,,,,0,29,29,29,,,,,,,,,282.299406417,282.299406417,282.299406417,282.299406417,282.299406417,282.299406417,282.299406417,282.299406417,282.19969491733326,282.299406417,282.299406417,282.299406417,282.19969491733326,282.299406417,282.299406417,282.299406417,282.299406417,282.299406417,282.299406417,282.299406417,282.299406417,282.299406417,282.299406417,282.299406417,282.299406417,282.299406417,282.299406417,282.2496949173332,282.299406417,282.299406417,282.299406417,282.2496949173332,282.299406417,282.299406417,282.299406417,282.299406417,282.299406417,287.5144962500001,287.5144962500001,292.4605468750001,None,0,,reldom2_s011,001,2025-02-05_16h01.25.778,Vis-B-Scan_AC,2022.2.5,None,
23,Second_Order,4.0,viswhat,stimulus/viswhat_stim/land_vehicle-pickuptruck.png,stimulus/viswhat_stim/land_animal-lion.png,stimulus/viswhat_stim/water_animal-jellyfish.png,stimulus/viswhat_stim/water_vehicle-cabincruiser.png,stimulus/viswhere_stim/match_blank.png,stimulus/viswhere_stim/match_box.png,stimulus/viswhere_stim/match_yes.png,stimulus/viswhere_stim/match_no.png,1.0,Match,Location,Location,1,5.125,0,5.125,0,5.125,0,5.125,0,0.75,0.75,1,0.5,1,2.125,1,0.5,1,2.125,0,0,0,0,0,0,0,0,0,,,,,0,30,30,30,,,,,,,,,292.4605468750001,297.58276816700004,292.92126666700005,293.92005704200005,294.54360941699997,295.5404216669999,292.4605468750001,292.4605468750001,292.47342320899986,292.4605468750001,292.4605468750001,292.4605468750001,292.47342320899986,292.4605468750001,297.58276816700004,298.394464709,300.4812420420001,304.40812979199995,298.394464709,298.394464709,303.57490062500005,298.875611917,299.918800334,300.4812420420001,301.529643417,298.394464709,298.394464709,298.36695575000005,298.394464709,298.394464709,298.394464709,298.36695575000005,298.394464709,298.394464709,303.57490062500005,298.394464709,303.57490062500005,303.60953674999996,,298.394464709,1,1,1.1322010409999166,reldom2_s011,001,2025-02-05_16h01.25.778,Vis-B-Scan_AC,2022.2.5,None,
24,Second_Order,4.0,viswhat,stimulus/viswhat_stim/water_vehicle-pirateship.png,stimulus/viswhat_stim/land_vehicle-oldcar.png,stimulus/viswhat_stim/land_animal-zebra.png,stimulus/viswhat_stim/water_animal-seahorse.png,stimulus/viswhere_stim/match_blank.png,stimulus/viswhere_stim/match_box.png,stimulus/viswhere_stim/match_yes.png,stimulus/viswhere_stim/match_no.png,1.0,Match,Type,Type,1,5.125,0,5.125,0,5.125,0,5.125,0,0.625,0.625,1,0.5,1,2.125,1,0.5,1,2.125,0,0,0,0,0,0,0,0,0,,,,,0,31,31,31,,,,,,,,,304.40812979199995,309.5275345,304.8657397919999,305.86391525,306.48751037500006,307.48492737499987,304.40812979199995,304.40812979199995,304.42080400066664,304.40812979199995,304.40812979199995,304.40812979199995,304.42080400066664,304.40812979199995,309.5275345,310.19910237499994,312.2919657499999,316.32162145899997,310.19910237499994,310.19910237499994,315.3482778749999,310.667027084,311.67668412500007,312.2919657499999,313.30586720899987,310.19910237499994,310.19910237499994,310.1745576673334,310.19910237499994,310.19910237499994,310.19910237499994,310.1745576673334,310.19910237499994,310.19910237499994,315.3482778749999,310.19910237499994,315.3482778749999,315.40578754199987,316.04946129199993,310.19910237499994,1,1,1.4977437079999163,reldom2_s011,001,2025-02-05_16h01.25.778,Vis-B-Scan_AC,2022.2.5,None,
0,0.0,None,fixation,stimulus/viswhere_stim/blank_white.png,stimulus/viswhere_stim/blank_white.png,stimulus/viswhat_stim/blank_white.png,stimulus/viswhat_stim/blank_white.png,stimulus/viswhere_stim/blank_white.png,stimulus/viswhere_stim/blank_white.png,stimulus/viswhere_stim/blank_white.png,stimulus/viswhere_stim/blank_white.png,0.0,0.0,0.0,0.0,0,0.0,0,0.0,0,0.0,0,0.0,0,0.0,0.0,0,0.0,0,0.0,0,0.0,0,0.0,0,0,0,0,0,0,0,0,9,,,,,0,32,32,32,,,,,,,,,316.32162145899997,316.32162145899997,316.32162145899997,316.32162145899997,316.32162145899997,316.32162145899997,316.32162145899997,316.32162145899997,316.2249615419999,316.32162145899997,316.32162145899997,316.32162145899997,316.2249615419999,316.32162145899997,316.32162145899997,316.32162145899997,316.32162145899997,316.32162145899997,316.32162145899997,316.32162145899997,316.32162145899997,316.32162145899997,316.32162145899997,316.32162145899997,316.32162145899997,316.32162145899997,316.32162145899997,316.2749615419999,316.32162145899997,316.32162145899997,316.32162145899997,316.2749615419999,316.32162145899997,316.32162145899997,316.32162145899997,316.32162145899997,316.32162145899997,321.5086812919999,321.5086812919999,325.5438557499999,None,0,,reldom2_s011,001,2025-02-05_16h01.25.778,Vis-B-Scan_AC,2022.2.5,None,
25,First_Order,5.0,viswhere,stimulus/viswhere_stim/blank_white.png,stimulus/viswhere_stim/blank_white.png,stimulus/viswhere_stim/90-deg_dot-right_seagreen.png,stimulus/viswhere_stim/150-deg_dot-right_turquoise.png,stimulus/viswhere_stim/blank_white.png,stimulus/viswhere_stim/line_box.png,stimulus/viswhere_stim/line_yes.png,stimulus/viswhere_stim/line_no.png,None,Line,None,Dot,2,0.0,0,5.125,0,5.125,0,5.125,0,0.0,0.625,0,0.0,0,0.0,1,0.5,1,2.125,0,0,0,0,0,0,0,0,0,,,,,0,33,33,33,,,,,,,,,325.5438557499999,325.5438557499999,325.5438557499999,325.5438557499999,325.5438557499999,325.5438557499999,325.5438557499999,325.5438557499999,325.52153875066654,325.5438557499999,325.5438557499999,325.5438557499999,325.52153875066654,325.5438557499999,325.5438557499999,325.5438557499999,327.6484344999999,331.6008884999999,325.5438557499999,325.5438557499999,330.67292191699994,326.01297291700007,327.0263419999999,327.6484344999999,328.666372292,325.5438557499999,325.5438557499999,325.53820541733324,325.5438557499999,325.5438557499999,325.5438557499999,325.53820541733324,325.5438557499999,325.5438557499999,330.67292191699994,325.5438557499999,330.67292191699994,330.77086424999993,331.396491167,325.5438557499999,2,1,1.0226744990000043,reldom2_s011,001,2025-02-05_16h01.25.778,Vis-B-Scan_AC,2022.2.5,None,
26,First_Order,5.0,viswhere,stimulus/viswhere_stim/blank_white.png,stimulus/viswhere_stim/blank_white.png,stimulus/viswhere_stim/150-deg_dot-left_seagreen.png,stimulus/viswhere_stim/150-deg_dot-right_seagreen.png,stimulus/viswhere_stim/blank_white.png,stimulus/viswhere_stim/dot_box.png,stimulus/viswhere_stim/dot_yes.png,stimulus/viswhere_stim/dot_no.png,None,Dot,None,Line,2,0.0,0,5.125,0,5.125,0,5.125,0,0.0,0.625,0,0.0,0,0.0,1,0.5,1,2.125,0,0,0,0,0,0,0,0,0,,,,,0,34,34,34,,,,,,,,,331.6008884999999,331.6008884999999,331.6008884999999,331.6008884999999,331.6008884999999,331.6008884999999,331.6008884999999,331.6008884999999,331.5773832923333,331.6008884999999,331.6008884999999,331.6008884999999,331.5773832923333,331.6008884999999,331.6008884999999,331.6008884999999,333.70705287500004,337.65870300000006,331.6008884999999,331.6008884999999,336.738096584,332.088800084,333.10488824999993,333.70705287500004,334.7282969590001,331.6008884999999,331.6008884999999,331.59404995899996,331.6008884999999,331.6008884999999,331.6008884999999,331.59404995899996,331.6008884999999,331.6008884999999,336.738096584,331.6008884999999,336.738096584,336.8234956250001,337.45513525,331.6008884999999,2,1,0.8544604160001654,reldom2_s011,001,2025-02-05_16h01.25.778,Vis-B-Scan_AC,2022.2.5,None,
27,First_Order,5.0,viswhere,stimulus/viswhere_stim/blank_white.png,stimulus/viswhere_stim/blank_white.png,stimulus/viswhere_stim/90-deg_dot-left_turquoise.png,stimulus/viswhere_stim/90-deg_dot-right_seagreen.png,stimulus/viswhere_stim/blank_white.png,stimulus/viswhere_stim/line_box.png,stimulus/viswhere_stim/line_yes.png,stimulus/viswhere_stim/line_no.png,None,Line,None,Line,1,0.0,0,5.125,0,5.125,0,5.125,0,0.0,0.625,0,0.0,0,0.0,1,0.5,1,2.125,0,0,0,0,0,0,0,0,0,,,,,0,35,35,35,,,,,,,,,337.65870300000006,337.65870300000006,337.65870300000006,337.65870300000006,337.65870300000006,337.65870300000006,337.65870300000006,337.65870300000006,337.63626100033326,337.65870300000006,337.65870300000006,337.65870300000006,337.63626100033326,337.65870300000006,337.65870300000006,337.65870300000006,339.775169042,343.72682291699994,337.65870300000006,337.65870300000006,342.794048834,338.1455094170001,339.15596400000004,339.775169042,340.792191042,337.65870300000006,337.65870300000006,337.6529276669999,337.65870300000006,337.65870300000006,337.65870300000006,337.6529276669999,337.65870300000006,337.65870300000006,342.794048834,337.65870300000006,342.794048834,342.8795582089999,343.50480137499994,337.65870300000006,1,1,0.8214689989997623,reldom2_s011,001,2025-02-05_16h01.25.778,Vis-B-Scan_AC,2022.2.5,None,
28,First_Order,5.0,viswhere,stimulus/viswhere_stim/blank_white.png,stimulus/viswhere_stim/blank_white.png,stimulus/viswhere_stim/120-deg_dot-right_mediumslateblue.png,stimulus/viswhere_stim/90-deg_dot-right_lightsseagreen.png,stimulus/viswhere_stim/blank_white.png,stimulus/viswhere_stim/dot_box.png,stimulus/viswhere_stim/dot_yes.png,stimulus/viswhere_stim/dot_no.png,None,Dot,None,Dot,1,0.0,0,5.125,0,5.125,0,5.125,0,0.0,0.625,0,0.0,0,0.0,1,0.5,1,2.125,0,0,0,0,0,0,0,0,0,,,,,0,36,36,36,,,,,,,,,343.72682291699994,343.72682291699994,343.72682291699994,343.72682291699994,343.72682291699994,343.72682291699994,343.72682291699994,343.72682291699994,343.7003351673332,343.72682291699994,343.72682291699994,343.72682291699994,343.7003351673332,343.72682291699994,343.72682291699994,343.72682291699994,345.83489329200006,349.86588641699996,343.72682291699994,343.72682291699994,348.85721287499996,344.21072379199995,345.21771083399994,345.83489329200006,346.8453975,343.72682291699994,343.72682291699994,343.71700183399986,343.72682291699994,343.72682291699994,343.72682291699994,343.71700183399986,343.72682291699994,343.72682291699994,348.85721287499996,343.72682291699994,348.85721287499996,348.94013133399994,349.5662157920001,343.72682291699994,1,1,1.1722200829999565,reldom2_s011,001,2025-02-05_16h01.25.778,Vis-B-Scan_AC,2022.2.5,None,
0,0.0,None,fixation,stimulus/viswhere_stim/blank_white.png,stimulus/viswhere_stim/blank_white.png,stimulus/viswhat_stim/blank_white.png,stimulus/viswhat_stim/blank_white.png,stimulus/viswhere_stim/blank_white.png,stimulus/viswhere_stim/blank_white.png,stimulus/viswhere_stim/blank_white.png,stimulus/viswhere_stim/blank_white.png,0.0,0.0,0.0,0.0,0,0.0,0,0.0,0,0.0,0,0.0,0,0.0,0.0,0,0.0,0,0.0,0,0.0,0,0.0,0,0,0,0,0,0,0,0,10,,,,,0,37,37,37,,,,,,,,,349.86588641699996,349.86588641699996,349.86588641699996,349.86588641699996,349.86588641699996,349.86588641699996,349.86588641699996,349.86588641699996,349.7610857503333,349.86588641699996,349.86588641699996,349.86588641699996,349.7610857503333,349.86588641699996,349.86588641699996,349.86588641699996,349.86588641699996,349.86588641699996,349.86588641699996,349.86588641699996,349.86588641699996,349.86588641699996,349.86588641699996,349.86588641699996,349.86588641699996,349.86588641699996,349.86588641699996,349.8110857503333,349.86588641699996,349.86588641699996,349.86588641699996,349.8110857503333,349.86588641699996,349.86588641699996,349.86588641699996,349.86588641699996,349.86588641699996,355.05267441699993,355.05267441699993,359.983450834,None,0,,reldom2_s011,001,2025-02-05_16h01.25.778,Vis-B-Scan_AC,2022.2.5,None,
29,Second_Order,5.0,viswhere,stimulus/viswhere_stim/30-deg_dot-right_peru.png,stimulus/viswhere_stim/120-deg_dot-right_royalblue.png,stimulus/viswhere_stim/120-deg_dot-left_lightsseagreen.png,stimulus/viswhere_stim/90-deg_dot-left_seagreen.png,stimulus/viswhere_stim/match_blank.png,stimulus/viswhere_stim/match_box.png,stimulus/viswhere_stim/match_yes.png,stimulus/viswhere_stim/match_no.png,1.0,Match,Dot,Dot,1,5.125,0,5.125,0,5.125,0,5.125,0,0.75,0.75,1,0.5,1,2.125,1,0.5,1,2.125,0,0,0,0,0,0,0,0,0,,,,,0,38,38,38,,,,,,,,,359.983450834,365.10631687499995,360.4610062500001,361.4586777499999,362.082057375,363.07945704200006,359.983450834,359.983450834,359.9961322923333,359.983450834,359.983450834,359.983450834,359.9961322923333,359.983450834,365.10631687499995,365.884376709,367.9818594589999,371.8630444590001,365.884376709,365.884376709,371.01939375000006,366.352369834,367.36191862500004,367.9818594589999,368.9976394590001,365.884376709,365.884376709,365.87292666733333,365.884376709,365.884376709,365.884376709,365.87292666733333,365.884376709,365.884376709,371.01939375000006,365.884376709,371.01939375000006,371.08819229200003,371.8630444590001,365.884376709,1,1,1.0385865830000967,reldom2_s011,001,2025-02-05_16h01.25.778,Vis-B-Scan_AC,2022.2.5,None,
30,Second_Order,5.0,viswhere,stimulus/viswhere_stim/60-deg_dot-right_seagreen.png,stimulus/viswhere_stim/60-deg_dot-left_slateblue.png,stimulus/viswhere_stim/120-deg_dot-left_seagreen.png,stimulus/viswhere_stim/30-deg_dot-left_cyan.png,stimulus/viswhere_stim/match_blank.png,stimulus/viswhere_stim/match_box.png,stimulus/viswhere_stim/match_yes.png,stimulus/viswhere_stim/match_no.png,2.0,Match,Line,Dot,2,5.125,0,5.125,0,5.125,0,5.125,0,0.625,0.625,1,0.5,1,2.125,1,0.5,1,2.125,0,0,0,0,0,0,0,0,0,,,,,0,39,39,39,,,,,,,,,371.8630444590001,376.9824624590001,372.3379763749999,373.33652908399995,373.97566525,374.97360270900003,371.8630444590001,371.8630444590001,371.87591816700007,371.8630444590001,371.8630444590001,371.8630444590001,371.87591816700007,371.8630444590001,376.9824624590001,377.6414621669999,379.730360667,383.77591866700004,377.6414621669999,377.6414621669999,382.77911437500006,378.1048902089999,379.112158209,379.730360667,380.74295566699993,377.6414621669999,377.6414621669999,377.62973516733337,377.6414621669999,377.6414621669999,377.6414621669999,377.62973516733337,377.6414621669999,377.6414621669999,382.77911437500006,377.6414621669999,382.77911437500006,382.8483457919999,383.47559449999994,377.6414621669999,2,1,1.183001374999776,reldom2_s011,001,2025-02-05_16h01.25.778,Vis-B-Scan_AC,2022.2.5,None,
0,0.0,None,fixation,stimulus/viswhere_stim/blank_white.png,stimulus/viswhere_stim/blank_white.png,stimulus/viswhat_stim/blank_white.png,stimulus/viswhat_stim/blank_white.png,stimulus/viswhere_stim/blank_white.png,stimulus/viswhere_stim/blank_white.png,stimulus/viswhere_stim/blank_white.png,stimulus/viswhere_stim/blank_white.png,0.0,0.0,0.0,0.0,0,0.0,0,0.0,0,0.0,0,0.0,0,0.0,0.0,0,0.0,0,0.0,0,0.0,0,0.0,0,0,0,0,0,0,0,0,9,,,,,0,40,40,40,,,,,,,,,383.77591866700004,383.77591866700004,383.77591866700004,383.77591866700004,383.77591866700004,383.77591866700004,383.77591866700004,383.77591866700004,383.6700160003332,383.77591866700004,383.77591866700004,383.77591866700004,383.6700160003332,383.77591866700004,383.77591866700004,383.77591866700004,383.77591866700004,383.77591866700004,383.77591866700004,383.77591866700004,383.77591866700004,383.77591866700004,383.77591866700004,383.77591866700004,383.77591866700004,383.77591866700004,383.77591866700004,383.7200160003332,383.77591866700004,383.77591866700004,383.77591866700004,383.7200160003332,383.77591866700004,383.77591866700004,383.77591866700004,383.77591866700004,383.77591866700004,388.98172620900004,388.98172620900004,392.98962545899985,None,0,,reldom2_s011,001,2025-02-05_16h01.25.778,Vis-B-Scan_AC,2022.2.5,None,
31,First_Order,6.0,viswhere,stimulus/viswhere_stim/blank_white.png,stimulus/viswhere_stim/blank_white.png,stimulus/viswhere_stim/120-deg_dot-left_royalblue.png,stimulus/viswhere_stim/30-deg_dot-left_goldenrod.png,stimulus/viswhere_stim/blank_white.png,stimulus/viswhere_stim/dot_box.png,stimulus/viswhere_stim/dot_yes.png,stimulus/viswhere_stim/dot_no.png,None,Dot,None,Dot,1,0.0,0,5.125,0,5.125,0,5.125,0,0.0,0.625,0,0.0,0,0.0,1,0.5,1,2.125,0,0,0,0,0,0,0,0,0,,,,,0,41,41,41,,,,,,,,,392.98962545899985,392.98962545899985,392.98962545899985,392.98962545899985,392.98962545899985,392.98962545899985,392.98962545899985,392.98962545899985,392.96612620866665,392.98962545899985,392.98962545899985,392.98962545899985,392.96612620866665,392.98962545899985,392.98962545899985,392.98962545899985,395.09301029200014,399.0587077089999,392.98962545899985,392.98962545899985,398.1283950000002,393.47283716699985,394.47779120899986,395.09301029200014,396.10135737500013,392.98962545899985,392.98962545899985,392.98279287533336,392.98962545899985,392.98962545899985,392.98962545899985,392.98279287533336,392.98962545899985,392.98962545899985,398.1283950000002,392.98962545899985,398.1283950000002,398.2119282919998,398.84120133399983,392.98962545899985,1,1,1.2795127080003112,reldom2_s011,001,2025-02-05_16h01.25.778,Vis-B-Scan_AC,2022.2.5,None,
32,First_Order,6.0,viswhere,stimulus/viswhere_stim/blank_white.png,stimulus/viswhere_stim/blank_white.png,stimulus/viswhere_stim/150-deg_dot-left_salmon.png,stimulus/viswhere_stim/150-deg_dot-right_salmon.png,stimulus/viswhere_stim/blank_white.png,stimulus/viswhere_stim/dot_box.png,stimulus/viswhere_stim/dot_yes.png,stimulus/viswhere_stim/dot_no.png,None,Dot,None,Line,2,0.0,0,5.125,0,5.125,0,5.125,0,0.0,0.625,0,0.0,0,0.0,1,0.5,1,2.125,0,0,0,0,0,0,0,0,0,,,,,0,42,42,42,,,,,,,,,399.0587077089999,399.0587077089999,399.0587077089999,399.0587077089999,399.0587077089999,399.0587077089999,399.0587077089999,399.0587077089999,399.03521483333344,399.0587077089999,399.0587077089999,399.0587077089999,399.03521483333344,399.0587077089999,399.0587077089999,399.0587077089999,401.16504762500017,405.1210187500001,399.0587077089999,399.0587077089999,404.1817512920002,399.54615320899984,400.5619511250002,401.16504762500017,402.1849082499998,399.0587077089999,399.0587077089999,399.0518815000001,399.0587077089999,399.0587077089999,399.0587077089999,399.0518815000001,399.0587077089999,399.0587077089999,404.1817512920002,399.0587077089999,404.1817512920002,404.2804416250001,404.9028066249998,399.0587077089999,2,1,1.2233790830000544,reldom2_s011,001,2025-02-05_16h01.25.778,Vis-B-Scan_AC,2022.2.5,None,
33,First_Order,6.0,viswhere,stimulus/viswhere_stim/blank_white.png,stimulus/viswhere_stim/blank_white.png,stimulus/viswhere_stim/150-deg_dot-left_cyan.png,stimulus/viswhere_stim/150-deg_dot-right_seagreen.png,stimulus/viswhere_stim/blank_white.png,stimulus/viswhere_stim/line_box.png,stimulus/viswhere_stim/line_yes.png,stimulus/viswhere_stim/line_no.png,None,Line,None,Line,1,0.0,0,5.125,0,5.125,0,5.125,0,0.0,0.625,0,0.0,0,0.0,1,0.5,1,2.125,0,0,0,0,0,0,0,0,0,,,,,0,43,43,43,,,,,,,,,405.1210187500001,405.1210187500001,405.1210187500001,405.1210187500001,405.1210187500001,405.1210187500001,405.1210187500001,405.1210187500001,405.0970353333335,405.1210187500001,405.1210187500001,405.1210187500001,405.0970353333335,405.1210187500001,405.1210187500001,405.1210187500001,407.23584325,411.1846423339998,405.1210187500001,405.1210187500001,410.25703354200004,405.6117835,406.6306307499999,407.23584325,408.2395644170001,405.1210187500001,405.1210187500001,405.11370200000016,405.1210187500001,405.1210187500001,405.1210187500001,405.11370200000016,405.1210187500001,405.1210187500001,410.25703354200004,405.1210187500001,410.25703354200004,410.34609958400006,410.980487625,405.1210187500001,1,1,0.871451499000159,reldom2_s011,001,2025-02-05_16h01.25.778,Vis-B-Scan_AC,2022.2.5,None,
34,First_Order,6.0,viswhere,stimulus/viswhere_stim/blank_white.png,stimulus/viswhere_stim/blank_white.png,stimulus/viswhere_stim/150-deg_dot-right_cyan.png,stimulus/viswhere_stim/120-deg_dot-right_cyan.png,stimulus/viswhere_stim/blank_white.png,stimulus/viswhere_stim/line_box.png,stimulus/viswhere_stim/line_yes.png,stimulus/viswhere_stim/line_no.png,None,Line,None,Dot,2,0.0,0,5.125,0,5.125,0,5.125,0,0.0,0.625,0,0.0,0,0.0,1,0.5,1,2.125,0,0,0,0,0,0,0,0,0,,,,,0,44,44,44,,,,,,,,,411.1846423339998,411.1846423339998,411.1846423339998,411.1846423339998,411.1846423339998,411.1846423339998,411.1846423339998,411.1846423339998,411.1613331673332,411.1846423339998,411.1846423339998,411.1846423339998,411.1613331673332,411.1846423339998,411.1846423339998,411.1846423339998,413.28710895899985,417.33593741699997,411.1846423339998,411.1846423339998,416.3098758340002,411.67074616699983,412.6853827499999,413.28710895899985,414.30447941700004,411.1846423339998,411.1846423339998,411.1779998339999,411.1846423339998,411.1846423339998,411.1846423339998,411.1779998339999,411.1846423339998,411.1846423339998,416.3098758340002,411.1846423339998,416.3098758340002,416.40743495900006,417.0387175420001,411.1846423339998,2,1,0.961423540999931,reldom2_s011,001,2025-02-05_16h01.25.778,Vis-B-Scan_AC,2022.2.5,None,
0,0.0,None,fixation,stimulus/viswhere_stim/blank_white.png,stimulus/viswhere_stim/blank_white.png,stimulus/viswhat_stim/blank_white.png,stimulus/viswhat_stim/blank_white.png,stimulus/viswhere_stim/blank_white.png,stimulus/viswhere_stim/blank_white.png,stimulus/viswhere_stim/blank_white.png,stimulus/viswhere_stim/blank_white.png,0.0,0.0,0.0,0.0,0,0.0,0,0.0,0,0.0,0,0.0,0,0.0,0.0,0,0.0,0,0.0,0,0.0,0,0.0,0,0,0,0,0,0,0,0,8,,,,,0,45,45,45,,,,,,,,,417.33593741699997,417.33593741699997,417.33593741699997,417.33593741699997,417.33593741699997,417.33593741699997,417.33593741699997,417.33593741699997,417.2339291673332,417.33593741699997,417.33593741699997,417.33593741699997,417.2339291673332,417.33593741699997,417.33593741699997,417.33593741699997,417.33593741699997,417.33593741699997,417.33593741699997,417.33593741699997,417.33593741699997,417.33593741699997,417.33593741699997,417.33593741699997,417.33593741699997,417.33593741699997,417.33593741699997,417.2839291673332,417.33593741699997,417.33593741699997,417.33593741699997,417.2839291673332,417.33593741699997,417.33593741699997,417.33593741699997,417.33593741699997,417.33593741699997,422.5376125419998,422.5376125419998,425.47459554199986,None,0,,reldom2_s011,001,2025-02-05_16h01.25.778,Vis-B-Scan_AC,2022.2.5,None,
35,Second_Order,6.0,viswhere,stimulus/viswhere_stim/60-deg_dot-right_cyan.png,stimulus/viswhere_stim/60-deg_dot-left_goldenrod.png,stimulus/viswhere_stim/150-deg_dot-left_salmon.png,stimulus/viswhere_stim/150-deg_dot-right_goldenrod.png,stimulus/viswhere_stim/match_blank.png,stimulus/viswhere_stim/match_box.png,stimulus/viswhere_stim/match_yes.png,stimulus/viswhere_stim/match_no.png,1.0,Match,Line,Line,1,5.125,0,5.125,0,5.125,0,5.125,0,0.75,0.75,1,0.5,1,2.125,1,0.5,1,2.125,0,0,0,0,0,0,0,0,0,,,,,0,46,46,46,,,,,,,,,425.47459554199986,430.58994137499985,425.957719042,426.9470836249998,427.58288270899993,428.5803989169999,425.47459554199986,425.47459554199986,425.4865479583333,425.47459554199986,425.47459554199986,425.47459554199986,425.4865479583333,425.47459554199986,430.58994137499985,431.3685919999998,433.47006766699997,437.35444070899985,431.3685919999998,431.3685919999998,436.5018289999998,431.84018679200017,432.843219375,433.47006766699997,434.4782102089998,431.3685919999998,431.3685919999998,431.3570890423334,431.3685919999998,431.3685919999998,431.3685919999998,431.3570890423334,431.3685919999998,431.3685919999998,436.5018289999998,431.3685919999998,436.5018289999998,436.5734466250001,437.35444070899985,431.3685919999998,1,1,0.9304815410000629,reldom2_s011,001,2025-02-05_16h01.25.778,Vis-B-Scan_AC,2022.2.5,None,
36,Second_Order,6.0,viswhere,stimulus/viswhere_stim/120-deg_dot-right_slateblue.png,stimulus/viswhere_stim/120-deg_dot-left_royalblue.png,stimulus/viswhere_stim/150-deg_dot-right_royalblue.png,stimulus/viswhere_stim/150-deg_dot-left_salmon.png,stimulus/viswhere_stim/match_blank.png,stimulus/viswhere_stim/match_box.png,stimulus/viswhere_stim/match_yes.png,stimulus/viswhere_stim/match_no.png,1.0,Match,Line,Line,1,5.125,0,5.125,0,5.125,0,5.125,0,0.625,0.625,1,0.5,1,2.125,1,0.5,1,2.125,0,0,0,0,0,0,0,0,0,,,,,0,47,47,47,,,,,,,,,437.35444070899985,442.46696191699994,437.83948624999994,438.83723737499986,439.460343834,440.457943417,437.35444070899985,437.35444070899985,437.3665466669998,437.35444070899985,437.35444070899985,437.35444070899985,437.3665466669998,437.35444070899985,442.46696191699994,443.12147649999997,445.2151296669999,449.2581781250001,443.12147649999997,443.12147649999997,448.26303133400006,443.5901776249998,444.60913766700014,445.2151296669999,446.2204888340002,443.12147649999997,443.12147649999997,443.11425116733335,443.12147649999997,443.12147649999997,443.12147649999997,443.11425116733335,443.12147649999997,443.12147649999997,448.26303133400006,443.12147649999997,448.26303133400006,448.33387170900005,448.9684756249999,443.12147649999997,1,1,0.8539264580003874,reldom2_s011,001,2025-02-05_16h01.25.778,Vis-B-Scan_AC,2022.2.5,None,
0,0.0,None,fixation,stimulus/viswhere_stim/blank_white.png,stimulus/viswhere_stim/blank_white.png,stimulus/viswhat_stim/blank_white.png,stimulus/viswhat_stim/blank_white.png,stimulus/viswhere_stim/blank_white.png,stimulus/viswhere_stim/blank_white.png,stimulus/viswhere_stim/blank_white.png,stimulus/viswhere_stim/blank_white.png,0.0,0.0,0.0,0.0,0,0.0,0,0.0,0,0.0,0,0.0,0,0.0,0.0,0,0.0,0,0.0,0,0.0,0,0.0,0,0,0,0,0,0,0,0,10,,,,,0,48,48,48,,,,,,,,,449.2581781250001,449.2581781250001,449.2581781250001,449.2581781250001,449.2581781250001,449.2581781250001,449.2581781250001,449.2581781250001,449.15460633333333,449.2581781250001,449.2581781250001,449.2581781250001,449.15460633333333,449.2581781250001,449.2581781250001,449.2581781250001,449.2581781250001,449.2581781250001,449.2581781250001,449.2581781250001,449.2581781250001,449.2581781250001,449.2581781250001,449.2581781250001,449.2581781250001,449.2581781250001,449.2581781250001,449.20460633333334,449.2581781250001,449.2581781250001,449.2581781250001,449.20460633333334,449.2581781250001,449.2581781250001,449.2581781250001,449.2581781250001,449.2581781250001,454.48063866699977,454.48063866699977,459.540482375,None,0,,reldom2_s011,001,2025-02-05_16h01.25.778,Vis-B-Scan_AC,2022.2.5,None,
37,First_Order,7.0,viswhat,stimulus/viswhat_stim/blank_white.png,stimulus/viswhat_stim/blank_white.png,stimulus/viswhat_stim/water_vehicle-sailboat.png,stimulus/viswhat_stim/land_vehicle-bus.png,stimulus/viswhat_stim/blank_white.png,stimulus/viswhat_stim/location_box.png,stimulus/viswhat_stim/location_yes.png,stimulus/viswhat_stim/location_no.png,None,Location,None,Type,2,0.0,0,5.125,0,5.125,0,5.125,0,0.0,0.625,0,0.0,0,0.0,1,0.5,1,2.125,0,0,0,0,0,0,0,0,0,,,,,0,49,49,49,,,,,,,,,459.540482375,459.540482375,459.540482375,459.540482375,459.540482375,459.540482375,459.540482375,459.540482375,459.4421408336667,459.540482375,459.540482375,459.540482375,459.4421408336667,459.540482375,459.540482375,459.540482375,461.64289741699986,,459.540482375,459.540482375,464.7142999590001,459.971257959,461.04990399999997,461.64289741699986,462.7226569999998,459.540482375,459.540482375,459.4921408336667,459.540482375,459.540482375,459.540482375,459.4921408336667,459.540482375,459.540482375,464.7142999590001,459.540482375,464.7142999590001,464.7142999590001,465.3891564999999,459.540482375,2,1,0.934789124999952,reldom2_s011,001,2025-02-05_16h01.25.778,Vis-B-Scan_AC,2022.2.5,None,
38,First_Order,7.0,viswhat,stimulus/viswhat_stim/blank_white.png,stimulus/viswhat_stim/blank_white.png,stimulus/viswhat_stim/land_vehicle-tank.png,stimulus/viswhat_stim/land_animal-elephant.png,stimulus/viswhat_stim/blank_white.png,stimulus/viswhat_stim/type_box.png,stimulus/viswhat_stim/type_yes.png,stimulus/viswhat_stim/type_no.png,None,Type,None,Location,2,0.0,0,5.125,0,5.125,0,5.125,0,0.0,0.625,0,0.0,0,0.0,1,0.5,1,2.125,0,0,0,0,0,0,0,0,0,,,,,0,50,50,50,,,,,,,,,465.6454745000001,465.6454745000001,465.6454745000001,465.6454745000001,465.6454745000001,465.6454745000001,465.6454745000001,465.6454745000001,465.5391564999999,465.6454745000001,465.6454745000001,465.6454745000001,465.5391564999999,465.6454745000001,465.6454745000001,465.6454745000001,467.75754025000015,,465.6454745000001,465.6454745000001,470.8116803749999,466.11385066699995,467.17259912500003,467.75754025000015,468.81744041699994,465.6454745000001,465.6454745000001,465.5891564999999,465.6454745000001,465.6454745000001,465.6454745000001,465.5891564999999,465.6454745000001,465.6454745000001,470.8116803749999,465.6454745000001,470.8116803749999,470.8647300839998,471.70390058400017,465.6454745000001,2,1,1.310517333000007,reldom2_s011,001,2025-02-05_16h01.25.778,Vis-B-Scan_AC,2022.2.5,None,
39,First_Order,7.0,viswhat,stimulus/viswhat_stim/blank_white.png,stimulus/viswhat_stim/blank_white.png,stimulus/viswhat_stim/land_animal-ostrich.png,stimulus/viswhat_stim/water_animal-whale.png,stimulus/viswhat_stim/blank_white.png,stimulus/viswhat_stim/location_box.png,stimulus/viswhat_stim/location_yes.png,stimulus/viswhat_stim/location_no.png,None,Location,None,Type,2,0.0,0,5.125,0,5.125,0,5.125,0,0.0,0.625,0,0.0,0,0.0,1,0.5,1,2.125,0,0,0,0,0,0,0,0,0,,,,,0,51,51,51,,,,,,,,,471.70390058400017,471.70390058400017,471.70390058400017,471.70390058400017,471.70390058400017,471.70390058400017,471.70390058400017,471.70390058400017,471.6658412086664,471.70390058400017,471.70390058400017,471.70390058400017,471.6658412086664,471.70390058400017,471.70390058400017,471.70390058400017,473.7974237919998,477.78354012499994,471.70390058400017,471.70390058400017,476.85132833399985,472.17715854200014,473.213692584,473.7974237919998,474.8344810419999,471.70390058400017,471.70390058400017,471.6825078753331,471.70390058400017,471.70390058400017,471.70390058400017,471.6825078753331,471.70390058400017,471.70390058400017,476.85132833399985,471.70390058400017,476.85132833399985,476.91854358399996,477.56171916699986,471.70390058400017,2,1,1.1576899159999812,reldom2_s011,001,2025-02-05_16h01.25.778,Vis-B-Scan_AC,2022.2.5,None,
40,First_Order,7.0,viswhat,stimulus/viswhat_stim/blank_white.png,stimulus/viswhat_stim/blank_white.png,stimulus/viswhat_stim/land_vehicle-truck.png,stimulus/viswhat_stim/land_animal-fox.png,stimulus/viswhat_stim/blank_white.png,stimulus/viswhat_stim/location_box.png,stimulus/viswhat_stim/location_yes.png,stimulus/viswhat_stim/location_no.png,None,Location,None,Location,1,0.0,0,5.125,0,5.125,0,5.125,0,0.0,0.625,0,0.0,0,0.0,1,0.5,1,2.125,0,0,0,0,0,0,0,0,0,,,,,0,52,52,52,,,,,,,,,477.78354012499994,477.78354012499994,477.78354012499994,477.78354012499994,477.78354012499994,477.78354012499994,477.78354012499994,477.78354012499994,477.74979716700005,477.78354012499994,477.78354012499994,477.78354012499994,477.74979716700005,477.78354012499994,477.78354012499994,477.78354012499994,479.89623545899985,483.9187422499999,477.78354012499994,477.78354012499994,482.9158713749998,478.2588300839998,479.2805862089999,479.89623545899985,480.9237548340002,477.78354012499994,477.78354012499994,477.76646383366676,477.78354012499994,477.78354012499994,477.78354012499994,477.76646383366676,477.78354012499994,477.78354012499994,482.9158713749998,477.78354012499994,482.9158713749998,483.00534037499983,483.6354886670001,477.78354012499994,1,1,0.8967009580001104,reldom2_s011,001,2025-02-05_16h01.25.778,Vis-B-Scan_AC,2022.2.5,None,
0,0.0,None,fixation,stimulus/viswhere_stim/blank_white.png,stimulus/viswhere_stim/blank_white.png,stimulus/viswhat_stim/blank_white.png,stimulus/viswhat_stim/blank_white.png,stimulus/viswhere_stim/blank_white.png,stimulus/viswhere_stim/blank_white.png,stimulus/viswhere_stim/blank_white.png,stimulus/viswhere_stim/blank_white.png,0.0,0.0,0.0,0.0,0,0.0,0,0.0,0,0.0,0,0.0,0,0.0,0.0,0,0.0,0,0.0,0,0.0,0,0.0,0,0,0,0,0,0,0,0,8,,,,,0,53,53,53,,,,,,,,,483.9187422499999,483.9187422499999,483.9187422499999,483.9187422499999,483.9187422499999,483.9187422499999,483.9187422499999,483.9187422499999,483.82578820899977,483.9187422499999,483.9187422499999,483.9187422499999,483.82578820899977,483.9187422499999,483.9187422499999,483.9187422499999,483.9187422499999,483.9187422499999,483.9187422499999,483.9187422499999,483.9187422499999,483.9187422499999,483.9187422499999,483.9187422499999,483.9187422499999,483.9187422499999,483.9187422499999,483.8757882089998,483.9187422499999,483.9187422499999,483.9187422499999,483.8757882089998,483.9187422499999,483.9187422499999,483.9187422499999,483.9187422499999,483.9187422499999,489.12369904199977,489.12369904199977,492.07369304199983,None,0,,reldom2_s011,001,2025-02-05_16h01.25.778,Vis-B-Scan_AC,2022.2.5,None,
41,Second_Order,7.0,viswhat,stimulus/viswhat_stim/water_animal-whale (1).png,stimulus/viswhat_stim/water_vehicle-canoe(1).png,stimulus/viswhat_stim/land_animal-tiger.png,stimulus/viswhat_stim/land_vehicle-train.png,stimulus/viswhere_stim/match_blank.png,stimulus/viswhere_stim/match_box.png,stimulus/viswhere_stim/match_yes.png,stimulus/viswhere_stim/match_no.png,1.0,Match,Location,Location,1,5.125,0,5.125,0,5.125,0,5.125,0,0.75,0.75,1,0.5,1,2.125,1,0.5,1,2.125,0,0,0,0,0,0,0,0,0,,,,,0,54,54,54,,,,,,,,,492.07369304199983,497.1947942500001,492.54918987500014,493.5471130420001,494.17010604200004,495.16714895899986,492.07369304199983,492.07369304199983,492.07928075033317,492.07369304199983,492.07369304199983,492.07369304199983,492.07928075033317,492.07369304199983,497.1947942500001,498.0010256249998,500.0784638340001,504.0009271250001,498.0010256249998,498.0010256249998,503.14762129200017,498.44583783400003,499.4672390420001,500.0784638340001,501.1041182089998,498.0010256249998,498.0010256249998,497.97768370900013,498.0010256249998,498.0010256249998,498.0010256249998,497.97768370900013,498.0010256249998,498.0010256249998,503.14762129200017,498.0010256249998,503.14762129200017,503.20402316699983,,498.0010256249998,1,1,2.4365714579998894,reldom2_s011,001,2025-02-05_16h01.25.778,Vis-B-Scan_AC,2022.2.5,None,
42,Second_Order,7.0,viswhat,stimulus/viswhat_stim/land_vehicle-buldozer.png,stimulus/viswhat_stim/water_vehicle-jetski.png,stimulus/viswhat_stim/water_animal-whale.png,stimulus/viswhat_stim/land_animal-fox.png,stimulus/viswhere_stim/match_blank.png,stimulus/viswhere_stim/match_box.png,stimulus/viswhere_stim/match_yes.png,stimulus/viswhere_stim/match_no.png,1.0,Match,Type,Type,1,5.125,0,5.125,0,5.125,0,5.125,0,0.625,0.625,1,0.5,1,2.125,1,0.5,1,2.125,0,0,0,0,0,0,0,0,0,,,,,0,55,55,55,,,,,,,,,504.0009271250001,509.1204444169998,504.4596858750001,505.45768287500005,506.08163920900006,507.0782399999998,504.0009271250001,504.0009271250001,503.9949010003332,504.0009271250001,504.0009271250001,504.0009271250001,503.9949010003332,504.0009271250001,509.1204444169998,509.792888209,511.8924242500002,515.9283453749999,509.792888209,509.792888209,514.9333898340001,510.270587,511.2820481670001,511.8924242500002,512.9109465840002,509.792888209,509.792888209,509.7676365423331,509.792888209,509.792888209,509.792888209,509.7676365423331,509.792888209,509.792888209,514.9333898340001,509.792888209,514.9333898340001,514.996375709,515.644269292,509.792888209,1,1,0.7586787489999551,reldom2_s011,001,2025-02-05_16h01.25.778,Vis-B-Scan_AC,2022.2.5,None,
0,0.0,None,fixation,stimulus/viswhere_stim/blank_white.png,stimulus/viswhere_stim/blank_white.png,stimulus/viswhat_stim/blank_white.png,stimulus/viswhat_stim/blank_white.png,stimulus/viswhere_stim/blank_white.png,stimulus/viswhere_stim/blank_white.png,stimulus/viswhere_stim/blank_white.png,stimulus/viswhere_stim/blank_white.png,0.0,0.0,0.0,0.0,0,0.0,0,0.0,0,0.0,0,0.0,0,0.0,0.0,0,0.0,0,0.0,0,0.0,0,0.0,0,0,0,0,0,0,0,0,9,,,,,0,56,56,56,,,,,,,,,515.9283453749999,515.9283453749999,515.9283453749999,515.9283453749999,515.9283453749999,515.9283453749999,515.9283453749999,515.9283453749999,515.8277584170002,515.9283453749999,515.9283453749999,515.9283453749999,515.8277584170002,515.9283453749999,515.9283453749999,515.9283453749999,515.9283453749999,515.9283453749999,515.9283453749999,515.9283453749999,515.9283453749999,515.9283453749999,515.9283453749999,515.9283453749999,515.9283453749999,515.9283453749999,515.9283453749999,515.8777584170001,515.9283453749999,515.9283453749999,515.9283453749999,515.8777584170001,515.9283453749999,515.9283453749999,515.9283453749999,515.9283453749999,515.9283453749999,521.1565121250001,521.1565121250001,525.150225542,None,0,,reldom2_s011,001,2025-02-05_16h01.25.778,Vis-B-Scan_AC,2022.2.5,None,
43,First_Order,8.0,viswhat,stimulus/viswhat_stim/blank_white.png,stimulus/viswhat_stim/blank_white.png,stimulus/viswhat_stim/land_animal-fox.png,stimulus/viswhat_stim/land_vehicle-motorcycle.png,stimulus/viswhat_stim/blank_white.png,stimulus/viswhat_stim/type_box.png,stimulus/viswhat_stim/type_yes.png,stimulus/viswhat_stim/type_no.png,None,Type,None,Location,2,0.0,0,5.125,0,5.125,0,5.125,0,0.0,0.625,0,0.0,0,0.0,1,0.5,1,2.125,0,0,0,0,0,0,0,0,0,,,,,0,57,57,57,,,,,,,,,525.150225542,525.150225542,525.150225542,525.150225542,525.150225542,525.150225542,525.150225542,525.150225542,525.1030185416668,525.150225542,525.150225542,525.150225542,525.1030185416668,525.150225542,525.150225542,525.150225542,527.2366059999999,531.2286482499999,525.150225542,525.150225542,530.3097492090001,525.6106305419999,526.6239041250001,527.2366059999999,528.253199625,525.150225542,525.150225542,525.1196852083334,525.150225542,525.150225542,525.150225542,525.1196852083334,525.150225542,525.150225542,530.3097492090001,525.150225542,530.3097492090001,530.3604148750001,531.0109992090001,525.150225542,2,1,1.258171625000159,reldom2_s011,001,2025-02-05_16h01.25.778,Vis-B-Scan_AC,2022.2.5,None,
44,First_Order,8.0,viswhat,stimulus/viswhat_stim/blank_white.png,stimulus/viswhat_stim/blank_white.png,stimulus/viswhat_stim/land_animal-pig.png,stimulus/viswhat_stim/land_vehicle-firetruck.png,stimulus/viswhat_stim/blank_white.png,stimulus/viswhat_stim/location_box.png,stimulus/viswhat_stim/location_yes.png,stimulus/viswhat_stim/location_no.png,None,Location,None,Location,1,0.0,0,5.125,0,5.125,0,5.125,0,0.0,0.625,0,0.0,0,0.0,1,0.5,1,2.125,0,0,0,0,0,0,0,0,0,,,,,0,58,58,58,,,,,,,,,531.2286482499999,531.2286482499999,531.2286482499999,531.2286482499999,531.2286482499999,531.2286482499999,531.2286482499999,531.2286482499999,531.1854119169999,531.2286482499999,531.2286482499999,531.2286482499999,531.1854119169999,531.2286482499999,531.2286482499999,531.2286482499999,533.3415964589999,537.3586424169998,531.2286482499999,531.2286482499999,536.369180917,531.704465709,532.7271404590001,533.3415964589999,534.3707209999998,531.2286482499999,531.2286482499999,531.2187452503332,531.2286482499999,531.2286482499999,531.2286482499999,531.2187452503332,531.2286482499999,531.2286482499999,536.369180917,531.2286482499999,536.369180917,536.44092125,537.0733583340002,531.2286482499999,1,1,0.8131054579998818,reldom2_s011,001,2025-02-05_16h01.25.778,Vis-B-Scan_AC,2022.2.5,None,
45,First_Order,8.0,viswhat,stimulus/viswhat_stim/blank_white.png,stimulus/viswhat_stim/blank_white.png,stimulus/viswhat_stim/land_vehicle-trolley.png,stimulus/viswhat_stim/water_vehicle-sailboat.png,stimulus/viswhat_stim/blank_white.png,stimulus/viswhat_stim/type_box.png,stimulus/viswhat_stim/type_yes.png,stimulus/viswhat_stim/type_no.png,None,Type,None,Type,1,0.0,0,5.125,0,5.125,0,5.125,0,0.0,0.625,0,0.0,0,0.0,1,0.5,1,2.125,0,0,0,0,0,0,0,0,0,,,,,0,59,59,59,,,,,,,,,537.3586424169998,537.3586424169998,537.3586424169998,537.3586424169998,537.3586424169998,537.3586424169998,537.3586424169998,537.3586424169998,537.2804184170001,537.3586424169998,537.3586424169998,537.3586424169998,537.2804184170001,537.3586424169998,537.3586424169998,537.3586424169998,539.4292902090001,,537.3586424169998,537.3586424169998,542.5359572920001,537.8026049169998,538.838963834,539.4292902090001,540.46963,537.3586424169998,537.3586424169998,537.3137517503334,537.3586424169998,537.3586424169998,537.3586424169998,537.3137517503334,537.3586424169998,537.3586424169998,542.5359572920001,537.3586424169998,542.5359572920001,542.5799266250001,543.2340932500001,537.3586424169998,1,1,0.8506029159998434,reldom2_s011,001,2025-02-05_16h01.25.778,Vis-B-Scan_AC,2022.2.5,None,
46,First_Order,8.0,viswhat,stimulus/viswhat_stim/blank_white.png,stimulus/viswhat_stim/blank_white.png,stimulus/viswhat_stim/water_vehicle-canoe(1).png,stimulus/viswhat_stim/land_vehicle-truck.png,stimulus/viswhat_stim/blank_white.png,stimulus/viswhat_stim/type_box.png,stimulus/viswhat_stim/type_yes.png,stimulus/viswhat_stim/type_no.png,None,Type,None,Type,1,0.0,0,5.125,0,5.125,0,5.125,0,0.0,0.625,0,0.0,0,0.0,1,0.5,1,2.125,0,0,0,0,0,0,0,0,0,,,,,0,60,60,60,,,,,,,,,543.4064617919998,543.4064617919998,543.4064617919998,543.4064617919998,543.4064617919998,543.4064617919998,543.4064617919998,543.4064617919998,543.3840932500001,543.4064617919998,543.4064617919998,543.4064617919998,543.3840932500001,543.4064617919998,543.4064617919998,543.4064617919998,545.5133407499998,549.5503417089999,543.4064617919998,543.4064617919998,548.5363240840002,543.8941472920001,544.916294917,545.5133407499998,546.5382911249999,543.4064617919998,543.4064617919998,543.3840932500001,543.4064617919998,543.4064617919998,543.4064617919998,543.3840932500001,543.4064617919998,543.4064617919998,548.5363240840002,543.4064617919998,548.5363240840002,548.6353407500001,549.2620647089998,543.4064617919998,1,1,1.55667399999993,reldom2_s011,001,2025-02-05_16h01.25.778,Vis-B-Scan_AC,2022.2.5,None,
0,0.0,None,fixation,stimulus/viswhere_stim/blank_white.png,stimulus/viswhere_stim/blank_white.png,stimulus/viswhat_stim/blank_white.png,stimulus/viswhat_stim/blank_white.png,stimulus/viswhere_stim/blank_white.png,stimulus/viswhere_stim/blank_white.png,stimulus/viswhere_stim/blank_white.png,stimulus/viswhere_stim/blank_white.png,0.0,0.0,0.0,0.0,0,0.0,0,0.0,0,0.0,0,0.0,0,0.0,0.0,0,0.0,0,0.0,0,0.0,0,0.0,0,0,0,0,0,0,0,0,9,,,,,0,61,61,61,,,,,,,,,549.5503417089999,549.5503417089999,549.5503417089999,549.5503417089999,549.5503417089999,549.5503417089999,549.5503417089999,549.5503417089999,549.4438044173334,549.5503417089999,549.5503417089999,549.5503417089999,549.4438044173334,549.5503417089999,549.5503417089999,549.5503417089999,549.5503417089999,549.5503417089999,549.5503417089999,549.5503417089999,549.5503417089999,549.5503417089999,549.5503417089999,549.5503417089999,549.5503417089999,549.5503417089999,549.5503417089999,549.510471084,549.5503417089999,549.5503417089999,549.5503417089999,549.510471084,549.5503417089999,549.5503417089999,549.5503417089999,549.5503417089999,549.5503417089999,554.7550687090002,554.7550687090002,558.693928959,None,0,,reldom2_s011,001,2025-02-05_16h01.25.778,Vis-B-Scan_AC,2022.2.5,None,
47,Second_Order,8.0,viswhat,stimulus/viswhat_stim/water_animal-seaturtle.png,stimulus/viswhat_stim/water_vehicle-kayak.png,stimulus/viswhat_stim/water_vehicle-motorboatraft.png,stimulus/viswhat_stim/land_vehicle-tank.png,stimulus/viswhere_stim/match_blank.png,stimulus/viswhere_stim/match_box.png,stimulus/viswhere_stim/match_yes.png,stimulus/viswhere_stim/match_no.png,2.0,Match,Location,Type,2,5.125,0,5.125,0,5.125,0,5.125,0,0.75,0.75,1,0.5,1,2.125,1,0.5,1,2.125,0,0,0,0,0,0,0,0,0,,,,,0,62,62,62,,,,,,,,,558.693928959,563.8138798340001,559.1649573750001,560.154398959,560.791082667,561.7879070839999,558.693928959,558.693928959,558.6933664173331,558.693928959,558.693928959,558.693928959,558.6933664173331,558.693928959,563.8138798340001,564.5936892089999,566.6804349590002,570.5889595419999,564.5936892089999,564.5936892089999,569.7312802920001,565.051970209,566.0749276669999,566.6804349590002,567.6848385419999,564.5936892089999,564.5936892089999,564.5807485003334,564.5936892089999,564.5936892089999,564.5936892089999,564.5807485003334,564.5936892089999,564.5936892089999,569.7312802920001,564.5936892089999,569.7312802920001,569.8078259170002,570.5889595419999,564.5936892089999,2,1,2.143681583000216,reldom2_s011,001,2025-02-05_16h01.25.778,Vis-B-Scan_AC,2022.2.5,None,
48,Second_Order,8.0,viswhat,stimulus/viswhat_stim/land_vehicle-rv.png,stimulus/viswhat_stim/water_vehicle-cargoboat.png,stimulus/viswhat_stim/water_animal-squid.png,stimulus/viswhat_stim/land_animal-dog.png,stimulus/viswhere_stim/match_blank.png,stimulus/viswhere_stim/match_box.png,stimulus/viswhere_stim/match_yes.png,stimulus/viswhere_stim/match_no.png,1.0,Match,Type,Type,1,5.125,0,5.125,0,5.125,0,5.125,0,0.625,0.625,1,0.5,1,2.125,1,0.5,1,2.125,0,0,0,0,0,0,0,0,0,,,,,0,63,63,63,,,,,,,,,570.5889595419999,575.7074213340002,571.0632826249998,572.061315209,572.68465225,573.6818647919999,570.5889595419999,570.5889595419999,570.5925692089997,570.5889595419999,570.5889595419999,570.5889595419999,570.5925692089997,570.5889595419999,575.7074213340002,576.3873350839999,578.4667906250002,,576.3873350839999,576.3873350839999,581.530373,576.8592693340001,577.8991573339999,578.4667906250002,579.480889084,576.3873350839999,576.3873350839999,576.3713247089997,576.3873350839999,576.3873350839999,576.3873350839999,576.3713247089997,576.3873350839999,576.3873350839999,581.530373,576.3873350839999,581.530373,581.5818627089998,582.224981459,576.3873350839999,1,1,0.9402499160000843,reldom2_s011,001,2025-02-05_16h01.25.778,Vis-B-Scan_AC,2022.2.5,None,
0,0.0,None,fixation,stimulus/viswhere_stim/blank_white.png,stimulus/viswhere_stim/blank_white.png,stimulus/viswhat_stim/blank_white.png,stimulus/viswhat_stim/blank_white.png,stimulus/viswhere_stim/blank_white.png,stimulus/viswhere_stim/blank_white.png,stimulus/viswhere_stim/blank_white.png,stimulus/viswhere_stim/blank_white.png,0.0,0.0,0.0,0.0,0,0.0,0,0.0,0,0.0,0,0.0,0,0.0,0.0,0,0.0,0,0.0,0,0.0,0,0.0,0,0,0,0,0,0,0,0,16,,,,,0,64,64,64,,,,,,,,,582.5159197090002,582.5159197090002,582.5159197090002,582.5159197090002,582.5159197090002,582.5159197090002,582.5159197090002,582.5159197090002,582.4207800006665,582.5159197090002,582.5159197090002,582.5159197090002,582.4207800006665,582.5159197090002,582.5159197090002,582.5159197090002,582.5159197090002,582.5159197090002,582.5159197090002,582.5159197090002,582.5159197090002,582.5159197090002,582.5159197090002,582.5159197090002,582.5159197090002,582.5159197090002,582.5159197090002,582.4707800006664,582.5159197090002,582.5159197090002,582.5159197090002,582.4707800006664,582.5159197090002,582.5159197090002,582.5159197090002,582.5159197090002,582.5159197090002,587.6949421670001,587.6949421670001,598.644871209,None,0,,reldom2_s011,001,2025-02-05_16h01.25.778,Vis-B-Scan_AC,2022.2.5,None,
