Trial,Order,Block,Type,Stimuli_File1,Stimuli_File2,Stimuli_File3,Stimuli_File4,Cue_File1,Cue_File2,Response_File_Yes,Response_File_No,Match,Cue_Dimension,Pair1_Dimension,Pair2_Dimension,Key,Cue1_Duration,Cue1_Onset,Cue2_Duration,Cue2_Onset,ResponseYes_Duration,ResponseYes_Onset,ResponseNo_Duration,ResponseNo_Onset,ITI_Within,ITI_Between,Image1_Duration,Image1_Onset,Image2_Duration,Image2_Onset,Image3_Duration,Image3_Onset,Image4_Duration,Image4_Onset,Sound1_Duration,Sound1_Onset,Sound2_Duration,Sound2_Onset,Sound3_Duration,Sound3_Onset,Sound4_Duration,Sound4_Onset,Fixation_Duration,trials_2.thisRepN,trials_2.thisTrialN,trials_2.thisN,trials_2.thisIndex,trials.thisRepN,trials.thisTrialN,trials.thisN,trials.thisIndex,text_start.started,key_resp_start.started,key_resp_start.keys,key_resp_start.rt,text2.started,key_resp_2.started,key_resp_2.keys,key_resp_2.rt,cue_file1.started,cue_file1.stopped,image_1.started,image_1.stopped,image_2.started,image_2.stopped,sound_icon1.started,sound_icon1.stopped,sound_1.started,sound_1.stopped,sound_icon2.started,sound_icon2.stopped,sound_2.started,sound_2.stopped,image_blank_1.started,image_blank_1.stopped,key_press.started,key_press.stopped,fixation_text.started,cue_file2.started,cue_file2.stopped,image_3.started,image_3.stopped,image_4.started,image_4.stopped,sound_icon3.started,sound_icon3.stopped,sound_3.started,sound_3.stopped,sound_icon4.started,sound_icon4.stopped,sound_4.started,sound_4.stopped,response_yes.started,response_yes.stopped,response_no.started,response_no.stopped,iti_blank.started,iti_blank.stopped,fixation_text.stopped,key_press.keys,key_press.corr,key_press.rt,participant,session,date,expName,psychopyVersion,frameRate,
,,,,,,,,,,,,,,,,,,,,,,,,,,,,,,,,,,,,,,,,,,,,,,,,,,,,7.445528749999994,7.445528749999994,2,0.8117966659997364,,,,,,,,,,,,,,,,,,,,,,,,,,,,,,,,,,,,,,,,,,,,,,,,reldom2_s011,001,2025-02-05_16h23.58.929,Where-B-Scan_AC,2022.2.5,None,
,,,,,,,,,,,,,,,,,,,,,,,,,,,,,,,,,,,,,,,,,,,,0,0,0,0,,,,,,,,,8.277980124999885,8.277980124999885,5,14.553189040999769,,,,,,,,,,,,,,,,,,,,,,,,,,,,,,,,,,,,,,,,,,,,reldom2_s011,001,2025-02-05_16h23.58.929,Where-B-Scan_AC,2022.2.5,None,
,,,,,,,,,,,,,,,,,,,,,,,,,,,,,,,,,,,,,,,,,,,,1,0,1,0,,,,,,,,,22.834926041000017,22.834926041000017,5,1.9954820000002655,,,,,,,,,,,,,,,,,,,,,,,,,,,,,,,,,,,,,,,,,,,,reldom2_s011,001,2025-02-05_16h23.58.929,Where-B-Scan_AC,2022.2.5,None,
,,,,,,,,,,,,,,,,,,,,,,,,,,,,,,,,,,,,,,,,,,,,2,0,2,0,,,,,,,,,24.84413879099975,24.84413879099975,5,1.985911708000458,,,,,,,,,,,,,,,,,,,,,,,,,,,,,,,,,,,,,,,,,,,,reldom2_s011,001,2025-02-05_16h23.58.929,Where-B-Scan_AC,2022.2.5,None,
,,,,,,,,,,,,,,,,,,,,,,,,,,,,,,,,,,,,,,,,,,,,3,0,3,0,,,,,,,,,26.847308500000054,26.847308500000054,5,1.9837194589999854,,,,,,,,,,,,,,,,,,,,,,,,,,,,,,,,,,,,,,,,,,,,reldom2_s011,001,2025-02-05_16h23.58.929,Where-B-Scan_AC,2022.2.5,None,
0,0.0,None,fixation,stimulus/audwhere_stim/blank_white.png,stimulus/audwhere_stim/blank_white.png,stimulus/viswhere_stim/blank_white.png,stimulus/viswhere_stim/blank_white.png,stimulus/audwhere_stim/blank_white.png,stimulus/audwhere_stim/blank_white.png,stimulus/audwhere_stim/blank_white.png,stimulus/audwhere_stim/blank_white.png,0.0,0.0,0.0,0.0,0,0.0,0,0.0,0,0.0,0,0.0,0,0.0,0.0,0,0.0,0,0.0,0,0.0,0,0.0,0,0.0,0,0.0,0,0.0,0,0.0,16,,,,,0,0,0,0,,,,,,,,,29.030588957999953,29.030588957999953,29.030588957999953,29.030588957999953,29.030588957999953,29.030588957999953,29.030588957999953,29.030588957999953,28.933448915999723,29.030588957999953,29.030588957999953,29.030588957999953,28.933448915999723,29.030588957999953,29.030588957999953,29.030588957999953,29.030588957999953,29.030588957999953,29.030588957999953,29.030588957999953,29.030588957999953,29.030588957999953,29.030588957999953,29.030588957999953,29.030588957999953,29.030588957999953,29.030588957999953,28.983448915999723,29.030588957999953,29.030588957999953,29.030588957999953,28.983448915999723,29.030588957999953,29.030588957999953,29.030588957999953,29.030588957999953,29.030588957999953,34.22874354099986,34.22874354099986,45.24438862499983,None,0,,reldom2_s011,001,2025-02-05_16h23.58.929,Where-B-Scan_AC,2022.2.5,None,
1,First_Order,1.0,audwhere,stimulus/audwhere_stim/dummy.wav,stimulus/audwhere_stim/dummy.wav,stimulus/audwhere_stim/right_away_290h.wav,stimulus/audwhere_stim/right_toward_300h.wav,stimulus/audwhere_stim/blank_white.png,stimulus/audwhere_stim/direction_box.png,stimulus/audwhere_stim/direction_yes.png,stimulus/audwhere_stim/direction_no.png,None,Direction,None,Side,2,0.0,0,5.125,0,5.125,0,5.125,0,0.0,0.625,0,0.0,0,0.0,0,0.0,0,0.0,0,0.0,0,0.0,1,0.5,1,2.125,0,,,,,0,1,1,1,,,,,,,,,45.24438862499983,45.24438862499983,45.24438862499983,45.24438862499983,45.24438862499983,45.24438862499983,45.24438862499983,45.24438862499983,45.16542362500004,45.24438862499983,45.24438862499983,45.24438862499983,45.16542362500004,45.24438862499983,45.24438862499983,45.24438862499983,47.33658204099993,,45.24438862499983,45.24438862499983,50.403949457999715,45.24438862499983,45.24438862499983,45.24438862499983,45.24438862499983,45.710179832999984,46.77947616599977,45.67959412466668,,47.33658204099993,48.40766441599999,47.307280874666745,,45.24438862499983,50.403949457999715,45.24438862499983,50.403949457999715,50.4450832499997,51.0996789159999,45.24438862499983,2,1,1.9315309590001561,reldom2_s011,001,2025-02-05_16h23.58.929,Where-B-Scan_AC,2022.2.5,None,
2,First_Order,1.0,audwhere,stimulus/audwhere_stim/dummy.wav,stimulus/audwhere_stim/dummy.wav,stimulus/audwhere_stim/left_toward_290h.wav,stimulus/audwhere_stim/right_toward_280h.wav,stimulus/audwhere_stim/blank_white.png,stimulus/audwhere_stim/side_box.png,stimulus/audwhere_stim/side_yes.png,stimulus/audwhere_stim/side_no.png,None,Side,None,Direction,2,0.0,0,5.125,0,5.125,0,5.125,0,0.0,0.625,0,0.0,0,0.0,0,0.0,0,0.0,0,0.0,0,0.0,1,0.5,1,2.125,0,,,,,0,2,2,2,,,,,,,,,51.35509987499972,51.35509987499972,51.35509987499972,51.35509987499972,51.35509987499972,51.35509987499972,51.35509987499972,51.35509987499972,51.27383337433333,51.35509987499972,51.35509987499972,51.35509987499972,51.27383337433333,51.35509987499972,51.35509987499972,51.35509987499972,53.44397449999997,,51.35509987499972,51.35509987499972,56.51134170799969,51.35509987499972,51.35509987499972,51.35509987499972,51.35509987499972,51.82235379099984,52.88988179099988,51.79345670766658,,53.44397449999997,54.510306665999906,53.41349154166643,,51.35509987499972,56.51134170799969,51.35509987499972,56.51134170799969,56.55202274999965,57.20654066599991,51.35509987499972,2,1,1.530257458000051,reldom2_s011,001,2025-02-05_16h23.58.929,Where-B-Scan_AC,2022.2.5,None,
3,First_Order,1.0,audwhere,stimulus/audwhere_stim/dummy.wav,stimulus/audwhere_stim/dummy.wav,stimulus/audwhere_stim/right_toward_280h.wav,stimulus/audwhere_stim/right_away_300h.wav,stimulus/audwhere_stim/blank_white.png,stimulus/audwhere_stim/direction_box.png,stimulus/audwhere_stim/direction_yes.png,stimulus/audwhere_stim/direction_no.png,None,Direction,None,Side,2,0.0,0,5.125,0,5.125,0,5.125,0,0.0,0.625,0,0.0,0,0.0,0,0.0,0,0.0,0,0.0,0,0.0,1,0.5,1,2.125,0,,,,,0,3,3,3,,,,,,,,,57.46337916599987,57.46337916599987,57.46337916599987,57.46337916599987,57.46337916599987,57.46337916599987,57.46337916599987,57.46337916599987,57.38097999933337,57.46337916599987,57.46337916599987,57.46337916599987,57.38097999933337,57.46337916599987,57.46337916599987,57.46337916599987,59.56780770799969,,57.46337916599987,57.46337916599987,62.65490174999968,57.46337916599987,57.46337916599987,57.46337916599987,57.46337916599987,57.93112608299998,58.96094670799994,57.900614541666314,,59.56780770799969,60.64187158300001,59.53737537466647,,57.46337916599987,62.65490174999968,57.46337916599987,62.65490174999968,62.65490174999968,63.31306074999975,57.46337916599987,2,1,1.5207952079999814,reldom2_s011,001,2025-02-05_16h23.58.929,Where-B-Scan_AC,2022.2.5,None,
4,First_Order,1.0,audwhere,stimulus/audwhere_stim/dummy.wav,stimulus/audwhere_stim/dummy.wav,stimulus/audwhere_stim/left_toward_270h.wav,stimulus/audwhere_stim/right_toward_300h.wav,stimulus/audwhere_stim/blank_white.png,stimulus/audwhere_stim/direction_box.png,stimulus/audwhere_stim/direction_yes.png,stimulus/audwhere_stim/direction_no.png,None,Direction,None,Direction,1,0.0,0,5.125,0,5.125,0,5.125,0,0.0,0.625,0,0.0,0,0.0,0,0.0,0,0.0,0,0.0,0,0.0,1,0.5,1,2.125,0,,,,,0,4,4,4,,,,,,,,,63.56871220799985,63.56871220799985,63.56871220799985,63.56871220799985,63.56871220799985,63.56871220799985,63.56871220799985,63.56871220799985,63.48726529133331,63.56871220799985,63.56871220799985,63.56871220799985,63.48726529133331,63.56871220799985,63.56871220799985,63.56871220799985,65.67773124999985,69.71117720799975,63.56871220799985,63.56871220799985,68.72792566599992,63.56871220799985,63.56871220799985,63.56871220799985,63.56871220799985,64.03730020800003,65.06890854099993,64.0064486246663,,65.67773124999985,66.71123662499986,65.64755554166665,,63.56871220799985,68.72792566599992,63.56871220799985,68.72792566599992,68.76943358299968,69.43186387499964,63.56871220799985,1,1,1.0715289590002612,reldom2_s011,001,2025-02-05_16h23.58.929,Where-B-Scan_AC,2022.2.5,None,
0,0.0,None,fixation,stimulus/audwhere_stim/blank_white.png,stimulus/audwhere_stim/blank_white.png,stimulus/viswhere_stim/blank_white.png,stimulus/viswhere_stim/blank_white.png,stimulus/audwhere_stim/blank_white.png,stimulus/audwhere_stim/blank_white.png,stimulus/audwhere_stim/blank_white.png,stimulus/audwhere_stim/blank_white.png,0.0,0.0,0.0,0.0,0,0.0,0,0.0,0,0.0,0,0.0,0,0.0,0.0,0,0.0,0,0.0,0,0.0,0,0.0,0,0.0,0,0.0,0,0.0,0,0.0,10,,,,,0,5,5,5,,,,,,,,,69.71117720799975,69.71117720799975,69.71117720799975,69.71117720799975,69.71117720799975,69.71117720799975,69.71117720799975,69.71117720799975,69.6066202493331,69.71117720799975,69.71117720799975,69.71117720799975,69.6066202493331,69.71117720799975,69.71117720799975,69.71117720799975,69.71117720799975,69.71117720799975,69.71117720799975,69.71117720799975,69.71117720799975,69.71117720799975,69.71117720799975,69.71117720799975,69.71117720799975,69.71117720799975,69.71117720799975,69.65662024933312,69.71117720799975,69.71117720799975,69.71117720799975,69.65662024933312,69.71117720799975,69.71117720799975,69.71117720799975,69.71117720799975,69.71117720799975,74.93840887499982,74.93840887499982,79.88797462499997,None,0,,reldom2_s011,001,2025-02-05_16h23.58.929,Where-B-Scan_AC,2022.2.5,None,
5,Second_Order,1.0,audwhere,stimulus/audwhere_stim/right_toward_300h.wav,stimulus/audwhere_stim/left_toward_280h.wav,stimulus/audwhere_stim/right_toward_280h.wav,stimulus/audwhere_stim/right_away_280h.wav,stimulus/audwhere_stim/match_blank.png,stimulus/audwhere_stim/match_box.png,stimulus/audwhere_stim/match_yes.png,stimulus/audwhere_stim/match_no.png,2.0,Match,Direction,Side,2,5.125,0,5.125,0,5.125,0,5.125,0,0.75,0.75,0,0.0,0,0.0,0,0.0,0,0.0,1,0.5,1,2.125,1,0.5,1,2.125,0,,,,,0,6,6,6,,,,,,,,,79.88797462499997,85.01296854099974,79.88797462499997,79.88797462499997,79.88797462499997,79.88797462499997,80.33533933299987,81.33343483299996,80.34781241666657,81.34136474999968,81.96843470799968,82.95737329099984,81.97169120766672,82.97014283299995,85.01296854099974,85.84761620799964,87.94150050000007,,85.84761620799964,85.84761620799964,91.01892474999977,85.84761620799964,85.84761620799964,85.84761620799964,85.84761620799964,86.31212049999976,87.38271170799999,86.28195470766674,,87.94150050000007,88.97295008299989,87.91130395766665,,85.84761620799964,91.01892474999977,85.84761620799964,91.01892474999977,91.05995245799977,,85.84761620799964,2,1,1.3649740000000747,reldom2_s011,001,2025-02-05_16h23.58.929,Where-B-Scan_AC,2022.2.5,None,
6,Second_Order,1.0,audwhere,stimulus/audwhere_stim/right_toward_270h.wav,stimulus/audwhere_stim/right_away_290h.wav,stimulus/audwhere_stim/left_toward_300h.wav,stimulus/audwhere_stim/left_away_290h.wav,stimulus/audwhere_stim/match_blank.png,stimulus/audwhere_stim/match_box.png,stimulus/audwhere_stim/match_yes.png,stimulus/audwhere_stim/match_no.png,1.0,Match,Side,Side,1,5.125,0,5.125,0,5.125,0,5.125,0,0.625,0.625,0,0.0,0,0.0,0,0.0,0,0.0,1,0.5,1,2.125,1,0.5,1,2.125,0,,,,,0,7,7,7,,,,,,,,,91.8340727499999,96.95737570799974,91.8340727499999,91.8340727499999,91.8340727499999,91.8340727499999,92.291853791,93.28553208299991,92.29490166666643,93.28553208299991,93.9177908329998,94.91485462499986,93.92927458266674,94.92281320799975,96.95737570799974,97.66925187499965,99.75828599999977,103.79993341599993,97.66925187499965,97.66925187499965,102.82562558299969,97.66925187499965,97.66925187499965,97.66925187499965,97.66925187499965,98.13237008299984,99.20097166599999,98.10200099966666,,99.75828599999977,100.82793524999988,99.72738774966662,,97.66925187499965,102.82562558299969,97.66925187499965,102.82562558299969,102.86814087499988,103.52302041599978,97.66925187499965,1,1,1.239126041000418,reldom2_s011,001,2025-02-05_16h23.58.929,Where-B-Scan_AC,2022.2.5,None,
0,0.0,None,fixation,stimulus/audwhere_stim/blank_white.png,stimulus/audwhere_stim/blank_white.png,stimulus/viswhere_stim/blank_white.png,stimulus/viswhere_stim/blank_white.png,stimulus/audwhere_stim/blank_white.png,stimulus/audwhere_stim/blank_white.png,stimulus/audwhere_stim/blank_white.png,stimulus/audwhere_stim/blank_white.png,0.0,0.0,0.0,0.0,0,0.0,0,0.0,0,0.0,0,0.0,0,0.0,0.0,0,0.0,0,0.0,0,0.0,0,0.0,0,0.0,0,0.0,0,0.0,0,0.0,9,,,,,0,8,8,8,,,,,,,,,103.79993341599993,103.79993341599993,103.79993341599993,103.79993341599993,103.79993341599993,103.79993341599993,103.79993341599993,103.79993341599993,103.69709416633316,103.79993341599993,103.79993341599993,103.79993341599993,103.69709416633316,103.79993341599993,103.79993341599993,103.79993341599993,103.79993341599993,103.79993341599993,103.79993341599993,103.79993341599993,103.79993341599993,103.79993341599993,103.79993341599993,103.79993341599993,103.79993341599993,103.79993341599993,103.79993341599993,103.74709416633317,103.79993341599993,103.79993341599993,103.79993341599993,103.74709416633317,103.79993341599993,103.79993341599993,103.79993341599993,103.79993341599993,103.79993341599993,108.99863416599965,108.99863416599965,113.06066004099966,None,0,,reldom2_s011,001,2025-02-05_16h23.58.929,Where-B-Scan_AC,2022.2.5,None,
7,First_Order,2.0,audwhere,stimulus/audwhere_stim/dummy.wav,stimulus/audwhere_stim/dummy.wav,stimulus/audwhere_stim/left_toward_270h.wav,stimulus/audwhere_stim/right_toward_270h.wav,stimulus/audwhere_stim/blank_white.png,stimulus/audwhere_stim/direction_box.png,stimulus/audwhere_stim/direction_yes.png,stimulus/audwhere_stim/direction_no.png,None,Direction,None,Direction,1,0.0,0,5.125,0,5.125,0,5.125,0,0.0,0.625,0,0.0,0,0.0,0,0.0,0,0.0,0,0.0,0,0.0,1,0.5,1,2.125,0,,,,,0,9,9,9,,,,,,,,,113.06066004099966,113.06066004099966,113.06066004099966,113.06066004099966,113.06066004099966,113.06066004099966,113.06066004099966,113.06066004099966,112.98521399966664,113.06066004099966,113.06066004099966,113.06066004099966,112.98521399966664,113.06066004099966,113.06066004099966,113.06066004099966,115.1731481249999,,113.06066004099966,113.06066004099966,118.23186945799989,113.06066004099966,113.06066004099966,113.06066004099966,113.06066004099966,113.53047241600007,114.56267241599971,113.50015829166638,,115.1731481249999,116.20989620799992,115.14229620766652,,113.06066004099966,118.23186945799989,113.06066004099966,118.23186945799989,118.27344104099984,118.93980695799974,113.06066004099966,1,1,1.387189084000056,reldom2_s011,001,2025-02-05_16h23.58.929,Where-B-Scan_AC,2022.2.5,None,
8,First_Order,2.0,audwhere,stimulus/audwhere_stim/dummy.wav,stimulus/audwhere_stim/dummy.wav,stimulus/audwhere_stim/left_toward_280h.wav,stimulus/audwhere_stim/right_toward_290h.wav,stimulus/audwhere_stim/blank_white.png,stimulus/audwhere_stim/side_box.png,stimulus/audwhere_stim/side_yes.png,stimulus/audwhere_stim/side_no.png,None,Side,None,Direction,2,0.0,0,5.125,0,5.125,0,5.125,0,0.0,0.625,0,0.0,0,0.0,0,0.0,0,0.0,0,0.0,0,0.0,1,0.5,1,2.125,0,,,,,0,10,10,10,,,,,,,,,119.15631099999973,119.15631099999973,119.15631099999973,119.15631099999973,119.15631099999973,119.15631099999973,119.15631099999973,119.15631099999973,119.07314029133306,119.15631099999973,119.15631099999973,119.15631099999973,119.07314029133306,119.15631099999973,119.15631099999973,119.15631099999973,121.26491291599996,125.27475108299996,119.15631099999973,119.15631099999973,124.31051612500005,119.15631099999973,119.15631099999973,119.15631099999973,119.15631099999973,119.62467395799968,120.65496974999996,119.59412745766646,,121.26491291599996,122.29919533299972,121.23418583266654,,119.15631099999973,124.31051612500005,119.15631099999973,124.31051612500005,124.3522794999999,125.01589054099986,119.15631099999973,2,1,0.9563032080000085,reldom2_s011,001,2025-02-05_16h23.58.929,Where-B-Scan_AC,2022.2.5,None,
9,First_Order,2.0,audwhere,stimulus/audwhere_stim/dummy.wav,stimulus/audwhere_stim/dummy.wav,stimulus/audwhere_stim/left_away_270h.wav,stimulus/audwhere_stim/left_toward_290h.wav,stimulus/audwhere_stim/blank_white.png,stimulus/audwhere_stim/side_box.png,stimulus/audwhere_stim/side_yes.png,stimulus/audwhere_stim/side_no.png,None,Side,None,Side,1,0.0,0,5.125,0,5.125,0,5.125,0,0.0,0.625,0,0.0,0,0.0,0,0.0,0,0.0,0,0.0,0,0.0,1,0.5,1,2.125,0,,,,,0,11,11,11,,,,,,,,,125.27475108299996,125.27475108299996,125.27475108299996,125.27475108299996,125.27475108299996,125.27475108299996,125.27475108299996,125.27475108299996,125.19060066633313,125.27475108299996,125.27475108299996,125.27475108299996,125.19060066633313,125.27475108299996,125.27475108299996,125.27475108299996,127.3826104159998,131.3889399579998,125.27475108299996,125.27475108299996,130.429139458,125.27475108299996,125.27475108299996,125.27475108299996,125.27475108299996,125.74420237499999,126.77484491599989,125.71380249966639,,127.3826104159998,128.41574845800005,127.3524188746667,,125.27475108299996,130.429139458,125.27475108299996,130.429139458,130.47067924999965,131.13260020799999,125.27475108299996,1,1,1.2478727920001802,reldom2_s011,001,2025-02-05_16h23.58.929,Where-B-Scan_AC,2022.2.5,None,
10,First_Order,2.0,audwhere,stimulus/audwhere_stim/dummy.wav,stimulus/audwhere_stim/dummy.wav,stimulus/audwhere_stim/right_away_290h.wav,stimulus/audwhere_stim/right_toward_290h.wav,stimulus/audwhere_stim/blank_white.png,stimulus/audwhere_stim/side_box.png,stimulus/audwhere_stim/side_yes.png,stimulus/audwhere_stim/side_no.png,None,Side,None,Side,1,0.0,0,5.125,0,5.125,0,5.125,0,0.0,0.625,0,0.0,0,0.0,0,0.0,0,0.0,0,0.0,0,0.0,1,0.5,1,2.125,0,,,,,0,12,12,12,,,,,,,,,131.3889399579998,131.3889399579998,131.3889399579998,131.3889399579998,131.3889399579998,131.3889399579998,131.3889399579998,131.3889399579998,131.30695433333327,131.3889399579998,131.3889399579998,131.3889399579998,131.30695433333327,131.3889399579998,131.3889399579998,131.3889399579998,133.50146612499975,137.53583733300002,131.3889399579998,131.3889399579998,136.55041941599984,131.3889399579998,131.3889399579998,131.3889399579998,131.3889399579998,131.85793654100007,132.8919340409998,131.82808904166657,,133.50146612499975,134.53568399999995,133.47096691666664,,131.3889399579998,136.55041941599984,131.3889399579998,136.55041941599984,136.5920232909998,137.25595162499985,131.3889399579998,1,1,1.0331919170002948,reldom2_s011,001,2025-02-05_16h23.58.929,Where-B-Scan_AC,2022.2.5,None,
0,0.0,None,fixation,stimulus/audwhere_stim/blank_white.png,stimulus/audwhere_stim/blank_white.png,stimulus/viswhere_stim/blank_white.png,stimulus/viswhere_stim/blank_white.png,stimulus/audwhere_stim/blank_white.png,stimulus/audwhere_stim/blank_white.png,stimulus/audwhere_stim/blank_white.png,stimulus/audwhere_stim/blank_white.png,0.0,0.0,0.0,0.0,0,0.0,0,0.0,0,0.0,0,0.0,0,0.0,0.0,0,0.0,0,0.0,0,0.0,0,0.0,0,0.0,0,0.0,0,0.0,0,0.0,9,,,,,0,13,13,13,,,,,,,,,137.53583733300002,137.53583733300002,137.53583733300002,137.53583733300002,137.53583733300002,137.53583733300002,137.53583733300002,137.53583733300002,137.43039095833333,137.53583733300002,137.53583733300002,137.53583733300002,137.43039095833333,137.53583733300002,137.53583733300002,137.53583733300002,137.53583733300002,137.53583733300002,137.53583733300002,137.53583733300002,137.53583733300002,137.53583733300002,137.53583733300002,137.53583733300002,137.53583733300002,137.53583733300002,137.53583733300002,137.497057625,137.53583733300002,137.53583733300002,137.53583733300002,137.497057625,137.53583733300002,137.53583733300002,137.53583733300002,137.53583733300002,137.53583733300002,142.73427891599977,142.73427891599977,146.67209991599975,None,0,,reldom2_s011,001,2025-02-05_16h23.58.929,Where-B-Scan_AC,2022.2.5,None,
11,Second_Order,2.0,audwhere,stimulus/audwhere_stim/left_toward_280h.wav,stimulus/audwhere_stim/left_away_290h.wav,stimulus/audwhere_stim/left_away_290h.wav,stimulus/audwhere_stim/right_away_280h.wav,stimulus/audwhere_stim/match_blank.png,stimulus/audwhere_stim/match_box.png,stimulus/audwhere_stim/match_yes.png,stimulus/audwhere_stim/match_no.png,2.0,Match,Side,Direction,2,5.125,0,5.125,0,5.125,0,5.125,0,0.75,0.75,0,0.0,0,0.0,0,0.0,0,0.0,1,0.5,1,2.125,1,0.5,1,2.125,0,,,,,0,14,14,14,,,,,,,,,146.67209991599975,151.79593999999997,146.67209991599975,146.67209991599975,146.67209991599975,146.67209991599975,147.1224216659998,148.12077433299964,147.13512908266674,148.12888245799968,148.74351899999965,149.74105870799985,148.7555658746667,149.74883258299997,151.79593999999997,152.62895645799972,154.73233566599993,158.6422574999997,152.62895645799972,152.62895645799972,157.78211937499964,152.62895645799972,152.62895645799972,152.62895645799972,152.62895645799972,153.0977785,154.1716866249999,153.06712783266656,,154.73233566599993,155.7691800409998,154.7020595416664,,152.62895645799972,157.78211937499964,152.62895645799972,157.78211937499964,157.82338070800006,,152.62895645799972,2,1,0.8299661669998386,reldom2_s011,001,2025-02-05_16h23.58.929,Where-B-Scan_AC,2022.2.5,None,
12,Second_Order,2.0,audwhere,stimulus/audwhere_stim/left_away_270h.wav,stimulus/audwhere_stim/left_toward_280h.wav,stimulus/audwhere_stim/right_away_280h.wav,stimulus/audwhere_stim/right_toward_300h.wav,stimulus/audwhere_stim/match_blank.png,stimulus/audwhere_stim/match_box.png,stimulus/audwhere_stim/match_yes.png,stimulus/audwhere_stim/match_no.png,1.0,Match,Side,Side,1,5.125,0,5.125,0,5.125,0,5.125,0,0.625,0.625,0,0.0,0,0.0,0,0.0,0,0.0,1,0.5,1,2.125,1,0.5,1,2.125,0,,,,,0,15,15,15,,,,,,,,,158.6422574999997,163.76175799999965,158.6422574999997,158.6422574999997,158.6422574999997,158.6422574999997,159.10005595799976,160.09841000000006,159.1126059576666,160.10644266600002,160.72217812500003,161.71868987499965,160.73334287466676,161.726733083,163.76175799999965,164.47229395799968,166.57063895800002,170.59615916599978,164.47229395799968,164.47229395799968,169.657996208,164.47229395799968,164.47229395799968,164.47229395799968,164.47229395799968,164.93932662499992,166.01073420800003,164.90937708266645,,166.57063895800002,167.60451566599977,166.54063595766664,,164.47229395799968,169.657996208,164.47229395799968,169.657996208,169.657996208,170.31760120799981,164.47229395799968,1,1,0.760330083000099,reldom2_s011,001,2025-02-05_16h23.58.929,Where-B-Scan_AC,2022.2.5,None,
0,0.0,None,fixation,stimulus/audwhere_stim/blank_white.png,stimulus/audwhere_stim/blank_white.png,stimulus/viswhere_stim/blank_white.png,stimulus/viswhere_stim/blank_white.png,stimulus/audwhere_stim/blank_white.png,stimulus/audwhere_stim/blank_white.png,stimulus/audwhere_stim/blank_white.png,stimulus/audwhere_stim/blank_white.png,0.0,0.0,0.0,0.0,0,0.0,0,0.0,0,0.0,0,0.0,0,0.0,0.0,0,0.0,0,0.0,0,0.0,0,0.0,0,0.0,0,0.0,0,0.0,0,0.0,8,,,,,0,16,16,16,,,,,,,,,170.59615916599978,170.59615916599978,170.59615916599978,170.59615916599978,170.59615916599978,170.59615916599978,170.59615916599978,170.59615916599978,170.4921611243332,170.59615916599978,170.59615916599978,170.59615916599978,170.4921611243332,170.59615916599978,170.59615916599978,170.59615916599978,170.59615916599978,170.59615916599978,170.59615916599978,170.59615916599978,170.59615916599978,170.59615916599978,170.59615916599978,170.59615916599978,170.59615916599978,170.59615916599978,170.59615916599978,170.54216112433318,170.59615916599978,170.59615916599978,170.59615916599978,170.54216112433318,170.59615916599978,170.59615916599978,170.59615916599978,170.59615916599978,170.59615916599978,175.82110666599965,175.82110666599965,178.813377125,None,0,,reldom2_s011,001,2025-02-05_16h23.58.929,Where-B-Scan_AC,2022.2.5,None,
13,First_Order,3.0,viswhere,stimulus/viswhere_stim/blank_white.png,stimulus/viswhere_stim/blank_white.png,stimulus/viswhere_stim/150-deg_dot-left_seagreen.png,stimulus/viswhere_stim/150-deg_dot-right_royalblue.png,stimulus/viswhere_stim/blank_white.png,stimulus/viswhere_stim/line_box.png,stimulus/viswhere_stim/line_yes.png,stimulus/viswhere_stim/line_no.png,None,Line,None,Line,1,0.0,0,5.125,0,5.125,0,5.125,0,0.0,0.625,0,0.0,0,0.0,1,0.5,1,2.125,0,0.0,0,0.0,0,0.0,0,0.0,0,,,,,0,17,17,17,,,,,,,,,178.813377125,178.813377125,178.813377125,178.813377125,178.813377125,178.813377125,178.813377125,178.813377125,178.7877336246667,178.813377125,178.813377125,178.813377125,178.7877336246667,178.813377125,178.813377125,178.813377125,180.90853983299985,184.88192479100007,178.813377125,178.813377125,183.9384558329998,179.28457245799973,180.3010791659999,180.90853983299985,181.9133459159998,178.813377125,178.813377125,178.80440029133337,178.813377125,178.813377125,178.813377125,178.80440029133337,178.813377125,178.813377125,183.9384558329998,178.813377125,183.9384558329998,184.0528543749997,184.70437591599966,178.813377125,1,1,0.8680849170004876,reldom2_s011,001,2025-02-05_16h23.58.929,Where-B-Scan_AC,2022.2.5,None,
14,First_Order,3.0,viswhere,stimulus/viswhere_stim/blank_white.png,stimulus/viswhere_stim/blank_white.png,stimulus/viswhere_stim/90-deg_dot-right_cyan.png,stimulus/viswhere_stim/90-deg_dot-left_turquoise.png,stimulus/viswhere_stim/blank_white.png,stimulus/viswhere_stim/line_box.png,stimulus/viswhere_stim/line_yes.png,stimulus/viswhere_stim/line_no.png,None,Line,None,Line,1,0.0,0,5.125,0,5.125,0,5.125,0,0.0,0.625,0,0.0,0,0.0,1,0.5,1,2.125,0,0.0,0,0.0,0,0.0,0,0.0,0,,,,,0,18,18,18,,,,,,,,,184.88192479100007,184.88192479100007,184.88192479100007,184.88192479100007,184.88192479100007,184.88192479100007,184.88192479100007,184.88192479100007,184.8577345413331,184.88192479100007,184.88192479100007,184.88192479100007,184.8577345413331,184.88192479100007,184.88192479100007,184.88192479100007,186.98266029099977,190.95163833299966,184.88192479100007,184.88192479100007,190.02201583299984,185.36747583299984,186.3794321659998,186.98266029099977,188.000519833,184.88192479100007,184.88192479100007,184.87440120799977,184.88192479100007,184.88192479100007,184.88192479100007,184.87440120799977,184.88192479100007,184.88192479100007,190.02201583299984,184.88192479100007,190.02201583299984,190.10549345799973,190.73189966599966,184.88192479100007,1,1,0.4967032080003264,reldom2_s011,001,2025-02-05_16h23.58.929,Where-B-Scan_AC,2022.2.5,None,
15,First_Order,3.0,viswhere,stimulus/viswhere_stim/blank_white.png,stimulus/viswhere_stim/blank_white.png,stimulus/viswhere_stim/60-deg_dot-right_salmon.png,stimulus/viswhere_stim/150-deg_dot-right_turquoise.png,stimulus/viswhere_stim/blank_white.png,stimulus/viswhere_stim/dot_box.png,stimulus/viswhere_stim/dot_yes.png,stimulus/viswhere_stim/dot_no.png,None,Dot,None,Dot,1,0.0,0,5.125,0,5.125,0,5.125,0,0.0,0.625,0,0.0,0,0.0,1,0.5,1,2.125,0,0.0,0,0.0,0,0.0,0,0.0,0,,,,,0,19,19,19,,,,,,,,,190.95163833299966,190.95163833299966,190.95163833299966,190.95163833299966,190.95163833299966,190.95163833299966,190.95163833299966,190.95163833299966,190.9273467913334,190.95163833299966,190.95163833299966,190.95163833299966,190.9273467913334,190.95163833299966,190.95163833299966,190.95163833299966,193.05052024999986,197.02211091599975,190.95163833299966,190.95163833299966,196.08670212499965,191.43770904099983,192.44851874999995,193.05052024999986,194.06742691599993,190.95163833299966,190.95163833299966,190.9440134580001,190.95163833299966,190.95163833299966,190.95163833299966,190.9440134580001,190.95163833299966,190.95163833299966,196.08670212499965,190.95163833299966,196.08670212499965,196.17527608299997,196.80088687499983,190.95163833299966,1,1,0.9448489590004101,reldom2_s011,001,2025-02-05_16h23.58.929,Where-B-Scan_AC,2022.2.5,None,
16,First_Order,3.0,viswhere,stimulus/viswhere_stim/blank_white.png,stimulus/viswhere_stim/blank_white.png,stimulus/viswhere_stim/120-deg_dot-left_peru.png,stimulus/viswhere_stim/120-deg_dot-right_royalblue.png,stimulus/viswhere_stim/blank_white.png,stimulus/viswhere_stim/dot_box.png,stimulus/viswhere_stim/dot_yes.png,stimulus/viswhere_stim/dot_no.png,None,Dot,None,Line,2,0.0,0,5.125,0,5.125,0,5.125,0,0.0,0.625,0,0.0,0,0.0,1,0.5,1,2.125,0,0.0,0,0.0,0,0.0,0,0.0,0,,,,,0,20,20,20,,,,,,,,,197.02211091599975,197.02211091599975,197.02211091599975,197.02211091599975,197.02211091599975,197.02211091599975,197.02211091599975,197.02211091599975,196.9991204583333,197.02211091599975,197.02211091599975,197.02211091599975,196.9991204583333,197.02211091599975,197.02211091599975,197.02211091599975,199.12327041599974,203.16472424999984,197.02211091599975,197.02211091599975,202.15783095799998,197.50407004099998,198.50603383299995,199.12327041599974,200.13193145800005,197.02211091599975,197.02211091599975,197.01578712499997,197.02211091599975,197.02211091599975,197.02211091599975,197.01578712499997,197.02211091599975,197.02211091599975,202.15783095799998,197.02211091599975,202.15783095799998,202.24242212499985,202.8688351249998,197.02211091599975,2,1,0.9740650420003476,reldom2_s011,001,2025-02-05_16h23.58.929,Where-B-Scan_AC,2022.2.5,None,
0,0.0,None,fixation,stimulus/audwhere_stim/blank_white.png,stimulus/audwhere_stim/blank_white.png,stimulus/viswhere_stim/blank_white.png,stimulus/viswhere_stim/blank_white.png,stimulus/audwhere_stim/blank_white.png,stimulus/audwhere_stim/blank_white.png,stimulus/audwhere_stim/blank_white.png,stimulus/audwhere_stim/blank_white.png,0.0,0.0,0.0,0.0,0,0.0,0,0.0,0,0.0,0,0.0,0,0.0,0.0,0,0.0,0,0.0,0,0.0,0,0.0,0,0.0,0,0.0,0,0.0,0,0.0,10,,,,,0,21,21,21,,,,,,,,,203.16472424999984,203.16472424999984,203.16472424999984,203.16472424999984,203.16472424999984,203.16472424999984,203.16472424999984,203.16472424999984,203.06307104133325,203.16472424999984,203.16472424999984,203.16472424999984,203.06307104133325,203.16472424999984,203.16472424999984,203.16472424999984,203.16472424999984,203.16472424999984,203.16472424999984,203.16472424999984,203.16472424999984,203.16472424999984,203.16472424999984,203.16472424999984,203.16472424999984,203.16472424999984,203.16472424999984,203.11307104133326,203.16472424999984,203.16472424999984,203.16472424999984,203.11307104133326,203.16472424999984,203.16472424999984,203.16472424999984,203.16472424999984,203.16472424999984,208.37636337499998,208.37636337499998,213.27469441599987,None,0,,reldom2_s011,001,2025-02-05_16h23.58.929,Where-B-Scan_AC,2022.2.5,None,
17,Second_Order,3.0,viswhere,stimulus/viswhere_stim/90-deg_dot-left_lightsseagreen.png,stimulus/viswhere_stim/90-deg_dot-right_lightsseagreen.png,stimulus/viswhere_stim/120-deg_dot-right_cyan.png,stimulus/viswhere_stim/60-deg_dot-right_royalblue.png,stimulus/audwhere_stim/match_blank.png,stimulus/audwhere_stim/match_box.png,stimulus/audwhere_stim/match_yes.png,stimulus/audwhere_stim/match_no.png,2.0,Match,Line,Dot,2,5.125,0,5.125,0,5.125,0,5.125,0,0.75,0.75,1,0.5,1,2.125,1,0.5,1,2.125,0,0.0,0,0.0,0,0.0,0,0.0,0,,,,,0,22,22,22,,,,,,,,,213.27469441599987,218.38734191599997,213.75578962500003,214.7450665829997,215.38062199999968,216.37825183299992,213.27469441599987,213.27469441599987,213.28684070833302,213.27469441599987,213.27469441599987,213.27469441599987,213.28684070833302,213.27469441599987,218.38734191599997,219.16836420799973,221.26434920799966,225.14881187499986,219.16836420799973,219.16836420799973,224.299801958,219.6335990829998,220.64219991599975,221.26434920799966,222.27980187499998,219.16836420799973,219.16836420799973,219.15585291633312,219.16836420799973,219.16836420799973,219.16836420799973,219.15585291633312,219.16836420799973,219.16836420799973,224.299801958,219.16836420799973,224.299801958,224.37061433300005,225.14881187499986,219.16836420799973,2,1,1.2112394170003427,reldom2_s011,001,2025-02-05_16h23.58.929,Where-B-Scan_AC,2022.2.5,None,
18,Second_Order,3.0,viswhere,stimulus/viswhere_stim/90-deg_dot-left_lightsseagreen.png,stimulus/viswhere_stim/60-deg_dot-left_mediumslateblue.png,stimulus/viswhere_stim/60-deg_dot-right_lightsseagreen.png,stimulus/viswhere_stim/30-deg_dot-right_goldenrod.png,stimulus/audwhere_stim/match_blank.png,stimulus/audwhere_stim/match_box.png,stimulus/audwhere_stim/match_yes.png,stimulus/audwhere_stim/match_no.png,1.0,Match,Dot,Dot,1,5.125,0,5.125,0,5.125,0,5.125,0,0.625,0.625,1,0.5,1,2.125,1,0.5,1,2.125,0,0.0,0,0.0,0,0.0,0,0.0,0,,,,,0,23,23,23,,,,,,,,,225.14881187499986,230.26480324999966,225.632580083,226.62213666599973,227.25765524999997,228.25563479099992,225.14881187499986,225.14881187499986,225.16129187500002,225.14881187499986,225.14881187499986,225.14881187499986,225.16129187500002,225.14881187499986,230.26480324999966,230.91609225000002,233.00868083299974,237.0794545409999,230.91609225000002,230.91609225000002,236.03935733299977,231.39904187499997,232.40781679099973,233.00868083299974,234.02239637499997,230.91609225000002,230.91609225000002,230.91169483333312,230.91609225000002,230.91609225000002,230.91609225000002,230.91169483333312,230.91609225000002,230.91609225000002,236.03935733299977,230.91609225000002,236.03935733299977,236.13638374999982,236.76215883299983,230.91609225000002,1,1,0.8669759590002286,reldom2_s011,001,2025-02-05_16h23.58.929,Where-B-Scan_AC,2022.2.5,None,
0,0.0,None,fixation,stimulus/audwhere_stim/blank_white.png,stimulus/audwhere_stim/blank_white.png,stimulus/viswhere_stim/blank_white.png,stimulus/viswhere_stim/blank_white.png,stimulus/audwhere_stim/blank_white.png,stimulus/audwhere_stim/blank_white.png,stimulus/audwhere_stim/blank_white.png,stimulus/audwhere_stim/blank_white.png,0.0,0.0,0.0,0.0,0,0.0,0,0.0,0,0.0,0,0.0,0,0.0,0.0,0,0.0,0,0.0,0,0.0,0,0.0,0,0.0,0,0.0,0,0.0,0,0.0,9,,,,,0,24,24,24,,,,,,,,,237.0794545409999,237.0794545409999,237.0794545409999,237.0794545409999,237.0794545409999,237.0794545409999,237.0794545409999,237.0794545409999,236.9747762493333,237.0794545409999,237.0794545409999,237.0794545409999,236.9747762493333,237.0794545409999,237.0794545409999,237.0794545409999,237.0794545409999,237.0794545409999,237.0794545409999,237.0794545409999,237.0794545409999,237.0794545409999,237.0794545409999,237.0794545409999,237.0794545409999,237.0794545409999,237.0794545409999,237.0247762493333,237.0794545409999,237.0794545409999,237.0794545409999,237.0247762493333,237.0794545409999,237.0794545409999,237.0794545409999,237.0794545409999,237.0794545409999,242.27353829100002,242.27353829100002,246.25342437499967,None,0,,reldom2_s011,001,2025-02-05_16h23.58.929,Where-B-Scan_AC,2022.2.5,None,
19,First_Order,4.0,viswhere,stimulus/viswhere_stim/blank_white.png,stimulus/viswhere_stim/blank_white.png,stimulus/viswhere_stim/90-deg_dot-left_seagreen.png,stimulus/viswhere_stim/150-deg_dot-left_lightsseagreen.png,stimulus/viswhere_stim/blank_white.png,stimulus/viswhere_stim/dot_box.png,stimulus/viswhere_stim/dot_yes.png,stimulus/viswhere_stim/dot_no.png,None,Dot,None,Dot,1,0.0,0,5.125,0,5.125,0,5.125,0,0.0,0.625,0,0.0,0,0.0,1,0.5,1,2.125,0,0.0,0,0.0,0,0.0,0,0.0,0,,,,,0,25,25,25,,,,,,,,,246.25342437499967,246.25342437499967,246.25342437499967,246.25342437499967,246.25342437499967,246.25342437499967,246.25342437499967,246.25342437499967,246.22970379166662,246.25342437499967,246.25342437499967,246.25342437499967,246.22970379166662,246.25342437499967,246.25342437499967,246.25342437499967,248.35442879099992,252.32150891599986,246.25342437499967,246.25342437499967,251.379102333,246.73985645799985,247.75326649999988,248.35442879099992,249.375032208,246.25342437499967,246.25342437499967,246.24637045833327,246.25342437499967,246.25342437499967,246.25342437499967,246.24637045833327,246.25342437499967,246.25342437499967,251.379102333,246.25342437499967,251.379102333,251.47746483299989,252.1040184999997,246.25342437499967,1,1,0.7909577499999614,reldom2_s011,001,2025-02-05_16h23.58.929,Where-B-Scan_AC,2022.2.5,None,
20,First_Order,4.0,viswhere,stimulus/viswhere_stim/blank_white.png,stimulus/viswhere_stim/blank_white.png,stimulus/viswhere_stim/30-deg_dot-left_peru.png,stimulus/viswhere_stim/30-deg_dot-right_salmon.png,stimulus/viswhere_stim/blank_white.png,stimulus/viswhere_stim/dot_box.png,stimulus/viswhere_stim/dot_yes.png,stimulus/viswhere_stim/dot_no.png,None,Dot,None,Line,2,0.0,0,5.125,0,5.125,0,5.125,0,0.0,0.625,0,0.0,0,0.0,1,0.5,1,2.125,0,0.0,0,0.0,0,0.0,0,0.0,0,,,,,0,26,26,26,,,,,,,,,252.32150891599986,252.32150891599986,252.32150891599986,252.32150891599986,252.32150891599986,252.32150891599986,252.32150891599986,252.32150891599986,252.2982215833334,252.32150891599986,252.32150891599986,252.32150891599986,252.2982215833334,252.32150891599986,252.32150891599986,252.32150891599986,254.42719975,258.3920172909998,252.32150891599986,252.32150891599986,257.44777454099994,252.8039182499997,253.80986379099977,254.42719975,255.4393074159998,252.32150891599986,252.32150891599986,252.31488825000008,252.32150891599986,252.32150891599986,252.32150891599986,252.31488825000008,252.32150891599986,252.32150891599986,257.44777454099994,252.32150891599986,257.44777454099994,257.544055458,258.170580125,252.32150891599986,2,1,0.9713688750002802,reldom2_s011,001,2025-02-05_16h23.58.929,Where-B-Scan_AC,2022.2.5,None,
21,First_Order,4.0,viswhere,stimulus/viswhere_stim/blank_white.png,stimulus/viswhere_stim/blank_white.png,stimulus/viswhere_stim/60-deg_dot-left_lightsseagreen.png,stimulus/viswhere_stim/30-deg_dot-left_slateblue.png,stimulus/viswhere_stim/blank_white.png,stimulus/viswhere_stim/line_box.png,stimulus/viswhere_stim/line_yes.png,stimulus/viswhere_stim/line_no.png,None,Line,None,Dot,2,0.0,0,5.125,0,5.125,0,5.125,0,0.0,0.625,0,0.0,0,0.0,1,0.5,1,2.125,0,0.0,0,0.0,0,0.0,0,0.0,0,,,,,0,27,27,27,,,,,,,,,258.3920172909998,258.3920172909998,258.3920172909998,258.3920172909998,258.3920172909998,258.3920172909998,258.3920172909998,258.3920172909998,258.36463441633333,258.3920172909998,258.3920172909998,258.3920172909998,258.36463441633333,258.3920172909998,258.3920172909998,258.3920172909998,260.4854278749999,264.45808199999965,258.3920172909998,258.3920172909998,263.51576937499976,258.8780039579997,259.88576399999965,260.4854278749999,261.4998502499998,258.3920172909998,258.3920172909998,258.381301083,258.3920172909998,258.3920172909998,258.3920172909998,258.381301083,258.3920172909998,258.3920172909998,263.51576937499976,258.3920172909998,263.51576937499976,263.6143941659998,264.23966516599967,258.3920172909998,1,0,1.016898208999919,reldom2_s011,001,2025-02-05_16h23.58.929,Where-B-Scan_AC,2022.2.5,None,
22,First_Order,4.0,viswhere,stimulus/viswhere_stim/blank_white.png,stimulus/viswhere_stim/blank_white.png,stimulus/viswhere_stim/120-deg_dot-right_peru.png,stimulus/viswhere_stim/150-deg_dot-right_peru.png,stimulus/viswhere_stim/blank_white.png,stimulus/viswhere_stim/line_box.png,stimulus/viswhere_stim/line_yes.png,stimulus/viswhere_stim/line_no.png,None,Line,None,Dot,2,0.0,0,5.125,0,5.125,0,5.125,0,0.0,0.625,0,0.0,0,0.0,1,0.5,1,2.125,0,0.0,0,0.0,0,0.0,0,0.0,0,,,,,0,28,28,28,,,,,,,,,264.45808199999965,264.45808199999965,264.45808199999965,264.45808199999965,264.45808199999965,264.45808199999965,264.45808199999965,264.45808199999965,264.43512337433305,264.45808199999965,264.45808199999965,264.45808199999965,264.43512337433305,264.45808199999965,264.45808199999965,264.45808199999965,266.5613732080001,270.59723024999994,264.45808199999965,264.45808199999965,269.5904914160001,264.9478416249999,265.95966708299966,266.5613732080001,267.5790928749998,264.45808199999965,264.45808199999965,264.4517900409997,264.45808199999965,264.45808199999965,264.45808199999965,264.4517900409997,264.45808199999965,264.45808199999965,269.5904914160001,264.45808199999965,269.5904914160001,269.6752664159999,270.30159275000005,264.45808199999965,2,1,1.2789788330001102,reldom2_s011,001,2025-02-05_16h23.58.929,Where-B-Scan_AC,2022.2.5,None,
0,0.0,None,fixation,stimulus/audwhere_stim/blank_white.png,stimulus/audwhere_stim/blank_white.png,stimulus/viswhere_stim/blank_white.png,stimulus/viswhere_stim/blank_white.png,stimulus/audwhere_stim/blank_white.png,stimulus/audwhere_stim/blank_white.png,stimulus/audwhere_stim/blank_white.png,stimulus/audwhere_stim/blank_white.png,0.0,0.0,0.0,0.0,0,0.0,0,0.0,0,0.0,0,0.0,0,0.0,0.0,0,0.0,0,0.0,0,0.0,0,0.0,0,0.0,0,0.0,0,0.0,0,0.0,10,,,,,0,29,29,29,,,,,,,,,270.59723024999994,270.59723024999994,270.59723024999994,270.59723024999994,270.59723024999994,270.59723024999994,270.59723024999994,270.59723024999994,270.4960749993332,270.59723024999994,270.59723024999994,270.59723024999994,270.4960749993332,270.59723024999994,270.59723024999994,270.59723024999994,270.59723024999994,270.59723024999994,270.59723024999994,270.59723024999994,270.59723024999994,270.59723024999994,270.59723024999994,270.59723024999994,270.59723024999994,270.59723024999994,270.59723024999994,270.5460749993332,270.59723024999994,270.59723024999994,270.59723024999994,270.5460749993332,270.59723024999994,270.59723024999994,270.59723024999994,270.59723024999994,270.59723024999994,275.81270883299976,275.81270883299976,280.71239449999985,None,0,,reldom2_s011,001,2025-02-05_16h23.58.929,Where-B-Scan_AC,2022.2.5,None,
23,Second_Order,4.0,viswhere,stimulus/viswhere_stim/60-deg_dot-right_peru.png,stimulus/viswhere_stim/60-deg_dot-left_royalblue.png,stimulus/viswhere_stim/90-deg_dot-left_slateblue.png,stimulus/viswhere_stim/90-deg_dot-right_royalblue.png,stimulus/audwhere_stim/match_blank.png,stimulus/audwhere_stim/match_box.png,stimulus/audwhere_stim/match_yes.png,stimulus/audwhere_stim/match_no.png,1.0,Match,Line,Line,1,5.125,0,5.125,0,5.125,0,5.125,0,0.75,0.75,1,0.5,1,2.125,1,0.5,1,2.125,0,0.0,0,0.0,0,0.0,0,0.0,0,,,,,0,30,30,30,,,,,,,,,280.71239449999985,285.8264813329997,281.19440862500005,282.183405666,282.82065454099984,283.81721112499963,280.71239449999985,280.71239449999985,280.7249138743333,280.71239449999985,280.71239449999985,280.71239449999985,280.7249138743333,280.71239449999985,285.8264813329997,286.60663183299994,288.6939675409999,292.5924440409999,286.60663183299994,286.60663183299994,291.74363183299965,287.0765564159997,288.09062183299966,288.6939675409999,289.69701191600006,286.60663183299994,286.60663183299994,286.5938559583333,286.60663183299994,286.60663183299994,286.60663183299994,286.5938559583333,286.60663183299994,286.60663183299994,291.74363183299965,286.60663183299994,291.74363183299965,291.81814537499986,292.5924440409999,286.60663183299994,1,1,0.950235000000248,reldom2_s011,001,2025-02-05_16h23.58.929,Where-B-Scan_AC,2022.2.5,None,
24,Second_Order,4.0,viswhere,stimulus/viswhere_stim/120-deg_dot-left_peru.png,stimulus/viswhere_stim/120-deg_dot-right_peru.png,stimulus/viswhere_stim/30-deg_dot-right_peru.png,stimulus/viswhere_stim/30-deg_dot-left_lightsseagreen.png,stimulus/audwhere_stim/match_blank.png,stimulus/audwhere_stim/match_box.png,stimulus/audwhere_stim/match_yes.png,stimulus/audwhere_stim/match_no.png,1.0,Match,Line,Line,1,5.125,0,5.125,0,5.125,0,5.125,0,0.625,0.625,1,0.5,1,2.125,1,0.5,1,2.125,0,0.0,0,0.0,0,0.0,0,0.0,0,,,,,0,31,31,31,,,,,,,,,292.5924440409999,297.7157187499997,293.07615470799965,294.0737724999999,294.696829083,295.69440208299966,292.5924440409999,292.5924440409999,292.60537395800003,292.5924440409999,292.5924440409999,292.5924440409999,292.60537395800003,292.5924440409999,297.7157187499997,298.37574404099996,300.47201983299965,304.5122605409997,298.37574404099996,298.37574404099996,303.5284019999999,298.84413529099993,299.85303875,300.47201983299965,301.49047170799986,298.37574404099996,298.37574404099996,298.3673694163331,298.37574404099996,298.37574404099996,298.37574404099996,298.3673694163331,298.37574404099996,298.37574404099996,303.5284019999999,298.37574404099996,303.5284019999999,303.5864446249998,304.2131938749999,298.37574404099996,1,1,0.8002545410004132,reldom2_s011,001,2025-02-05_16h23.58.929,Where-B-Scan_AC,2022.2.5,None,
0,0.0,None,fixation,stimulus/audwhere_stim/blank_white.png,stimulus/audwhere_stim/blank_white.png,stimulus/viswhere_stim/blank_white.png,stimulus/viswhere_stim/blank_white.png,stimulus/audwhere_stim/blank_white.png,stimulus/audwhere_stim/blank_white.png,stimulus/audwhere_stim/blank_white.png,stimulus/audwhere_stim/blank_white.png,0.0,0.0,0.0,0.0,0,0.0,0,0.0,0,0.0,0,0.0,0,0.0,0.0,0,0.0,0,0.0,0,0.0,0,0.0,0,0.0,0,0.0,0,0.0,0,0.0,9,,,,,0,32,32,32,,,,,,,,,304.5122605409997,304.5122605409997,304.5122605409997,304.5122605409997,304.5122605409997,304.5122605409997,304.5122605409997,304.5122605409997,304.407501374333,304.5122605409997,304.5122605409997,304.5122605409997,304.407501374333,304.5122605409997,304.5122605409997,304.5122605409997,304.5122605409997,304.5122605409997,304.5122605409997,304.5122605409997,304.5122605409997,304.5122605409997,304.5122605409997,304.5122605409997,304.5122605409997,304.5122605409997,304.5122605409997,304.457501374333,304.5122605409997,304.5122605409997,304.5122605409997,304.457501374333,304.5122605409997,304.5122605409997,304.5122605409997,304.5122605409997,304.5122605409997,309.7156346249999,309.7156346249999,313.75209637499984,None,0,,reldom2_s011,001,2025-02-05_16h23.58.929,Where-B-Scan_AC,2022.2.5,None,
25,First_Order,5.0,audwhere,stimulus/audwhere_stim/dummy.wav,stimulus/audwhere_stim/dummy.wav,stimulus/audwhere_stim/right_toward_280h.wav,stimulus/audwhere_stim/right_away_290h.wav,stimulus/audwhere_stim/blank_white.png,stimulus/audwhere_stim/side_box.png,stimulus/audwhere_stim/side_yes.png,stimulus/audwhere_stim/side_no.png,None,Side,None,Side,1,0.0,0,5.125,0,5.125,0,5.125,0,0.0,0.625,0,0.0,0,0.0,0,0.0,0,0.0,0,0.0,0,0.0,1,0.5,1,2.125,0,,,,,0,33,33,33,,,,,,,,,313.75209637499984,313.75209637499984,313.75209637499984,313.75209637499984,313.75209637499984,313.75209637499984,313.75209637499984,313.75209637499984,313.67646970766657,313.75209637499984,313.75209637499984,313.75209637499984,313.67646970766657,313.75209637499984,313.75209637499984,313.75209637499984,315.82442512499983,,313.75209637499984,313.75209637499984,318.9319291659999,313.75209637499984,313.75209637499984,313.75209637499984,313.75209637499984,314.2234424999997,315.26043620799965,314.1929864166666,,315.82442512499983,316.86248212500004,315.7932856246664,,313.75209637499984,318.9319291659999,313.75209637499984,318.9319291659999,318.97352675,319.63704574999974,313.75209637499984,1,1,0.8845747919999667,reldom2_s011,001,2025-02-05_16h23.58.929,Where-B-Scan_AC,2022.2.5,None,
26,First_Order,5.0,audwhere,stimulus/audwhere_stim/dummy.wav,stimulus/audwhere_stim/dummy.wav,stimulus/audwhere_stim/right_toward_300h.wav,stimulus/audwhere_stim/left_toward_270h.wav,stimulus/audwhere_stim/blank_white.png,stimulus/audwhere_stim/direction_box.png,stimulus/audwhere_stim/direction_yes.png,stimulus/audwhere_stim/direction_no.png,None,Direction,None,Direction,1,0.0,0,5.125,0,5.125,0,5.125,0,0.0,0.625,0,0.0,0,0.0,0,0.0,0,0.0,0,0.0,0,0.0,1,0.5,1,2.125,0,,,,,0,34,34,34,,,,,,,,,319.8570102079998,319.8570102079998,319.8570102079998,319.8570102079998,319.8570102079998,319.8570102079998,319.8570102079998,319.8570102079998,319.77037908333307,319.8570102079998,319.8570102079998,319.8570102079998,319.77037908333307,319.8570102079998,319.8570102079998,319.8570102079998,321.93974929099977,325.98274549999996,319.8570102079998,319.8570102079998,325.01712224999983,319.8570102079998,319.8570102079998,319.8570102079998,319.8570102079998,320.3316705829998,321.37318374999995,320.2999603746664,,321.93974929099977,322.98540045799973,321.90907324966633,,319.8570102079998,325.01712224999983,319.8570102079998,325.01712224999983,325.0588782499999,325.7242906659999,319.8570102079998,1,1,0.961984417000167,reldom2_s011,001,2025-02-05_16h23.58.929,Where-B-Scan_AC,2022.2.5,None,
27,First_Order,5.0,audwhere,stimulus/audwhere_stim/dummy.wav,stimulus/audwhere_stim/dummy.wav,stimulus/audwhere_stim/left_toward_290h.wav,stimulus/audwhere_stim/left_away_300h.wav,stimulus/audwhere_stim/blank_white.png,stimulus/audwhere_stim/direction_box.png,stimulus/audwhere_stim/direction_yes.png,stimulus/audwhere_stim/direction_no.png,None,Direction,None,Side,2,0.0,0,5.125,0,5.125,0,5.125,0,0.0,0.625,0,0.0,0,0.0,0,0.0,0,0.0,0,0.0,0,0.0,1,0.5,1,2.125,0,,,,,0,35,35,35,,,,,,,,,325.98274549999996,325.98274549999996,325.98274549999996,325.98274549999996,325.98274549999996,325.98274549999996,325.98274549999996,325.98274549999996,325.8988477913332,325.98274549999996,325.98274549999996,325.98274549999996,325.8988477913332,325.98274549999996,325.98274549999996,325.98274549999996,328.06437337499983,,325.98274549999996,325.98274549999996,331.1526157909998,325.98274549999996,325.98274549999996,325.98274549999996,325.98274549999996,326.4560234999999,327.49781054100004,326.4252304166664,,328.06437337499983,329.11801687499974,328.0334273746664,329.0709125829999,325.98274549999996,331.1526157909998,325.98274549999996,331.1526157909998,331.19456220799975,331.8606889160001,325.98274549999996,2,1,1.138788833000035,reldom2_s011,001,2025-02-05_16h23.58.929,Where-B-Scan_AC,2022.2.5,None,
28,First_Order,5.0,audwhere,stimulus/audwhere_stim/dummy.wav,stimulus/audwhere_stim/dummy.wav,stimulus/audwhere_stim/right_away_300h.wav,stimulus/audwhere_stim/right_toward_290h.wav,stimulus/audwhere_stim/blank_white.png,stimulus/audwhere_stim/direction_box.png,stimulus/audwhere_stim/direction_yes.png,stimulus/audwhere_stim/direction_no.png,None,Direction,None,Side,2,0.0,0,5.125,0,5.125,0,5.125,0,0.0,0.625,0,0.0,0,0.0,0,0.0,0,0.0,0,0.0,0,0.0,1,0.5,1,2.125,0,,,,,0,36,36,36,,,,,,,,,332.07870408300005,332.07870408300005,332.07870408300005,332.07870408300005,332.07870408300005,332.07870408300005,332.07870408300005,332.07870408300005,331.9940222493334,332.07870408300005,332.07870408300005,332.07870408300005,331.9940222493334,332.07870408300005,332.07870408300005,332.07870408300005,334.1606026249997,338.2298518329999,332.07870408300005,332.07870408300005,337.2388437499999,332.07870408300005,332.07870408300005,332.07870408300005,332.07870408300005,332.55164508300004,333.593291875,332.52094299966643,,334.1606026249997,335.20481108299964,334.12960587466637,,332.07870408300005,337.2388437499999,332.07870408300005,337.2388437499999,337.2808682079999,337.9465702499997,332.07870408300005,2,1,1.4176339590003408,reldom2_s011,001,2025-02-05_16h23.58.929,Where-B-Scan_AC,2022.2.5,None,
0,0.0,None,fixation,stimulus/audwhere_stim/blank_white.png,stimulus/audwhere_stim/blank_white.png,stimulus/viswhere_stim/blank_white.png,stimulus/viswhere_stim/blank_white.png,stimulus/audwhere_stim/blank_white.png,stimulus/audwhere_stim/blank_white.png,stimulus/audwhere_stim/blank_white.png,stimulus/audwhere_stim/blank_white.png,0.0,0.0,0.0,0.0,0,0.0,0,0.0,0,0.0,0,0.0,0,0.0,0.0,0,0.0,0,0.0,0,0.0,0,0.0,0,0.0,0,0.0,0,0.0,0,0.0,10,,,,,0,37,37,37,,,,,,,,,338.2298518329999,338.2298518329999,338.2298518329999,338.2298518329999,338.2298518329999,338.2298518329999,338.2298518329999,338.2298518329999,338.121211916333,338.2298518329999,338.2298518329999,338.2298518329999,338.121211916333,338.2298518329999,338.2298518329999,338.2298518329999,338.2298518329999,338.2298518329999,338.2298518329999,338.2298518329999,338.2298518329999,338.2298518329999,338.2298518329999,338.2298518329999,338.2298518329999,338.2298518329999,338.2298518329999,338.18787858299964,338.2298518329999,338.2298518329999,338.2298518329999,338.18787858299964,338.2298518329999,338.2298518329999,338.2298518329999,338.2298518329999,338.2298518329999,343.4526262909999,343.4526262909999,348.3872889999998,None,0,,reldom2_s011,001,2025-02-05_16h23.58.929,Where-B-Scan_AC,2022.2.5,None,
29,Second_Order,5.0,audwhere,stimulus/audwhere_stim/right_toward_270h.wav,stimulus/audwhere_stim/right_away_280h.wav,stimulus/audwhere_stim/left_away_270h.wav,stimulus/audwhere_stim/right_away_300h.wav,stimulus/audwhere_stim/match_blank.png,stimulus/audwhere_stim/match_box.png,stimulus/audwhere_stim/match_yes.png,stimulus/audwhere_stim/match_no.png,2.0,Match,Side,Direction,2,5.125,0,5.125,0,5.125,0,5.125,0,0.75,0.75,0,0.0,0,0.0,0,0.0,0,0.0,1,0.5,1,2.125,1,0.5,1,2.125,0,,,,,0,38,38,38,,,,,,,,,348.3872889999998,353.5111388749997,348.3872889999998,348.3872889999998,348.3872889999998,348.3872889999998,348.837321125,349.83590158299967,348.85058833266635,349.8441548329997,350.470936875,351.45984391599995,350.47456591666673,351.4728458750001,353.5111388749997,354.3442810409997,356.413838083,,354.3442810409997,354.3442810409997,359.52497045799964,354.3442810409997,354.3442810409997,354.3442810409997,354.3442810409997,354.81353145799994,355.84870125,354.7827942076667,,356.413838083,357.4547981249998,356.38286895766646,,354.3442810409997,359.52497045799964,354.3442810409997,359.52497045799964,359.52497045799964,,354.3442810409997,2,1,0.9859484590001557,reldom2_s011,001,2025-02-05_16h23.58.929,Where-B-Scan_AC,2022.2.5,None,
30,Second_Order,5.0,audwhere,stimulus/audwhere_stim/right_away_300h.wav,stimulus/audwhere_stim/right_toward_300h.wav,stimulus/audwhere_stim/left_toward_290h.wav,stimulus/audwhere_stim/left_away_270h.wav,stimulus/audwhere_stim/match_blank.png,stimulus/audwhere_stim/match_box.png,stimulus/audwhere_stim/match_yes.png,stimulus/audwhere_stim/match_no.png,1.0,Match,Side,Side,1,5.125,0,5.125,0,5.125,0,5.125,0,0.625,0.625,0,0.0,0,0.0,0,0.0,0,0.0,1,0.5,1,2.125,1,0.5,1,2.125,0,,,,,0,39,39,39,,,,,,,,,360.3485107910001,365.4720726659998,360.3485107910001,360.3485107910001,360.3485107910001,360.3485107910001,360.79848425,361.79682449999973,360.81130241666665,361.80461083299997,362.4318724999998,363.42119320799975,362.43538220766663,363.43394958299996,365.4720726659998,366.18840550000004,368.2518652499998,,366.18840550000004,366.18840550000004,371.35004416599986,366.18840550000004,366.18840550000004,366.18840550000004,366.18840550000004,366.65572266599975,367.689152208,366.6255680826664,,368.2518652499998,369.2901513749998,368.2210126246666,,366.18840550000004,371.35004416599986,366.18840550000004,371.35004416599986,371.3911708329997,372.05130141599966,366.18840550000004,1,1,1.2333530420000898,reldom2_s011,001,2025-02-05_16h23.58.929,Where-B-Scan_AC,2022.2.5,None,
0,0.0,None,fixation,stimulus/audwhere_stim/blank_white.png,stimulus/audwhere_stim/blank_white.png,stimulus/viswhere_stim/blank_white.png,stimulus/viswhere_stim/blank_white.png,stimulus/audwhere_stim/blank_white.png,stimulus/audwhere_stim/blank_white.png,stimulus/audwhere_stim/blank_white.png,stimulus/audwhere_stim/blank_white.png,0.0,0.0,0.0,0.0,0,0.0,0,0.0,0,0.0,0,0.0,0,0.0,0.0,0,0.0,0,0.0,0,0.0,0,0.0,0,0.0,0,0.0,0,0.0,0,0.0,8,,,,,0,40,40,40,,,,,,,,,372.29319770799975,372.29319770799975,372.29319770799975,372.29319770799975,372.29319770799975,372.29319770799975,372.29319770799975,372.29319770799975,372.184634749333,372.29319770799975,372.29319770799975,372.29319770799975,372.184634749333,372.29319770799975,372.29319770799975,372.29319770799975,372.29319770799975,372.29319770799975,372.29319770799975,372.29319770799975,372.29319770799975,372.29319770799975,372.29319770799975,372.29319770799975,372.29319770799975,372.29319770799975,372.29319770799975,372.25130141599965,372.29319770799975,372.29319770799975,372.29319770799975,372.25130141599965,372.29319770799975,372.29319770799975,372.29319770799975,372.29319770799975,372.29319770799975,377.491012041,377.491012041,380.547752208,None,0,,reldom2_s011,001,2025-02-05_16h23.58.929,Where-B-Scan_AC,2022.2.5,None,
31,First_Order,6.0,audwhere,stimulus/audwhere_stim/dummy.wav,stimulus/audwhere_stim/dummy.wav,stimulus/audwhere_stim/left_toward_270h.wav,stimulus/audwhere_stim/right_toward_280h.wav,stimulus/audwhere_stim/blank_white.png,stimulus/audwhere_stim/side_box.png,stimulus/audwhere_stim/side_yes.png,stimulus/audwhere_stim/side_no.png,None,Side,None,Direction,2,0.0,0,5.125,0,5.125,0,5.125,0,0.0,0.625,0,0.0,0,0.0,0,0.0,0,0.0,0,0.0,0,0.0,1,0.5,1,2.125,0,,,,,0,41,41,41,,,,,,,,,380.547752208,380.547752208,380.547752208,380.547752208,380.547752208,380.547752208,380.547752208,380.547752208,380.47222916666635,380.547752208,380.547752208,380.547752208,380.47222916666635,380.547752208,380.547752208,380.547752208,382.66263791599977,386.6780296249999,380.547752208,380.547752208,385.7177953329997,380.547752208,380.547752208,380.547752208,380.547752208,381.0193705829997,382.05172879099973,380.98843099966666,,382.66263791599977,383.702292083,382.6318756246667,,380.547752208,385.7177953329997,380.547752208,385.7177953329997,385.76020341599997,386.421310791,380.547752208,2,1,0.841443290999905,reldom2_s011,001,2025-02-05_16h23.58.929,Where-B-Scan_AC,2022.2.5,None,
32,First_Order,6.0,audwhere,stimulus/audwhere_stim/dummy.wav,stimulus/audwhere_stim/dummy.wav,stimulus/audwhere_stim/right_toward_280h.wav,stimulus/audwhere_stim/left_toward_290h.wav,stimulus/audwhere_stim/blank_white.png,stimulus/audwhere_stim/direction_box.png,stimulus/audwhere_stim/direction_yes.png,stimulus/audwhere_stim/direction_no.png,None,Direction,None,Direction,1,0.0,0,5.125,0,5.125,0,5.125,0,0.0,0.625,0,0.0,0,0.0,0,0.0,0,0.0,0,0.0,0,0.0,1,0.5,1,2.125,0,,,,,0,42,42,42,,,,,,,,,386.6780296249999,386.6780296249999,386.6780296249999,386.6780296249999,386.6780296249999,386.6780296249999,386.6780296249999,386.6780296249999,386.59541508333325,386.6780296249999,386.6780296249999,386.6780296249999,386.59541508333325,386.6780296249999,386.6780296249999,386.6780296249999,388.75863812499983,392.802199666,386.6780296249999,386.6780296249999,391.8360604999998,386.6780296249999,386.6780296249999,386.6780296249999,386.6780296249999,387.15286312499984,388.19118612500006,387.12219320766667,,388.75863812499983,389.80372291599997,388.72712320766664,,386.6780296249999,391.8360604999998,386.6780296249999,391.8360604999998,391.8776149999999,392.5447987079997,386.6780296249999,1,1,1.47143962500013,reldom2_s011,001,2025-02-05_16h23.58.929,Where-B-Scan_AC,2022.2.5,None,
33,First_Order,6.0,audwhere,stimulus/audwhere_stim/dummy.wav,stimulus/audwhere_stim/dummy.wav,stimulus/audwhere_stim/left_toward_270h.wav,stimulus/audwhere_stim/left_away_300h.wav,stimulus/audwhere_stim/blank_white.png,stimulus/audwhere_stim/side_box.png,stimulus/audwhere_stim/side_yes.png,stimulus/audwhere_stim/side_no.png,None,Side,None,Side,1,0.0,0,5.125,0,5.125,0,5.125,0,0.0,0.625,0,0.0,0,0.0,0,0.0,0,0.0,0,0.0,0,0.0,1,0.5,1,2.125,0,,,,,0,43,43,43,,,,,,,,,392.802199666,392.802199666,392.802199666,392.802199666,392.802199666,392.802199666,392.802199666,392.802199666,392.7191954993333,392.802199666,392.802199666,392.802199666,392.7191954993333,392.802199666,392.802199666,392.802199666,394.8742203749998,,392.802199666,392.802199666,397.97991299999967,392.802199666,392.802199666,392.802199666,392.802199666,393.27567433299964,394.3092879159999,393.2449004576663,,394.8742203749998,395.9105771659997,394.8422832916665,,392.802199666,397.97991299999967,392.802199666,397.97991299999967,398.021694,398.68432437499996,392.802199666,1,1,0.97634112500009,reldom2_s011,001,2025-02-05_16h23.58.929,Where-B-Scan_AC,2022.2.5,None,
34,First_Order,6.0,audwhere,stimulus/audwhere_stim/dummy.wav,stimulus/audwhere_stim/dummy.wav,stimulus/audwhere_stim/right_toward_300h.wav,stimulus/audwhere_stim/left_toward_290h.wav,stimulus/audwhere_stim/blank_white.png,stimulus/audwhere_stim/side_box.png,stimulus/audwhere_stim/side_yes.png,stimulus/audwhere_stim/side_no.png,None,Side,None,Direction,2,0.0,0,5.125,0,5.125,0,5.125,0,0.0,0.625,0,0.0,0,0.0,0,0.0,0,0.0,0,0.0,0,0.0,1,0.5,1,2.125,0,,,,,0,44,44,44,,,,,,,,,398.9032339579999,398.9032339579999,398.9032339579999,398.9032339579999,398.9032339579999,398.9032339579999,398.9032339579999,398.9032339579999,398.8176577083333,398.9032339579999,398.9032339579999,398.9032339579999,398.8176577083333,398.9032339579999,398.9032339579999,398.9032339579999,400.9766099999997,,398.9032339579999,398.9032339579999,404.08333704100005,398.9032339579999,398.9032339579999,398.9032339579999,398.9032339579999,399.37376904099983,400.40755620799973,399.34332795766636,,400.9766099999997,402.0139165830001,400.9450367916663,,398.9032339579999,404.08333704100005,398.9032339579999,404.08333704100005,404.12494249999963,404.78703449999966,398.9032339579999,2,1,0.8242351670000971,reldom2_s011,001,2025-02-05_16h23.58.929,Where-B-Scan_AC,2022.2.5,None,
0,0.0,None,fixation,stimulus/audwhere_stim/blank_white.png,stimulus/audwhere_stim/blank_white.png,stimulus/viswhere_stim/blank_white.png,stimulus/viswhere_stim/blank_white.png,stimulus/audwhere_stim/blank_white.png,stimulus/audwhere_stim/blank_white.png,stimulus/audwhere_stim/blank_white.png,stimulus/audwhere_stim/blank_white.png,0.0,0.0,0.0,0.0,0,0.0,0,0.0,0,0.0,0,0.0,0,0.0,0.0,0,0.0,0,0.0,0,0.0,0,0.0,0,0.0,0,0.0,0,0.0,0,0.0,8,,,,,0,45,45,45,,,,,,,,,405.02954387499994,405.02954387499994,405.02954387499994,405.02954387499994,405.02954387499994,405.02954387499994,405.02954387499994,405.02954387499994,404.920367833333,405.02954387499994,405.02954387499994,405.02954387499994,404.920367833333,405.02954387499994,405.02954387499994,405.02954387499994,405.02954387499994,405.02954387499994,405.02954387499994,405.02954387499994,405.02954387499994,405.02954387499994,405.02954387499994,405.02954387499994,405.02954387499994,405.02954387499994,405.02954387499994,404.98703449999965,405.02954387499994,405.02954387499994,405.02954387499994,404.98703449999965,405.02954387499994,405.02954387499994,405.02954387499994,405.02954387499994,405.02954387499994,410.240472166,410.240472166,413.2049944999999,None,0,,reldom2_s011,001,2025-02-05_16h23.58.929,Where-B-Scan_AC,2022.2.5,None,
35,Second_Order,6.0,audwhere,stimulus/audwhere_stim/left_toward_280h.wav,stimulus/audwhere_stim/right_toward_270h.wav,stimulus/audwhere_stim/left_away_300h.wav,stimulus/audwhere_stim/right_away_280h.wav,stimulus/audwhere_stim/match_blank.png,stimulus/audwhere_stim/match_box.png,stimulus/audwhere_stim/match_yes.png,stimulus/audwhere_stim/match_no.png,1.0,Match,Direction,Direction,1,5.125,0,5.125,0,5.125,0,5.125,0,0.75,0.75,0,0.0,0,0.0,0,0.0,0,0.0,1,0.5,1,2.125,1,0.5,1,2.125,0,,,,,0,46,46,46,,,,,,,,,413.2049944999999,418.3274957499998,413.2049944999999,413.2049944999999,413.2049944999999,413.2049944999999,413.65291183299996,414.6391492499997,413.66659424966633,414.66058429099985,415.28707262499984,416.2763749159999,415.2910722496665,416.28905641599977,418.3274957499998,419.16285104100007,421.2292347499997,,419.16285104100007,419.16285104100007,424.33288029100004,419.16285104100007,419.16285104100007,419.16285104100007,419.16285104100007,419.6314621659999,420.6643423329997,419.6016197076667,,421.2292347499997,422.2656945829999,421.1989375416663,,419.16285104100007,424.33288029100004,419.16285104100007,424.33288029100004,424.3742157500001,,419.16285104100007,1,1,1.2490429589997802,reldom2_s011,001,2025-02-05_16h23.58.929,Where-B-Scan_AC,2022.2.5,None,
36,Second_Order,6.0,audwhere,stimulus/audwhere_stim/left_toward_300h.wav,stimulus/audwhere_stim/right_toward_280h.wav,stimulus/audwhere_stim/left_away_300h.wav,stimulus/audwhere_stim/right_away_300h.wav,stimulus/audwhere_stim/match_blank.png,stimulus/audwhere_stim/match_box.png,stimulus/audwhere_stim/match_yes.png,stimulus/audwhere_stim/match_no.png,1.0,Match,Direction,Direction,1,5.125,0,5.125,0,5.125,0,5.125,0,0.625,0.625,0,0.0,0,0.0,0,0.0,0,0.0,1,0.5,1,2.125,1,0.5,1,2.125,0,,,,,0,47,47,47,,,,,,,,,425.15762204099974,430.27605474999973,425.15762204099974,425.15762204099974,425.15762204099974,425.15762204099974,425.6148466249997,426.6134689159999,425.6274459166664,426.6210491659999,427.23555454100006,428.2331090409998,427.2477729576665,428.24052295799993,430.27605474999973,430.98271420799983,433.04659425,437.1267311249999,430.98271420799983,430.98271420799983,436.1436077909998,430.98271420799983,430.98271420799983,430.98271420799983,430.98271420799983,431.45156258299994,432.48354308299986,431.42080549966636,,433.04659425,434.07848250000006,433.0162487076666,,430.98271420799983,436.1436077909998,430.98271420799983,436.1436077909998,436.185252708,436.8467702079997,430.98271420799983,1,1,2.24308474999998,reldom2_s011,001,2025-02-05_16h23.58.929,Where-B-Scan_AC,2022.2.5,None,
0,0.0,None,fixation,stimulus/audwhere_stim/blank_white.png,stimulus/audwhere_stim/blank_white.png,stimulus/viswhere_stim/blank_white.png,stimulus/viswhere_stim/blank_white.png,stimulus/audwhere_stim/blank_white.png,stimulus/audwhere_stim/blank_white.png,stimulus/audwhere_stim/blank_white.png,stimulus/audwhere_stim/blank_white.png,0.0,0.0,0.0,0.0,0,0.0,0,0.0,0,0.0,0,0.0,0,0.0,0.0,0,0.0,0,0.0,0,0.0,0,0.0,0,0.0,0,0.0,0,0.0,0,0.0,10,,,,,0,48,48,48,,,,,,,,,437.1267311249999,437.1267311249999,437.1267311249999,437.1267311249999,437.1267311249999,437.1267311249999,437.1267311249999,437.1267311249999,437.02162241633334,437.1267311249999,437.1267311249999,437.1267311249999,437.02162241633334,437.1267311249999,437.1267311249999,437.1267311249999,437.1267311249999,437.1267311249999,437.1267311249999,437.1267311249999,437.1267311249999,437.1267311249999,437.1267311249999,437.1267311249999,437.1267311249999,437.1267311249999,437.1267311249999,437.07162241633335,437.1267311249999,437.1267311249999,437.1267311249999,437.07162241633335,437.1267311249999,437.1267311249999,437.1267311249999,437.1267311249999,437.1267311249999,442.31811254099966,442.31811254099966,447.330225916,None,0,,reldom2_s011,001,2025-02-05_16h23.58.929,Where-B-Scan_AC,2022.2.5,None,
37,First_Order,7.0,viswhere,stimulus/viswhere_stim/blank_white.png,stimulus/viswhere_stim/blank_white.png,stimulus/viswhere_stim/150-deg_dot-left_turquoise.png,stimulus/viswhere_stim/120-deg_dot-left_mediumslateblue.png,stimulus/viswhere_stim/blank_white.png,stimulus/viswhere_stim/line_box.png,stimulus/viswhere_stim/line_yes.png,stimulus/viswhere_stim/line_no.png,None,Line,None,Dot,2,0.0,0,5.125,0,5.125,0,5.125,0,0.0,0.625,0,0.0,0,0.0,1,0.5,1,2.125,0,0.0,0,0.0,0,0.0,0,0.0,0,,,,,0,49,49,49,,,,,,,,,447.330225916,447.330225916,447.330225916,447.330225916,447.330225916,447.330225916,447.330225916,447.330225916,447.3057561246666,447.330225916,447.330225916,447.330225916,447.3057561246666,447.330225916,447.330225916,447.330225916,449.4337767909997,453.3881987909999,447.330225916,447.330225916,452.457505333,447.8174806249999,448.8299789160001,449.4337767909997,450.4501467079999,447.330225916,447.330225916,447.3224227913333,447.330225916,447.330225916,447.330225916,447.3224227913333,447.330225916,447.330225916,452.457505333,447.330225916,452.457505333,452.55538320799997,453.18420258299966,447.330225916,1,0,1.8349862080003732,reldom2_s011,001,2025-02-05_16h23.58.929,Where-B-Scan_AC,2022.2.5,None,
38,First_Order,7.0,viswhere,stimulus/viswhere_stim/blank_white.png,stimulus/viswhere_stim/blank_white.png,stimulus/viswhere_stim/120-deg_dot-left_mediumslateblue.png,stimulus/viswhere_stim/120-deg_dot-right_seagreen.png,stimulus/viswhere_stim/blank_white.png,stimulus/viswhere_stim/dot_box.png,stimulus/viswhere_stim/dot_yes.png,stimulus/viswhere_stim/dot_no.png,None,Dot,None,Line,2,0.0,0,5.125,0,5.125,0,5.125,0,0.0,0.625,0,0.0,0,0.0,1,0.5,1,2.125,0,0.0,0,0.0,0,0.0,0,0.0,0,,,,,0,50,50,50,,,,,,,,,453.3881987909999,453.3881987909999,453.3881987909999,453.3881987909999,453.3881987909999,453.3881987909999,453.3881987909999,453.3881987909999,453.3649500833333,453.3881987909999,453.3881987909999,453.3881987909999,453.3649500833333,453.3881987909999,453.3881987909999,453.3881987909999,455.49060433299974,459.4618271659997,453.3881987909999,453.3881987909999,458.52317345799975,453.8717661659998,454.8754678329997,455.49060433299974,456.4995435000001,453.3881987909999,453.3881987909999,453.38161675,453.3881987909999,453.3881987909999,453.3881987909999,453.38161675,453.3881987909999,453.3881987909999,458.52317345799975,453.3881987909999,458.52317345799975,458.6075955829997,459.2397249159999,453.3881987909999,2,1,0.7862161250000099,reldom2_s011,001,2025-02-05_16h23.58.929,Where-B-Scan_AC,2022.2.5,None,
39,First_Order,7.0,viswhere,stimulus/viswhere_stim/blank_white.png,stimulus/viswhere_stim/blank_white.png,stimulus/viswhere_stim/60-deg_dot-right_salmon.png,stimulus/viswhere_stim/60-deg_dot-left_peru.png,stimulus/viswhere_stim/blank_white.png,stimulus/viswhere_stim/line_box.png,stimulus/viswhere_stim/line_yes.png,stimulus/viswhere_stim/line_no.png,None,Line,None,Line,1,0.0,0,5.125,0,5.125,0,5.125,0,0.0,0.625,0,0.0,0,0.0,1,0.5,1,2.125,0,0.0,0,0.0,0,0.0,0,0.0,0,,,,,0,51,51,51,,,,,,,,,459.4618271659997,459.4618271659997,459.4618271659997,459.4618271659997,459.4618271659997,459.4618271659997,459.4618271659997,459.4618271659997,459.4345701243331,459.4618271659997,459.4618271659997,459.4618271659997,459.4345701243331,459.4618271659997,459.4618271659997,459.4618271659997,461.5714015829999,465.5262693750001,459.4618271659997,459.4618271659997,464.60002733300007,459.946798083,460.95391116599967,461.5714015829999,462.58566595799994,459.4618271659997,459.4618271659997,459.45123679099976,459.4618271659997,459.4618271659997,459.4618271659997,459.45123679099976,459.4618271659997,459.4618271659997,464.60002733300007,459.4618271659997,464.60002733300007,464.6833029579998,465.3090044579999,459.4618271659997,1,1,0.8522891249999702,reldom2_s011,001,2025-02-05_16h23.58.929,Where-B-Scan_AC,2022.2.5,None,
40,First_Order,7.0,viswhere,stimulus/viswhere_stim/blank_white.png,stimulus/viswhere_stim/blank_white.png,stimulus/viswhere_stim/60-deg_dot-right_slateblue.png,stimulus/viswhere_stim/90-deg_dot-right_royalblue.png,stimulus/viswhere_stim/blank_white.png,stimulus/viswhere_stim/dot_box.png,stimulus/viswhere_stim/dot_yes.png,stimulus/viswhere_stim/dot_no.png,None,Dot,None,Dot,1,0.0,0,5.125,0,5.125,0,5.125,0,0.0,0.625,0,0.0,0,0.0,1,0.5,1,2.125,0,0.0,0,0.0,0,0.0,0,0.0,0,,,,,0,52,52,52,,,,,,,,,465.5262693750001,465.5262693750001,465.5262693750001,465.5262693750001,465.5262693750001,465.5262693750001,465.5262693750001,465.5262693750001,465.50417283333337,465.5262693750001,465.5262693750001,465.5262693750001,465.50417283333337,465.5262693750001,465.5262693750001,465.5262693750001,467.63442337499964,471.6695411249998,465.5262693750001,465.5262693750001,470.6603572079998,466.010273375,467.017798375,467.63442337499964,468.64665216599997,465.5262693750001,465.5262693750001,465.5208395,465.5262693750001,465.5262693750001,465.5262693750001,465.5208395,465.5262693750001,465.5262693750001,470.6603572079998,465.5262693750001,470.6603572079998,470.7447297079998,471.37302020800007,465.5262693750001,1,1,0.8769574579996515,reldom2_s011,001,2025-02-05_16h23.58.929,Where-B-Scan_AC,2022.2.5,None,
0,0.0,None,fixation,stimulus/audwhere_stim/blank_white.png,stimulus/audwhere_stim/blank_white.png,stimulus/viswhere_stim/blank_white.png,stimulus/viswhere_stim/blank_white.png,stimulus/audwhere_stim/blank_white.png,stimulus/audwhere_stim/blank_white.png,stimulus/audwhere_stim/blank_white.png,stimulus/audwhere_stim/blank_white.png,0.0,0.0,0.0,0.0,0,0.0,0,0.0,0,0.0,0,0.0,0,0.0,0.0,0,0.0,0,0.0,0,0.0,0,0.0,0,0.0,0,0.0,0,0.0,0,0.0,8,,,,,0,53,53,53,,,,,,,,,471.6695411249998,471.6695411249998,471.6695411249998,471.6695411249998,471.6695411249998,471.6695411249998,471.6695411249998,471.6695411249998,471.56792166633323,471.6695411249998,471.6695411249998,471.6695411249998,471.56792166633323,471.6695411249998,471.6695411249998,471.6695411249998,471.6695411249998,471.6695411249998,471.6695411249998,471.6695411249998,471.6695411249998,471.6695411249998,471.6695411249998,471.6695411249998,471.6695411249998,471.6695411249998,471.6695411249998,471.61792166633325,471.6695411249998,471.6695411249998,471.6695411249998,471.61792166633325,471.6695411249998,471.6695411249998,471.6695411249998,471.6695411249998,471.6695411249998,476.8843929159998,476.8843929159998,479.7769559999997,None,0,,reldom2_s011,001,2025-02-05_16h23.58.929,Where-B-Scan_AC,2022.2.5,None,
41,Second_Order,7.0,viswhere,stimulus/viswhere_stim/60-deg_dot-right_seagreen.png,stimulus/viswhere_stim/30-deg_dot-right_mediumslateblue.png,stimulus/viswhere_stim/60-deg_dot-left_mediumslateblue.png,stimulus/viswhere_stim/150-deg_dot-left_salmon.png,stimulus/audwhere_stim/match_blank.png,stimulus/audwhere_stim/match_box.png,stimulus/audwhere_stim/match_yes.png,stimulus/audwhere_stim/match_no.png,1.0,Match,Dot,Dot,1,5.125,0,5.125,0,5.125,0,5.125,0,0.75,0.75,1,0.5,1,2.125,1,0.5,1,2.125,0,0.0,0,0.0,0,0.0,0,0.0,0,,,,,0,54,54,54,,,,,,,,,479.7769559999997,484.901543125,480.25793504099966,481.25574479099987,481.87834291599984,482.8763692079997,479.7769559999997,479.7769559999997,479.78968033333297,479.7769559999997,479.7769559999997,479.7769559999997,479.78968033333297,479.7769559999997,484.901543125,485.68225595800004,487.773900916,491.6632414999999,485.68225595800004,485.68225595800004,490.806308833,486.15160508300005,487.16961116599987,487.773900916,488.792987583,485.68225595800004,485.68225595800004,485.67023262433304,485.68225595800004,485.68225595800004,485.68225595800004,485.67023262433304,485.68225595800004,485.68225595800004,490.806308833,485.68225595800004,490.806308833,490.8910988749999,491.6632414999999,485.68225595800004,1,1,1.0572989170000255,reldom2_s011,001,2025-02-05_16h23.58.929,Where-B-Scan_AC,2022.2.5,None,
42,Second_Order,7.0,viswhere,stimulus/viswhere_stim/90-deg_dot-right_goldenrod.png,stimulus/viswhere_stim/120-deg_dot-right_mediumslateblue.png,stimulus/viswhere_stim/60-deg_dot-right_peru.png,stimulus/viswhere_stim/60-deg_dot-left_mediumslateblue.png,stimulus/audwhere_stim/match_blank.png,stimulus/audwhere_stim/match_box.png,stimulus/audwhere_stim/match_yes.png,stimulus/audwhere_stim/match_no.png,2.0,Match,Dot,Line,2,5.125,0,5.125,0,5.125,0,5.125,0,0.625,0.625,1,0.5,1,2.125,1,0.5,1,2.125,0,0.0,0,0.0,0,0.0,0,0.0,0,,,,,0,55,55,55,,,,,,,,,491.6632414999999,496.7793284999998,492.147356208,493.13646516599965,493.7724200829998,494.77030512500005,491.6632414999999,491.6632414999999,491.6760790829997,491.6632414999999,491.6632414999999,491.6632414999999,491.6760790829997,491.6632414999999,496.7793284999998,497.436365,499.5318957909999,503.5675323749997,497.436365,497.436365,502.57076095799994,497.90139870799976,498.91141520799965,499.5318957909999,500.54551970800003,497.436365,497.436365,497.42652754133314,497.436365,497.436365,497.436365,497.42652754133314,497.436365,497.436365,502.57076095799994,497.436365,502.57076095799994,502.6542361249999,503.2832606249999,497.436365,2,1,2.2929301250001117,reldom2_s011,001,2025-02-05_16h23.58.929,Where-B-Scan_AC,2022.2.5,None,
0,0.0,None,fixation,stimulus/audwhere_stim/blank_white.png,stimulus/audwhere_stim/blank_white.png,stimulus/viswhere_stim/blank_white.png,stimulus/viswhere_stim/blank_white.png,stimulus/audwhere_stim/blank_white.png,stimulus/audwhere_stim/blank_white.png,stimulus/audwhere_stim/blank_white.png,stimulus/audwhere_stim/blank_white.png,0.0,0.0,0.0,0.0,0,0.0,0,0.0,0,0.0,0,0.0,0,0.0,0.0,0,0.0,0,0.0,0,0.0,0,0.0,0,0.0,0,0.0,0,0.0,0,0.0,8,,,,,0,56,56,56,,,,,,,,,503.5675323749997,503.5675323749997,503.5675323749997,503.5675323749997,503.5675323749997,503.5675323749997,503.5675323749997,503.5675323749997,503.46325758333325,503.5675323749997,503.5675323749997,503.5675323749997,503.46325758333325,503.5675323749997,503.5675323749997,503.5675323749997,503.5675323749997,503.5675323749997,503.5675323749997,503.5675323749997,503.5675323749997,503.5675323749997,503.5675323749997,503.5675323749997,503.5675323749997,503.5675323749997,503.5675323749997,503.51325758333326,503.5675323749997,503.5675323749997,503.5675323749997,503.51325758333326,503.5675323749997,503.5675323749997,503.5675323749997,503.5675323749997,503.5675323749997,508.77113929100005,508.77113929100005,511.7789402909998,None,0,,reldom2_s011,001,2025-02-05_16h23.58.929,Where-B-Scan_AC,2022.2.5,None,
43,First_Order,8.0,viswhere,stimulus/viswhere_stim/blank_white.png,stimulus/viswhere_stim/blank_white.png,stimulus/viswhere_stim/120-deg_dot-left_lightsseagreen.png,stimulus/viswhere_stim/120-deg_dot-right_royalblue.png,stimulus/viswhere_stim/blank_white.png,stimulus/viswhere_stim/line_box.png,stimulus/viswhere_stim/line_yes.png,stimulus/viswhere_stim/line_no.png,None,Line,None,Line,1,0.0,0,5.125,0,5.125,0,5.125,0,0.0,0.625,0,0.0,0,0.0,1,0.5,1,2.125,0,0.0,0,0.0,0,0.0,0,0.0,0,,,,,0,57,57,57,,,,,,,,,511.7789402909998,511.7789402909998,511.7789402909998,511.7789402909998,511.7789402909998,511.7789402909998,511.7789402909998,511.7789402909998,511.75546349966646,511.7789402909998,511.7789402909998,511.7789402909998,511.75546349966646,511.7789402909998,511.7789402909998,511.7789402909998,513.8849909159999,517.8404866659998,511.7789402909998,511.7789402909998,516.9069966659999,512.2624261249998,513.2682519999998,513.8849909159999,514.897858666,511.7789402909998,511.7789402909998,511.77213016633317,511.7789402909998,511.7789402909998,511.7789402909998,511.77213016633317,511.7789402909998,511.7789402909998,516.9069966659999,511.7789402909998,516.9069966659999,516.9955103329999,517.6221846660001,511.7789402909998,1,1,0.7374882080002862,reldom2_s011,001,2025-02-05_16h23.58.929,Where-B-Scan_AC,2022.2.5,None,
44,First_Order,8.0,viswhere,stimulus/viswhere_stim/blank_white.png,stimulus/viswhere_stim/blank_white.png,stimulus/viswhere_stim/60-deg_dot-right_peru.png,stimulus/viswhere_stim/90-deg_dot-right_turquoise.png,stimulus/viswhere_stim/blank_white.png,stimulus/viswhere_stim/dot_box.png,stimulus/viswhere_stim/dot_yes.png,stimulus/viswhere_stim/dot_no.png,None,Dot,None,Dot,1,0.0,0,5.125,0,5.125,0,5.125,0,0.0,0.625,0,0.0,0,0.0,1,0.5,1,2.125,0,0.0,0,0.0,0,0.0,0,0.0,0,,,,,0,58,58,58,,,,,,,,,517.8404866659998,517.8404866659998,517.8404866659998,517.8404866659998,517.8404866659998,517.8404866659998,517.8404866659998,517.8404866659998,517.8161992083332,517.8404866659998,517.8404866659998,517.8404866659998,517.8161992083332,517.8404866659998,517.8404866659998,517.8404866659998,519.951401541,523.9080692909997,517.8404866659998,517.8404866659998,522.975641,518.3245342499999,519.3333386659997,519.951401541,520.9646083329999,517.8404866659998,517.8404866659998,517.8328658749998,517.8404866659998,517.8404866659998,517.8404866659998,517.8328658749998,517.8404866659998,517.8404866659998,522.975641,517.8404866659998,522.975641,523.0591609159997,523.6860875409998,517.8404866659998,1,1,0.9093548749997353,reldom2_s011,001,2025-02-05_16h23.58.929,Where-B-Scan_AC,2022.2.5,None,
45,First_Order,8.0,viswhere,stimulus/viswhere_stim/blank_white.png,stimulus/viswhere_stim/blank_white.png,stimulus/viswhere_stim/150-deg_dot-right_lightsseagreen.png,stimulus/viswhere_stim/150-deg_dot-left_royalblue.png,stimulus/viswhere_stim/blank_white.png,stimulus/viswhere_stim/dot_box.png,stimulus/viswhere_stim/dot_yes.png,stimulus/viswhere_stim/dot_no.png,None,Dot,None,Line,2,0.0,0,5.125,0,5.125,0,5.125,0,0.0,0.625,0,0.0,0,0.0,1,0.5,1,2.125,0,0.0,0,0.0,0,0.0,0,0.0,0,,,,,0,59,59,59,,,,,,,,,523.9080692909997,523.9080692909997,523.9080692909997,523.9080692909997,523.9080692909997,523.9080692909997,523.9080692909997,523.9080692909997,523.8803681663334,523.9080692909997,523.9080692909997,523.9080692909997,523.8803681663334,523.9080692909997,523.9080692909997,523.9080692909997,526.0189694579999,529.9903872079999,523.9080692909997,523.9080692909997,529.0411214579999,524.3777144579999,525.3956022499997,526.0189694579999,527.0231149159999,523.9080692909997,523.9080692909997,523.897034833,523.9080692909997,523.9080692909997,523.9080692909997,523.897034833,523.9080692909997,523.9080692909997,529.0411214579999,523.9080692909997,529.0411214579999,529.1270997080001,529.7668253749998,523.9080692909997,2,1,0.6762105830002838,reldom2_s011,001,2025-02-05_16h23.58.929,Where-B-Scan_AC,2022.2.5,None,
46,First_Order,8.0,viswhere,stimulus/viswhere_stim/blank_white.png,stimulus/viswhere_stim/blank_white.png,stimulus/viswhere_stim/30-deg_dot-left_salmon.png,stimulus/viswhere_stim/150-deg_dot-left_turquoise.png,stimulus/viswhere_stim/blank_white.png,stimulus/viswhere_stim/line_box.png,stimulus/viswhere_stim/line_yes.png,stimulus/viswhere_stim/line_no.png,None,Line,None,Dot,2,0.0,0,5.125,0,5.125,0,5.125,0,0.0,0.625,0,0.0,0,0.0,1,0.5,1,2.125,0,0.0,0,0.0,0,0.0,0,0.0,0,,,,,0,60,60,60,,,,,,,,,529.9903872079999,529.9903872079999,529.9903872079999,529.9903872079999,529.9903872079999,529.9903872079999,529.9903872079999,529.9903872079999,529.9671369163333,529.9903872079999,529.9903872079999,529.9903872079999,529.9671369163333,529.9903872079999,529.9903872079999,529.9903872079999,532.1003567499997,536.1363033749999,529.9903872079999,529.9903872079999,535.1148293329998,530.478933333,531.4969657909996,532.1003567499997,533.1206426250001,529.9903872079999,529.9903872079999,529.9838035829999,529.9903872079999,529.9903872079999,529.9903872079999,529.9838035829999,529.9903872079999,529.9903872079999,535.1148293329998,529.9903872079999,535.1148293329998,535.2293680829998,535.864209291,529.9903872079999,2,1,1.1944320840002547,reldom2_s011,001,2025-02-05_16h23.58.929,Where-B-Scan_AC,2022.2.5,None,
0,0.0,None,fixation,stimulus/audwhere_stim/blank_white.png,stimulus/audwhere_stim/blank_white.png,stimulus/viswhere_stim/blank_white.png,stimulus/viswhere_stim/blank_white.png,stimulus/audwhere_stim/blank_white.png,stimulus/audwhere_stim/blank_white.png,stimulus/audwhere_stim/blank_white.png,stimulus/audwhere_stim/blank_white.png,0.0,0.0,0.0,0.0,0,0.0,0,0.0,0,0.0,0,0.0,0,0.0,0.0,0,0.0,0,0.0,0,0.0,0,0.0,0,0.0,0,0.0,0,0.0,0,0.0,9,,,,,0,61,61,61,,,,,,,,,536.1363033749999,536.1363033749999,536.1363033749999,536.1363033749999,536.1363033749999,536.1363033749999,536.1363033749999,536.1363033749999,536.0310242083332,536.1363033749999,536.1363033749999,536.1363033749999,536.0310242083332,536.1363033749999,536.1363033749999,536.1363033749999,536.1363033749999,536.1363033749999,536.1363033749999,536.1363033749999,536.1363033749999,536.1363033749999,536.1363033749999,536.1363033749999,536.1363033749999,536.1363033749999,536.1363033749999,536.0810242083331,536.1363033749999,536.1363033749999,536.1363033749999,536.0810242083331,536.1363033749999,536.1363033749999,536.1363033749999,536.1363033749999,536.1363033749999,541.3561501659997,541.3561501659997,545.2697297499999,None,0,,reldom2_s011,001,2025-02-05_16h23.58.929,Where-B-Scan_AC,2022.2.5,None,
47,Second_Order,8.0,viswhere,stimulus/viswhere_stim/90-deg_dot-left_lightsseagreen.png,stimulus/viswhere_stim/120-deg_dot-left_royalblue.png,stimulus/viswhere_stim/30-deg_dot-right_mediumslateblue.png,stimulus/viswhere_stim/60-deg_dot-right_lightsseagreen.png,stimulus/audwhere_stim/match_blank.png,stimulus/audwhere_stim/match_box.png,stimulus/audwhere_stim/match_yes.png,stimulus/audwhere_stim/match_no.png,1.0,Match,Dot,Dot,1,5.125,0,5.125,0,5.125,0,5.125,0,0.75,0.75,1,0.5,1,2.125,1,0.5,1,2.125,0,0.0,0,0.0,0,0.0,0,0.0,0,,,,,0,62,62,62,,,,,,,,,545.2697297499999,550.3866581249999,545.7418204999999,546.7406257909997,547.3751231659999,548.364638041,545.2697297499999,545.2697297499999,545.2815036663334,545.2697297499999,545.2697297499999,545.2697297499999,545.2815036663334,545.2697297499999,550.3866581249999,551.1657029579997,553.2669666659999,557.1529505409999,551.1657029579997,551.1657029579997,556.305559291,551.6330309579998,552.6437839999999,553.2669666659999,554.285201833,551.1657029579997,551.1657029579997,551.153570666333,551.1657029579997,551.1657029579997,551.1657029579997,551.153570666333,551.1657029579997,551.1657029579997,556.305559291,551.1657029579997,556.305559291,556.3758001249998,557.1529505409999,551.1657029579997,1,1,0.72531274999983,reldom2_s011,001,2025-02-05_16h23.58.929,Where-B-Scan_AC,2022.2.5,None,
48,Second_Order,8.0,viswhere,stimulus/viswhere_stim/60-deg_dot-left_seagreen.png,stimulus/viswhere_stim/90-deg_dot-left_peru.png,stimulus/viswhere_stim/30-deg_dot-right_turquoise.png,stimulus/viswhere_stim/30-deg_dot-left_lightsseagreen.png,stimulus/audwhere_stim/match_blank.png,stimulus/audwhere_stim/match_box.png,stimulus/audwhere_stim/match_yes.png,stimulus/audwhere_stim/match_no.png,2.0,Match,Dot,Line,2,5.125,0,5.125,0,5.125,0,5.125,0,0.625,0.625,1,0.5,1,2.125,1,0.5,1,2.125,0,0.0,0,0.0,0,0.0,0,0.0,0,,,,,0,63,63,63,,,,,,,,,557.1529505409999,562.2760115409997,557.636281,558.6339789579997,559.257795166,560.2545674579997,557.1529505409999,557.1529505409999,557.1654497909997,557.1529505409999,557.1529505409999,557.1529505409999,557.1654497909997,557.1529505409999,562.2760115409997,562.9351468329996,565.0341053749999,569.0732114580001,562.9351468329996,562.9351468329996,568.0742175,563.4025271249998,564.4133446659998,565.0341053749999,566.0510656249999,562.9351468329996,562.9351468329996,562.9274434583331,562.9351468329996,562.9351468329996,562.9351468329996,562.9274434583331,562.9351468329996,562.9351468329996,568.0742175,562.9351468329996,568.0742175,568.1434725409999,568.7703531249999,562.9351468329996,2,1,0.8117607080002927,reldom2_s011,001,2025-02-05_16h23.58.929,Where-B-Scan_AC,2022.2.5,None,
0,0.0,None,fixation,stimulus/audwhere_stim/blank_white.png,stimulus/audwhere_stim/blank_white.png,stimulus/viswhere_stim/blank_white.png,stimulus/viswhere_stim/blank_white.png,stimulus/audwhere_stim/blank_white.png,stimulus/audwhere_stim/blank_white.png,stimulus/audwhere_stim/blank_white.png,stimulus/audwhere_stim/blank_white.png,0.0,0.0,0.0,0.0,0,0.0,0,0.0,0,0.0,0,0.0,0,0.0,0.0,0,0.0,0,0.0,0,0.0,0,0.0,0,0.0,0,0.0,0,0.0,0,0.0,16,,,,,0,64,64,64,,,,,,,,,569.0732114580001,569.0732114580001,569.0732114580001,569.0732114580001,569.0732114580001,569.0732114580001,569.0732114580001,569.0732114580001,568.9679412083332,569.0732114580001,569.0732114580001,569.0732114580001,568.9679412083332,569.0732114580001,569.0732114580001,569.0732114580001,569.0732114580001,569.0732114580001,569.0732114580001,569.0732114580001,569.0732114580001,569.0732114580001,569.0732114580001,569.0732114580001,569.0732114580001,569.0732114580001,569.0732114580001,569.0346078749998,569.0732114580001,569.0732114580001,569.0732114580001,569.0346078749998,569.0732114580001,569.0732114580001,569.0732114580001,569.0732114580001,569.0732114580001,574.2838542079999,574.2838542079999,585.2317536249998,None,0,,reldom2_s011,001,2025-02-05_16h23.58.929,Where-B-Scan_AC,2022.2.5,None,
