Trial,Order,Block,Type,Stimuli_File1,Stimuli_File2,Stimuli_File3,Stimuli_File4,Cue_File1,Cue_File2,Response_File_Yes,Response_File_No,Match,Cue_Dimension,Pair1_Dimension,Pair2_Dimension,Key,Cue1_Duration,Cue1_Onset,Cue2_Duration,Cue2_Onset,ResponseYes_Duration,ResponseYes_Onset,ResponseNo_Duration,ResponseNo_Onset,ITI_Within,ITI_Between,Image1_Duration,Image1_Onset,Image2_Duration,Image2_Onset,Image3_Duration,Image3_Onset,Image4_Duration,Image4_Onset,Sound1_Duration,Sound1_Onset,Sound2_Duration,Sound2_Onset,Sound3_Duration,Sound3_Onset,Sound4_Duration,Sound4_Onset,Fixation_Duration,trials_2.thisRepN,trials_2.thisTrialN,trials_2.thisN,trials_2.thisIndex,trials.thisRepN,trials.thisTrialN,trials.thisN,trials.thisIndex,text_start.started,key_resp_start.started,key_resp_start.keys,key_resp_start.rt,text2.started,key_resp_2.started,key_resp_2.keys,key_resp_2.rt,cue_file1.started,cue_file1.stopped,image_1.started,image_1.stopped,image_2.started,image_2.stopped,sound_icon1.started,sound_icon1.stopped,sound_1.started,sound_1.stopped,sound_icon2.started,sound_icon2.stopped,sound_2.started,sound_2.stopped,image_blank_1.started,image_blank_1.stopped,key_press.started,key_press.stopped,fixation_text.started,cue_file2.started,cue_file2.stopped,image_3.started,image_3.stopped,image_4.started,image_4.stopped,sound_icon3.started,sound_icon3.stopped,sound_3.started,sound_3.stopped,sound_icon4.started,sound_icon4.stopped,sound_4.started,sound_4.stopped,response_yes.started,response_yes.stopped,response_no.started,response_no.stopped,iti_blank.started,iti_blank.stopped,fixation_text.stopped,key_press.keys,key_press.corr,key_press.rt,participant,session,date,expName,psychopyVersion,frameRate,
,,,,,,,,,,,,,,,,,,,,,,,,,,,,,,,,,,,,,,,,,,,,,,,,,,,,8.037302917000034,8.037302917000034,2,0.9432469170001241,,,,,,,,,,,,,,,,,,,,,,,,,,,,,,,,,,,,,,,,,,,,,,,,reldom2_s011,001,2025-02-05_16h12.41.414,What-B-Scan_AC,2022.2.5,None,
,,,,,,,,,,,,,,,,,,,,,,,,,,,,,,,,,,,,,,,,,,,,0,0,0,0,,,,,,,,,9.010915166999894,9.010915166999894,5,18.07032104100017,,,,,,,,,,,,,,,,,,,,,,,,,,,,,,,,,,,,,,,,,,,,reldom2_s011,001,2025-02-05_16h12.41.414,What-B-Scan_AC,2022.2.5,None,
,,,,,,,,,,,,,,,,,,,,,,,,,,,,,,,,,,,,,,,,,,,,1,0,1,0,,,,,,,,,27.09391162499969,27.09391162499969,5,1.9870240830000512,,,,,,,,,,,,,,,,,,,,,,,,,,,,,,,,,,,,,,,,,,,,reldom2_s011,001,2025-02-05_16h12.41.414,What-B-Scan_AC,2022.2.5,None,
,,,,,,,,,,,,,,,,,,,,,,,,,,,,,,,,,,,,,,,,,,,,2,0,2,0,,,,,,,,,29.100887749999856,29.100887749999856,5,1.980569290999938,,,,,,,,,,,,,,,,,,,,,,,,,,,,,,,,,,,,,,,,,,,,reldom2_s011,001,2025-02-05_16h12.41.414,What-B-Scan_AC,2022.2.5,None,
,,,,,,,,,,,,,,,,,,,,,,,,,,,,,,,,,,,,,,,,,,,,3,0,3,0,,,,,,,,,31.096420166999906,31.096420166999906,5,1.9850279160000355,,,,,,,,,,,,,,,,,,,,,,,,,,,,,,,,,,,,,,,,,,,,reldom2_s011,001,2025-02-05_16h12.41.414,What-B-Scan_AC,2022.2.5,None,
0,0.0,None,fixation,stimulus/viswhat_stim/blank_white.png,stimulus/viswhat_stim/blank_white.png,stimulus/audwhat_stim/blank_white.png,stimulus/audwhat_stim/blank_white.png,stimulus/viswhat_stim/blank_white.png,stimulus/viswhat_stim/blank_white.png,stimulus/viswhat_stim/blank_white.png,stimulus/viswhat_stim/blank_white.png,0.0,0.0,0.0,0.0,0,0.0,0,0.0,0,0.0,0,0.0,0,0.0,0.0,0,0.0,0,0.0,0,0.0,0,0.0,0,0.0,0,0.0,0,0.0,0,0.0,16,,,,,0,0,0,0,,,,,,,,,33.2750692919999,33.2750692919999,33.2750692919999,33.2750692919999,33.2750692919999,33.2750692919999,33.2750692919999,33.2750692919999,33.18393433299989,33.2750692919999,33.2750692919999,33.2750692919999,33.18393433299989,33.2750692919999,33.2750692919999,33.2750692919999,33.2750692919999,33.2750692919999,33.2750692919999,33.2750692919999,33.2750692919999,33.2750692919999,33.2750692919999,33.2750692919999,33.2750692919999,33.2750692919999,33.2750692919999,33.23393433299989,33.2750692919999,33.2750692919999,33.2750692919999,33.23393433299989,33.2750692919999,33.2750692919999,33.2750692919999,33.2750692919999,33.2750692919999,38.459852749999754,38.459852749999754,49.729540457999974,None,0,,reldom2_s011,001,2025-02-05_16h12.41.414,What-B-Scan_AC,2022.2.5,None,
1,First_Order,1.0,viswhat,stimulus/viswhat_stim/blank_white.png,stimulus/viswhat_stim/blank_white.png,stimulus/viswhat_stim/water_vehicle-pirateship.png,stimulus/viswhat_stim/water_animal-lobster.png,stimulus/viswhat_stim/blank_white.png,stimulus/viswhat_stim/location_box.png,stimulus/viswhat_stim/location_yes.png,stimulus/viswhat_stim/location_no.png,None,Location,None,Location,1,0.0,0,5.125,0,5.125,0,5.125,0,0.0,0.625,0,0.0,0,0.0,1,0.5,1,2.125,0,0.0,0,0.0,0,0.0,0,0.0,0,,,,,0,1,1,1,,,,,,,,,49.729540457999974,49.729540457999974,49.729540457999974,49.729540457999974,49.729540457999974,49.729540457999974,49.729540457999974,49.729540457999974,49.43363795799987,49.729540457999974,49.729540457999974,49.729540457999974,49.43363795799987,49.729540457999974,49.729540457999974,49.729540457999974,51.809796291999646,,49.729540457999974,49.729540457999974,55.08535283299989,50.173819791999904,51.3612278329997,51.809796291999646,53.00062224999965,49.729540457999974,49.729540457999974,49.58363795799987,49.729540457999974,49.729540457999974,49.729540457999974,49.58363795799987,49.729540457999974,49.729540457999974,55.08535283299989,49.729540457999974,55.08535283299989,54.94194616699997,,49.729540457999974,1,1,1.3337820410001768,reldom2_s011,001,2025-02-05_16h12.41.414,What-B-Scan_AC,2022.2.5,None,
2,First_Order,1.0,viswhat,stimulus/viswhat_stim/blank_white.png,stimulus/viswhat_stim/blank_white.png,stimulus/viswhat_stim/land_vehicle-firetruck.png,stimulus/viswhat_stim/water_vehicle-jetski.png,stimulus/viswhat_stim/blank_white.png,stimulus/viswhat_stim/location_box.png,stimulus/viswhat_stim/location_yes.png,stimulus/viswhat_stim/location_no.png,None,Location,None,Type,2,0.0,0,5.125,0,5.125,0,5.125,0,0.0,0.625,0,0.0,0,0.0,1,0.5,1,2.125,0,0.0,0,0.0,0,0.0,0,0.0,0,,,,,0,2,2,2,,,,,,,,,55.748554541999965,55.748554541999965,55.748554541999965,55.748554541999965,55.748554541999965,55.748554541999965,55.748554541999965,55.748554541999965,55.70458150033331,55.748554541999965,55.748554541999965,55.748554541999965,55.70458150033331,55.748554541999965,55.748554541999965,55.748554541999965,57.84110541699965,61.88697708299969,55.748554541999965,55.748554541999965,60.878052249999655,56.22392987499961,57.241893957999764,57.84110541699965,58.873314791999746,55.748554541999965,55.748554541999965,55.73791483366664,55.748554541999965,55.748554541999965,55.748554541999965,55.73791483366664,55.748554541999965,55.748554541999965,60.878052249999655,55.748554541999965,60.878052249999655,60.97429824999972,61.61098016699998,55.748554541999965,2,1,1.5377819580003234,reldom2_s011,001,2025-02-05_16h12.41.414,What-B-Scan_AC,2022.2.5,None,
3,First_Order,1.0,viswhat,stimulus/viswhat_stim/blank_white.png,stimulus/viswhat_stim/blank_white.png,stimulus/viswhat_stim/land_animal-moose.png,stimulus/viswhat_stim/water_animal-jellyfish.png,stimulus/viswhat_stim/blank_white.png,stimulus/viswhat_stim/type_box.png,stimulus/viswhat_stim/type_yes.png,stimulus/viswhat_stim/type_no.png,None,Type,None,Type,1,0.0,0,5.125,0,5.125,0,5.125,0,0.0,0.625,0,0.0,0,0.0,1,0.5,1,2.125,0,0.0,0,0.0,0,0.0,0,0.0,0,,,,,0,3,3,3,,,,,,,,,61.88697708299969,61.88697708299969,61.88697708299969,61.88697708299969,61.88697708299969,61.88697708299969,61.88697708299969,61.88697708299969,61.787623625000016,61.88697708299969,61.88697708299969,61.88697708299969,61.787623625000016,61.88697708299969,61.88697708299969,61.88697708299969,63.95464583299963,67.99284695799997,61.88697708299969,61.88697708299969,67.0505095829999,62.37217083299993,63.469580499999665,63.95464583299963,65.0476948749997,61.88697708299969,61.88697708299969,61.83762362500001,61.88697708299969,61.88697708299969,61.88697708299969,61.83762362500001,61.88697708299969,61.88697708299969,67.0505095829999,61.88697708299969,67.0505095829999,67.106883208,67.99284695799997,61.88697708299969,1,1,1.2954407920001358,reldom2_s011,001,2025-02-05_16h12.41.414,What-B-Scan_AC,2022.2.5,None,
4,First_Order,1.0,viswhat,stimulus/viswhat_stim/blank_white.png,stimulus/viswhat_stim/blank_white.png,stimulus/viswhat_stim/land_animal-tiger.png,stimulus/viswhat_stim/land_vehicle-rv.png,stimulus/viswhat_stim/blank_white.png,stimulus/viswhat_stim/type_box.png,stimulus/viswhat_stim/type_yes.png,stimulus/viswhat_stim/type_no.png,None,Type,None,Location,2,0.0,0,5.125,0,5.125,0,5.125,0,0.0,0.625,0,0.0,0,0.0,1,0.5,1,2.125,0,0.0,0,0.0,0,0.0,0,0.0,0,,,,,0,4,4,4,,,,,,,,,67.99284695799997,67.99284695799997,67.99284695799997,67.99284695799997,67.99284695799997,67.99284695799997,67.99284695799997,67.99284695799997,67.93486874966645,67.99284695799997,67.99284695799997,67.99284695799997,67.93486874966645,67.99284695799997,67.99284695799997,67.99284695799997,70.07134079199977,,67.99284695799997,67.99284695799997,73.13511941699971,68.45075066699974,69.47367958299992,70.07134079199977,71.09544708299973,67.99284695799997,67.99284695799997,67.96820208299978,67.99284695799997,67.99284695799997,67.99284695799997,67.96820208299978,67.99284695799997,67.99284695799997,73.13511941699971,67.99284695799997,73.13511941699971,73.19441754199988,73.84567662499967,67.99284695799997,2,1,1.149655832999997,reldom2_s011,001,2025-02-05_16h12.41.414,What-B-Scan_AC,2022.2.5,None,
0,0.0,None,fixation,stimulus/viswhat_stim/blank_white.png,stimulus/viswhat_stim/blank_white.png,stimulus/audwhat_stim/blank_white.png,stimulus/audwhat_stim/blank_white.png,stimulus/viswhat_stim/blank_white.png,stimulus/viswhat_stim/blank_white.png,stimulus/viswhat_stim/blank_white.png,stimulus/viswhat_stim/blank_white.png,0.0,0.0,0.0,0.0,0,0.0,0,0.0,0,0.0,0,0.0,0,0.0,0.0,0,0.0,0,0.0,0,0.0,0,0.0,0,0.0,0,0.0,0,0.0,0,0.0,9,,,,,0,5,5,5,,,,,,,,,74.11926245799987,74.11926245799987,74.11926245799987,74.11926245799987,74.11926245799987,74.11926245799987,74.11926245799987,74.11926245799987,74.02111733366642,74.11926245799987,74.11926245799987,74.11926245799987,74.02111733366642,74.11926245799987,74.11926245799987,74.11926245799987,74.11926245799987,74.11926245799987,74.11926245799987,74.11926245799987,74.11926245799987,74.11926245799987,74.11926245799987,74.11926245799987,74.11926245799987,74.11926245799987,74.11926245799987,74.07111733366644,74.11926245799987,74.11926245799987,74.11926245799987,74.07111733366644,74.11926245799987,74.11926245799987,74.11926245799987,74.11926245799987,74.11926245799987,79.33231004199979,79.33231004199979,83.3103539169997,None,0,,reldom2_s011,001,2025-02-05_16h12.41.414,What-B-Scan_AC,2022.2.5,None,
5,Second_Order,1.0,viswhat,stimulus/viswhat_stim/land_animal-bunny.png,stimulus/viswhat_stim/land_vehicle-motorcycle.png,stimulus/viswhat_stim/water_animal-octopus.png,stimulus/viswhat_stim/land_animal-fox.png,stimulus/viswhat_stim/match_blank.png,stimulus/viswhat_stim/match_box.png,stimulus/viswhat_stim/match_yes.png,stimulus/viswhat_stim/match_no.png,2.0,Match,Location,Type,2,5.125,0,5.125,0,5.125,0,5.125,0,0.75,0.75,1,0.5,1,2.125,1,0.5,1,2.125,0,0.0,0,0.0,0,0.0,0,0.0,0,,,,,0,6,6,6,,,,,,,,,83.3103539169997,88.43350608299988,83.75468166699966,84.75333304199967,85.37784112500003,86.37677949999988,83.3103539169997,83.3103539169997,83.31936829166641,83.3103539169997,83.3103539169997,83.3103539169997,83.31936829166641,83.3103539169997,88.43350608299988,89.23359200000004,91.32376241699967,,89.23359200000004,89.23359200000004,94.36808370799963,89.70783737500005,90.75263279199999,91.32376241699967,92.34034966699983,89.23359200000004,89.23359200000004,89.2167277499996,89.23359200000004,89.23359200000004,89.23359200000004,89.2167277499996,89.23359200000004,89.23359200000004,94.36808370799963,89.23359200000004,94.36808370799963,94.44580866699971,,89.23359200000004,2,1,1.7042180830003417,reldom2_s011,001,2025-02-05_16h12.41.414,What-B-Scan_AC,2022.2.5,None,
6,Second_Order,1.0,viswhat,stimulus/viswhat_stim/land_vehicle-tank.png,stimulus/viswhat_stim/land_animal-wolf.png,stimulus/viswhat_stim/water_vehicle-motorboatraft.png,stimulus/viswhat_stim/water_animal-squid.png,stimulus/viswhat_stim/match_blank.png,stimulus/viswhat_stim/match_box.png,stimulus/viswhat_stim/match_yes.png,stimulus/viswhat_stim/match_no.png,1.0,Match,Location,Location,1,5.125,0,5.125,0,5.125,0,5.125,0,0.625,0.625,1,0.5,1,2.125,1,0.5,1,2.125,0,0.0,0,0.0,0,0.0,0,0.0,0,,,,,0,7,7,7,,,,,,,,,95.2159997079998,100.33896829199966,95.71182924999994,96.70039270799998,97.31990091699981,98.31745224999986,95.2159997079998,95.2159997079998,95.21609062466638,95.2159997079998,95.2159997079998,95.2159997079998,95.21609062466638,95.2159997079998,100.33896829199966,101.01976224999999,103.12265366699967,,101.01976224999999,101.01976224999999,106.16195612499996,101.47139016699975,102.49232595800004,103.12265366699967,104.14808266699993,101.01976224999999,101.01976224999999,100.99044587533311,101.01976224999999,101.01976224999999,101.01976224999999,100.99044587533311,101.01976224999999,101.01976224999999,106.16195612499996,101.01976224999999,106.16195612499996,106.23543033299984,106.88934062499993,101.01976224999999,1,1,1.4563679580001008,reldom2_s011,001,2025-02-05_16h12.41.414,What-B-Scan_AC,2022.2.5,None,
0,0.0,None,fixation,stimulus/viswhat_stim/blank_white.png,stimulus/viswhat_stim/blank_white.png,stimulus/audwhat_stim/blank_white.png,stimulus/audwhat_stim/blank_white.png,stimulus/viswhat_stim/blank_white.png,stimulus/viswhat_stim/blank_white.png,stimulus/viswhat_stim/blank_white.png,stimulus/viswhat_stim/blank_white.png,0.0,0.0,0.0,0.0,0,0.0,0,0.0,0,0.0,0,0.0,0,0.0,0.0,0,0.0,0,0.0,0,0.0,0,0.0,0,0.0,0,0.0,0,0.0,0,0.0,9,,,,,0,8,8,8,,,,,,,,,107.14513474999967,107.14513474999967,107.14513474999967,107.14513474999967,107.14513474999967,107.14513474999967,107.14513474999967,107.14513474999967,107.03758841699991,107.14513474999967,107.14513474999967,107.14513474999967,107.03758841699991,107.14513474999967,107.14513474999967,107.14513474999967,107.14513474999967,107.14513474999967,107.14513474999967,107.14513474999967,107.14513474999967,107.14513474999967,107.14513474999967,107.14513474999967,107.14513474999967,107.14513474999967,107.14513474999967,107.10425508366659,107.14513474999967,107.14513474999967,107.14513474999967,107.10425508366659,107.14513474999967,107.14513474999967,107.14513474999967,107.14513474999967,107.14513474999967,112.32972370799962,112.32972370799962,116.59178837499985,None,0,,reldom2_s011,001,2025-02-05_16h12.41.414,What-B-Scan_AC,2022.2.5,None,
7,First_Order,2.0,viswhat,stimulus/viswhat_stim/blank_white.png,stimulus/viswhat_stim/blank_white.png,stimulus/viswhat_stim/water_animal-lobster.png,stimulus/viswhat_stim/water_vehicle-canoe.png,stimulus/viswhat_stim/blank_white.png,stimulus/viswhat_stim/location_box.png,stimulus/viswhat_stim/location_yes.png,stimulus/viswhat_stim/location_no.png,None,Location,None,Location,1,0.0,0,5.125,0,5.125,0,5.125,0,0.0,0.625,0,0.0,0,0.0,1,0.5,1,2.125,0,0.0,0,0.0,0,0.0,0,0.0,0,,,,,0,9,9,9,,,,,,,,,116.59178837499985,116.59178837499985,116.59178837499985,116.59178837499985,116.59178837499985,116.59178837499985,116.59178837499985,116.59178837499985,116.30332383366628,116.59178837499985,116.59178837499985,116.59178837499985,116.30332383366628,116.59178837499985,116.59178837499985,116.59178837499985,118.56957991699983,,116.59178837499985,116.59178837499985,121.91344116699975,117.04735474999961,118.26518295799997,118.56957991699983,119.78745445799996,116.59178837499985,116.59178837499985,116.45332383366627,116.59178837499985,116.59178837499985,116.59178837499985,116.45332383366627,116.59178837499985,116.59178837499985,121.91344116699975,116.59178837499985,121.91344116699975,121.76718808299984,,116.59178837499985,1,1,1.5304891239998142,reldom2_s011,001,2025-02-05_16h12.41.414,What-B-Scan_AC,2022.2.5,None,
8,First_Order,2.0,viswhat,stimulus/viswhat_stim/blank_white.png,stimulus/viswhat_stim/blank_white.png,stimulus/viswhat_stim/water_animal-jellyfish.png,stimulus/viswhat_stim/land_animal-bunny.png,stimulus/viswhat_stim/blank_white.png,stimulus/viswhat_stim/type_box.png,stimulus/viswhat_stim/type_yes.png,stimulus/viswhat_stim/type_no.png,None,Type,None,Type,1,0.0,0,5.125,0,5.125,0,5.125,0,0.0,0.625,0,0.0,0,0.0,1,0.5,1,2.125,0,0.0,0,0.0,0,0.0,0,0.0,0,,,,,0,10,10,10,,,,,,,,,122.64632179199998,122.64632179199998,122.64632179199998,122.64632179199998,122.64632179199998,122.64632179199998,122.64632179199998,122.64632179199998,122.55575137499963,122.64632179199998,122.64632179199998,122.64632179199998,122.55575137499963,122.64632179199998,122.64632179199998,122.64632179199998,124.70975104199988,,122.64632179199998,122.64632179199998,127.84050029199989,123.12281945799987,124.18200924999974,124.70975104199988,125.77677354199977,122.64632179199998,122.64632179199998,122.60575137499964,122.64632179199998,122.64632179199998,122.64632179199998,122.60575137499964,122.64632179199998,122.64632179199998,127.84050029199989,122.64632179199998,127.84050029199989,127.84050029199989,128.5022192919996,122.64632179199998,1,1,0.7822629160000361,reldom2_s011,001,2025-02-05_16h12.41.414,What-B-Scan_AC,2022.2.5,None,
9,First_Order,2.0,viswhat,stimulus/viswhat_stim/blank_white.png,stimulus/viswhat_stim/blank_white.png,stimulus/viswhat_stim/land_animal-cat.png,stimulus/viswhat_stim/water_animal-whale (1).png,stimulus/viswhat_stim/blank_white.png,stimulus/viswhat_stim/location_box.png,stimulus/viswhat_stim/location_yes.png,stimulus/viswhat_stim/location_no.png,None,Location,None,Type,2,0.0,0,5.125,0,5.125,0,5.125,0,0.0,0.625,0,0.0,0,0.0,1,0.5,1,2.125,0,0.0,0,0.0,0,0.0,0,0.0,0,,,,,0,11,11,11,,,,,,,,,128.7051221669999,128.7051221669999,128.7051221669999,128.7051221669999,128.7051221669999,128.7051221669999,128.7051221669999,128.7051221669999,128.65221929199961,128.7051221669999,128.7051221669999,128.7051221669999,128.65221929199961,128.7051221669999,128.7051221669999,128.7051221669999,130.79779045799978,,128.7051221669999,128.7051221669999,133.84398029199974,129.16391537499976,130.2095479579998,130.79779045799978,131.81784145799975,128.7051221669999,128.7051221669999,128.68555262533295,128.7051221669999,128.7051221669999,128.7051221669999,128.68555262533295,128.7051221669999,128.7051221669999,133.84398029199974,128.7051221669999,133.84398029199974,133.92486654200002,134.56874070799995,128.7051221669999,2,1,0.8619853330001206,reldom2_s011,001,2025-02-05_16h12.41.414,What-B-Scan_AC,2022.2.5,None,
10,First_Order,2.0,viswhat,stimulus/viswhat_stim/blank_white.png,stimulus/viswhat_stim/blank_white.png,stimulus/viswhat_stim/water_animal-shark.png,stimulus/viswhat_stim/water_vehicle-yacht.png,stimulus/viswhat_stim/blank_white.png,stimulus/viswhat_stim/type_box.png,stimulus/viswhat_stim/type_yes.png,stimulus/viswhat_stim/type_no.png,None,Type,None,Location,2,0.0,0,5.125,0,5.125,0,5.125,0,0.0,0.625,0,0.0,0,0.0,1,0.5,1,2.125,0,0.0,0,0.0,0,0.0,0,0.0,0,,,,,0,12,12,12,,,,,,,,,134.80799337500002,134.80799337500002,134.80799337500002,134.80799337500002,134.80799337500002,134.80799337500002,134.80799337500002,134.80799337500002,134.7389624166666,134.80799337500002,134.80799337500002,134.80799337500002,134.7389624166666,134.80799337500002,134.80799337500002,134.80799337500002,136.8953551669997,,134.80799337500002,134.80799337500002,139.98700404199963,135.28736095799968,136.330060667,136.8953551669997,137.94337745799976,134.80799337500002,134.80799337500002,134.77229574999993,134.80799337500002,134.80799337500002,134.80799337500002,134.77229574999993,134.80799337500002,134.80799337500002,139.98700404199963,134.80799337500002,139.98700404199963,140.02483245799976,140.70302629199978,134.80799337500002,2,1,0.87813474900031,reldom2_s011,001,2025-02-05_16h12.41.414,What-B-Scan_AC,2022.2.5,None,
0,0.0,None,fixation,stimulus/viswhat_stim/blank_white.png,stimulus/viswhat_stim/blank_white.png,stimulus/audwhat_stim/blank_white.png,stimulus/audwhat_stim/blank_white.png,stimulus/viswhat_stim/blank_white.png,stimulus/viswhat_stim/blank_white.png,stimulus/viswhat_stim/blank_white.png,stimulus/viswhat_stim/blank_white.png,0.0,0.0,0.0,0.0,0,0.0,0,0.0,0,0.0,0,0.0,0,0.0,0.0,0,0.0,0,0.0,0,0.0,0,0.0,0,0.0,0,0.0,0,0.0,0,0.0,10,,,,,0,13,13,13,,,,,,,,,140.94252033299972,140.94252033299972,140.94252033299972,140.94252033299972,140.94252033299972,140.94252033299972,140.94252033299972,140.94252033299972,140.83635962533313,140.94252033299972,140.94252033299972,140.94252033299972,140.83635962533313,140.94252033299972,140.94252033299972,140.94252033299972,140.94252033299972,140.94252033299972,140.94252033299972,140.94252033299972,140.94252033299972,140.94252033299972,140.94252033299972,140.94252033299972,140.94252033299972,140.94252033299972,140.94252033299972,140.8863596253331,140.94252033299972,140.94252033299972,140.94252033299972,140.8863596253331,140.94252033299972,140.94252033299972,140.94252033299972,140.94252033299972,140.94252033299972,146.1335561249998,146.1335561249998,151.0776864579998,None,0,,reldom2_s011,001,2025-02-05_16h12.41.414,What-B-Scan_AC,2022.2.5,None,
11,Second_Order,2.0,viswhat,stimulus/viswhat_stim/land_animal-ostrich.png,stimulus/viswhat_stim/water_animal-stingray.png,stimulus/viswhat_stim/water_vehicle-cruiseship.png,stimulus/viswhat_stim/water_animal-seaturtle.png,stimulus/viswhat_stim/match_blank.png,stimulus/viswhat_stim/match_box.png,stimulus/viswhat_stim/match_yes.png,stimulus/viswhat_stim/match_no.png,2.0,Match,Type,Location,2,5.125,0,5.125,0,5.125,0,5.125,0,0.75,0.75,1,0.5,1,2.125,1,0.5,1,2.125,0,0.0,0,0.0,0,0.0,0,0.0,0,,,,,0,14,14,14,,,,,,,,,151.0776864579998,156.201068417,151.55714179200004,152.54605308300006,153.18263149999984,154.17975770799967,151.0776864579998,151.0776864579998,151.08750495833297,151.0776864579998,151.0776864579998,151.0776864579998,151.08750495833297,151.0776864579998,156.201068417,157.16227712499995,159.21603154199966,,157.16227712499995,157.16227712499995,162.39815837499964,157.57318499999974,158.70039562500006,159.21603154199966,160.346236417,157.16227712499995,157.16227712499995,157.0695124583332,157.16227712499995,157.16227712499995,157.16227712499995,157.0695124583332,157.16227712499995,157.16227712499995,162.39815837499964,157.16227712499995,162.39815837499964,162.3014227919998,,157.16227712499995,2,1,1.0936034579999614,reldom2_s011,001,2025-02-05_16h12.41.414,What-B-Scan_AC,2022.2.5,None,
12,Second_Order,2.0,viswhat,stimulus/viswhat_stim/land_animal-ostrich.png,stimulus/viswhat_stim/land_vehicle-oldcar.png,stimulus/viswhat_stim/water_vehicle-ship.png,stimulus/viswhat_stim/land_vehicle-vespa.png,stimulus/viswhat_stim/match_blank.png,stimulus/viswhat_stim/match_box.png,stimulus/viswhat_stim/match_yes.png,stimulus/viswhat_stim/match_no.png,2.0,Match,Location,Type,2,5.125,0,5.125,0,5.125,0,5.125,0,0.625,0.625,1,0.5,1,2.125,1,0.5,1,2.125,0,0.0,0,0.0,0,0.0,0,0.0,0,,,,,0,15,15,15,,,,,,,,,163.1117052499999,168.233778583,163.5716615829997,164.57034137499977,165.19331587499983,166.19097937499964,163.1117052499999,163.1117052499999,163.11610608333308,163.1117052499999,163.1117052499999,163.1117052499999,163.11610608333308,163.1117052499999,168.233778583,168.99702037499992,171.0755241249999,175.1216186669999,168.99702037499992,168.99702037499992,174.19497324999975,169.41255654199995,170.521648208,171.0755241249999,172.18698308299963,168.99702037499992,168.99702037499992,168.9302487083331,168.99702037499992,168.99702037499992,168.99702037499992,168.9302487083331,168.99702037499992,168.99702037499992,174.19497324999975,168.99702037499992,174.19497324999975,174.19497324999975,175.1216186669999,168.99702037499992,2,1,1.5042452080001567,reldom2_s011,001,2025-02-05_16h12.41.414,What-B-Scan_AC,2022.2.5,None,
0,0.0,None,fixation,stimulus/viswhat_stim/blank_white.png,stimulus/viswhat_stim/blank_white.png,stimulus/audwhat_stim/blank_white.png,stimulus/audwhat_stim/blank_white.png,stimulus/viswhat_stim/blank_white.png,stimulus/viswhat_stim/blank_white.png,stimulus/viswhat_stim/blank_white.png,stimulus/viswhat_stim/blank_white.png,0.0,0.0,0.0,0.0,0,0.0,0,0.0,0,0.0,0,0.0,0,0.0,0.0,0,0.0,0,0.0,0,0.0,0,0.0,0,0.0,0,0.0,0,0.0,0,0.0,9,,,,,0,16,16,16,,,,,,,,,175.1216186669999,175.1216186669999,175.1216186669999,175.1216186669999,175.1216186669999,175.1216186669999,175.1216186669999,175.1216186669999,175.01581766633302,175.1216186669999,175.1216186669999,175.1216186669999,175.01581766633302,175.1216186669999,175.1216186669999,175.1216186669999,175.1216186669999,175.1216186669999,175.1216186669999,175.1216186669999,175.1216186669999,175.1216186669999,175.1216186669999,175.1216186669999,175.1216186669999,175.1216186669999,175.1216186669999,175.06581766633303,175.1216186669999,175.1216186669999,175.1216186669999,175.06581766633303,175.1216186669999,175.1216186669999,175.1216186669999,175.1216186669999,175.1216186669999,180.33025733299974,180.33025733299974,184.39762137499974,None,0,,reldom2_s011,001,2025-02-05_16h12.41.414,What-B-Scan_AC,2022.2.5,None,
13,First_Order,3.0,audwhat,stimulus/audwhat_stim/dummy.wav,stimulus/audwhat_stim/dummy.wav,stimulus/audwhat_stim/percussion mallet_low-pitch_Ftri_loud.wav,stimulus/audwhat_stim/percussion xylophone_high-pitch_Dtri_loud.wav,stimulus/audwhat_stim/blank_white.png,stimulus/audwhat_stim/pitch_box.png,stimulus/audwhat_stim/pitch_yes.png,stimulus/audwhat_stim/pitch_no.png,None,Pitch,None,Category,2,0.0,0,5.125,0,5.125,0,5.125,0,0.0,0.625,0,0.0,0,0.0,0,0.0,0,0.0,0,0.0,0,0.0,1,0.5,1,2.125,0,,,,,0,17,17,17,,,,,,,,,184.39762137499974,184.39762137499974,184.39762137499974,184.39762137499974,184.39762137499974,184.39762137499974,184.39762137499974,184.39762137499974,184.3192691246665,184.39762137499974,184.39762137499974,184.39762137499974,184.3192691246665,184.39762137499974,184.39762137499974,184.39762137499974,186.51038204199995,190.52574820799964,184.39762137499974,184.39762137499974,189.56339158299988,184.39762137499974,184.39762137499974,184.39762137499974,184.39762137499974,184.86795379199975,185.9018485419997,184.83785541666637,,186.51038204199995,187.55040399999962,186.4797069586664,187.55040399999962,184.39762137499974,189.56339158299988,184.39762137499974,189.56339158299988,189.6046047499999,190.26651575000005,184.39762137499974,1,0,1.020724791000248,reldom2_s011,001,2025-02-05_16h12.41.414,What-B-Scan_AC,2022.2.5,None,
14,First_Order,3.0,audwhat,stimulus/audwhat_stim/dummy.wav,stimulus/audwhat_stim/dummy.wav,stimulus/audwhat_stim/string cello_low-pitch_D_loud.wav,stimulus/audwhat_stim/percussion mallet_low-pitch_D_loud.wav,stimulus/audwhat_stim/blank_white.png,stimulus/audwhat_stim/pitch_box.png,stimulus/audwhat_stim/pitch_yes.png,stimulus/audwhat_stim/pitch_no.png,None,Pitch,None,Pitch,1,0.0,0,5.125,0,5.125,0,5.125,0,0.0,0.625,0,0.0,0,0.0,0,0.0,0,0.0,0,0.0,0,0.0,1,0.5,1,2.125,0,,,,,0,18,18,18,,,,,,,,,190.52574820799964,190.52574820799964,190.52574820799964,190.52574820799964,190.52574820799964,190.52574820799964,190.52574820799964,190.52574820799964,190.4413180833332,190.52574820799964,190.52574820799964,190.52574820799964,190.4413180833332,190.52574820799964,190.52574820799964,190.52574820799964,192.594811208,196.65918949999968,190.52574820799964,190.52574820799964,195.69709137499967,190.52574820799964,190.52574820799964,190.52574820799964,190.52574820799964,190.99615429200003,192.03029829199977,190.96643879166666,,192.594811208,193.63173404200006,192.5639151666667,,190.52574820799964,195.69709137499967,190.52574820799964,195.69709137499967,195.73846995799977,196.3985349579998,190.52574820799964,1,1,1.128711874000146,reldom2_s011,001,2025-02-05_16h12.41.414,What-B-Scan_AC,2022.2.5,None,
15,First_Order,3.0,audwhat,stimulus/audwhat_stim/dummy.wav,stimulus/audwhat_stim/dummy.wav,stimulus/audwhat_stim/string cello_high-pitch_D_loud.wav,stimulus/audwhat_stim/string cello_low-pitch_Ftri_loud.wav,stimulus/audwhat_stim/blank_white.png,stimulus/audwhat_stim/category_box.png,stimulus/audwhat_stim/category_yes.png,stimulus/audwhat_stim/category_no.png,None,Category,None,Category,1,0.0,0,5.125,0,5.125,0,5.125,0,0.0,0.625,0,0.0,0,0.0,0,0.0,0,0.0,0,0.0,0,0.0,1,0.5,1,2.125,0,,,,,0,19,19,19,,,,,,,,,196.65918949999968,196.65918949999968,196.65918949999968,196.65918949999968,196.65918949999968,196.65918949999968,196.65918949999968,196.65918949999968,196.5736427083331,196.65918949999968,196.65918949999968,196.65918949999968,196.5736427083331,196.65918949999968,196.65918949999968,196.65918949999968,198.74151041699997,202.77745754199987,196.65918949999968,196.65918949999968,201.81424654199964,196.65918949999968,196.65918949999968,196.65918949999968,196.65918949999968,197.13671562499985,198.1750697499997,197.10572629166634,,198.74151041699997,199.785594125,198.7108650836665,,196.65918949999968,201.81424654199964,196.65918949999968,201.81424654199964,201.85539479199997,202.51850083299996,196.65918949999968,1,1,1.2170617910001056,reldom2_s011,001,2025-02-05_16h12.41.414,What-B-Scan_AC,2022.2.5,None,
16,First_Order,3.0,audwhat,stimulus/audwhat_stim/dummy.wav,stimulus/audwhat_stim/dummy.wav,stimulus/audwhat_stim/string viola_low-pitch_F_loud.wav,stimulus/audwhat_stim/percussion mallet_low-pitch_F_loud.wav,stimulus/audwhat_stim/blank_white.png,stimulus/audwhat_stim/category_box.png,stimulus/audwhat_stim/category_yes.png,stimulus/audwhat_stim/category_no.png,None,Category,None,Pitch,2,0.0,0,5.125,0,5.125,0,5.125,0,0.0,0.625,0,0.0,0,0.0,0,0.0,0,0.0,0,0.0,0,0.0,1,0.5,1,2.125,0,,,,,0,20,20,20,,,,,,,,,202.77745754199987,202.77745754199987,202.77745754199987,202.77745754199987,202.77745754199987,202.77745754199987,202.77745754199987,202.77745754199987,202.6937876663334,202.77745754199987,202.77745754199987,202.77745754199987,202.6937876663334,202.77745754199987,202.77745754199987,202.77745754199987,204.86096745799978,208.91962424999974,202.77745754199987,202.77745754199987,207.93501862499988,202.77745754199987,202.77745754199987,202.77745754199987,202.77745754199987,203.25255820799975,204.2949934999997,203.22155624966652,,204.86096745799978,205.90373758299984,204.83023858366667,,202.77745754199987,207.93501862499988,202.77745754199987,207.93501862499988,207.97633820800002,208.6394990419999,202.77745754199987,2,1,1.7471735829999488,reldom2_s011,001,2025-02-05_16h12.41.414,What-B-Scan_AC,2022.2.5,None,
0,0.0,None,fixation,stimulus/viswhat_stim/blank_white.png,stimulus/viswhat_stim/blank_white.png,stimulus/audwhat_stim/blank_white.png,stimulus/audwhat_stim/blank_white.png,stimulus/viswhat_stim/blank_white.png,stimulus/viswhat_stim/blank_white.png,stimulus/viswhat_stim/blank_white.png,stimulus/viswhat_stim/blank_white.png,0.0,0.0,0.0,0.0,0,0.0,0,0.0,0,0.0,0,0.0,0,0.0,0.0,0,0.0,0,0.0,0,0.0,0,0.0,0,0.0,0,0.0,0,0.0,0,0.0,9,,,,,0,21,21,21,,,,,,,,,208.91962424999974,208.91962424999974,208.91962424999974,208.91962424999974,208.91962424999974,208.91962424999974,208.91962424999974,208.91962424999974,208.81455154133315,208.91962424999974,208.91962424999974,208.91962424999974,208.81455154133315,208.91962424999974,208.91962424999974,208.91962424999974,208.91962424999974,208.91962424999974,208.91962424999974,208.91962424999974,208.91962424999974,208.91962424999974,208.91962424999974,208.91962424999974,208.91962424999974,208.91962424999974,208.91962424999974,208.86455154133313,208.91962424999974,208.91962424999974,208.91962424999974,208.86455154133313,208.91962424999974,208.91962424999974,208.91962424999974,208.91962424999974,208.91962424999974,214.12007074999974,214.12007074999974,218.0619671669997,None,0,,reldom2_s011,001,2025-02-05_16h12.41.414,What-B-Scan_AC,2022.2.5,None,
17,Second_Order,3.0,audwhat,stimulus/audwhat_stim/percussion mallet_high-pitch_Ftri_loud.wav,stimulus/audwhat_stim/string cello_high-pitch_Ftri_loud.wav,stimulus/audwhat_stim/percussion mallet_low-pitch_D_loud.wav,stimulus/audwhat_stim/string viola_low-pitch_D_loud.wav,stimulus/viswhat_stim/match_blank.png,stimulus/viswhat_stim/match_box.png,stimulus/viswhat_stim/match_yes.png,stimulus/viswhat_stim/match_no.png,1.0,Match,Pitch,Pitch,1,5.125,0,5.125,0,5.125,0,5.125,0,0.75,0.75,0,0.0,0,0.0,0,0.0,0,0.0,1,0.5,1,2.125,1,0.5,1,2.125,0,,,,,0,22,22,22,,,,,,,,,218.0619671669997,223.17642508299969,218.0619671669997,218.0619671669997,218.0619671669997,218.0619671669997,218.51566816700006,219.51364375000003,218.5282059166664,219.5216083749997,220.13668274999964,221.13401820799982,220.14865637466644,,223.17642508299969,224.0078605829999,226.07554670799982,,224.0078605829999,224.0078605829999,229.18074279199982,224.0078605829999,224.0078605829999,224.0078605829999,224.0078605829999,224.47636691699972,225.5123774169997,224.4459342086664,,226.07554670799982,227.10894499999995,226.04490599966655,,224.0078605829999,229.18074279199982,224.0078605829999,229.18074279199982,229.22246737499972,,224.0078605829999,1,1,1.16456449899988,reldom2_s011,001,2025-02-05_16h12.41.414,What-B-Scan_AC,2022.2.5,None,
18,Second_Order,3.0,audwhat,stimulus/audwhat_stim/percussion mallet_high-pitch_Dtri_loud.wav,stimulus/audwhat_stim/string cello_high-pitch_Dtri_loud.wav,stimulus/audwhat_stim/string viola_low-pitch_Ftri_loud.wav,stimulus/audwhat_stim/percussion mallet_low-pitch_Ftri_loud.wav,stimulus/viswhat_stim/match_blank.png,stimulus/viswhat_stim/match_box.png,stimulus/viswhat_stim/match_yes.png,stimulus/viswhat_stim/match_no.png,1.0,Match,Pitch,Pitch,1,5.125,0,5.125,0,5.125,0,5.125,0,0.625,0.625,0,0.0,0,0.0,0,0.0,0,0.0,1,0.5,1,2.125,1,0.5,1,2.125,0,,,,,0,23,23,23,,,,,,,,,230.00454054199963,235.12022608300003,230.00454054199963,230.00454054199963,230.00454054199963,230.00454054199963,230.45994870799996,231.45772391699984,230.47234329166648,231.46571449999965,232.0809818749999,233.07823795800005,232.09287108366632,,235.12022608300003,235.83380929199984,237.9355529999998,241.96495041699973,235.83380929199984,235.83380929199984,241.02434641699983,235.83380929199984,235.83380929199984,235.83380929199984,235.83380929199984,236.30013862499982,237.37468858299962,236.26965374966656,,237.9355529999998,238.96568966699988,237.9053907086666,,235.83380929199984,241.02434641699983,235.83380929199984,241.02434641699983,241.02434641699983,241.68512770799998,235.83380929199984,1,1,0.9581775410001683,reldom2_s011,001,2025-02-05_16h12.41.414,What-B-Scan_AC,2022.2.5,None,
0,0.0,None,fixation,stimulus/viswhat_stim/blank_white.png,stimulus/viswhat_stim/blank_white.png,stimulus/audwhat_stim/blank_white.png,stimulus/audwhat_stim/blank_white.png,stimulus/viswhat_stim/blank_white.png,stimulus/viswhat_stim/blank_white.png,stimulus/viswhat_stim/blank_white.png,stimulus/viswhat_stim/blank_white.png,0.0,0.0,0.0,0.0,0,0.0,0,0.0,0,0.0,0,0.0,0,0.0,0.0,0,0.0,0,0.0,0,0.0,0,0.0,0,0.0,0,0.0,0,0.0,0,0.0,8,,,,,0,24,24,24,,,,,,,,,241.96495041699973,241.96495041699973,241.96495041699973,241.96495041699973,241.96495041699973,241.96495041699973,241.96495041699973,241.96495041699973,241.85946433333325,241.96495041699973,241.96495041699973,241.96495041699973,241.85946433333325,241.96495041699973,241.96495041699973,241.96495041699973,241.96495041699973,241.96495041699973,241.96495041699973,241.96495041699973,241.96495041699973,241.96495041699973,241.96495041699973,241.96495041699973,241.96495041699973,241.96495041699973,241.96495041699973,241.9261309999999,241.96495041699973,241.96495041699973,241.96495041699973,241.9261309999999,241.96495041699973,241.96495041699973,241.96495041699973,241.96495041699973,241.96495041699973,247.19923108299963,247.19923108299963,250.19093574999988,None,0,,reldom2_s011,001,2025-02-05_16h12.41.414,What-B-Scan_AC,2022.2.5,None,
19,First_Order,4.0,audwhat,stimulus/audwhat_stim/dummy.wav,stimulus/audwhat_stim/dummy.wav,stimulus/audwhat_stim/percussion mallet_low-pitch_Ftri_loud.wav,stimulus/audwhat_stim/string viola_low-pitch_Ftri_loud.wav,stimulus/audwhat_stim/blank_white.png,stimulus/audwhat_stim/pitch_box.png,stimulus/audwhat_stim/pitch_yes.png,stimulus/audwhat_stim/pitch_no.png,None,Pitch,None,Pitch,1,0.0,0,5.125,0,5.125,0,5.125,0,0.0,0.625,0,0.0,0,0.0,0,0.0,0,0.0,0,0.0,0,0.0,1,0.5,1,2.125,0,,,,,0,25,25,25,,,,,,,,,250.19093574999988,250.19093574999988,250.19093574999988,250.19093574999988,250.19093574999988,250.19093574999988,250.19093574999988,250.19093574999988,250.1151909996667,250.19093574999988,250.19093574999988,250.19093574999988,250.1151909996667,250.19093574999988,250.19093574999988,250.19093574999988,252.2602902079998,,250.19093574999988,250.19093574999988,255.36503458299967,250.19093574999988,250.19093574999988,250.19093574999988,250.19093574999988,250.66210791699996,251.69764741699964,250.63140437466635,,252.2602902079998,253.29792425000005,252.22968787466633,,250.19093574999988,255.36503458299967,250.19093574999988,255.36503458299967,255.40687620799963,256.0693490829999,250.19093574999988,1,1,1.1056764989998555,reldom2_s011,001,2025-02-05_16h12.41.414,What-B-Scan_AC,2022.2.5,None,
20,First_Order,4.0,audwhat,stimulus/audwhat_stim/dummy.wav,stimulus/audwhat_stim/dummy.wav,stimulus/audwhat_stim/string viola_low-pitch_F_loud.wav,stimulus/audwhat_stim/string cello_high-pitch_Ftri_loud.wav,stimulus/audwhat_stim/blank_white.png,stimulus/audwhat_stim/category_box.png,stimulus/audwhat_stim/category_yes.png,stimulus/audwhat_stim/category_no.png,None,Category,None,Category,1,0.0,0,5.125,0,5.125,0,5.125,0,0.0,0.625,0,0.0,0,0.0,0,0.0,0,0.0,0,0.0,0,0.0,1,0.5,1,2.125,0,,,,,0,26,26,26,,,,,,,,,256.289129708,256.289129708,256.289129708,256.289129708,256.289129708,256.289129708,256.289129708,256.289129708,256.20268241633323,256.289129708,256.289129708,256.289129708,256.20268241633323,256.289129708,256.289129708,256.289129708,258.369867333,262.41643458299995,256.289129708,256.289129708,261.44897575000005,256.289129708,256.289129708,256.289129708,256.289129708,256.76090099999965,257.80485308299967,256.73060012466635,,258.369867333,259.41395754199993,258.33909483366665,,256.289129708,261.44897575000005,256.289129708,261.44897575000005,261.49096254200003,262.15558158299973,256.289129708,1,1,1.684632375000092,reldom2_s011,001,2025-02-05_16h12.41.414,What-B-Scan_AC,2022.2.5,None,
21,First_Order,4.0,audwhat,stimulus/audwhat_stim/dummy.wav,stimulus/audwhat_stim/dummy.wav,stimulus/audwhat_stim/string viola_high-pitch_F_loud.wav,stimulus/audwhat_stim/percussion mallet_high-pitch_F_loud.wav,stimulus/audwhat_stim/blank_white.png,stimulus/audwhat_stim/category_box.png,stimulus/audwhat_stim/category_yes.png,stimulus/audwhat_stim/category_no.png,None,Category,None,Pitch,2,0.0,0,5.125,0,5.125,0,5.125,0,0.0,0.625,0,0.0,0,0.0,0,0.0,0,0.0,0,0.0,0,0.0,1,0.5,1,2.125,0,,,,,0,27,27,27,,,,,,,,,262.41643458299995,262.41643458299995,262.41643458299995,262.41643458299995,262.41643458299995,262.41643458299995,262.41643458299995,262.41643458299995,262.3301791663331,262.41643458299995,262.41643458299995,262.41643458299995,262.3301791663331,262.41643458299995,262.41643458299995,262.41643458299995,264.49727266699983,268.539425125,262.41643458299995,262.41643458299995,267.56984375,262.41643458299995,262.41643458299995,262.41643458299995,262.41643458299995,262.8875244999999,263.92905999999994,262.8567063746666,,264.49727266699983,265.5421930419998,264.46655887466636,,262.41643458299995,267.56984375,262.41643458299995,267.56984375,267.6120001669997,268.275695458,262.41643458299995,2,1,0.6959032909999223,reldom2_s011,001,2025-02-05_16h12.41.414,What-B-Scan_AC,2022.2.5,None,
22,First_Order,4.0,audwhat,stimulus/audwhat_stim/dummy.wav,stimulus/audwhat_stim/dummy.wav,stimulus/audwhat_stim/percussion xylophone_high-pitch_D_loud.wav,stimulus/audwhat_stim/percussion mallet_low-pitch_F_loud.wav,stimulus/audwhat_stim/blank_white.png,stimulus/audwhat_stim/pitch_box.png,stimulus/audwhat_stim/pitch_yes.png,stimulus/audwhat_stim/pitch_no.png,None,Pitch,None,Category,2,0.0,0,5.125,0,5.125,0,5.125,0,0.0,0.625,0,0.0,0,0.0,0,0.0,0,0.0,0,0.0,0,0.0,1,0.5,1,2.125,0,,,,,0,28,28,28,,,,,,,,,268.539425125,268.539425125,268.539425125,268.539425125,268.539425125,268.539425125,268.539425125,268.539425125,268.45073875033324,268.539425125,268.539425125,268.539425125,268.45073875033324,268.539425125,268.539425125,268.539425125,270.61719479199974,,268.539425125,268.539425125,273.7278114169999,268.539425125,268.539425125,268.539425125,268.539425125,269.01148595799987,270.0537325,268.9806613746666,270.0537325,270.61719479199974,271.65608833299984,270.58653266666647,,268.539425125,273.7278114169999,268.539425125,273.7278114169999,273.7278114169999,274.3910787499999,268.539425125,1,0,1.0812761240003965,reldom2_s011,001,2025-02-05_16h12.41.414,What-B-Scan_AC,2022.2.5,None,
0,0.0,None,fixation,stimulus/viswhat_stim/blank_white.png,stimulus/viswhat_stim/blank_white.png,stimulus/audwhat_stim/blank_white.png,stimulus/audwhat_stim/blank_white.png,stimulus/viswhat_stim/blank_white.png,stimulus/viswhat_stim/blank_white.png,stimulus/viswhat_stim/blank_white.png,stimulus/viswhat_stim/blank_white.png,0.0,0.0,0.0,0.0,0,0.0,0,0.0,0,0.0,0,0.0,0,0.0,0.0,0,0.0,0,0.0,0,0.0,0,0.0,0,0.0,0,0.0,0,0.0,0,0.0,10,,,,,0,29,29,29,,,,,,,,,274.66978983299987,274.66978983299987,274.66978983299987,274.66978983299987,274.66978983299987,274.66978983299987,274.66978983299987,274.66978983299987,274.5660643753332,274.66978983299987,274.66978983299987,274.66978983299987,274.5660643753332,274.66978983299987,274.66978983299987,274.66978983299987,274.66978983299987,274.66978983299987,274.66978983299987,274.66978983299987,274.66978983299987,274.66978983299987,274.66978983299987,274.66978983299987,274.66978983299987,274.66978983299987,274.66978983299987,274.6160643753332,274.66978983299987,274.66978983299987,274.66978983299987,274.6160643753332,274.66978983299987,274.66978983299987,274.66978983299987,274.66978983299987,274.66978983299987,279.8811594169997,279.8811594169997,284.8011852079999,None,0,,reldom2_s011,001,2025-02-05_16h12.41.414,What-B-Scan_AC,2022.2.5,None,
23,Second_Order,4.0,audwhat,stimulus/audwhat_stim/percussion mallet_high-pitch_Ftri_loud.wav,stimulus/audwhat_stim/percussion mallet_low-pitch_Dtri_loud.wav,stimulus/audwhat_stim/percussion mallet_high-pitch_D_loud.wav,stimulus/audwhat_stim/string viola_high-pitch_D_loud.wav,stimulus/viswhat_stim/match_blank.png,stimulus/viswhat_stim/match_box.png,stimulus/viswhat_stim/match_yes.png,stimulus/viswhat_stim/match_no.png,2.0,Match,Category,Pitch,2,5.125,0,5.125,0,5.125,0,5.125,0,0.75,0.75,0,0.0,0,0.0,0,0.0,0,0.0,1,0.5,1,2.125,1,0.5,1,2.125,0,,,,,0,30,30,30,,,,,,,,,284.8011852079999,289.9145162919999,284.8011852079999,284.8011852079999,284.8011852079999,284.8011852079999,285.2529623329997,286.2508252499997,285.2653377086665,286.25864358299987,286.87375625000004,287.87134070799993,286.8858867916663,287.8793207499998,289.9145162919999,290.7477477499997,292.81289416699974,,290.7477477499997,290.7477477499997,295.91820774999997,290.7477477499997,290.7477477499997,290.7477477499997,290.7477477499997,291.2178910419998,292.2520237919998,291.18756783366666,,292.81289416699974,293.851168917,292.7828575836663,,290.7477477499997,295.91820774999997,290.7477477499997,295.91820774999997,295.9596256249997,,290.7477477499997,2,1,1.0619512500002202,reldom2_s011,001,2025-02-05_16h12.41.414,What-B-Scan_AC,2022.2.5,None,
24,Second_Order,4.0,audwhat,stimulus/audwhat_stim/string viola_high-pitch_Dtri_loud.wav,stimulus/audwhat_stim/percussion mallet_high-pitch_Dtri_loud.wav,stimulus/audwhat_stim/string cello_low-pitch_Dtri_loud.wav,stimulus/audwhat_stim/string viola_high-pitch_Ftri_loud.wav,stimulus/viswhat_stim/match_blank.png,stimulus/viswhat_stim/match_box.png,stimulus/viswhat_stim/match_yes.png,stimulus/viswhat_stim/match_no.png,2.0,Match,Pitch,Category,2,5.125,0,5.125,0,5.125,0,5.125,0,0.625,0.625,0,0.0,0,0.0,0,0.0,0,0.0,1,0.5,1,2.125,1,0.5,1,2.125,0,,,,,0,31,31,31,,,,,,,,,296.7404014169997,301.85806541700003,296.7404014169997,296.7404014169997,296.7404014169997,296.7404014169997,297.1966433749999,298.1950059169999,297.20949216666645,,298.8193173329996,299.8157745419999,298.8300920416666,299.82354504199975,301.85806541700003,302.57368208299977,304.6315703329997,308.704587833,302.57368208299977,302.57368208299977,307.7242784169998,302.57368208299977,302.57368208299977,302.57368208299977,302.57368208299977,303.0403447079998,304.0704530419998,303.0101343746667,,304.6315703329997,305.66604579199975,304.60104699966655,,302.57368208299977,307.7242784169998,302.57368208299977,307.7242784169998,307.7656865419999,308.42740275000006,302.57368208299977,1,0,1.5806145830001697,reldom2_s011,001,2025-02-05_16h12.41.414,What-B-Scan_AC,2022.2.5,None,
0,0.0,None,fixation,stimulus/viswhat_stim/blank_white.png,stimulus/viswhat_stim/blank_white.png,stimulus/audwhat_stim/blank_white.png,stimulus/audwhat_stim/blank_white.png,stimulus/viswhat_stim/blank_white.png,stimulus/viswhat_stim/blank_white.png,stimulus/viswhat_stim/blank_white.png,stimulus/viswhat_stim/blank_white.png,0.0,0.0,0.0,0.0,0,0.0,0,0.0,0,0.0,0,0.0,0,0.0,0.0,0,0.0,0,0.0,0,0.0,0,0.0,0,0.0,0,0.0,0,0.0,0,0.0,9,,,,,0,32,32,32,,,,,,,,,308.704587833,308.704587833,308.704587833,308.704587833,308.704587833,308.704587833,308.704587833,308.704587833,308.6019475413333,308.704587833,308.704587833,308.704587833,308.6019475413333,308.704587833,308.704587833,308.704587833,308.704587833,308.704587833,308.704587833,308.704587833,308.704587833,308.704587833,308.704587833,308.704587833,308.704587833,308.704587833,308.704587833,308.6519475413333,308.704587833,308.704587833,308.704587833,308.6519475413333,308.704587833,308.704587833,308.704587833,308.704587833,308.704587833,313.88799283299977,313.88799283299977,317.9950883749998,None,0,,reldom2_s011,001,2025-02-05_16h12.41.414,What-B-Scan_AC,2022.2.5,None,
25,First_Order,5.0,viswhat,stimulus/viswhat_stim/blank_white.png,stimulus/viswhat_stim/blank_white.png,stimulus/viswhat_stim/land_animal-elephant.png,stimulus/viswhat_stim/land_vehicle-firetruck.png,stimulus/viswhat_stim/blank_white.png,stimulus/viswhat_stim/location_box.png,stimulus/viswhat_stim/location_yes.png,stimulus/viswhat_stim/location_no.png,None,Location,None,Location,1,0.0,0,5.125,0,5.125,0,5.125,0,0.0,0.625,0,0.0,0,0.0,1,0.5,1,2.125,0,0.0,0,0.0,0,0.0,0,0.0,0,,,,,0,33,33,33,,,,,,,,,317.9950883749998,317.9950883749998,317.9950883749998,317.9950883749998,317.9950883749998,317.9950883749998,317.9950883749998,317.9950883749998,317.8896545836666,317.9950883749998,317.9950883749998,317.9950883749998,317.8896545836666,317.9950883749998,317.9950883749998,317.9950883749998,320.1038982079999,324.07247574999974,317.9950883749998,317.9950883749998,323.17024012499996,318.47556329200006,319.5607837079997,320.1038982079999,321.1884694579999,317.9950883749998,317.9950883749998,317.9396545836666,317.9950883749998,317.9950883749998,317.9950883749998,317.9396545836666,317.9950883749998,317.9950883749998,323.17024012499996,317.9950883749998,323.17024012499996,323.17024012499996,323.87769783299973,317.9950883749998,1,1,1.4093385000001035,reldom2_s011,001,2025-02-05_16h12.41.414,What-B-Scan_AC,2022.2.5,None,
26,First_Order,5.0,viswhat,stimulus/viswhat_stim/blank_white.png,stimulus/viswhat_stim/blank_white.png,stimulus/viswhat_stim/land_vehicle-tank.png,stimulus/viswhat_stim/land_animal-pig.png,stimulus/viswhat_stim/blank_white.png,stimulus/viswhat_stim/type_box.png,stimulus/viswhat_stim/type_yes.png,stimulus/viswhat_stim/type_no.png,None,Type,None,Location,2,0.0,0,5.125,0,5.125,0,5.125,0,0.0,0.625,0,0.0,0,0.0,1,0.5,1,2.125,0,0.0,0,0.0,0,0.0,0,0.0,0,,,,,0,34,34,34,,,,,,,,,324.07247574999974,324.07247574999974,324.07247574999974,324.07247574999974,324.07247574999974,324.07247574999974,324.07247574999974,324.07247574999974,324.04436449966636,324.07247574999974,324.07247574999974,324.07247574999974,324.04436449966636,324.07247574999974,324.07247574999974,324.07247574999974,326.1853888749997,330.2339015419998,324.07247574999974,324.07247574999974,329.21465524999985,324.56207370799984,325.58644112499996,326.1853888749997,327.19082249999974,324.07247574999974,324.07247574999974,324.06103116633307,324.07247574999974,324.07247574999974,324.07247574999974,324.06103116633307,324.07247574999974,324.07247574999974,329.21465524999985,324.07247574999974,329.21465524999985,329.29737154199984,329.9253354579996,324.07247574999974,2,1,0.9015941249999742,reldom2_s011,001,2025-02-05_16h12.41.414,What-B-Scan_AC,2022.2.5,None,
27,First_Order,5.0,viswhat,stimulus/viswhat_stim/blank_white.png,stimulus/viswhat_stim/blank_white.png,stimulus/viswhat_stim/land_animal-moose.png,stimulus/viswhat_stim/land_vehicle-vespa.png,stimulus/viswhat_stim/blank_white.png,stimulus/viswhat_stim/location_box.png,stimulus/viswhat_stim/location_yes.png,stimulus/viswhat_stim/location_no.png,None,Location,None,Location,1,0.0,0,5.125,0,5.125,0,5.125,0,0.0,0.625,0,0.0,0,0.0,1,0.5,1,2.125,0,0.0,0,0.0,0,0.0,0,0.0,0,,,,,0,35,35,35,,,,,,,,,330.2339015419998,330.2339015419998,330.2339015419998,330.2339015419998,330.2339015419998,330.2339015419998,330.2339015419998,330.2339015419998,330.107278958333,330.2339015419998,330.2339015419998,330.2339015419998,330.107278958333,330.2339015419998,330.2339015419998,330.2339015419998,332.3400033749999,,330.2339015419998,330.2339015419998,335.4655752919998,330.7103552499998,331.7979594999997,332.3400033749999,333.43229274999976,330.2339015419998,330.2339015419998,330.17394562499965,330.2339015419998,330.2339015419998,330.2339015419998,330.17394562499965,330.2339015419998,330.2339015419998,335.4655752919998,330.2339015419998,335.4655752919998,335.4655752919998,336.3667157919999,330.2339015419998,1,1,0.5865225830002601,reldom2_s011,001,2025-02-05_16h12.41.414,What-B-Scan_AC,2022.2.5,None,
28,First_Order,5.0,viswhat,stimulus/viswhat_stim/blank_white.png,stimulus/viswhat_stim/blank_white.png,stimulus/viswhat_stim/land_animal-giraffe.png,stimulus/viswhat_stim/water_animal-squid.png,stimulus/viswhat_stim/blank_white.png,stimulus/viswhat_stim/location_box.png,stimulus/viswhat_stim/location_yes.png,stimulus/viswhat_stim/location_no.png,None,Location,None,Type,2,0.0,0,5.125,0,5.125,0,5.125,0,0.0,0.625,0,0.0,0,0.0,1,0.5,1,2.125,0,0.0,0,0.0,0,0.0,0,0.0,0,,,,,0,36,36,36,,,,,,,,,336.3667157919999,336.3667157919999,336.3667157919999,336.3667157919999,336.3667157919999,336.3667157919999,336.3667157919999,336.3667157919999,336.2712277913333,336.3667157919999,336.3667157919999,336.3667157919999,336.2712277913333,336.3667157919999,336.3667157919999,336.3667157919999,338.44690195799967,,336.3667157919999,336.3667157919999,341.5349925829996,336.8148687079997,337.8866872919998,338.44690195799967,339.51920141699975,336.3667157919999,336.3667157919999,336.32122779133323,336.3667157919999,336.3667157919999,336.3667157919999,336.32122779133323,336.3667157919999,336.3667157919999,341.5349925829996,336.3667157919999,341.5349925829996,341.58637199999976,342.49868962499977,336.3667157919999,2,1,0.6426919579998867,reldom2_s011,001,2025-02-05_16h12.41.414,What-B-Scan_AC,2022.2.5,None,
0,0.0,None,fixation,stimulus/viswhat_stim/blank_white.png,stimulus/viswhat_stim/blank_white.png,stimulus/audwhat_stim/blank_white.png,stimulus/audwhat_stim/blank_white.png,stimulus/viswhat_stim/blank_white.png,stimulus/viswhat_stim/blank_white.png,stimulus/viswhat_stim/blank_white.png,stimulus/viswhat_stim/blank_white.png,0.0,0.0,0.0,0.0,0,0.0,0,0.0,0,0.0,0,0.0,0,0.0,0.0,0,0.0,0,0.0,0,0.0,0,0.0,0,0.0,0,0.0,0,0.0,0,0.0,9,,,,,0,37,37,37,,,,,,,,,342.49868962499977,342.49868962499977,342.49868962499977,342.49868962499977,342.49868962499977,342.49868962499977,342.49868962499977,342.49868962499977,342.3892761669998,342.49868962499977,342.49868962499977,342.49868962499977,342.3892761669998,342.49868962499977,342.49868962499977,342.49868962499977,342.49868962499977,342.49868962499977,342.49868962499977,342.49868962499977,342.49868962499977,342.49868962499977,342.49868962499977,342.49868962499977,342.49868962499977,342.49868962499977,342.49868962499977,342.4559428336665,342.49868962499977,342.49868962499977,342.49868962499977,342.4559428336665,342.49868962499977,342.49868962499977,342.49868962499977,342.49868962499977,342.49868962499977,347.71601066699986,347.71601066699986,351.6497960829997,None,0,,reldom2_s011,001,2025-02-05_16h12.41.414,What-B-Scan_AC,2022.2.5,None,
29,Second_Order,5.0,viswhat,stimulus/viswhat_stim/water_vehicle-pirateship.png,stimulus/viswhat_stim/land_vehicle-schoolbus.png,stimulus/viswhat_stim/water_animal-dolphin.png,stimulus/viswhat_stim/land_animal-cat.png,stimulus/viswhat_stim/match_blank.png,stimulus/viswhat_stim/match_box.png,stimulus/viswhat_stim/match_yes.png,stimulus/viswhat_stim/match_no.png,1.0,Match,Type,Type,1,5.125,0,5.125,0,5.125,0,5.125,0,0.75,0.75,1,0.5,1,2.125,1,0.5,1,2.125,0,0.0,0,0.0,0,0.0,0,0.0,0,,,,,0,38,38,38,,,,,,,,,351.6497960829997,356.76941454200005,352.1232829999999,353.1091554999998,353.74453833300004,354.74245274999976,351.6497960829997,351.6497960829997,351.6530440003331,351.6497960829997,351.6497960829997,351.6497960829997,351.6530440003331,351.6497960829997,356.76941454200005,357.5767381249998,359.65788299999986,363.63263174999975,357.5767381249998,357.5767381249998,362.7167787919998,358.03149941699985,359.07209941699966,359.65788299999986,360.7027668329997,357.5767381249998,357.5767381249998,357.55360808300003,357.5767381249998,357.5767381249998,357.5767381249998,357.55360808300003,357.5767381249998,357.5767381249998,362.7167787919998,357.5767381249998,362.7167787919998,362.77086633299996,,357.5767381249998,1,1,0.8509555830000863,reldom2_s011,001,2025-02-05_16h12.41.414,What-B-Scan_AC,2022.2.5,None,
30,Second_Order,5.0,viswhat,stimulus/viswhat_stim/water_animal-orka.png,stimulus/viswhat_stim/land_animal-bunny.png,stimulus/viswhat_stim/land_vehicle-motorcycle.png,stimulus/viswhat_stim/water_vehicle-motorboatraft.png,stimulus/viswhat_stim/match_blank.png,stimulus/viswhat_stim/match_box.png,stimulus/viswhat_stim/match_yes.png,stimulus/viswhat_stim/match_no.png,1.0,Match,Type,Type,1,5.125,0,5.125,0,5.125,0,5.125,0,0.625,0.625,1,0.5,1,2.125,1,0.5,1,2.125,0,0.0,0,0.0,0,0.0,0,0.0,0,,,,,0,39,39,39,,,,,,,,,363.63263174999975,368.7458637499999,364.034394667,365.03263124999967,365.66787566699986,366.6565228749996,363.63263174999975,363.63263174999975,363.64363116699985,363.63263174999975,363.63263174999975,363.63263174999975,363.64363116699985,363.63263174999975,368.7458637499999,369.4254907499999,371.51295174999996,375.56904233299974,369.4254907499999,369.4254907499999,374.5734821249998,369.87809662499967,370.90746487499973,371.51295174999996,372.547197417,369.4254907499999,369.4254907499999,369.40951362499965,369.4254907499999,369.4254907499999,369.4254907499999,369.40951362499965,369.4254907499999,369.4254907499999,374.5734821249998,369.4254907499999,374.5734821249998,374.62226624999994,375.260579708,369.4254907499999,1,1,1.0054637500002173,reldom2_s011,001,2025-02-05_16h12.41.414,What-B-Scan_AC,2022.2.5,None,
0,0.0,None,fixation,stimulus/viswhat_stim/blank_white.png,stimulus/viswhat_stim/blank_white.png,stimulus/audwhat_stim/blank_white.png,stimulus/audwhat_stim/blank_white.png,stimulus/viswhat_stim/blank_white.png,stimulus/viswhat_stim/blank_white.png,stimulus/viswhat_stim/blank_white.png,stimulus/viswhat_stim/blank_white.png,0.0,0.0,0.0,0.0,0,0.0,0,0.0,0,0.0,0,0.0,0,0.0,0.0,0,0.0,0,0.0,0,0.0,0,0.0,0,0.0,0,0.0,0,0.0,0,0.0,9,,,,,0,40,40,40,,,,,,,,,375.56904233299974,375.56904233299974,375.56904233299974,375.56904233299974,375.56904233299974,375.56904233299974,375.56904233299974,375.56904233299974,375.4748985416667,375.56904233299974,375.56904233299974,375.56904233299974,375.4748985416667,375.56904233299974,375.56904233299974,375.56904233299974,375.56904233299974,375.56904233299974,375.56904233299974,375.56904233299974,375.56904233299974,375.56904233299974,375.56904233299974,375.56904233299974,375.56904233299974,375.56904233299974,375.56904233299974,375.52489854166663,375.56904233299974,375.56904233299974,375.56904233299974,375.52489854166663,375.56904233299974,375.56904233299974,375.56904233299974,375.56904233299974,375.56904233299974,380.7578478749997,380.7578478749997,384.86885774999973,None,0,,reldom2_s011,001,2025-02-05_16h12.41.414,What-B-Scan_AC,2022.2.5,None,
31,First_Order,6.0,viswhat,stimulus/viswhat_stim/blank_white.png,stimulus/viswhat_stim/blank_white.png,stimulus/viswhat_stim/water_vehicle-ship.png,stimulus/viswhat_stim/land_vehicle-schoolbus.png,stimulus/viswhat_stim/blank_white.png,stimulus/viswhat_stim/location_box.png,stimulus/viswhat_stim/location_yes.png,stimulus/viswhat_stim/location_no.png,None,Location,None,Type,2,0.0,0,5.125,0,5.125,0,5.125,0,0.0,0.625,0,0.0,0,0.0,1,0.5,1,2.125,0,0.0,0,0.0,0,0.0,0,0.0,0,,,,,0,41,41,41,,,,,,,,,384.86885774999973,384.86885774999973,384.86885774999973,384.86885774999973,384.86885774999973,384.86885774999973,384.86885774999973,384.86885774999973,384.7630817086666,384.86885774999973,384.86885774999973,384.86885774999973,384.7630817086666,384.86885774999973,384.86885774999973,384.86885774999973,386.94632675,,384.86885774999973,384.86885774999973,390.0626863329999,385.2976524579999,386.3960603329997,386.94632675,388.04923970799973,384.86885774999973,384.86885774999973,384.81308170866663,384.86885774999973,384.86885774999973,384.86885774999973,384.81308170866663,384.86885774999973,384.86885774999973,390.0626863329999,384.86885774999973,390.0626863329999,390.0626863329999,390.72574270799987,384.86885774999973,2,1,2.6249893330000305,reldom2_s011,001,2025-02-05_16h12.41.414,What-B-Scan_AC,2022.2.5,None,
32,First_Order,6.0,viswhat,stimulus/viswhat_stim/blank_white.png,stimulus/viswhat_stim/blank_white.png,stimulus/viswhat_stim/land_vehicle-bus.png,stimulus/viswhat_stim/water_vehicle-jetski.png,stimulus/viswhat_stim/blank_white.png,stimulus/viswhat_stim/type_box.png,stimulus/viswhat_stim/type_yes.png,stimulus/viswhat_stim/type_no.png,None,Type,None,Type,1,0.0,0,5.125,0,5.125,0,5.125,0,0.0,0.625,0,0.0,0,0.0,1,0.5,1,2.125,0,0.0,0,0.0,0,0.0,0,0.0,0,,,,,0,42,42,42,,,,,,,,,390.9368479579998,390.9368479579998,390.9368479579998,390.9368479579998,390.9368479579998,390.9368479579998,390.9368479579998,390.9368479579998,390.8924093746665,390.9368479579998,390.9368479579998,390.9368479579998,390.8924093746665,390.9368479579998,390.9368479579998,390.9368479579998,393.04163816699975,397.04151991699973,390.9368479579998,390.9368479579998,396.070817542,391.41210945800003,392.45074324999996,393.04163816699975,394.0563122919998,390.9368479579998,390.9368479579998,390.9090760413332,390.9368479579998,390.9368479579998,390.9368479579998,390.9090760413332,390.9368479579998,390.9368479579998,396.070817542,390.9368479579998,396.070817542,396.1429563749998,396.7883308329997,390.9368479579998,1,1,0.9645138750001934,reldom2_s011,001,2025-02-05_16h12.41.414,What-B-Scan_AC,2022.2.5,None,
33,First_Order,6.0,viswhat,stimulus/viswhat_stim/blank_white.png,stimulus/viswhat_stim/blank_white.png,stimulus/viswhat_stim/water_animal-seahorse.png,stimulus/viswhat_stim/water_vehicle-cabincruiser.png,stimulus/viswhat_stim/blank_white.png,stimulus/viswhat_stim/type_box.png,stimulus/viswhat_stim/type_yes.png,stimulus/viswhat_stim/type_no.png,None,Type,None,Location,2,0.0,0,5.125,0,5.125,0,5.125,0,0.0,0.625,0,0.0,0,0.0,1,0.5,1,2.125,0,0.0,0,0.0,0,0.0,0,0.0,0,,,,,0,43,43,43,,,,,,,,,397.04151991699973,397.04151991699973,397.04151991699973,397.04151991699973,397.04151991699973,397.04151991699973,397.04151991699973,397.04151991699973,396.9832227499997,397.04151991699973,397.04151991699973,397.04151991699973,396.9832227499997,397.04151991699973,397.04151991699973,397.04151991699973,399.1539937499997,403.1640297079998,397.04151991699973,397.04151991699973,402.18207833299994,397.5007344579999,398.5206835419999,399.1539937499997,400.1811483329998,397.04151991699973,397.04151991699973,397.01655608333306,397.04151991699973,397.04151991699973,397.04151991699973,397.01655608333306,397.04151991699973,397.04151991699973,402.18207833299994,397.04151991699973,402.18207833299994,402.2702154169997,402.91732275000004,397.04151991699973,2,1,0.6819185419999485,reldom2_s011,001,2025-02-05_16h12.41.414,What-B-Scan_AC,2022.2.5,None,
34,First_Order,6.0,viswhat,stimulus/viswhat_stim/blank_white.png,stimulus/viswhat_stim/blank_white.png,stimulus/viswhat_stim/land_animal-tiger.png,stimulus/viswhat_stim/water_animal-octopus.png,stimulus/viswhat_stim/blank_white.png,stimulus/viswhat_stim/type_box.png,stimulus/viswhat_stim/type_yes.png,stimulus/viswhat_stim/type_no.png,None,Type,None,Type,1,0.0,0,5.125,0,5.125,0,5.125,0,0.0,0.625,0,0.0,0,0.0,1,0.5,1,2.125,0,0.0,0,0.0,0,0.0,0,0.0,0,,,,,0,44,44,44,,,,,,,,,403.1640297079998,403.1640297079998,403.1640297079998,403.1640297079998,403.1640297079998,403.1640297079998,403.1640297079998,403.1640297079998,403.09244137466646,403.1640297079998,403.1640297079998,403.1640297079998,403.09244137466646,403.1640297079998,403.1640297079998,403.1640297079998,405.2658100419999,,403.1640297079998,403.1640297079998,408.3333844579997,403.64679445799993,404.6964604579998,405.2658100419999,406.32125874999974,403.1640297079998,403.1640297079998,403.12577470799977,403.1640297079998,403.1640297079998,403.1640297079998,403.12577470799977,403.1640297079998,403.1640297079998,408.3333844579997,403.1640297079998,408.3333844579997,408.37155725,409.01943645799975,403.1640297079998,1,1,0.6958024999998997,reldom2_s011,001,2025-02-05_16h12.41.414,What-B-Scan_AC,2022.2.5,None,
0,0.0,None,fixation,stimulus/viswhat_stim/blank_white.png,stimulus/viswhat_stim/blank_white.png,stimulus/audwhat_stim/blank_white.png,stimulus/audwhat_stim/blank_white.png,stimulus/viswhat_stim/blank_white.png,stimulus/viswhat_stim/blank_white.png,stimulus/viswhat_stim/blank_white.png,stimulus/viswhat_stim/blank_white.png,0.0,0.0,0.0,0.0,0,0.0,0,0.0,0,0.0,0,0.0,0,0.0,0.0,0,0.0,0,0.0,0,0.0,0,0.0,0,0.0,0,0.0,0,0.0,0,0.0,8,,,,,0,45,45,45,,,,,,,,,409.292225875,409.292225875,409.292225875,409.292225875,409.292225875,409.292225875,409.292225875,409.292225875,409.19122600033336,409.292225875,409.292225875,409.292225875,409.19122600033336,409.292225875,409.292225875,409.292225875,409.292225875,409.292225875,409.292225875,409.292225875,409.292225875,409.292225875,409.292225875,409.292225875,409.292225875,409.292225875,409.292225875,409.24122600033337,409.292225875,409.292225875,409.292225875,409.24122600033337,409.292225875,409.292225875,409.292225875,409.292225875,409.292225875,414.5027354169997,414.5027354169997,417.44960220799976,None,0,,reldom2_s011,001,2025-02-05_16h12.41.414,What-B-Scan_AC,2022.2.5,None,
35,Second_Order,6.0,viswhat,stimulus/viswhat_stim/land_animal-wolf.png,stimulus/viswhat_stim/land_vehicle-schoolbus.png,stimulus/viswhat_stim/water_animal-shark.png,stimulus/viswhat_stim/water_vehicle-ship.png,stimulus/viswhat_stim/match_blank.png,stimulus/viswhat_stim/match_box.png,stimulus/viswhat_stim/match_yes.png,stimulus/viswhat_stim/match_no.png,1.0,Match,Location,Location,1,5.125,0,5.125,0,5.125,0,5.125,0,0.75,0.75,1,0.5,1,2.125,1,0.5,1,2.125,0,0.0,0,0.0,0,0.0,0,0.0,0,,,,,0,46,46,46,,,,,,,,,417.44960220799976,422.57017399999995,417.92577624999967,418.9236236249999,419.5472668749999,420.54412950000005,417.44960220799976,417.44960220799976,417.4551630003331,417.44960220799976,417.44960220799976,417.44960220799976,417.4551630003331,417.44960220799976,422.57017399999995,423.45452233299966,425.5051712919999,,423.45452233299966,423.45452233299966,428.6905179999999,423.87852629200006,424.939028667,425.5051712919999,426.568551417,423.45452233299966,423.45452233299966,423.388301916333,423.45452233299966,423.45452233299966,423.45452233299966,423.388301916333,423.45452233299966,423.45452233299966,428.6905179999999,423.45452233299966,428.6905179999999,428.62568783300003,,423.45452233299966,1,1,2.340351332999944,reldom2_s011,001,2025-02-05_16h12.41.414,What-B-Scan_AC,2022.2.5,None,
36,Second_Order,6.0,viswhat,stimulus/viswhat_stim/land_vehicle-oldcar.png,stimulus/viswhat_stim/land_animal-cat.png,stimulus/viswhat_stim/water_vehicle-cargoboat.png,stimulus/viswhat_stim/water_animal-orka.png,stimulus/viswhat_stim/match_blank.png,stimulus/viswhat_stim/match_box.png,stimulus/viswhat_stim/match_yes.png,stimulus/viswhat_stim/match_no.png,1.0,Match,Location,Location,1,5.125,0,5.125,0,5.125,0,5.125,0,0.625,0.625,1,0.5,1,2.125,1,0.5,1,2.125,0,0.0,0,0.0,0,0.0,0,0.0,0,,,,,0,47,47,47,,,,,,,,,429.4460644999999,434.56425708300003,429.9029217499997,430.9012944169999,431.5241524999997,432.52213029199993,429.4460644999999,429.4460644999999,429.4604010833331,429.4460644999999,429.4460644999999,429.4460644999999,429.4604010833331,429.4460644999999,434.56425708300003,435.3179950829999,437.40588249999973,,435.3179950829999,435.3179950829999,440.5095854169999,435.78829987499967,436.86400004200004,437.40588249999973,438.48767524999994,435.3179950829999,435.3179950829999,435.2609241663329,435.3179950829999,435.3179950829999,435.3179950829999,435.2609241663329,435.3179950829999,435.3179950829999,440.5095854169999,435.3179950829999,440.5095854169999,440.5095854169999,441.41306829199993,435.3179950829999,1,1,0.8186476670002776,reldom2_s011,001,2025-02-05_16h12.41.414,What-B-Scan_AC,2022.2.5,None,
0,0.0,None,fixation,stimulus/viswhat_stim/blank_white.png,stimulus/viswhat_stim/blank_white.png,stimulus/audwhat_stim/blank_white.png,stimulus/audwhat_stim/blank_white.png,stimulus/viswhat_stim/blank_white.png,stimulus/viswhat_stim/blank_white.png,stimulus/viswhat_stim/blank_white.png,stimulus/viswhat_stim/blank_white.png,0.0,0.0,0.0,0.0,0,0.0,0,0.0,0,0.0,0,0.0,0,0.0,0.0,0,0.0,0,0.0,0,0.0,0,0.0,0,0.0,0,0.0,0,0.0,0,0.0,10,,,,,0,48,48,48,,,,,,,,,441.41306829199993,441.41306829199993,441.41306829199993,441.41306829199993,441.41306829199993,441.41306829199993,441.41306829199993,441.41306829199993,441.3124417083331,441.41306829199993,441.41306829199993,441.41306829199993,441.3124417083331,441.41306829199993,441.41306829199993,441.41306829199993,441.41306829199993,441.41306829199993,441.41306829199993,441.41306829199993,441.41306829199993,441.41306829199993,441.41306829199993,441.41306829199993,441.41306829199993,441.41306829199993,441.41306829199993,441.36244170833305,441.41306829199993,441.41306829199993,441.41306829199993,441.36244170833305,441.41306829199993,441.41306829199993,441.41306829199993,441.41306829199993,441.41306829199993,446.6032685,446.6032685,451.66490133299976,None,0,,reldom2_s011,001,2025-02-05_16h12.41.414,What-B-Scan_AC,2022.2.5,None,
37,First_Order,7.0,audwhat,stimulus/audwhat_stim/dummy.wav,stimulus/audwhat_stim/dummy.wav,stimulus/audwhat_stim/string viola_low-pitch_Ftri_loud.wav,stimulus/audwhat_stim/string viola_high-pitch_Dtri_loud.wav,stimulus/audwhat_stim/blank_white.png,stimulus/audwhat_stim/category_box.png,stimulus/audwhat_stim/category_yes.png,stimulus/audwhat_stim/category_no.png,None,Category,None,Category,1,0.0,0,5.125,0,5.125,0,5.125,0,0.0,0.625,0,0.0,0,0.0,0,0.0,0,0.0,0,0.0,0,0.0,1,0.5,1,2.125,0,,,,,0,49,49,49,,,,,,,,,451.66490133299976,451.66490133299976,451.66490133299976,451.66490133299976,451.66490133299976,451.66490133299976,451.66490133299976,451.66490133299976,451.5883998746664,451.66490133299976,451.66490133299976,451.66490133299976,451.5883998746664,451.66490133299976,451.66490133299976,451.66490133299976,453.7483065829997,457.78412279199983,451.66490133299976,451.66490133299976,456.81628299999966,451.66490133299976,451.66490133299976,451.66490133299976,451.66490133299976,452.1380492919998,453.18156012500003,452.10789529166664,,453.7483065829997,454.787656167,453.7177993746666,,451.66490133299976,456.81628299999966,451.66490133299976,456.81628299999966,456.85824595799977,457.5250713749997,451.66490133299976,1,1,2.151465042000382,reldom2_s011,001,2025-02-05_16h12.41.414,What-B-Scan_AC,2022.2.5,None,
38,First_Order,7.0,audwhat,stimulus/audwhat_stim/dummy.wav,stimulus/audwhat_stim/dummy.wav,stimulus/audwhat_stim/percussion mallet_high-pitch_D_loud.wav,stimulus/audwhat_stim/string viola_high-pitch_D_loud.wav,stimulus/audwhat_stim/blank_white.png,stimulus/audwhat_stim/pitch_box.png,stimulus/audwhat_stim/pitch_yes.png,stimulus/audwhat_stim/pitch_no.png,None,Pitch,None,Pitch,1,0.0,0,5.125,0,5.125,0,5.125,0,0.0,0.625,0,0.0,0,0.0,0,0.0,0,0.0,0,0.0,0,0.0,1,0.5,1,2.125,0,,,,,0,50,50,50,,,,,,,,,457.78412279199983,457.78412279199983,457.78412279199983,457.78412279199983,457.78412279199983,457.78412279199983,457.78412279199983,457.78412279199983,457.699676875333,457.78412279199983,457.78412279199983,457.78412279199983,457.699676875333,457.78412279199983,457.78412279199983,457.78412279199983,459.85654395799975,,457.78412279199983,457.78412279199983,462.96406016699984,457.78412279199983,457.78412279199983,457.78412279199983,457.78412279199983,458.2556344999998,459.29199679199974,458.22560716666635,,459.85654395799975,460.89460666700006,459.82643312466666,,457.78412279199983,462.96406016699984,457.78412279199983,462.96406016699984,463.00546070799965,463.6701617919998,457.78412279199983,1,1,0.735032623999814,reldom2_s011,001,2025-02-05_16h12.41.414,What-B-Scan_AC,2022.2.5,None,
39,First_Order,7.0,audwhat,stimulus/audwhat_stim/dummy.wav,stimulus/audwhat_stim/dummy.wav,stimulus/audwhat_stim/string viola_low-pitch_Dtri_loud.wav,stimulus/audwhat_stim/percussion mallet_low-pitch_Dtri_loud.wav,stimulus/audwhat_stim/blank_white.png,stimulus/audwhat_stim/category_box.png,stimulus/audwhat_stim/category_yes.png,stimulus/audwhat_stim/category_no.png,None,Category,None,Pitch,2,0.0,0,5.125,0,5.125,0,5.125,0,0.0,0.625,0,0.0,0,0.0,0,0.0,0,0.0,0,0.0,0,0.0,1,0.5,1,2.125,0,,,,,0,51,51,51,,,,,,,,,463.89295587499964,463.89295587499964,463.89295587499964,463.89295587499964,463.89295587499964,463.89295587499964,463.89295587499964,463.89295587499964,463.80349512533314,463.89295587499964,463.89295587499964,463.89295587499964,463.80349512533314,463.89295587499964,463.89295587499964,463.89295587499964,465.9758163329998,470.02148524999984,463.89295587499964,463.89295587499964,469.0513738329996,463.89295587499964,463.89295587499964,463.89295587499964,463.89295587499964,464.3656026669996,465.4086887919998,464.3351499586663,,465.9758163329998,467.01876537499993,465.94485441666643,,463.89295587499964,469.0513738329996,463.89295587499964,469.0513738329996,469.09385508299965,469.75906458300005,463.89295587499964,2,1,0.9547210000000632,reldom2_s011,001,2025-02-05_16h12.41.414,What-B-Scan_AC,2022.2.5,None,
40,First_Order,7.0,audwhat,stimulus/audwhat_stim/dummy.wav,stimulus/audwhat_stim/dummy.wav,stimulus/audwhat_stim/string viola_high-pitch_F_loud.wav,stimulus/audwhat_stim/string viola_low-pitch_Ftri_loud.wav,stimulus/audwhat_stim/blank_white.png,stimulus/audwhat_stim/pitch_box.png,stimulus/audwhat_stim/pitch_yes.png,stimulus/audwhat_stim/pitch_no.png,None,Pitch,None,Category,2,0.0,0,5.125,0,5.125,0,5.125,0,0.0,0.625,0,0.0,0,0.0,0,0.0,0,0.0,0,0.0,0,0.0,1,0.5,1,2.125,0,,,,,0,52,52,52,,,,,,,,,470.02148524999984,470.02148524999984,470.02148524999984,470.02148524999984,470.02148524999984,470.02148524999984,470.02148524999984,470.02148524999984,469.9341918333331,470.02148524999984,470.02148524999984,470.02148524999984,469.9341918333331,470.02148524999984,470.02148524999984,470.02148524999984,472.09734487499964,,470.02148524999984,470.02148524999984,475.210183875,470.02148524999984,470.02148524999984,470.02148524999984,470.02148524999984,470.49414791699974,471.532497833,470.4633555416665,,472.09734487499964,473.137758375,472.06654199966647,,470.02148524999984,475.210183875,470.02148524999984,475.210183875,475.25183124999967,475.9156074999996,470.02148524999984,1,0,2.5059351660001994,reldom2_s011,001,2025-02-05_16h12.41.414,What-B-Scan_AC,2022.2.5,None,
0,0.0,None,fixation,stimulus/viswhat_stim/blank_white.png,stimulus/viswhat_stim/blank_white.png,stimulus/audwhat_stim/blank_white.png,stimulus/audwhat_stim/blank_white.png,stimulus/viswhat_stim/blank_white.png,stimulus/viswhat_stim/blank_white.png,stimulus/viswhat_stim/blank_white.png,stimulus/viswhat_stim/blank_white.png,0.0,0.0,0.0,0.0,0,0.0,0,0.0,0,0.0,0,0.0,0,0.0,0.0,0,0.0,0,0.0,0,0.0,0,0.0,0,0.0,0,0.0,0,0.0,0,0.0,9,,,,,0,53,53,53,,,,,,,,,476.154077833,476.154077833,476.154077833,476.154077833,476.154077833,476.154077833,476.154077833,476.154077833,476.04894083333295,476.154077833,476.154077833,476.154077833,476.04894083333295,476.154077833,476.154077833,476.154077833,476.154077833,476.154077833,476.154077833,476.154077833,476.154077833,476.154077833,476.154077833,476.154077833,476.154077833,476.154077833,476.154077833,476.09894083333296,476.154077833,476.154077833,476.154077833,476.09894083333296,476.154077833,476.154077833,476.154077833,476.154077833,476.154077833,481.37090145799993,481.37090145799993,485.31363166699975,None,0,,reldom2_s011,001,2025-02-05_16h12.41.414,What-B-Scan_AC,2022.2.5,None,
41,Second_Order,7.0,audwhat,stimulus/audwhat_stim/percussion mallet_low-pitch_F_loud.wav,stimulus/audwhat_stim/percussion mallet_high-pitch_D_loud.wav,stimulus/audwhat_stim/string cello_low-pitch_Dtri_loud.wav,stimulus/audwhat_stim/string viola_high-pitch_F_loud.wav,stimulus/viswhat_stim/match_blank.png,stimulus/viswhat_stim/match_box.png,stimulus/viswhat_stim/match_yes.png,stimulus/viswhat_stim/match_no.png,1.0,Match,Category,Category,1,5.125,0,5.125,0,5.125,0,5.125,0,0.75,0.75,0,0.0,0,0.0,0,0.0,0,0.0,1,0.5,1,2.125,1,0.5,1,2.125,0,,,,,0,54,54,54,,,,,,,,,485.31363166699975,490.42632287499964,485.31363166699975,485.31363166699975,485.31363166699975,485.31363166699975,485.76520145799986,486.76361529199994,485.7777277916664,486.77124887499986,487.3876691249998,488.3844482499999,487.39839374966664,488.40078166700005,490.42632287499964,491.2519076669996,493.3230444169999,,491.2519076669996,491.2519076669996,496.43016758299973,491.2519076669996,491.2519076669996,491.2519076669996,491.2519076669996,491.72075025000004,492.75680670799966,491.69042999966655,,493.3230444169999,494.3597679579998,493.29263295866645,,491.2519076669996,496.43016758299973,491.2519076669996,496.43016758299973,496.4717989999999,,491.2519076669996,1,1,1.1437183329999243,reldom2_s011,001,2025-02-05_16h12.41.414,What-B-Scan_AC,2022.2.5,None,
42,Second_Order,7.0,audwhat,stimulus/audwhat_stim/percussion mallet_high-pitch_Ftri_loud.wav,stimulus/audwhat_stim/percussion mallet_low-pitch_F_loud.wav,stimulus/audwhat_stim/percussion mallet_low-pitch_Dtri_loud.wav,stimulus/audwhat_stim/string viola_low-pitch_Dtri_loud.wav,stimulus/viswhat_stim/match_blank.png,stimulus/viswhat_stim/match_box.png,stimulus/viswhat_stim/match_yes.png,stimulus/viswhat_stim/match_no.png,2.0,Match,Category,Pitch,2,5.125,0,5.125,0,5.125,0,5.125,0,0.625,0.625,0,0.0,0,0.0,0,0.0,0,0.0,1,0.5,1,2.125,1,0.5,1,2.125,0,,,,,0,55,55,55,,,,,,,,,497.25812675,502.37079179199964,497.25812675,497.25812675,497.25812675,497.25812675,497.70952720800005,498.7080486249997,497.72201766666626,498.716849333,499.3303566249997,500.3280743329997,499.34262737466656,500.3363791249999,502.37079179199964,503.0816394999997,505.14691720799965,,503.0816394999997,503.0816394999997,508.24999987499996,503.0816394999997,503.0816394999997,503.0816394999997,503.0816394999997,503.55215829200006,504.58289129199966,503.5212723336665,,505.14691720799965,506.18050991699965,505.1163937496665,,503.0816394999997,508.24999987499996,503.0816394999997,508.24999987499996,508.29177325,508.95190004200003,503.0816394999997,2,1,2.0712840420001157,reldom2_s011,001,2025-02-05_16h12.41.414,What-B-Scan_AC,2022.2.5,None,
0,0.0,None,fixation,stimulus/viswhat_stim/blank_white.png,stimulus/viswhat_stim/blank_white.png,stimulus/audwhat_stim/blank_white.png,stimulus/audwhat_stim/blank_white.png,stimulus/viswhat_stim/blank_white.png,stimulus/viswhat_stim/blank_white.png,stimulus/viswhat_stim/blank_white.png,stimulus/viswhat_stim/blank_white.png,0.0,0.0,0.0,0.0,0,0.0,0,0.0,0,0.0,0,0.0,0,0.0,0.0,0,0.0,0,0.0,0,0.0,0,0.0,0,0.0,0,0.0,0,0.0,0,0.0,9,,,,,0,56,56,56,,,,,,,,,509.1903837499999,509.1903837499999,509.1903837499999,509.1903837499999,509.1903837499999,509.1903837499999,509.1903837499999,509.1903837499999,509.08523337533336,509.1903837499999,509.1903837499999,509.1903837499999,509.08523337533336,509.1903837499999,509.1903837499999,509.1903837499999,509.1903837499999,509.1903837499999,509.1903837499999,509.1903837499999,509.1903837499999,509.1903837499999,509.1903837499999,509.1903837499999,509.1903837499999,509.1903837499999,509.1903837499999,509.13523337533337,509.1903837499999,509.1903837499999,509.1903837499999,509.13523337533337,509.1903837499999,509.1903837499999,509.1903837499999,509.1903837499999,509.1903837499999,514.3818700829997,514.3818700829997,518.46812125,None,0,,reldom2_s011,001,2025-02-05_16h12.41.414,What-B-Scan_AC,2022.2.5,None,
43,First_Order,8.0,audwhat,stimulus/audwhat_stim/dummy.wav,stimulus/audwhat_stim/dummy.wav,stimulus/audwhat_stim/string cello_high-pitch_D_loud.wav,stimulus/audwhat_stim/string cello_low-pitch_F_loud.wav,stimulus/audwhat_stim/blank_white.png,stimulus/audwhat_stim/pitch_box.png,stimulus/audwhat_stim/pitch_yes.png,stimulus/audwhat_stim/pitch_no.png,None,Pitch,None,Category,2,0.0,0,5.125,0,5.125,0,5.125,0,0.0,0.625,0,0.0,0,0.0,0,0.0,0,0.0,0,0.0,0,0.0,1,0.5,1,2.125,0,,,,,0,57,57,57,,,,,,,,,518.46812125,518.46812125,518.46812125,518.46812125,518.46812125,518.46812125,518.46812125,518.46812125,518.3915242086665,518.46812125,518.46812125,518.46812125,518.3915242086665,518.46812125,518.46812125,518.46812125,520.5423679579999,,518.46812125,518.46812125,523.6493336669996,518.46812125,518.46812125,518.46812125,518.46812125,518.9400164999997,519.975905667,518.9091812916665,,520.5423679579999,521.579899625,520.5116634996664,,518.46812125,523.6493336669996,518.46812125,523.6493336669996,523.6911004999997,524.3528594999998,518.46812125,2,1,1.1826309160001074,reldom2_s011,001,2025-02-05_16h12.41.414,What-B-Scan_AC,2022.2.5,None,
44,First_Order,8.0,audwhat,stimulus/audwhat_stim/dummy.wav,stimulus/audwhat_stim/dummy.wav,stimulus/audwhat_stim/percussion mallet_low-pitch_F_loud.wav,stimulus/audwhat_stim/string cello_low-pitch_F_loud.wav,stimulus/audwhat_stim/blank_white.png,stimulus/audwhat_stim/pitch_box.png,stimulus/audwhat_stim/pitch_yes.png,stimulus/audwhat_stim/pitch_no.png,None,Pitch,None,Pitch,1,0.0,0,5.125,0,5.125,0,5.125,0,0.0,0.625,0,0.0,0,0.0,0,0.0,0,0.0,0,0.0,0,0.0,1,0.5,1,2.125,0,,,,,0,58,58,58,,,,,,,,,524.569177333,524.569177333,524.569177333,524.569177333,524.569177333,524.569177333,524.569177333,524.569177333,524.4861928333331,524.569177333,524.569177333,524.569177333,524.4861928333331,524.569177333,524.569177333,524.569177333,526.6434977919998,,524.569177333,524.569177333,529.755382417,524.569177333,524.569177333,524.569177333,524.569177333,525.040865292,526.0785711669996,525.0099588746664,,526.6434977919998,527.6847017919999,526.6127769586667,,524.569177333,529.755382417,524.569177333,529.755382417,529.7972325829996,530.4610890419999,524.569177333,1,1,1.8762449579999156,reldom2_s011,001,2025-02-05_16h12.41.414,What-B-Scan_AC,2022.2.5,None,
45,First_Order,8.0,audwhat,stimulus/audwhat_stim/dummy.wav,stimulus/audwhat_stim/dummy.wav,stimulus/audwhat_stim/string viola_low-pitch_Dtri_loud.wav,stimulus/audwhat_stim/string cello_high-pitch_Ftri_loud.wav,stimulus/audwhat_stim/blank_white.png,stimulus/audwhat_stim/category_box.png,stimulus/audwhat_stim/category_yes.png,stimulus/audwhat_stim/category_no.png,None,Category,None,Category,1,0.0,0,5.125,0,5.125,0,5.125,0,0.0,0.625,0,0.0,0,0.0,0,0.0,0,0.0,0,0.0,0,0.0,1,0.5,1,2.125,0,,,,,0,59,59,59,,,,,,,,,530.677698208,530.677698208,530.677698208,530.677698208,530.677698208,530.677698208,530.677698208,530.677698208,530.5944223753332,530.677698208,530.677698208,530.677698208,530.5944223753332,530.677698208,530.677698208,530.677698208,532.7640378749998,,530.677698208,530.677698208,535.8455409999997,530.677698208,530.677698208,530.677698208,530.677698208,531.1527336669997,532.1963881669999,531.1215679996665,,532.7640378749998,533.8071104579999,532.7331344166666,,530.677698208,535.8455409999997,530.677698208,535.8455409999997,535.8879744579999,536.5542524999996,530.677698208,1,1,2.20554729100013,reldom2_s011,001,2025-02-05_16h12.41.414,What-B-Scan_AC,2022.2.5,None,
46,First_Order,8.0,audwhat,stimulus/audwhat_stim/dummy.wav,stimulus/audwhat_stim/dummy.wav,stimulus/audwhat_stim/string viola_high-pitch_Ftri_loud.wav,stimulus/audwhat_stim/percussion xylophone_high-pitch_Ftri_loud.wav,stimulus/audwhat_stim/blank_white.png,stimulus/audwhat_stim/category_box.png,stimulus/audwhat_stim/category_yes.png,stimulus/audwhat_stim/category_no.png,None,Category,None,Pitch,2,0.0,0,5.125,0,5.125,0,5.125,0,0.0,0.625,0,0.0,0,0.0,0,0.0,0,0.0,0,0.0,0,0.0,1,0.5,1,2.125,0,,,,,0,60,60,60,,,,,,,,,536.7719185829997,536.7719185829997,536.7719185829997,536.7719185829997,536.7719185829997,536.7719185829997,536.7719185829997,536.7719185829997,536.687585833333,536.7719185829997,536.7719185829997,536.7719185829997,536.687585833333,536.7719185829997,536.7719185829997,536.7719185829997,538.8571982079998,,536.7719185829997,536.7719185829997,541.9399859169998,536.7719185829997,536.7719185829997,536.7719185829997,536.7719185829997,537.246852625,538.2897535419997,537.2159638336664,,538.8571982079998,539.9070124579998,538.8255962496667,539.859641,536.7719185829997,541.9399859169998,536.7719185829997,541.9399859169998,541.9820142499998,542.649007,536.7719185829997,2,1,1.7431710830001066,reldom2_s011,001,2025-02-05_16h12.41.414,What-B-Scan_AC,2022.2.5,None,
0,0.0,None,fixation,stimulus/viswhat_stim/blank_white.png,stimulus/viswhat_stim/blank_white.png,stimulus/audwhat_stim/blank_white.png,stimulus/audwhat_stim/blank_white.png,stimulus/viswhat_stim/blank_white.png,stimulus/viswhat_stim/blank_white.png,stimulus/viswhat_stim/blank_white.png,stimulus/viswhat_stim/blank_white.png,0.0,0.0,0.0,0.0,0,0.0,0,0.0,0,0.0,0,0.0,0,0.0,0.0,0,0.0,0,0.0,0,0.0,0,0.0,0,0.0,0,0.0,0,0.0,0,0.0,8,,,,,0,61,61,61,,,,,,,,,542.8872288329999,542.8872288329999,542.8872288329999,542.8872288329999,542.8872288329999,542.8872288329999,542.8872288329999,542.8872288329999,542.7823403333333,542.8872288329999,542.8872288329999,542.8872288329999,542.7823403333333,542.8872288329999,542.8872288329999,542.8872288329999,542.8872288329999,542.8872288329999,542.8872288329999,542.8872288329999,542.8872288329999,542.8872288329999,542.8872288329999,542.8872288329999,542.8872288329999,542.8872288329999,542.8872288329999,542.8323403333333,542.8872288329999,542.8872288329999,542.8872288329999,542.8323403333333,542.8872288329999,542.8872288329999,542.8872288329999,542.8872288329999,542.8872288329999,548.1091070419998,548.1091070419998,551.0229557499997,None,0,,reldom2_s011,001,2025-02-05_16h12.41.414,What-B-Scan_AC,2022.2.5,None,
47,Second_Order,8.0,audwhat,stimulus/audwhat_stim/string cello_low-pitch_Dtri_loud.wav,stimulus/audwhat_stim/string viola_high-pitch_D_loud.wav,stimulus/audwhat_stim/percussion xylophone_high-pitch_F_loud.wav,stimulus/audwhat_stim/percussion mallet_low-pitch_D_loud.wav,stimulus/viswhat_stim/match_blank.png,stimulus/viswhat_stim/match_box.png,stimulus/viswhat_stim/match_yes.png,stimulus/viswhat_stim/match_no.png,1.0,Match,Category,Category,1,5.125,0,5.125,0,5.125,0,5.125,0,0.75,0.75,0,0.0,0,0.0,0,0.0,0,0.0,1,0.5,1,2.125,1,0.5,1,2.125,0,,,,,0,62,62,62,,,,,,,,,551.0229557499997,556.1445494169998,551.0229557499997,551.0229557499997,551.0229557499997,551.0229557499997,551.479568625,552.4683179169997,551.4829726666665,,553.0999722919996,554.089350875,553.1073319586665,,556.1445494169998,556.97894275,559.0534001669998,,556.97894275,556.97894275,562.147462333,556.97894275,556.97894275,556.97894275,556.97894275,557.451863708,558.490242542,557.4215668336667,558.490242542,559.0534001669998,560.085962875,559.0228614996665,,556.97894275,562.147462333,556.97894275,562.147462333,562.1890168749997,,556.97894275,1,1,2.100986124999963,reldom2_s011,001,2025-02-05_16h12.41.414,What-B-Scan_AC,2022.2.5,None,
48,Second_Order,8.0,audwhat,stimulus/audwhat_stim/percussion mallet_high-pitch_D_loud.wav,stimulus/audwhat_stim/percussion mallet_low-pitch_Dtri_loud.wav,stimulus/audwhat_stim/string viola_high-pitch_F_loud.wav,stimulus/audwhat_stim/string viola_low-pitch_Dtri_loud.wav,stimulus/viswhat_stim/match_blank.png,stimulus/viswhat_stim/match_box.png,stimulus/viswhat_stim/match_yes.png,stimulus/viswhat_stim/match_no.png,1.0,Match,Category,Category,1,5.125,0,5.125,0,5.125,0,5.125,0,0.625,0.625,0,0.0,0,0.0,0,0.0,0,0.0,1,0.5,1,2.125,1,0.5,1,2.125,0,,,,,0,63,63,63,,,,,,,,,562.9684776669997,568.0898821669998,562.9684776669997,562.9684776669997,562.9684776669997,562.9684776669997,563.4268334999997,564.413044208,563.4397236246666,564.4339633329996,565.051537375,566.0541376249998,565.0612308336665,566.0541376249998,568.0898821669998,568.8015262919998,570.8691169999997,,568.8015262919998,568.8015262919998,573.969550708,568.8015262919998,568.8015262919998,568.8015262919998,568.8015262919998,569.27299975,570.3056670829997,569.2424565416666,,570.8691169999997,571.9077447499999,570.8380970416663,,568.8015262919998,573.969550708,568.8015262919998,573.969550708,574.0109992499997,574.6728414999998,568.8015262919998,1,1,0.7771505000000616,reldom2_s011,001,2025-02-05_16h12.41.414,What-B-Scan_AC,2022.2.5,None,
0,0.0,None,fixation,stimulus/viswhat_stim/blank_white.png,stimulus/viswhat_stim/blank_white.png,stimulus/audwhat_stim/blank_white.png,stimulus/audwhat_stim/blank_white.png,stimulus/viswhat_stim/blank_white.png,stimulus/viswhat_stim/blank_white.png,stimulus/viswhat_stim/blank_white.png,stimulus/viswhat_stim/blank_white.png,0.0,0.0,0.0,0.0,0,0.0,0,0.0,0,0.0,0,0.0,0,0.0,0.0,0,0.0,0,0.0,0,0.0,0,0.0,0,0.0,0,0.0,0,0.0,0,0.0,16,,,,,0,64,64,64,,,,,,,,,574.9108921669999,574.9108921669999,574.9108921669999,574.9108921669999,574.9108921669999,574.9108921669999,574.9108921669999,574.9108921669999,574.8061748333331,574.9108921669999,574.9108921669999,574.9108921669999,574.8061748333331,574.9108921669999,574.9108921669999,574.9108921669999,574.9108921669999,574.9108921669999,574.9108921669999,574.9108921669999,574.9108921669999,574.9108921669999,574.9108921669999,574.9108921669999,574.9108921669999,574.9108921669999,574.9108921669999,574.8561748333331,574.9108921669999,574.9108921669999,574.9108921669999,574.8561748333331,574.9108921669999,574.9108921669999,574.9108921669999,574.9108921669999,574.9108921669999,580.1031052079998,580.1031052079998,591.0793600419997,None,0,,reldom2_s011,001,2025-02-05_16h12.41.414,What-B-Scan_AC,2022.2.5,None,
