Trial,Order,Block,Type,Stimuli_File1,Stimuli_File2,Stimuli_File3,Stimuli_File4,Cue_File1,Cue_File2,Response_File_Yes,Response_File_No,Match,Cue_Dimension,Pair1_Dimension,Pair2_Dimension,Key,Cue1_Duration,Cue1_Onset,Cue2_Duration,Cue2_Onset,ResponseYes_Duration,ResponseYes_Onset,ResponseNo_Duration,ResponseNo_Onset,ITI_Within,ITI_Between,Image1_Duration,Image1_Onset,Image2_Duration,Image2_Onset,Image3_Duration,Image3_Onset,Image4_Duration,Image4_Onset,Sound1_Duration,Sound1_Onset,Sound2_Duration,Sound2_Onset,Sound3_Duration,Sound3_Onset,Sound4_Duration,Sound4_Onset,Fixation_Duration,trials_2.thisRepN,trials_2.thisTrialN,trials_2.thisN,trials_2.thisIndex,trials.thisRepN,trials.thisTrialN,trials.thisN,trials.thisIndex,text_start.started,key_resp_start.started,key_resp_start.keys,key_resp_start.rt,text2.started,key_resp_2.started,key_resp_2.keys,key_resp_2.rt,cue_file1.started,cue_file1.stopped,image_1.started,image_1.stopped,image_2.started,image_2.stopped,sound_icon1.started,sound_icon1.stopped,sound_1.started,sound_1.stopped,sound_icon2.started,sound_icon2.stopped,sound_2.started,sound_2.stopped,image_blank_1.started,image_blank_1.stopped,key_press.started,key_press.stopped,fixation_text.started,cue_file2.started,cue_file2.stopped,image_3.started,image_3.stopped,image_4.started,image_4.stopped,sound_icon3.started,sound_icon3.stopped,sound_3.started,sound_3.stopped,sound_icon4.started,sound_icon4.stopped,sound_4.started,sound_4.stopped,response_yes.started,response_yes.stopped,response_no.started,response_no.stopped,iti_blank.started,iti_blank.stopped,fixation_text.stopped,key_press.keys,key_press.corr,key_press.rt,participant,session,date,expName,psychopyVersion,frameRate,
,,,,,,,,,,,,,,,,,,,,,,,,,,,,,,,,,,,,,,,,,,,,,,,,,,,,10.129944667000018,10.129944667000018,2,0.8968674579996332,,,,,,,,,,,,,,,,,,,,,,,,,,,,,,,,,,,,,,,,,,,,,,,,reldom2_s011,001,2025-02-05_16h35.08.197,Aud-B-Scan_AC,2022.2.5,None,
,,,,,,,,,,,,,,,,,,,,,,,,,,,,,,,,,,,,,,,,,,,,0,0,0,0,,,,,,,,,11.047077833000003,11.047077833000003,5,17.193923207999887,,,,,,,,,,,,,,,,,,,,,,,,,,,,,,,,,,,,,,,,,,,,reldom2_s011,001,2025-02-05_16h35.08.197,Aud-B-Scan_AC,2022.2.5,None,
,,,,,,,,,,,,,,,,,,,,,,,,,,,,,,,,,,,,,,,,,,,,1,0,1,0,,,,,,,,,28.257718082999872,28.257718082999872,5,1.9825314999998227,,,,,,,,,,,,,,,,,,,,,,,,,,,,,,,,,,,,,,,,,,,,reldom2_s011,001,2025-02-05_16h35.08.197,Aud-B-Scan_AC,2022.2.5,None,
,,,,,,,,,,,,,,,,,,,,,,,,,,,,,,,,,,,,,,,,,,,,2,0,2,0,,,,,,,,,30.254405499999848,30.254405499999848,5,1.9868941669997184,,,,,,,,,,,,,,,,,,,,,,,,,,,,,,,,,,,,,,,,,,,,reldom2_s011,001,2025-02-05_16h35.08.197,Aud-B-Scan_AC,2022.2.5,None,
,,,,,,,,,,,,,,,,,,,,,,,,,,,,,,,,,,,,,,,,,,,,3,0,3,0,,,,,,,,,32.24915874999988,32.24915874999988,5,1.991990542000167,,,,,,,,,,,,,,,,,,,,,,,,,,,,,,,,,,,,,,,,,,,,reldom2_s011,001,2025-02-05_16h35.08.197,Aud-B-Scan_AC,2022.2.5,None,
0,0.0,None,fixation,stimulus/audwhat_stim/blank_white.png,stimulus/audwhat_stim/blank_white.png,stimulus/audwhere_stim/blank_white.png,stimulus/audwhere_stim/blank_white.png,stimulus/audwhat_stim/blank_white.png,stimulus/audwhat_stim/blank_white.png,stimulus/audwhat_stim/blank_white.png,stimulus/audwhat_stim/blank_white.png,0.0,0.0,0.0,0.0,0,0.0,0,0.0,0,0.0,0,0.0,0,0.0,0.0,0,0,0,0,0,0,0,0,0,0.0,0,0.0,0,0.0,0,0.0,16,,,,,0,0,0,0,,,,,,,,,34.43881870799987,34.43881870799987,34.43881870799987,34.43881870799987,34.43881870799987,34.43881870799987,34.43881870799987,34.43881870799987,34.33111487533355,34.43881870799987,34.43881870799987,34.43881870799987,34.33111487533355,34.43881870799987,34.43881870799987,34.43881870799987,34.43881870799987,34.43881870799987,34.43881870799987,34.43881870799987,34.43881870799987,34.43881870799987,34.43881870799987,34.43881870799987,34.43881870799987,34.43881870799987,34.43881870799987,34.39778154200021,34.43881870799987,34.43881870799987,34.43881870799987,34.39778154200021,34.43881870799987,34.43881870799987,34.43881870799987,34.43881870799987,34.43881870799987,39.614232207999976,39.614232207999976,50.686186375000034,None,0,,reldom2_s011,001,2025-02-05_16h35.08.197,Aud-B-Scan_AC,2022.2.5,None,
1,First_Order,1.0,audwhat,stimulus/audwhat_stim/dummy.wav,stimulus/audwhat_stim/dummy.wav,stimulus/audwhat_stim/string viola_low-pitch_F_loud.wav,stimulus/audwhat_stim/string cello_high-pitch_Dtri_loud.wav,stimulus/audwhat_stim/blank_white.png,stimulus/audwhat_stim/pitch_box.png,stimulus/audwhat_stim/pitch_yes.png,stimulus/audwhat_stim/pitch_no.png,None,Pitch,None,Category,2,0.0,0,5.125,0,5.125,0,5.125,0,0.0,0.625,0,0,0,0,0,0,0,0,0,0.0,0,0.0,1,0.5,1,2.125,0,,,,,0,1,1,1,,,,,,,,,50.686186375000034,50.686186375000034,50.686186375000034,50.686186375000034,50.686186375000034,50.686186375000034,50.686186375000034,50.686186375000034,50.60867845800012,50.686186375000034,50.686186375000034,50.686186375000034,50.60867845800012,50.686186375000034,50.686186375000034,50.686186375000034,52.77504450000015,,50.686186375000034,50.686186375000034,55.8419301670001,50.686186375000034,50.686186375000034,50.686186375000034,50.686186375000034,51.15029787499998,52.216819083000246,51.12055858366672,,52.77504450000015,53.84648349999998,52.74425262466663,,50.686186375000034,55.8419301670001,50.686186375000034,55.8419301670001,55.88319779199992,56.54058241700022,50.686186375000034,2,1,1.8981735829997888,reldom2_s011,001,2025-02-05_16h35.08.197,Aud-B-Scan_AC,2022.2.5,None,
2,First_Order,1.0,audwhat,stimulus/audwhat_stim/dummy.wav,stimulus/audwhat_stim/dummy.wav,stimulus/audwhat_stim/percussion xylophone_high-pitch_Ftri_loud.wav,stimulus/audwhat_stim/string viola_high-pitch_Ftri_loud.wav,stimulus/audwhat_stim/blank_white.png,stimulus/audwhat_stim/pitch_box.png,stimulus/audwhat_stim/pitch_yes.png,stimulus/audwhat_stim/pitch_no.png,None,Pitch,None,Pitch,1,0.0,0,5.125,0,5.125,0,5.125,0,0.0,0.625,0,0,0,0,0,0,0,0,0,0.0,0,0.0,1,0.5,1,2.125,0,,,,,0,2,2,2,,,,,,,,,56.79719449999993,56.79719449999993,56.79719449999993,56.79719449999993,56.79719449999993,56.79719449999993,56.79719449999993,56.79719449999993,56.715294708333325,56.79719449999993,56.79719449999993,56.79719449999993,56.715294708333325,56.79719449999993,56.79719449999993,56.79719449999993,58.897960582999985,62.928447833000064,56.79719449999993,56.79719449999993,61.97364337499994,56.79719449999993,56.79719449999993,56.79719449999993,56.79719449999993,57.264052667000215,58.339566000000104,57.233639458666644,58.29328666699985,58.897960582999985,59.970688207999956,58.86772458366683,,56.79719449999993,61.97364337499994,56.79719449999993,61.97364337499994,62.01478654199991,62.671853917000135,56.79719449999993,1,1,1.4431116659998224,reldom2_s011,001,2025-02-05_16h35.08.197,Aud-B-Scan_AC,2022.2.5,None,
3,First_Order,1.0,audwhat,stimulus/audwhat_stim/dummy.wav,stimulus/audwhat_stim/dummy.wav,stimulus/audwhat_stim/string viola_low-pitch_Dtri_loud.wav,stimulus/audwhat_stim/percussion mallet_low-pitch_Dtri_loud.wav,stimulus/audwhat_stim/blank_white.png,stimulus/audwhat_stim/category_box.png,stimulus/audwhat_stim/category_yes.png,stimulus/audwhat_stim/category_no.png,None,Category,None,Pitch,2,0.0,0,5.125,0,5.125,0,5.125,0,0.0,0.625,0,0,0,0,0,0,0,0,0,0.0,0,0.0,1,0.5,1,2.125,0,,,,,0,3,3,3,,,,,,,,,62.928447833000064,62.928447833000064,62.928447833000064,62.928447833000064,62.928447833000064,62.928447833000064,62.928447833000064,62.928447833000064,62.846244583333494,62.928447833000064,62.928447833000064,62.928447833000064,62.846244583333494,62.928447833000064,62.928447833000064,62.928447833000064,65.04312045799998,69.06017395800018,62.928447833000064,62.928447833000064,68.09660816699989,62.928447833000064,62.928447833000064,62.928447833000064,62.928447833000064,63.397698541999944,64.43179854200025,63.3671549586668,,65.04312045799998,66.07727791700017,65.0126670836669,,62.928447833000064,68.09660816699989,62.928447833000064,68.09660816699989,68.13829012499991,68.80186270800004,62.928447833000064,2,1,0.6706889990000491,reldom2_s011,001,2025-02-05_16h35.08.197,Aud-B-Scan_AC,2022.2.5,None,
4,First_Order,1.0,audwhat,stimulus/audwhat_stim/dummy.wav,stimulus/audwhat_stim/dummy.wav,stimulus/audwhat_stim/percussion mallet_low-pitch_D_loud.wav,stimulus/audwhat_stim/percussion xylophone_high-pitch_Dtri_loud.wav,stimulus/audwhat_stim/blank_white.png,stimulus/audwhat_stim/pitch_box.png,stimulus/audwhat_stim/pitch_yes.png,stimulus/audwhat_stim/pitch_no.png,None,Pitch,None,Category,2,0.0,0,5.125,0,5.125,0,5.125,0,0.0,0.625,0,0,0,0,0,0,0,0,0,0.0,0,0.0,1,0.5,1,2.125,0,,,,,0,4,4,4,,,,,,,,,69.06017395800018,69.06017395800018,69.06017395800018,69.06017395800018,69.06017395800018,69.06017395800018,69.06017395800018,69.06017395800018,68.97661158333324,69.06017395800018,69.06017395800018,69.06017395800018,68.97661158333324,69.06017395800018,69.06017395800018,69.06017395800018,71.17256591700016,75.2018639580001,69.06017395800018,69.06017395800018,74.22023137499991,69.06017395800018,69.06017395800018,69.06017395800018,69.06017395800018,69.52967720800007,70.56432537499995,69.49906829166663,,71.17256591700016,72.20891508300019,71.14232341666663,72.20891508300019,69.06017395800018,74.22023137499991,69.06017395800018,74.22023137499991,74.26278374999993,74.92388154199989,69.06017395800018,2,1,1.0983986659998664,reldom2_s011,001,2025-02-05_16h35.08.197,Aud-B-Scan_AC,2022.2.5,None,
0,0.0,None,fixation,stimulus/audwhat_stim/blank_white.png,stimulus/audwhat_stim/blank_white.png,stimulus/audwhere_stim/blank_white.png,stimulus/audwhere_stim/blank_white.png,stimulus/audwhat_stim/blank_white.png,stimulus/audwhat_stim/blank_white.png,stimulus/audwhat_stim/blank_white.png,stimulus/audwhat_stim/blank_white.png,0.0,0.0,0.0,0.0,0,0.0,0,0.0,0,0.0,0,0.0,0,0.0,0.0,0,0,0,0,0,0,0,0,0,0.0,0,0.0,0,0.0,0,0.0,8,,,,,0,5,5,5,,,,,,,,,75.2018639580001,75.2018639580001,75.2018639580001,75.2018639580001,75.2018639580001,75.2018639580001,75.2018639580001,75.2018639580001,75.09863437533352,75.2018639580001,75.2018639580001,75.2018639580001,75.09863437533352,75.2018639580001,75.2018639580001,75.2018639580001,75.2018639580001,75.2018639580001,75.2018639580001,75.2018639580001,75.2018639580001,75.2018639580001,75.2018639580001,75.2018639580001,75.2018639580001,75.2018639580001,75.2018639580001,75.14863437533353,75.2018639580001,75.2018639580001,75.2018639580001,75.14863437533353,75.2018639580001,75.2018639580001,75.2018639580001,75.2018639580001,75.2018639580001,80.40162224999995,80.40162224999995,83.36222224999983,None,0,,reldom2_s011,001,2025-02-05_16h35.08.197,Aud-B-Scan_AC,2022.2.5,None,
5,Second_Order,1.0,audwhat,stimulus/audwhat_stim/percussion mallet_high-pitch_Dtri_loud.wav,stimulus/audwhat_stim/string cello_high-pitch_Dtri_loud.wav,stimulus/audwhat_stim/string viola_low-pitch_F_loud.wav,stimulus/audwhat_stim/percussion mallet_low-pitch_F_loud.wav,stimulus/audwhat_stim/match_blank.png,stimulus/audwhat_stim/match_box.png,stimulus/audwhat_stim/match_yes.png,stimulus/audwhat_stim/match_no.png,1.0,Match,Pitch,Pitch,1,5.125,0,5.125,0,5.125,0,5.125,0,0.75,0.75,0,0,0,0,0,0,0,0,1,0.5,1,2.125,1,0.5,1,2.125,0,,,,,0,6,6,6,,,,,,,,,83.36222224999983,88.476901,83.36222224999983,83.36222224999983,83.36222224999983,83.36222224999983,83.81611762500006,84.81442016700021,83.82873158366671,84.82259449999992,85.43836158300019,86.43455025000003,85.44948641666657,,88.476901,89.31035433299985,91.37114237500009,95.32739370799982,89.31035433299985,89.31035433299985,94.46394324999983,89.31035433299985,89.31035433299985,89.31035433299985,89.31035433299985,89.77828170800012,90.80952354200008,89.74878704166692,,91.37114237500009,92.40291912500015,91.3404949166668,,89.31035433299985,94.46394324999983,89.31035433299985,94.46394324999983,94.50589941699991,,89.31035433299985,1,1,1.307833583000047,reldom2_s011,001,2025-02-05_16h35.08.197,Aud-B-Scan_AC,2022.2.5,None,
6,Second_Order,1.0,audwhat,stimulus/audwhat_stim/percussion mallet_low-pitch_F_loud.wav,stimulus/audwhat_stim/percussion mallet_high-pitch_Dtri_loud.wav,stimulus/audwhat_stim/string viola_low-pitch_Ftri_loud.wav,stimulus/audwhat_stim/percussion mallet_low-pitch_Ftri_loud.wav,stimulus/audwhat_stim/match_blank.png,stimulus/audwhat_stim/match_box.png,stimulus/audwhat_stim/match_yes.png,stimulus/audwhat_stim/match_no.png,2.0,Match,Category,Pitch,2,5.125,0,5.125,0,5.125,0,5.125,0,0.625,0.625,0,0,0,0,0,0,0,0,1,0.5,1,2.125,1,0.5,1,2.125,0,,,,,0,7,7,7,,,,,,,,,95.32739370799982,100.4504790420001,95.32739370799982,95.32739370799982,95.32739370799982,95.32739370799982,95.77678179199984,96.77519445799999,95.78931712466671,96.7831040420001,97.41037462500026,98.39929441699996,97.41473474966666,98.41219079199982,100.4504790420001,101.1629478750001,103.26033899999993,,101.1629478750001,101.1629478750001,106.34796570800017,101.1629478750001,101.1629478750001,101.1629478750001,101.1629478750001,101.627403125,102.70162824999989,101.59702641666651,,103.26033899999993,104.33807554199984,103.23038249966682,,101.1629478750001,106.34796570800017,101.1629478750001,106.34796570800017,106.34796570800017,107.0065114580002,101.1629478750001,2,1,1.0333245830001943,reldom2_s011,001,2025-02-05_16h35.08.197,Aud-B-Scan_AC,2022.2.5,None,
0,0.0,None,fixation,stimulus/audwhat_stim/blank_white.png,stimulus/audwhat_stim/blank_white.png,stimulus/audwhere_stim/blank_white.png,stimulus/audwhere_stim/blank_white.png,stimulus/audwhat_stim/blank_white.png,stimulus/audwhat_stim/blank_white.png,stimulus/audwhat_stim/blank_white.png,stimulus/audwhat_stim/blank_white.png,0.0,0.0,0.0,0.0,0,0.0,0,0.0,0,0.0,0,0.0,0,0.0,0.0,0,0,0,0,0,0,0,0,0,0.0,0,0.0,0,0.0,0,0.0,10,,,,,0,8,8,8,,,,,,,,,107.28419854200001,107.28419854200001,107.28419854200001,107.28419854200001,107.28419854200001,107.28419854200001,107.28419854200001,107.28419854200001,107.18029762533354,107.28419854200001,107.28419854200001,107.28419854200001,107.18029762533354,107.28419854200001,107.28419854200001,107.28419854200001,107.28419854200001,107.28419854200001,107.28419854200001,107.28419854200001,107.28419854200001,107.28419854200001,107.28419854200001,107.28419854200001,107.28419854200001,107.28419854200001,107.28419854200001,107.23029762533355,107.28419854200001,107.28419854200001,107.28419854200001,107.23029762533355,107.28419854200001,107.28419854200001,107.28419854200001,107.28419854200001,107.28419854200001,112.51015741699985,112.51015741699985,117.59832295800015,None,0,,reldom2_s011,001,2025-02-05_16h35.08.197,Aud-B-Scan_AC,2022.2.5,None,
7,First_Order,2.0,audwhat,stimulus/audwhat_stim/dummy.wav,stimulus/audwhat_stim/dummy.wav,stimulus/audwhat_stim/percussion xylophone_high-pitch_F_loud.wav,stimulus/audwhat_stim/percussion mallet_low-pitch_D_loud.wav,stimulus/audwhat_stim/blank_white.png,stimulus/audwhat_stim/category_box.png,stimulus/audwhat_stim/category_yes.png,stimulus/audwhat_stim/category_no.png,None,Category,None,Category,1,0.0,0,5.125,0,5.125,0,5.125,0,0.0,0.625,0,0,0,0,0,0,0,0,0,0.0,0,0.0,1,0.5,1,2.125,0,,,,,0,9,9,9,,,,,,,,,117.59832295800015,117.59832295800015,117.59832295800015,117.59832295800015,117.59832295800015,117.59832295800015,117.59832295800015,117.59832295800015,117.51644800000004,117.59832295800015,117.59832295800015,117.59832295800015,117.51644800000004,117.59832295800015,117.59832295800015,117.59832295800015,119.67899745800014,123.7131515420001,117.59832295800015,117.59832295800015,122.74887924999985,117.59832295800015,117.59832295800015,117.59832295800015,117.59832295800015,118.0690522079999,119.11385487500002,118.0387948746668,119.11385487500002,119.67899745800014,120.72012845800009,119.64792470866657,,117.59832295800015,122.74887924999985,117.59832295800015,122.74887924999985,122.79054899999983,123.45515612500003,117.59832295800015,1,1,1.660746499999732,reldom2_s011,001,2025-02-05_16h35.08.197,Aud-B-Scan_AC,2022.2.5,None,
8,First_Order,2.0,audwhat,stimulus/audwhat_stim/dummy.wav,stimulus/audwhat_stim/dummy.wav,stimulus/audwhat_stim/percussion mallet_low-pitch_D_loud.wav,stimulus/audwhat_stim/string viola_low-pitch_D_loud.wav,stimulus/audwhat_stim/blank_white.png,stimulus/audwhat_stim/pitch_box.png,stimulus/audwhat_stim/pitch_yes.png,stimulus/audwhat_stim/pitch_no.png,None,Pitch,None,Pitch,1,0.0,0,5.125,0,5.125,0,5.125,0,0.0,0.625,0,0,0,0,0,0,0,0,0,0.0,0,0.0,1,0.5,1,2.125,0,,,,,0,10,10,10,,,,,,,,,123.7131515420001,123.7131515420001,123.7131515420001,123.7131515420001,123.7131515420001,123.7131515420001,123.7131515420001,123.7131515420001,123.63015412533343,123.7131515420001,123.7131515420001,123.7131515420001,123.63015412533343,123.7131515420001,123.7131515420001,123.7131515420001,125.78400158300019,,123.7131515420001,123.7131515420001,128.88512075000017,123.7131515420001,123.7131515420001,123.7131515420001,123.7131515420001,124.18352295800014,125.22084291700003,124.15326449966666,,125.78400158300019,126.8216004169999,125.75321583366691,,123.7131515420001,128.88512075000017,123.7131515420001,128.88512075000017,128.92682620799997,129.58840629199995,123.7131515420001,1,1,1.3124170829996729,reldom2_s011,001,2025-02-05_16h35.08.197,Aud-B-Scan_AC,2022.2.5,None,
9,First_Order,2.0,audwhat,stimulus/audwhat_stim/dummy.wav,stimulus/audwhat_stim/dummy.wav,stimulus/audwhat_stim/percussion mallet_low-pitch_D_loud.wav,stimulus/audwhat_stim/percussion mallet_high-pitch_Ftri_loud.wav,stimulus/audwhat_stim/blank_white.png,stimulus/audwhat_stim/category_box.png,stimulus/audwhat_stim/category_yes.png,stimulus/audwhat_stim/category_no.png,None,Category,None,Category,1,0.0,0,5.125,0,5.125,0,5.125,0,0.0,0.625,0,0,0,0,0,0,0,0,0,0.0,0,0.0,1,0.5,1,2.125,0,,,,,0,11,11,11,,,,,,,,,129.80650783300007,129.80650783300007,129.80650783300007,129.80650783300007,129.80650783300007,129.80650783300007,129.80650783300007,129.80650783300007,129.7217396253333,129.80650783300007,129.80650783300007,129.80650783300007,129.7217396253333,129.80650783300007,129.80650783300007,129.80650783300007,131.88608945800024,135.93194066700016,129.80650783300007,129.80650783300007,134.9661383329999,129.80650783300007,129.80650783300007,129.80650783300007,129.80650783300007,130.2796330420001,131.32005449999997,130.2475889586665,,131.88608945800024,132.9371074579999,131.85521199966686,132.88978387499992,129.80650783300007,134.9661383329999,129.80650783300007,134.9661383329999,135.00817379199998,135.67137774999992,129.80650783300007,1,1,0.8505762499999037,reldom2_s011,001,2025-02-05_16h35.08.197,Aud-B-Scan_AC,2022.2.5,None,
10,First_Order,2.0,audwhat,stimulus/audwhat_stim/dummy.wav,stimulus/audwhat_stim/dummy.wav,stimulus/audwhat_stim/string cello_high-pitch_F_loud.wav,stimulus/audwhat_stim/percussion mallet_high-pitch_F_loud.wav,stimulus/audwhat_stim/blank_white.png,stimulus/audwhat_stim/category_box.png,stimulus/audwhat_stim/category_yes.png,stimulus/audwhat_stim/category_no.png,None,Category,None,Pitch,2,0.0,0,5.125,0,5.125,0,5.125,0,0.0,0.625,0,0,0,0,0,0,0,0,0,0.0,0,0.0,1,0.5,1,2.125,0,,,,,0,12,12,12,,,,,,,,,135.93194066700016,135.93194066700016,135.93194066700016,135.93194066700016,135.93194066700016,135.93194066700016,135.93194066700016,135.93194066700016,135.84632683333317,135.93194066700016,135.93194066700016,135.93194066700016,135.84632683333317,135.93194066700016,135.93194066700016,135.93194066700016,138.01101704199982,142.0748404169999,135.93194066700016,135.93194066700016,141.08804895799994,135.93194066700016,135.93194066700016,135.93194066700016,135.93194066700016,136.40577254200025,137.44558270800007,136.37497866666652,,138.01101704199982,139.05628475000003,137.9804543336666,,135.93194066700016,141.08804895799994,135.93194066700016,141.08804895799994,141.1294875829999,141.7951580419999,135.93194066700016,2,1,1.1916696669995872,reldom2_s011,001,2025-02-05_16h35.08.197,Aud-B-Scan_AC,2022.2.5,None,
0,0.0,None,fixation,stimulus/audwhat_stim/blank_white.png,stimulus/audwhat_stim/blank_white.png,stimulus/audwhere_stim/blank_white.png,stimulus/audwhere_stim/blank_white.png,stimulus/audwhat_stim/blank_white.png,stimulus/audwhat_stim/blank_white.png,stimulus/audwhat_stim/blank_white.png,stimulus/audwhat_stim/blank_white.png,0.0,0.0,0.0,0.0,0,0.0,0,0.0,0,0.0,0,0.0,0,0.0,0.0,0,0,0,0,0,0,0,0,0,0.0,0,0.0,0,0.0,0,0.0,8,,,,,0,13,13,13,,,,,,,,,142.0748404169999,142.0748404169999,142.0748404169999,142.0748404169999,142.0748404169999,142.0748404169999,142.0748404169999,142.0748404169999,141.97022041633332,142.0748404169999,142.0748404169999,142.0748404169999,141.97022041633332,142.0748404169999,142.0748404169999,142.0748404169999,142.0748404169999,142.0748404169999,142.0748404169999,142.0748404169999,142.0748404169999,142.0748404169999,142.0748404169999,142.0748404169999,142.0748404169999,142.0748404169999,142.0748404169999,142.0202204163333,142.0748404169999,142.0748404169999,142.0748404169999,142.0202204163333,142.0748404169999,142.0748404169999,142.0748404169999,142.0748404169999,142.0748404169999,147.2986107920001,147.2986107920001,150.21765129200003,None,0,,reldom2_s011,001,2025-02-05_16h35.08.197,Aud-B-Scan_AC,2022.2.5,None,
11,Second_Order,2.0,audwhat,stimulus/audwhat_stim/string viola_high-pitch_Dtri_loud.wav,stimulus/audwhat_stim/string cello_low-pitch_D_loud.wav,stimulus/audwhat_stim/percussion mallet_high-pitch_Dtri_loud.wav,stimulus/audwhat_stim/percussion mallet_low-pitch_Ftri_loud.wav,stimulus/audwhat_stim/match_blank.png,stimulus/audwhat_stim/match_box.png,stimulus/audwhat_stim/match_yes.png,stimulus/audwhat_stim/match_no.png,1.0,Match,Category,Category,1,5.125,0,5.125,0,5.125,0,5.125,0,0.75,0.75,0,0,0,0,0,0,0,0,1,0.5,1,2.125,1,0.5,1,2.125,0,,,,,0,14,14,14,,,,,,,,,150.21765129200003,155.33163458299987,150.21765129200003,150.21765129200003,150.21765129200003,150.21765129200003,150.67046925000022,151.66867945800004,150.68293512466678,,152.2912342499999,153.2886847499999,152.30341158366653,,155.33163458299987,156.15948525000022,158.22630816699984,,156.15948525000022,156.15948525000022,161.33236404199988,156.15948525000022,156.15948525000022,156.15948525000022,156.15948525000022,156.63100404199986,157.66383141699998,156.60014591666666,,158.22630816699984,159.26458754199984,158.19626179166679,,156.15948525000022,161.33236404199988,156.15948525000022,161.33236404199988,161.374242417,,156.15948525000022,1,1,1.136520207999638,reldom2_s011,001,2025-02-05_16h35.08.197,Aud-B-Scan_AC,2022.2.5,None,
12,Second_Order,2.0,audwhat,stimulus/audwhat_stim/string viola_low-pitch_F_loud.wav,stimulus/audwhat_stim/string viola_high-pitch_Ftri_loud.wav,stimulus/audwhat_stim/percussion mallet_low-pitch_Ftri_loud.wav,stimulus/audwhat_stim/percussion xylophone_high-pitch_Dtri_loud.wav,stimulus/audwhat_stim/match_blank.png,stimulus/audwhat_stim/match_box.png,stimulus/audwhat_stim/match_yes.png,stimulus/audwhat_stim/match_no.png,1.0,Match,Category,Category,1,5.125,0,5.125,0,5.125,0,5.125,0,0.625,0.625,0,0,0,0,0,0,0,0,1,0.5,1,2.125,1,0.5,1,2.125,0,,,,,0,15,15,15,,,,,,,,,162.15863337500014,167.27562983300004,162.15863337500014,162.15863337500014,162.15863337500014,162.15863337500014,162.61461183300025,163.61260383299987,162.62694424966665,,164.235428125,165.23316324999996,164.24725708366694,,167.27562983300004,167.98922741700017,170.04945450000014,,167.98922741700017,167.98922741700017,173.15143649999982,167.98922741700017,167.98922741700017,167.98922741700017,167.98922741700017,168.45835983300003,169.48835958300015,168.42733616666672,,170.04945450000014,171.0861709579999,170.01955629166676,171.0861709579999,167.98922741700017,173.15143649999982,167.98922741700017,173.15143649999982,173.19258929199987,173.85247012499985,167.98922741700017,1,1,1.3023899579998215,reldom2_s011,001,2025-02-05_16h35.08.197,Aud-B-Scan_AC,2022.2.5,None,
0,0.0,None,fixation,stimulus/audwhat_stim/blank_white.png,stimulus/audwhat_stim/blank_white.png,stimulus/audwhere_stim/blank_white.png,stimulus/audwhere_stim/blank_white.png,stimulus/audwhat_stim/blank_white.png,stimulus/audwhat_stim/blank_white.png,stimulus/audwhat_stim/blank_white.png,stimulus/audwhat_stim/blank_white.png,0.0,0.0,0.0,0.0,0,0.0,0,0.0,0,0.0,0,0.0,0,0.0,0.0,0,0,0,0,0,0,0,0,0,0.0,0,0.0,0,0.0,0,0.0,9,,,,,0,16,16,16,,,,,,,,,174.0914701669999,174.0914701669999,174.0914701669999,174.0914701669999,174.0914701669999,174.0914701669999,174.0914701669999,174.0914701669999,173.9858034583332,174.0914701669999,174.0914701669999,174.0914701669999,173.9858034583332,174.0914701669999,174.0914701669999,174.0914701669999,174.0914701669999,174.0914701669999,174.0914701669999,174.0914701669999,174.0914701669999,174.0914701669999,174.0914701669999,174.0914701669999,174.0914701669999,174.0914701669999,174.0914701669999,174.05247012499987,174.0914701669999,174.0914701669999,174.0914701669999,174.05247012499987,174.0914701669999,174.0914701669999,174.0914701669999,174.0914701669999,174.0914701669999,179.2810254169999,179.2810254169999,183.32304487500005,None,0,,reldom2_s011,001,2025-02-05_16h35.08.197,Aud-B-Scan_AC,2022.2.5,None,
13,First_Order,3.0,audwhere,stimulus/audwhere_stim/dummy.wav,stimulus/audwhere_stim/dummy.wav,stimulus/audwhere_stim/left_toward_290h.wav,stimulus/audwhere_stim/right_toward_280h.wav,stimulus/audwhere_stim/blank_white.png,stimulus/audwhere_stim/direction_box.png,stimulus/audwhere_stim/direction_yes.png,stimulus/audwhere_stim/direction_no.png,None,Direction,None,Direction,1,0.0,0,5.125,0,5.125,0,5.125,0,0.0,0.625,0,0,0,0,0,0,0,0,0,0.0,0,0.0,1,0.5,1,2.125,0,,,,,0,17,17,17,,,,,,,,,183.32304487500005,183.32304487500005,183.32304487500005,183.32304487500005,183.32304487500005,183.32304487500005,183.32304487500005,183.32304487500005,183.2466985836665,183.32304487500005,183.32304487500005,183.32304487500005,183.2466985836665,183.32304487500005,183.32304487500005,183.32304487500005,185.4095554999999,189.45112287500024,183.32304487500005,183.32304487500005,188.48761879199992,183.32304487500005,183.32304487500005,183.32304487500005,183.32304487500005,183.79773587499994,184.84263920800004,183.7669848336666,,185.4095554999999,186.45263958299984,185.37910391666654,,183.32304487500005,188.48761879199992,183.32304487500005,188.48761879199992,188.5289092920002,189.1930695420001,183.32304487500005,1,1,1.2500060000002122,reldom2_s011,001,2025-02-05_16h35.08.197,Aud-B-Scan_AC,2022.2.5,None,
14,First_Order,3.0,audwhere,stimulus/audwhere_stim/dummy.wav,stimulus/audwhere_stim/dummy.wav,stimulus/audwhere_stim/left_toward_270h.wav,stimulus/audwhere_stim/right_toward_290h.wav,stimulus/audwhere_stim/blank_white.png,stimulus/audwhere_stim/direction_box.png,stimulus/audwhere_stim/direction_yes.png,stimulus/audwhere_stim/direction_no.png,None,Direction,None,Direction,1,0.0,0,5.125,0,5.125,0,5.125,0,0.0,0.625,0,0,0,0,0,0,0,0,0,0.0,0,0.0,1,0.5,1,2.125,0,,,,,0,18,18,18,,,,,,,,,189.45112287500024,189.45112287500024,189.45112287500024,189.45112287500024,189.45112287500024,189.45112287500024,189.45112287500024,189.45112287500024,189.36801841633329,189.45112287500024,189.45112287500024,189.45112287500024,189.36801841633329,189.45112287500024,189.45112287500024,189.45112287500024,191.53523362499982,195.5835635829999,189.45112287500024,189.45112287500024,194.61325387499983,189.45112287500024,189.45112287500024,189.45112287500024,189.45112287500024,189.92365629200003,190.9683204580001,189.89267137466666,,191.53523362499982,192.58186183299995,191.50423520866687,,189.45112287500024,194.61325387499983,189.45112287500024,194.61325387499983,194.65448612499995,195.32172495800023,189.45112287500024,1,1,0.9745005830000082,reldom2_s011,001,2025-02-05_16h35.08.197,Aud-B-Scan_AC,2022.2.5,None,
15,First_Order,3.0,audwhere,stimulus/audwhere_stim/dummy.wav,stimulus/audwhere_stim/dummy.wav,stimulus/audwhere_stim/left_away_290h.wav,stimulus/audwhere_stim/left_toward_280h.wav,stimulus/audwhere_stim/blank_white.png,stimulus/audwhere_stim/direction_box.png,stimulus/audwhere_stim/direction_yes.png,stimulus/audwhere_stim/direction_no.png,None,Direction,None,Side,2,0.0,0,5.125,0,5.125,0,5.125,0,0.0,0.625,0,0,0,0,0,0,0,0,0,0.0,0,0.0,1,0.5,1,2.125,0,,,,,0,19,19,19,,,,,,,,,195.5835635829999,195.5835635829999,195.5835635829999,195.5835635829999,195.5835635829999,195.5835635829999,195.5835635829999,195.5835635829999,195.4963050413336,195.5835635829999,195.5835635829999,195.5835635829999,195.4963050413336,195.5835635829999,195.5835635829999,195.5835635829999,197.6686226669999,201.71616700000004,195.5835635829999,195.5835635829999,200.75177458300004,195.5835635829999,195.5835635829999,195.5835635829999,195.5835635829999,196.05711683300024,197.10068079199982,196.02626170866668,,197.6686226669999,198.714619417,197.63789162466654,,195.5835635829999,200.75177458300004,195.5835635829999,200.75177458300004,200.79363391700008,201.45707087500023,195.5835635829999,2,1,1.3752957079996122,reldom2_s011,001,2025-02-05_16h35.08.197,Aud-B-Scan_AC,2022.2.5,None,
16,First_Order,3.0,audwhere,stimulus/audwhere_stim/dummy.wav,stimulus/audwhere_stim/dummy.wav,stimulus/audwhere_stim/left_toward_300h.wav,stimulus/audwhere_stim/left_away_290h.wav,stimulus/audwhere_stim/blank_white.png,stimulus/audwhere_stim/direction_box.png,stimulus/audwhere_stim/direction_yes.png,stimulus/audwhere_stim/direction_no.png,None,Direction,None,Side,2,0.0,0,5.125,0,5.125,0,5.125,0,0.0,0.625,0,0,0,0,0,0,0,0,0,0.0,0,0.0,1,0.5,1,2.125,0,,,,,0,20,20,20,,,,,,,,,201.71616700000004,201.71616700000004,201.71616700000004,201.71616700000004,201.71616700000004,201.71616700000004,201.71616700000004,201.71616700000004,201.6321358753336,201.71616700000004,201.71616700000004,201.71616700000004,201.6321358753336,201.71616700000004,201.71616700000004,201.71616700000004,203.80053662499995,,201.71616700000004,201.71616700000004,206.8828611250001,201.71616700000004,201.71616700000004,201.71616700000004,201.71616700000004,202.19250779200001,203.23375658299983,202.1615683746666,,203.80053662499995,204.84615345800012,203.76956995866684,,201.71616700000004,206.8828611250001,201.71616700000004,206.8828611250001,206.92455437499984,207.59053674999996,201.71616700000004,2,1,1.504044416999477,reldom2_s011,001,2025-02-05_16h35.08.197,Aud-B-Scan_AC,2022.2.5,None,
0,0.0,None,fixation,stimulus/audwhat_stim/blank_white.png,stimulus/audwhat_stim/blank_white.png,stimulus/audwhere_stim/blank_white.png,stimulus/audwhere_stim/blank_white.png,stimulus/audwhat_stim/blank_white.png,stimulus/audwhat_stim/blank_white.png,stimulus/audwhat_stim/blank_white.png,stimulus/audwhat_stim/blank_white.png,0.0,0.0,0.0,0.0,0,0.0,0,0.0,0,0.0,0,0.0,0,0.0,0.0,0,0,0,0,0,0,0,0,0,0.0,0,0.0,0,0.0,0,0.0,10,,,,,0,21,21,21,,,,,,,,,207.8296311250001,207.8296311250001,207.8296311250001,207.8296311250001,207.8296311250001,207.8296311250001,207.8296311250001,207.8296311250001,207.7238700833333,207.8296311250001,207.8296311250001,207.8296311250001,207.7238700833333,207.8296311250001,207.8296311250001,207.8296311250001,207.8296311250001,207.8296311250001,207.8296311250001,207.8296311250001,207.8296311250001,207.8296311250001,207.8296311250001,207.8296311250001,207.8296311250001,207.8296311250001,207.8296311250001,207.7738700833333,207.8296311250001,207.8296311250001,207.8296311250001,207.7738700833333,207.8296311250001,207.8296311250001,207.8296311250001,207.8296311250001,207.8296311250001,213.05633100000023,213.05633100000023,217.98840525000014,None,0,,reldom2_s011,001,2025-02-05_16h35.08.197,Aud-B-Scan_AC,2022.2.5,None,
17,Second_Order,3.0,audwhere,stimulus/audwhere_stim/right_toward_290h.wav,stimulus/audwhere_stim/right_away_290h.wav,stimulus/audwhere_stim/right_away_280h.wav,stimulus/audwhere_stim/left_away_300h.wav,stimulus/audwhat_stim/match_blank.png,stimulus/audwhat_stim/match_box.png,stimulus/audwhat_stim/match_yes.png,stimulus/audwhat_stim/match_no.png,2.0,Match,Side,Direction,2,5.125,0,5.125,0,5.125,0,5.125,0,0.75,0.75,0,0,0,0,0,0,0,0,1,0.5,1,2.125,1,0.5,1,2.125,0,,,,,0,22,22,22,,,,,,,,,217.98840525000014,223.1043312500001,217.98840525000014,217.98840525000014,217.98840525000014,217.98840525000014,218.44348012499995,219.44140125000013,218.4557604586669,219.4491653330001,220.06408195799986,221.06229254200025,220.07635945866676,221.0789003330001,223.1043312500001,223.93616199999997,226.0093703749999,,223.93616199999997,223.93616199999997,229.11923316699995,223.93616199999997,223.93616199999997,223.93616199999997,223.93616199999997,224.40917450000006,225.44523120800022,224.3789028746667,,226.0093703749999,227.05084416699992,225.97850954166668,,223.93616199999997,229.11923316699995,223.93616199999997,229.11923316699995,229.11923316699995,,223.93616199999997,2,1,0.6091962079999576,reldom2_s011,001,2025-02-05_16h35.08.197,Aud-B-Scan_AC,2022.2.5,None,
18,Second_Order,3.0,audwhere,stimulus/audwhere_stim/right_toward_270h.wav,stimulus/audwhere_stim/left_toward_270h.wav,stimulus/audwhere_stim/right_away_300h.wav,stimulus/audwhere_stim/left_away_280h.wav,stimulus/audwhat_stim/match_blank.png,stimulus/audwhat_stim/match_box.png,stimulus/audwhat_stim/match_yes.png,stimulus/audwhat_stim/match_no.png,1.0,Match,Direction,Direction,1,5.125,0,5.125,0,5.125,0,5.125,0,0.625,0.625,0,0,0,0,0,0,0,0,1,0.5,1,2.125,1,0.5,1,2.125,0,,,,,0,23,23,23,,,,,,,,,229.94032429200024,235.06103050000002,229.94032429200024,229.94032429200024,229.94032429200024,229.94032429200024,230.399713625,231.39360124999985,230.4032589166666,231.39360124999985,232.02493383299998,233.02268924999998,232.0370972086669,233.03052308299993,235.06103050000002,235.776975708,237.8396715419999,,235.776975708,235.776975708,240.94336279200024,235.776975708,235.776975708,235.776975708,235.776975708,236.24598862499988,237.277410875,236.21426833366675,,237.8396715419999,238.8774424170001,237.80883104166676,,235.776975708,240.94336279200024,235.776975708,240.94336279200024,240.98487675000024,241.64836408300016,235.776975708,1,1,2.9517426249999517,reldom2_s011,001,2025-02-05_16h35.08.197,Aud-B-Scan_AC,2022.2.5,None,
0,0.0,None,fixation,stimulus/audwhat_stim/blank_white.png,stimulus/audwhat_stim/blank_white.png,stimulus/audwhere_stim/blank_white.png,stimulus/audwhere_stim/blank_white.png,stimulus/audwhat_stim/blank_white.png,stimulus/audwhat_stim/blank_white.png,stimulus/audwhat_stim/blank_white.png,stimulus/audwhat_stim/blank_white.png,0.0,0.0,0.0,0.0,0,0.0,0,0.0,0,0.0,0,0.0,0,0.0,0.0,0,0,0,0,0,0,0,0,0,0.0,0,0.0,0,0.0,0,0.0,8,,,,,0,24,24,24,,,,,,,,,241.88623870799984,241.88623870799984,241.88623870799984,241.88623870799984,241.88623870799984,241.88623870799984,241.88623870799984,241.88623870799984,241.78169741633351,241.88623870799984,241.88623870799984,241.88623870799984,241.78169741633351,241.88623870799984,241.88623870799984,241.88623870799984,241.88623870799984,241.88623870799984,241.88623870799984,241.88623870799984,241.88623870799984,241.88623870799984,241.88623870799984,241.88623870799984,241.88623870799984,241.88623870799984,241.88623870799984,241.8316974163335,241.88623870799984,241.88623870799984,241.88623870799984,241.8316974163335,241.88623870799984,241.88623870799984,241.88623870799984,241.88623870799984,241.88623870799984,247.07814179200022,247.07814179200022,250.13961699999982,None,0,,reldom2_s011,001,2025-02-05_16h35.08.197,Aud-B-Scan_AC,2022.2.5,None,
19,First_Order,4.0,audwhere,stimulus/audwhere_stim/dummy.wav,stimulus/audwhere_stim/dummy.wav,stimulus/audwhere_stim/right_toward_280h.wav,stimulus/audwhere_stim/left_toward_280h.wav,stimulus/audwhere_stim/blank_white.png,stimulus/audwhere_stim/side_box.png,stimulus/audwhere_stim/side_yes.png,stimulus/audwhere_stim/side_no.png,None,Side,None,Direction,2,0.0,0,5.125,0,5.125,0,5.125,0,0.0,0.625,0,0,0,0,0,0,0,0,0,0.0,0,0.0,1,0.5,1,2.125,0,,,,,0,25,25,25,,,,,,,,,250.13961699999982,250.13961699999982,250.13961699999982,250.13961699999982,250.13961699999982,250.13961699999982,250.13961699999982,250.13961699999982,250.0625782916665,250.13961699999982,250.13961699999982,250.13961699999982,250.0625782916665,250.13961699999982,250.13961699999982,250.13961699999982,252.2123754170002,,250.13961699999982,250.13961699999982,255.31802237500006,250.13961699999982,250.13961699999982,250.13961699999982,250.13961699999982,250.61226879200012,251.64796716699993,250.58164999966655,,252.2123754170002,253.25047225000026,252.18160974966693,,250.13961699999982,255.31802237500006,250.13961699999982,255.31802237500006,255.35965245800026,256.022863833,250.13961699999982,2,1,0.9321302489997834,reldom2_s011,001,2025-02-05_16h35.08.197,Aud-B-Scan_AC,2022.2.5,None,
20,First_Order,4.0,audwhere,stimulus/audwhere_stim/dummy.wav,stimulus/audwhere_stim/dummy.wav,stimulus/audwhere_stim/left_toward_290h.wav,stimulus/audwhere_stim/right_toward_270h.wav,stimulus/audwhere_stim/blank_white.png,stimulus/audwhere_stim/side_box.png,stimulus/audwhere_stim/side_yes.png,stimulus/audwhere_stim/side_no.png,None,Side,None,Direction,2,0.0,0,5.125,0,5.125,0,5.125,0,0.0,0.625,0,0,0,0,0,0,0,0,0,0.0,0,0.0,1,0.5,1,2.125,0,,,,,0,26,26,26,,,,,,,,,256.2424247499998,256.2424247499998,256.2424247499998,256.2424247499998,256.2424247499998,256.2424247499998,256.2424247499998,256.2424247499998,256.1561971663333,256.2424247499998,256.2424247499998,256.2424247499998,256.1561971663333,256.2424247499998,256.2424247499998,256.2424247499998,258.314791667,,256.2424247499998,256.2424247499998,261.4224362499999,256.2424247499998,256.2424247499998,256.2424247499998,256.2424247499998,256.7145893329998,257.74931587499987,256.6836095836668,,258.314791667,259.3521130419999,258.28424041666653,,256.2424247499998,261.4224362499999,256.2424247499998,261.4224362499999,261.46421787500003,262.12850908300015,256.2424247499998,2,1,1.3562557909999668,reldom2_s011,001,2025-02-05_16h35.08.197,Aud-B-Scan_AC,2022.2.5,None,
21,First_Order,4.0,audwhere,stimulus/audwhere_stim/dummy.wav,stimulus/audwhere_stim/dummy.wav,stimulus/audwhere_stim/left_toward_270h.wav,stimulus/audwhere_stim/left_away_300h.wav,stimulus/audwhere_stim/blank_white.png,stimulus/audwhere_stim/side_box.png,stimulus/audwhere_stim/side_yes.png,stimulus/audwhere_stim/side_no.png,None,Side,None,Side,1,0.0,0,5.125,0,5.125,0,5.125,0,0.0,0.625,0,0,0,0,0,0,0,0,0,0.0,0,0.0,1,0.5,1,2.125,0,,,,,0,27,27,27,,,,,,,,,262.346225708,262.346225708,262.346225708,262.346225708,262.346225708,262.346225708,262.346225708,262.346225708,262.2618424163335,262.346225708,262.346225708,262.346225708,262.2618424163335,262.346225708,262.346225708,262.346225708,264.4190065829998,,262.346225708,262.346225708,267.5286920419999,262.346225708,262.346225708,262.346225708,262.346225708,262.816919333,263.8522673749999,262.78631316666656,,264.4190065829998,265.45881687500014,264.3882739166668,,262.346225708,267.5286920419999,262.346225708,267.5286920419999,267.57027133300016,268.2344544580001,262.346225708,1,1,1.3406665419997807,reldom2_s011,001,2025-02-05_16h35.08.197,Aud-B-Scan_AC,2022.2.5,None,
22,First_Order,4.0,audwhere,stimulus/audwhere_stim/dummy.wav,stimulus/audwhere_stim/dummy.wav,stimulus/audwhere_stim/left_away_290h.wav,stimulus/audwhere_stim/left_toward_270h.wav,stimulus/audwhere_stim/blank_white.png,stimulus/audwhere_stim/side_box.png,stimulus/audwhere_stim/side_yes.png,stimulus/audwhere_stim/side_no.png,None,Side,None,Side,1,0.0,0,5.125,0,5.125,0,5.125,0,0.0,0.625,0,0,0,0,0,0,0,0,0,0.0,0,0.0,1,0.5,1,2.125,0,,,,,0,28,28,28,,,,,,,,,268.4512584170002,268.4512584170002,268.4512584170002,268.4512584170002,268.4512584170002,268.4512584170002,268.4512584170002,268.4512584170002,268.3677877913334,268.4512584170002,268.4512584170002,268.4512584170002,268.3677877913334,268.4512584170002,268.4512584170002,268.4512584170002,270.5259720419999,,268.4512584170002,268.4512584170002,273.6366268329998,268.4512584170002,268.4512584170002,268.4512584170002,268.4512584170002,268.92326008300006,269.960067083,268.89266849966657,,270.5259720419999,271.5646790420001,270.4954817086666,,268.4512584170002,273.6366268329998,268.4512584170002,273.6366268329998,273.6785796670001,274.34559975,268.4512584170002,1,1,1.495392124999853,reldom2_s011,001,2025-02-05_16h35.08.197,Aud-B-Scan_AC,2022.2.5,None,
0,0.0,None,fixation,stimulus/audwhat_stim/blank_white.png,stimulus/audwhat_stim/blank_white.png,stimulus/audwhere_stim/blank_white.png,stimulus/audwhere_stim/blank_white.png,stimulus/audwhat_stim/blank_white.png,stimulus/audwhat_stim/blank_white.png,stimulus/audwhat_stim/blank_white.png,stimulus/audwhat_stim/blank_white.png,0.0,0.0,0.0,0.0,0,0.0,0,0.0,0,0.0,0,0.0,0,0.0,0.0,0,0,0,0,0,0,0,0,0,0.0,0,0.0,0,0.0,0,0.0,10,,,,,0,29,29,29,,,,,,,,,274.5837204170002,274.5837204170002,274.5837204170002,274.5837204170002,274.5837204170002,274.5837204170002,274.5837204170002,274.5837204170002,274.47893308333335,274.5837204170002,274.5837204170002,274.5837204170002,274.47893308333335,274.5837204170002,274.5837204170002,274.5837204170002,274.5837204170002,274.5837204170002,274.5837204170002,274.5837204170002,274.5837204170002,274.5837204170002,274.5837204170002,274.5837204170002,274.5837204170002,274.5837204170002,274.5837204170002,274.52893308333336,274.5837204170002,274.5837204170002,274.5837204170002,274.52893308333336,274.5837204170002,274.5837204170002,274.5837204170002,274.5837204170002,274.5837204170002,279.8054810419999,279.8054810419999,284.74206516699996,None,0,,reldom2_s011,001,2025-02-05_16h35.08.197,Aud-B-Scan_AC,2022.2.5,None,
23,Second_Order,4.0,audwhere,stimulus/audwhere_stim/right_toward_300h.wav,stimulus/audwhere_stim/left_toward_270h.wav,stimulus/audwhere_stim/left_away_300h.wav,stimulus/audwhere_stim/right_away_300h.wav,stimulus/audwhat_stim/match_blank.png,stimulus/audwhat_stim/match_box.png,stimulus/audwhat_stim/match_yes.png,stimulus/audwhat_stim/match_no.png,1.0,Match,Direction,Direction,1,5.125,0,5.125,0,5.125,0,5.125,0,0.75,0.75,0,0,0,0,0,0,0,0,1,0.5,1,2.125,1,0.5,1,2.125,0,,,,,0,30,30,30,,,,,,,,,284.74206516699996,289.8585512499999,284.74206516699996,284.74206516699996,284.74206516699996,284.74206516699996,285.197444208,286.1951521249998,285.20990408366674,286.20282700000007,286.81943716700016,287.8158867080001,286.83035549966667,287.82396775000007,289.8585512499999,290.69049437500007,292.7645968749998,296.69864362499993,290.69049437500007,290.69049437500007,295.87071700000024,290.69049437500007,290.69049437500007,290.69049437500007,290.69049437500007,291.16065824999987,292.1970284170002,291.13010608366653,,292.7645968749998,293.801889542,292.7338905836666,,290.69049437500007,295.87071700000024,290.69049437500007,295.87071700000024,295.87071700000024,,290.69049437500007,1,1,1.4402839579997817,reldom2_s011,001,2025-02-05_16h35.08.197,Aud-B-Scan_AC,2022.2.5,None,
24,Second_Order,4.0,audwhere,stimulus/audwhere_stim/right_toward_300h.wav,stimulus/audwhere_stim/left_toward_300h.wav,stimulus/audwhere_stim/left_away_290h.wav,stimulus/audwhere_stim/right_away_280h.wav,stimulus/audwhat_stim/match_blank.png,stimulus/audwhat_stim/match_box.png,stimulus/audwhat_stim/match_yes.png,stimulus/audwhat_stim/match_no.png,1.0,Match,Direction,Direction,1,5.125,0,5.125,0,5.125,0,5.125,0,0.625,0.625,0,0,0,0,0,0,0,0,1,0.5,1,2.125,1,0.5,1,2.125,0,,,,,0,31,31,31,,,,,,,,,296.69864362499993,301.8196709580002,296.69864362499993,296.69864362499993,296.69864362499993,296.69864362499993,297.15820566699995,298.1565505829999,297.1705619996667,298.1649581669999,298.77928554200025,299.7770626669999,298.7910517086668,299.78509533299984,301.8196709580002,302.52705187499987,304.59360566700025,,302.52705187499987,302.52705187499987,307.6964022080001,302.52705187499987,302.52705187499987,302.52705187499987,302.52705187499987,302.9941429999999,304.02870333300007,302.96420387466674,,304.59360566700025,305.62833816700004,304.56336633366686,,302.52705187499987,307.6964022080001,302.52705187499987,307.6964022080001,307.7377902920002,308.39896983300014,302.52705187499987,1,1,1.368902000000162,reldom2_s011,001,2025-02-05_16h35.08.197,Aud-B-Scan_AC,2022.2.5,None,
0,0.0,None,fixation,stimulus/audwhat_stim/blank_white.png,stimulus/audwhat_stim/blank_white.png,stimulus/audwhere_stim/blank_white.png,stimulus/audwhere_stim/blank_white.png,stimulus/audwhat_stim/blank_white.png,stimulus/audwhat_stim/blank_white.png,stimulus/audwhat_stim/blank_white.png,stimulus/audwhat_stim/blank_white.png,0.0,0.0,0.0,0.0,0,0.0,0,0.0,0,0.0,0,0.0,0,0.0,0.0,0,0,0,0,0,0,0,0,0,0.0,0,0.0,0,0.0,0,0.0,9,,,,,0,32,32,32,,,,,,,,,308.63957362500014,308.63957362500014,308.63957362500014,308.63957362500014,308.63957362500014,308.63957362500014,308.63957362500014,308.63957362500014,308.53230316633346,308.63957362500014,308.63957362500014,308.63957362500014,308.53230316633346,308.63957362500014,308.63957362500014,308.63957362500014,308.63957362500014,308.63957362500014,308.63957362500014,308.63957362500014,308.63957362500014,308.63957362500014,308.63957362500014,308.63957362500014,308.63957362500014,308.63957362500014,308.63957362500014,308.5989698330001,308.63957362500014,308.63957362500014,308.63957362500014,308.5989698330001,308.63957362500014,308.63957362500014,308.63957362500014,308.63957362500014,308.63957362500014,313.8363676250001,313.8363676250001,317.88030037499993,None,0,,reldom2_s011,001,2025-02-05_16h35.08.197,Aud-B-Scan_AC,2022.2.5,None,
25,First_Order,5.0,audwhat,stimulus/audwhat_stim/dummy.wav,stimulus/audwhat_stim/dummy.wav,stimulus/audwhat_stim/percussion xylophone_high-pitch_Ftri_loud.wav,stimulus/audwhat_stim/percussion mallet_low-pitch_F_loud.wav,stimulus/audwhat_stim/blank_white.png,stimulus/audwhat_stim/pitch_box.png,stimulus/audwhat_stim/pitch_yes.png,stimulus/audwhat_stim/pitch_no.png,None,Pitch,None,Category,2,0.0,0,5.125,0,5.125,0,5.125,0,0.0,0.625,0,0,0,0,0,0,0,0,0,0.0,0,0.0,1,0.5,1,2.125,0,,,,,0,33,33,33,,,,,,,,,317.88030037499993,317.88030037499993,317.88030037499993,317.88030037499993,317.88030037499993,317.88030037499993,317.88030037499993,317.88030037499993,317.80206312466646,317.88030037499993,317.88030037499993,317.88030037499993,317.80206312466646,317.88030037499993,317.88030037499993,317.88030037499993,319.95948079200025,,317.88030037499993,317.88030037499993,323.0688547919999,317.88030037499993,317.88030037499993,317.88030037499993,317.88030037499993,318.35398187500004,319.39546387500013,318.3232003336668,319.39546387500013,319.95948079200025,320.99964920799994,319.9291364996668,,317.88030037499993,323.0688547919999,317.88030037499993,323.0688547919999,323.0688547919999,323.7320167080002,317.88030037499993,2,1,0.8776886249997915,reldom2_s011,001,2025-02-05_16h35.08.197,Aud-B-Scan_AC,2022.2.5,None,
26,First_Order,5.0,audwhat,stimulus/audwhat_stim/dummy.wav,stimulus/audwhat_stim/dummy.wav,stimulus/audwhat_stim/percussion mallet_low-pitch_Dtri_loud.wav,stimulus/audwhat_stim/percussion xylophone_high-pitch_Ftri_loud.wav,stimulus/audwhat_stim/blank_white.png,stimulus/audwhat_stim/category_box.png,stimulus/audwhat_stim/category_yes.png,stimulus/audwhat_stim/category_no.png,None,Category,None,Category,1,0.0,0,5.125,0,5.125,0,5.125,0,0.0,0.625,0,0,0,0,0,0,0,0,0,0.0,0,0.0,1,0.5,1,2.125,0,,,,,0,34,34,34,,,,,,,,,323.9954378749999,323.9954378749999,323.9954378749999,323.9954378749999,323.9954378749999,323.9954378749999,323.9954378749999,323.9954378749999,323.9069679583332,323.9954378749999,323.9954378749999,323.9954378749999,323.9069679583332,323.9954378749999,323.9954378749999,323.9954378749999,326.0815795419999,,323.9954378749999,323.9954378749999,329.16592437500003,323.9954378749999,323.9954378749999,323.9954378749999,323.9954378749999,324.472169917,325.513954042,324.44133095866687,,326.0815795419999,327.1336569169998,326.0505619996668,327.0860576250002,323.9954378749999,329.16592437500003,323.9954378749999,329.16592437500003,329.2079323329999,329.87398362500016,323.9954378749999,1,1,0.8307447909996881,reldom2_s011,001,2025-02-05_16h35.08.197,Aud-B-Scan_AC,2022.2.5,None,
27,First_Order,5.0,audwhat,stimulus/audwhat_stim/dummy.wav,stimulus/audwhat_stim/dummy.wav,stimulus/audwhat_stim/string cello_low-pitch_Dtri_loud.wav,stimulus/audwhat_stim/percussion mallet_low-pitch_Dtri_loud.wav,stimulus/audwhat_stim/blank_white.png,stimulus/audwhat_stim/pitch_box.png,stimulus/audwhat_stim/pitch_yes.png,stimulus/audwhat_stim/pitch_no.png,None,Pitch,None,Pitch,1,0.0,0,5.125,0,5.125,0,5.125,0,0.0,0.625,0,0,0,0,0,0,0,0,0,0.0,0,0.0,1,0.5,1,2.125,0,,,,,0,35,35,35,,,,,,,,,330.0918030419998,330.0918030419998,330.0918030419998,330.0918030419998,330.0918030419998,330.0918030419998,330.0918030419998,330.0918030419998,330.0073169583335,330.0918030419998,330.0918030419998,330.0918030419998,330.0073169583335,330.0918030419998,330.0918030419998,330.0918030419998,332.16537237500006,,330.0918030419998,330.0918030419998,335.28128637500004,330.0918030419998,330.0918030419998,330.0918030419998,330.0918030419998,330.5647261250001,331.60087999999996,330.5340531246668,,332.16537237500006,333.209387333,332.1346183336666,,330.0918030419998,335.28128637500004,330.0918030419998,335.28128637500004,335.28128637500004,335.9459634579998,330.0918030419998,1,1,2.1760941249999632,reldom2_s011,001,2025-02-05_16h35.08.197,Aud-B-Scan_AC,2022.2.5,None,
28,First_Order,5.0,audwhat,stimulus/audwhat_stim/dummy.wav,stimulus/audwhat_stim/dummy.wav,stimulus/audwhat_stim/percussion xylophone_high-pitch_Ftri_loud.wav,stimulus/audwhat_stim/percussion mallet_low-pitch_F_loud.wav,stimulus/audwhat_stim/blank_white.png,stimulus/audwhat_stim/category_box.png,stimulus/audwhat_stim/category_yes.png,stimulus/audwhat_stim/category_no.png,None,Category,None,Category,1,0.0,0,5.125,0,5.125,0,5.125,0,0.0,0.625,0,0,0,0,0,0,0,0,0,0.0,0,0.0,1,0.5,1,2.125,0,,,,,0,36,36,36,,,,,,,,,336.2094757499999,336.2094757499999,336.2094757499999,336.2094757499999,336.2094757499999,336.2094757499999,336.2094757499999,336.2094757499999,336.1209202913334,336.2094757499999,336.2094757499999,336.2094757499999,336.1209202913334,336.2094757499999,336.2094757499999,336.2094757499999,338.300213125,,336.2094757499999,336.2094757499999,341.38077354200004,336.2094757499999,336.2094757499999,336.2094757499999,336.2094757499999,336.68692712500024,337.7300209169998,336.65574216666687,337.7300209169998,338.300213125,339.34544562500014,338.2685228746666,,336.2094757499999,341.38077354200004,336.2094757499999,341.38077354200004,341.4227768750002,342.08952929199995,336.2094757499999,1,1,1.7859431249999034,reldom2_s011,001,2025-02-05_16h35.08.197,Aud-B-Scan_AC,2022.2.5,None,
0,0.0,None,fixation,stimulus/audwhat_stim/blank_white.png,stimulus/audwhat_stim/blank_white.png,stimulus/audwhere_stim/blank_white.png,stimulus/audwhere_stim/blank_white.png,stimulus/audwhat_stim/blank_white.png,stimulus/audwhat_stim/blank_white.png,stimulus/audwhat_stim/blank_white.png,stimulus/audwhat_stim/blank_white.png,0.0,0.0,0.0,0.0,0,0.0,0,0.0,0,0.0,0,0.0,0,0.0,0.0,0,0,0,0,0,0,0,0,0,0.0,0,0.0,0,0.0,0,0.0,8,,,,,0,37,37,37,,,,,,,,,342.335621917,342.335621917,342.335621917,342.335621917,342.335621917,342.335621917,342.335621917,342.335621917,342.2228626253333,342.335621917,342.335621917,342.335621917,342.2228626253333,342.335621917,342.335621917,342.335621917,342.335621917,342.335621917,342.335621917,342.335621917,342.335621917,342.335621917,342.335621917,342.335621917,342.335621917,342.335621917,342.335621917,342.28952929199994,342.335621917,342.335621917,342.335621917,342.28952929199994,342.335621917,342.335621917,342.335621917,342.335621917,342.335621917,347.562191,347.562191,350.48817854200024,None,0,,reldom2_s011,001,2025-02-05_16h35.08.197,Aud-B-Scan_AC,2022.2.5,None,
29,Second_Order,5.0,audwhat,stimulus/audwhat_stim/string viola_low-pitch_Dtri_loud.wav,stimulus/audwhat_stim/percussion mallet_low-pitch_Dtri_loud.wav,stimulus/audwhat_stim/string viola_low-pitch_Dtri_loud.wav,stimulus/audwhat_stim/string cello_high-pitch_Ftri_loud.wav,stimulus/audwhat_stim/match_blank.png,stimulus/audwhat_stim/match_box.png,stimulus/audwhat_stim/match_yes.png,stimulus/audwhat_stim/match_no.png,2.0,Match,Pitch,Category,2,5.125,0,5.125,0,5.125,0,5.125,0,0.75,0.75,0,0,0,0,0,0,0,0,1,0.5,1,2.125,1,0.5,1,2.125,0,,,,,0,38,38,38,,,,,,,,,350.48817854200024,355.61157041700017,350.48817854200024,350.48817854200024,350.48817854200024,350.48817854200024,350.9445022499999,351.9341745830002,350.9479728746667,,352.56944762500007,353.56752941700006,352.58201366666685,353.57565512500014,355.61157041700017,356.45577845800017,358.52969737500007,362.46887970800026,356.45577845800017,356.45577845800017,361.64092725,356.45577845800017,356.45577845800017,356.45577845800017,356.45577845800017,356.9273642920002,357.96370104200014,356.8972575416667,,358.52969737500007,359.5683187079999,358.4990272496668,,356.45577845800017,361.64092725,356.45577845800017,361.64092725,361.64092725,,356.45577845800017,2,1,1.2394907499997316,reldom2_s011,001,2025-02-05_16h35.08.197,Aud-B-Scan_AC,2022.2.5,None,
30,Second_Order,5.0,audwhat,stimulus/audwhat_stim/string viola_high-pitch_Ftri_loud.wav,stimulus/audwhat_stim/percussion xylophone_high-pitch_Ftri_loud.wav,stimulus/audwhat_stim/string viola_low-pitch_D_loud.wav,stimulus/audwhat_stim/percussion mallet_low-pitch_D_loud.wav,stimulus/audwhat_stim/match_blank.png,stimulus/audwhat_stim/match_box.png,stimulus/audwhat_stim/match_yes.png,stimulus/audwhat_stim/match_no.png,1.0,Match,Pitch,Pitch,1,5.125,0,5.125,0,5.125,0,5.125,0,0.625,0.625,0,0,0,0,0,0,0,0,1,0.5,1,2.125,1,0.5,1,2.125,0,,,,,0,39,39,39,,,,,,,,,362.46887970800026,367.58793400000013,362.46887970800026,362.46887970800026,362.46887970800026,362.46887970800026,362.9269087920002,363.9244618329999,362.93937104166685,,364.54750241700003,365.5450057920002,364.5594887916666,365.553095792,367.58793400000013,368.3003718750001,370.3744565000002,374.430999875,368.3003718750001,368.3003718750001,373.4867139580001,368.3003718750001,368.3003718750001,368.3003718750001,368.3003718750001,368.7720549579999,369.8088660829999,368.7413884166665,,370.3744565000002,371.41604612499987,370.3435923336667,,368.3003718750001,373.4867139580001,368.3003718750001,373.4867139580001,373.4867139580001,374.15023391700015,368.3003718750001,1,1,1.000105082999653,reldom2_s011,001,2025-02-05_16h35.08.197,Aud-B-Scan_AC,2022.2.5,None,
0,0.0,None,fixation,stimulus/audwhat_stim/blank_white.png,stimulus/audwhat_stim/blank_white.png,stimulus/audwhere_stim/blank_white.png,stimulus/audwhere_stim/blank_white.png,stimulus/audwhat_stim/blank_white.png,stimulus/audwhat_stim/blank_white.png,stimulus/audwhat_stim/blank_white.png,stimulus/audwhat_stim/blank_white.png,0.0,0.0,0.0,0.0,0,0.0,0,0.0,0,0.0,0,0.0,0,0.0,0.0,0,0,0,0,0,0,0,0,0,0.0,0,0.0,0,0.0,0,0.0,9,,,,,0,40,40,40,,,,,,,,,374.430999875,374.430999875,374.430999875,374.430999875,374.430999875,374.430999875,374.430999875,374.430999875,374.3251339163336,374.430999875,374.430999875,374.430999875,374.3251339163336,374.430999875,374.430999875,374.430999875,374.430999875,374.430999875,374.430999875,374.430999875,374.430999875,374.430999875,374.430999875,374.430999875,374.430999875,374.430999875,374.430999875,374.3751339163336,374.430999875,374.430999875,374.430999875,374.3751339163336,374.430999875,374.430999875,374.430999875,374.430999875,374.430999875,379.64838775,379.64838775,383.70661737499995,None,0,,reldom2_s011,001,2025-02-05_16h35.08.197,Aud-B-Scan_AC,2022.2.5,None,
31,First_Order,6.0,audwhat,stimulus/audwhat_stim/dummy.wav,stimulus/audwhat_stim/dummy.wav,stimulus/audwhat_stim/string viola_low-pitch_D_loud.wav,stimulus/audwhat_stim/percussion mallet_low-pitch_D_loud.wav,stimulus/audwhat_stim/blank_white.png,stimulus/audwhat_stim/category_box.png,stimulus/audwhat_stim/category_yes.png,stimulus/audwhat_stim/category_no.png,None,Category,None,Pitch,2,0.0,0,5.125,0,5.125,0,5.125,0,0.0,0.625,0,0,0,0,0,0,0,0,0,0.0,0,0.0,1,0.5,1,2.125,0,,,,,0,41,41,41,,,,,,,,,383.70661737499995,383.70661737499995,383.70661737499995,383.70661737499995,383.70661737499995,383.70661737499995,383.70661737499995,383.70661737499995,383.62939408366685,383.70661737499995,383.70661737499995,383.70661737499995,383.62939408366685,383.70661737499995,383.70661737499995,383.70661737499995,385.8036105000001,389.823740542,383.70661737499995,383.70661737499995,388.89631775,383.70661737499995,383.70661737499995,383.70661737499995,383.70661737499995,384.1821038329999,385.234340042,384.15105783366675,,385.8036105000001,386.8570097920001,385.7726876246668,386.8095767079999,383.70661737499995,388.89631775,383.70661737499995,388.89631775,388.89631775,389.5640104580002,383.70661737499995,2,1,1.5565560419995563,reldom2_s011,001,2025-02-05_16h35.08.197,Aud-B-Scan_AC,2022.2.5,None,
32,First_Order,6.0,audwhat,stimulus/audwhat_stim/dummy.wav,stimulus/audwhat_stim/dummy.wav,stimulus/audwhat_stim/percussion mallet_high-pitch_Dtri_loud.wav,stimulus/audwhat_stim/string viola_high-pitch_Dtri_loud.wav,stimulus/audwhat_stim/blank_white.png,stimulus/audwhat_stim/pitch_box.png,stimulus/audwhat_stim/pitch_yes.png,stimulus/audwhat_stim/pitch_no.png,None,Pitch,None,Pitch,1,0.0,0,5.125,0,5.125,0,5.125,0,0.0,0.625,0,0,0,0,0,0,0,0,0,0.0,0,0.0,1,0.5,1,2.125,0,,,,,0,42,42,42,,,,,,,,,389.823740542,389.823740542,389.823740542,389.823740542,389.823740542,389.823740542,389.823740542,389.823740542,389.73890904133316,389.823740542,389.823740542,389.823740542,389.73890904133316,389.823740542,389.823740542,389.823740542,391.90030724999997,,389.823740542,389.823740542,395.01214304199993,389.823740542,389.823740542,389.823740542,389.823740542,390.30031608299987,391.3360511669998,390.26907354166656,,391.90030724999997,392.94257470799994,391.8695379996668,,389.823740542,395.01214304199993,389.823740542,395.01214304199993,395.05371187499986,395.7174140830002,389.823740542,1,1,0.7128833749998194,reldom2_s011,001,2025-02-05_16h35.08.197,Aud-B-Scan_AC,2022.2.5,None,
33,First_Order,6.0,audwhat,stimulus/audwhat_stim/dummy.wav,stimulus/audwhat_stim/dummy.wav,stimulus/audwhat_stim/string cello_high-pitch_D_loud.wav,stimulus/audwhat_stim/string viola_low-pitch_F_loud.wav,stimulus/audwhat_stim/blank_white.png,stimulus/audwhat_stim/pitch_box.png,stimulus/audwhat_stim/pitch_yes.png,stimulus/audwhat_stim/pitch_no.png,None,Pitch,None,Category,2,0.0,0,5.125,0,5.125,0,5.125,0,0.0,0.625,0,0,0,0,0,0,0,0,0,0.0,0,0.0,1,0.5,1,2.125,0,,,,,0,43,43,43,,,,,,,,,395.9333000830002,395.9333000830002,395.9333000830002,395.9333000830002,395.9333000830002,395.9333000830002,395.9333000830002,395.9333000830002,395.85074741633355,395.9333000830002,395.9333000830002,395.9333000830002,395.85074741633355,395.9333000830002,395.9333000830002,395.9333000830002,398.0061866249998,,395.9333000830002,395.9333000830002,401.11957458300003,395.9333000830002,395.9333000830002,395.9333000830002,395.9333000830002,396.40518258300017,397.441683,396.3745593746669,,398.0061866249998,399.04752358299993,397.9756333746666,,395.9333000830002,401.11957458300003,395.9333000830002,401.11957458300003,401.16143120800007,401.82460408299994,395.9333000830002,2,1,0.9860955829994964,reldom2_s011,001,2025-02-05_16h35.08.197,Aud-B-Scan_AC,2022.2.5,None,
34,First_Order,6.0,audwhat,stimulus/audwhat_stim/dummy.wav,stimulus/audwhat_stim/dummy.wav,stimulus/audwhat_stim/percussion mallet_low-pitch_F_loud.wav,stimulus/audwhat_stim/string viola_low-pitch_F_loud.wav,stimulus/audwhat_stim/blank_white.png,stimulus/audwhat_stim/category_box.png,stimulus/audwhat_stim/category_yes.png,stimulus/audwhat_stim/category_no.png,None,Category,None,Pitch,2,0.0,0,5.125,0,5.125,0,5.125,0,0.0,0.625,0,0,0,0,0,0,0,0,0,0.0,0,0.0,1,0.5,1,2.125,0,,,,,0,44,44,44,,,,,,,,,402.043828458,402.043828458,402.043828458,402.043828458,402.043828458,402.043828458,402.043828458,402.043828458,401.95793741633327,402.043828458,402.043828458,402.043828458,401.95793741633327,402.043828458,402.043828458,402.043828458,404.13294258299993,,402.043828458,402.043828458,407.22590624999975,402.043828458,402.043828458,402.043828458,402.043828458,402.52053045799994,403.5644414170001,402.48891516666686,,404.13294258299993,405.1844517919999,404.10147020866657,,402.043828458,407.22590624999975,402.043828458,407.22590624999975,407.26796504200047,407.93805562499983,402.043828458,2,1,1.8326605409997683,reldom2_s011,001,2025-02-05_16h35.08.197,Aud-B-Scan_AC,2022.2.5,None,
0,0.0,None,fixation,stimulus/audwhat_stim/blank_white.png,stimulus/audwhat_stim/blank_white.png,stimulus/audwhere_stim/blank_white.png,stimulus/audwhere_stim/blank_white.png,stimulus/audwhat_stim/blank_white.png,stimulus/audwhat_stim/blank_white.png,stimulus/audwhat_stim/blank_white.png,stimulus/audwhat_stim/blank_white.png,0.0,0.0,0.0,0.0,0,0.0,0,0.0,0,0.0,0,0.0,0,0.0,0.0,0,0,0,0,0,0,0,0,0,0.0,0,0.0,0,0.0,0,0.0,9,,,,,0,45,45,45,,,,,,,,,408.1774754999997,408.1774754999997,408.1774754999997,408.1774754999997,408.1774754999997,408.1774754999997,408.1774754999997,408.1774754999997,408.07138895833316,408.1774754999997,408.1774754999997,408.1774754999997,408.07138895833316,408.1774754999997,408.1774754999997,408.1774754999997,408.1774754999997,408.1774754999997,408.1774754999997,408.1774754999997,408.1774754999997,408.1774754999997,408.1774754999997,408.1774754999997,408.1774754999997,408.1774754999997,408.1774754999997,408.1380556249998,408.1774754999997,408.1774754999997,408.1774754999997,408.1380556249998,408.1774754999997,408.1774754999997,408.1774754999997,408.1774754999997,408.1774754999997,413.3633914580005,413.3633914580005,417.32495995800036,None,0,,reldom2_s011,001,2025-02-05_16h35.08.197,Aud-B-Scan_AC,2022.2.5,None,
35,Second_Order,6.0,audwhat,stimulus/audwhat_stim/string cello_low-pitch_D_loud.wav,stimulus/audwhat_stim/percussion mallet_low-pitch_D_loud.wav,stimulus/audwhat_stim/percussion mallet_low-pitch_D_loud.wav,stimulus/audwhat_stim/percussion xylophone_high-pitch_Ftri_loud.wav,stimulus/audwhat_stim/match_blank.png,stimulus/audwhat_stim/match_box.png,stimulus/audwhat_stim/match_yes.png,stimulus/audwhat_stim/match_no.png,2.0,Match,Pitch,Category,2,5.125,0,5.125,0,5.125,0,5.125,0,0.75,0.75,0,0,0,0,0,0,0,0,1,0.5,1,2.125,1,0.5,1,2.125,0,,,,,0,46,46,46,,,,,,,,,417.32495995800036,422.44720425000014,417.32495995800036,417.32495995800036,417.32495995800036,417.32495995800036,417.78214000000025,418.7714365419997,417.7855817496668,,419.40697787499994,420.405251917,419.418929499667,420.41302687500047,422.44720425000014,423.28054279200023,425.35674791699967,429.29783558300005,423.28054279200023,423.28054279200023,428.47299091700006,423.28054279200023,423.28054279200023,423.28054279200023,423.28054279200023,423.7520157079998,424.7906298329999,423.72159279166704,,425.35674791699967,426.4020093750005,425.3260753336665,426.4020093750005,423.28054279200023,428.47299091700006,423.28054279200023,428.47299091700006,428.47299091700006,,423.28054279200023,2,1,0.6391394159995798,reldom2_s011,001,2025-02-05_16h35.08.197,Aud-B-Scan_AC,2022.2.5,None,
36,Second_Order,6.0,audwhat,stimulus/audwhat_stim/string cello_low-pitch_Dtri_loud.wav,stimulus/audwhat_stim/percussion mallet_low-pitch_Dtri_loud.wav,stimulus/audwhat_stim/string viola_high-pitch_F_loud.wav,stimulus/audwhat_stim/percussion xylophone_high-pitch_F_loud.wav,stimulus/audwhat_stim/match_blank.png,stimulus/audwhat_stim/match_box.png,stimulus/audwhat_stim/match_yes.png,stimulus/audwhat_stim/match_no.png,1.0,Match,Pitch,Pitch,1,5.125,0,5.125,0,5.125,0,5.125,0,0.625,0.625,0,0,0,0,0,0,0,0,1,0.5,1,2.125,1,0.5,1,2.125,0,,,,,0,47,47,47,,,,,,,,,429.29783558300005,434.42076604199974,429.29783558300005,429.29783558300005,429.29783558300005,429.29783558300005,429.7475930419996,430.74535212499995,429.7597497496665,,431.38051458300015,432.36915512500036,431.3839252086666,432.3826322499999,434.42076604199974,435.1347513749997,437.20819279199986,441.2747714999996,435.1347513749997,435.1347513749997,440.32589516700045,435.1347513749997,435.1347513749997,435.1347513749997,435.1347513749997,435.6047658329999,436.6405613750003,435.57433337466705,,437.20819279199986,438.2555998329999,437.17722062466623,438.2555998329999,435.1347513749997,440.32589516700045,435.1347513749997,440.32589516700045,440.32589516700045,440.9904014579997,435.1347513749997,1,1,0.7296617079996395,reldom2_s011,001,2025-02-05_16h35.08.197,Aud-B-Scan_AC,2022.2.5,None,
0,0.0,None,fixation,stimulus/audwhat_stim/blank_white.png,stimulus/audwhat_stim/blank_white.png,stimulus/audwhere_stim/blank_white.png,stimulus/audwhere_stim/blank_white.png,stimulus/audwhat_stim/blank_white.png,stimulus/audwhat_stim/blank_white.png,stimulus/audwhat_stim/blank_white.png,stimulus/audwhat_stim/blank_white.png,0.0,0.0,0.0,0.0,0,0.0,0,0.0,0,0.0,0,0.0,0,0.0,0.0,0,0,0,0,0,0,0,0,0,0.0,0,0.0,0,0.0,0,0.0,10,,,,,0,48,48,48,,,,,,,,,441.2747714999996,441.2747714999996,441.2747714999996,441.2747714999996,441.2747714999996,441.2747714999996,441.2747714999996,441.2747714999996,441.1648484163335,441.2747714999996,441.2747714999996,441.2747714999996,441.1648484163335,441.2747714999996,441.2747714999996,441.2747714999996,441.2747714999996,441.2747714999996,441.2747714999996,441.2747714999996,441.2747714999996,441.2747714999996,441.2747714999996,441.2747714999996,441.2747714999996,441.2747714999996,441.2747714999996,441.23151508300015,441.2747714999996,441.2747714999996,441.2747714999996,441.23151508300015,441.2747714999996,441.2747714999996,441.2747714999996,441.2747714999996,441.2747714999996,446.5015883750002,446.5015883750002,451.5389755420001,None,0,,reldom2_s011,001,2025-02-05_16h35.08.197,Aud-B-Scan_AC,2022.2.5,None,
37,First_Order,7.0,audwhere,stimulus/audwhere_stim/dummy.wav,stimulus/audwhere_stim/dummy.wav,stimulus/audwhere_stim/right_toward_300h.wav,stimulus/audwhere_stim/left_toward_290h.wav,stimulus/audwhere_stim/blank_white.png,stimulus/audwhere_stim/direction_box.png,stimulus/audwhere_stim/direction_yes.png,stimulus/audwhere_stim/direction_no.png,None,Direction,None,Direction,1,0.0,0,5.125,0,5.125,0,5.125,0,0.0,0.625,0,0,0,0,0,0,0,0,0,0.0,0,0.0,1,0.5,1,2.125,0,,,,,0,49,49,49,,,,,,,,,451.5389755420001,451.5389755420001,451.5389755420001,451.5389755420001,451.5389755420001,451.5389755420001,451.5389755420001,451.5389755420001,451.46233091666693,451.5389755420001,451.5389755420001,451.5389755420001,451.46233091666693,451.5389755420001,451.5389755420001,451.5389755420001,453.6302797500002,,451.5389755420001,451.5389755420001,456.71460883300006,451.5389755420001,451.5389755420001,451.5389755420001,451.5389755420001,452.0135555830002,453.06302779199996,451.9822296666664,453.01552987499963,453.6302797500002,454.67425029199967,453.5994627496668,,451.5389755420001,456.71460883300006,451.5389755420001,456.71460883300006,456.75667712500035,457.42558545799966,451.5389755420001,1,1,1.2431698329996834,reldom2_s011,001,2025-02-05_16h35.08.197,Aud-B-Scan_AC,2022.2.5,None,
38,First_Order,7.0,audwhere,stimulus/audwhere_stim/dummy.wav,stimulus/audwhere_stim/dummy.wav,stimulus/audwhere_stim/right_toward_290h.wav,stimulus/audwhere_stim/right_away_270h.wav,stimulus/audwhere_stim/blank_white.png,stimulus/audwhere_stim/side_box.png,stimulus/audwhere_stim/side_yes.png,stimulus/audwhere_stim/side_no.png,None,Side,None,Side,1,0.0,0,5.125,0,5.125,0,5.125,0,0.0,0.625,0,0,0,0,0,0,0,0,0,0.0,0,0.0,1,0.5,1,2.125,0,,,,,0,50,50,50,,,,,,,,,457.6429593749999,457.6429593749999,457.6429593749999,457.6429593749999,457.6429593749999,457.6429593749999,457.6429593749999,457.6429593749999,457.558918791333,457.6429593749999,457.6429593749999,457.6429593749999,457.558918791333,457.6429593749999,457.6429593749999,457.6429593749999,459.71854562499993,,457.6429593749999,457.6429593749999,462.83298399999967,457.6429593749999,457.6429593749999,457.6429593749999,457.6429593749999,458.115094625,459.1542345830003,458.0845713746669,,459.71854562499993,460.7588425419999,459.6882515836671,,457.6429593749999,462.83298399999967,457.6429593749999,462.83298399999967,462.83298399999967,463.4976890830003,457.6429593749999,1,1,0.8586549999995441,reldom2_s011,001,2025-02-05_16h35.08.197,Aud-B-Scan_AC,2022.2.5,None,
39,First_Order,7.0,audwhere,stimulus/audwhere_stim/dummy.wav,stimulus/audwhere_stim/dummy.wav,stimulus/audwhere_stim/left_away_290h.wav,stimulus/audwhere_stim/left_toward_290h.wav,stimulus/audwhere_stim/blank_white.png,stimulus/audwhere_stim/direction_box.png,stimulus/audwhere_stim/direction_yes.png,stimulus/audwhere_stim/direction_no.png,None,Direction,None,Side,2,0.0,0,5.125,0,5.125,0,5.125,0,0.0,0.625,0,0,0,0,0,0,0,0,0,0.0,0,0.0,1,0.5,1,2.125,0,,,,,0,51,51,51,,,,,,,,,463.7557374580001,463.7557374580001,463.7557374580001,463.7557374580001,463.7557374580001,463.7557374580001,463.7557374580001,463.7557374580001,463.6722495413334,463.7557374580001,463.7557374580001,463.7557374580001,463.6722495413334,463.7557374580001,463.7557374580001,463.7557374580001,465.8477014580003,469.8712827500003,463.7557374580001,463.7557374580001,468.9421847499998,463.7557374580001,463.7557374580001,463.7557374580001,463.7557374580001,464.2291694579999,465.28083683299974,464.19877629166626,465.23371750000024,465.8477014580003,466.8979756669996,465.81689612466675,466.85065312500046,463.7557374580001,468.9421847499998,463.7557374580001,468.9421847499998,468.98412729200027,469.65390495799966,463.7557374580001,2,1,1.4949429579996831,reldom2_s011,001,2025-02-05_16h35.08.197,Aud-B-Scan_AC,2022.2.5,None,
40,First_Order,7.0,audwhere,stimulus/audwhere_stim/dummy.wav,stimulus/audwhere_stim/dummy.wav,stimulus/audwhere_stim/right_away_280h.wav,stimulus/audwhere_stim/right_toward_290h.wav,stimulus/audwhere_stim/blank_white.png,stimulus/audwhere_stim/direction_box.png,stimulus/audwhere_stim/direction_yes.png,stimulus/audwhere_stim/direction_no.png,None,Direction,None,Side,2,0.0,0,5.125,0,5.125,0,5.125,0,0.0,0.625,0,0,0,0,0,0,0,0,0,0.0,0,0.0,1,0.5,1,2.125,0,,,,,0,52,52,52,,,,,,,,,469.8712827500003,469.8712827500003,469.8712827500003,469.8712827500003,469.8712827500003,469.8712827500003,469.8712827500003,469.8712827500003,469.787238291333,469.8712827500003,469.8712827500003,469.8712827500003,469.787238291333,469.8712827500003,469.8712827500003,469.8712827500003,471.9606609579996,,469.8712827500003,469.8712827500003,475.05418270799964,469.8712827500003,469.8712827500003,469.8712827500003,469.8712827500003,470.3475256669999,471.3918260419996,470.31694570866625,,471.9606609579996,473.0139322499999,471.9299521246669,472.96677154200006,469.8712827500003,475.05418270799964,469.8712827500003,475.05418270799964,475.0960086670002,475.7636793749998,469.8712827500003,2,1,1.3031706239994492,reldom2_s011,001,2025-02-05_16h35.08.197,Aud-B-Scan_AC,2022.2.5,None,
0,0.0,None,fixation,stimulus/audwhat_stim/blank_white.png,stimulus/audwhat_stim/blank_white.png,stimulus/audwhere_stim/blank_white.png,stimulus/audwhere_stim/blank_white.png,stimulus/audwhat_stim/blank_white.png,stimulus/audwhat_stim/blank_white.png,stimulus/audwhat_stim/blank_white.png,stimulus/audwhat_stim/blank_white.png,0.0,0.0,0.0,0.0,0,0.0,0,0.0,0,0.0,0,0.0,0,0.0,0.0,0,0,0,0,0,0,0,0,0,0.0,0,0.0,0,0.0,0,0.0,8,,,,,0,53,53,53,,,,,,,,,476.0056292500003,476.0056292500003,476.0056292500003,476.0056292500003,476.0056292500003,476.0056292500003,476.0056292500003,476.0056292500003,475.89701270833314,476.0056292500003,476.0056292500003,476.0056292500003,475.89701270833314,476.0056292500003,476.0056292500003,476.0056292500003,476.0056292500003,476.0056292500003,476.0056292500003,476.0056292500003,476.0056292500003,476.0056292500003,476.0056292500003,476.0056292500003,476.0056292500003,476.0056292500003,476.0056292500003,475.9636793749998,476.0056292500003,476.0056292500003,476.0056292500003,475.9636793749998,476.0056292500003,476.0056292500003,476.0056292500003,476.0056292500003,476.0056292500003,481.23484545799965,481.23484545799965,484.15760062499976,None,0,,reldom2_s011,001,2025-02-05_16h35.08.197,Aud-B-Scan_AC,2022.2.5,None,
41,Second_Order,7.0,audwhere,stimulus/audwhere_stim/left_toward_300h.wav,stimulus/audwhere_stim/right_toward_280h.wav,stimulus/audwhere_stim/right_toward_270h.wav,stimulus/audwhere_stim/right_away_290h.wav,stimulus/audwhat_stim/match_blank.png,stimulus/audwhat_stim/match_box.png,stimulus/audwhat_stim/match_yes.png,stimulus/audwhat_stim/match_no.png,2.0,Match,Direction,Side,2,5.125,0,5.125,0,5.125,0,5.125,0,0.75,0.75,0,0,0,0,0,0,0,0,1,0.5,1,2.125,1,0.5,1,2.125,0,,,,,0,54,54,54,,,,,,,,,484.15760062499976,489.2807922920001,484.15760062499976,484.15760062499976,484.15760062499976,484.15760062499976,484.60694087499996,485.6052214580004,484.61958124966645,485.613102583,486.2402013330002,487.22936475000006,486.2435360836664,487.2425258330004,489.2807922920001,490.114499667,492.18792591700003,496.1273152920003,490.114499667,490.114499667,495.30196808300025,490.114499667,490.114499667,490.114499667,490.114499667,490.5876865,491.6225525,490.5575062916671,,492.18792591700003,493.2267534169996,492.1572580416671,,490.114499667,495.30196808300025,490.114499667,495.30196808300025,495.30196808300025,,490.114499667,2,1,1.7285057080002844,reldom2_s011,001,2025-02-05_16h35.08.197,Aud-B-Scan_AC,2022.2.5,None,
42,Second_Order,7.0,audwhere,stimulus/audwhere_stim/right_toward_290h.wav,stimulus/audwhere_stim/left_toward_270h.wav,stimulus/audwhere_stim/left_toward_290h.wav,stimulus/audwhere_stim/left_away_280h.wav,stimulus/audwhat_stim/match_blank.png,stimulus/audwhat_stim/match_box.png,stimulus/audwhat_stim/match_yes.png,stimulus/audwhat_stim/match_no.png,2.0,Match,Direction,Side,2,5.125,0,5.125,0,5.125,0,5.125,0,0.625,0.625,0,0,0,0,0,0,0,0,1,0.5,1,2.125,1,0.5,1,2.125,0,,,,,0,55,55,55,,,,,,,,,496.1273152920003,501.24749900000006,496.1273152920003,496.1273152920003,496.1273152920003,496.1273152920003,496.5849086669996,497.5831370830001,496.5973306666667,497.5915560829999,498.2057052079999,499.20350487500036,498.21762883366705,499.2115915000004,501.24749900000006,501.95526316700034,504.02140233299997,,501.95526316700034,501.95526316700034,507.12765149999996,501.95526316700034,501.95526316700034,501.95526316700034,501.95526316700034,502.4260171249998,503.4586399580003,502.3953541246667,,504.02140233299997,505.05944183300016,503.990839166667,,501.95526316700034,507.12765149999996,501.95526316700034,507.12765149999996,507.1697462080001,507.8292634999998,501.95526316700034,2,1,1.122934499999701,reldom2_s011,001,2025-02-05_16h35.08.197,Aud-B-Scan_AC,2022.2.5,None,
0,0.0,None,fixation,stimulus/audwhat_stim/blank_white.png,stimulus/audwhat_stim/blank_white.png,stimulus/audwhere_stim/blank_white.png,stimulus/audwhere_stim/blank_white.png,stimulus/audwhat_stim/blank_white.png,stimulus/audwhat_stim/blank_white.png,stimulus/audwhat_stim/blank_white.png,stimulus/audwhat_stim/blank_white.png,0.0,0.0,0.0,0.0,0,0.0,0,0.0,0,0.0,0,0.0,0,0.0,0.0,0,0,0,0,0,0,0,0,0,0.0,0,0.0,0,0.0,0,0.0,10,,,,,0,56,56,56,,,,,,,,,508.06819458300015,508.06819458300015,508.06819458300015,508.06819458300015,508.06819458300015,508.06819458300015,508.06819458300015,508.06819458300015,507.9625968333331,508.06819458300015,508.06819458300015,508.06819458300015,507.9625968333331,508.06819458300015,508.06819458300015,508.06819458300015,508.06819458300015,508.06819458300015,508.06819458300015,508.06819458300015,508.06819458300015,508.06819458300015,508.06819458300015,508.06819458300015,508.06819458300015,508.06819458300015,508.06819458300015,508.0292634999998,508.06819458300015,508.06819458300015,508.06819458300015,508.0292634999998,508.06819458300015,508.06819458300015,508.06819458300015,508.06819458300015,508.06819458300015,513.2773256250002,513.2773256250002,518.348451625,None,0,,reldom2_s011,001,2025-02-05_16h35.08.197,Aud-B-Scan_AC,2022.2.5,None,
43,First_Order,8.0,audwhere,stimulus/audwhere_stim/dummy.wav,stimulus/audwhere_stim/dummy.wav,stimulus/audwhere_stim/right_toward_270h.wav,stimulus/audwhere_stim/left_toward_300h.wav,stimulus/audwhere_stim/blank_white.png,stimulus/audwhere_stim/side_box.png,stimulus/audwhere_stim/side_yes.png,stimulus/audwhere_stim/side_no.png,None,Side,None,Direction,2,0.0,0,5.125,0,5.125,0,5.125,0,0.0,0.625,0,0,0,0,0,0,0,0,0,0.0,0,0.0,1,0.5,1,2.125,0,,,,,0,57,57,57,,,,,,,,,518.348451625,518.348451625,518.348451625,518.348451625,518.348451625,518.348451625,518.348451625,518.348451625,518.2706931246663,518.348451625,518.348451625,518.348451625,518.2706931246663,518.348451625,518.348451625,518.348451625,520.4220647920001,,518.348451625,518.348451625,523.5289277080001,518.348451625,518.348451625,518.348451625,518.348451625,518.8210255829999,519.8571981249997,518.7902835416664,,520.4220647920001,521.459461417,520.3911640416666,,518.348451625,523.5289277080001,518.348451625,523.5289277080001,523.5706611249998,524.2335083329999,518.348451625,2,1,1.2064930000001368,reldom2_s011,001,2025-02-05_16h35.08.197,Aud-B-Scan_AC,2022.2.5,None,
44,First_Order,8.0,audwhere,stimulus/audwhere_stim/dummy.wav,stimulus/audwhere_stim/dummy.wav,stimulus/audwhere_stim/right_toward_270h.wav,stimulus/audwhere_stim/left_toward_280h.wav,stimulus/audwhere_stim/blank_white.png,stimulus/audwhere_stim/side_box.png,stimulus/audwhere_stim/side_yes.png,stimulus/audwhere_stim/side_no.png,None,Side,None,Direction,2,0.0,0,5.125,0,5.125,0,5.125,0,0.0,0.625,0,0,0,0,0,0,0,0,0,0.0,0,0.0,1,0.5,1,2.125,0,,,,,0,58,58,58,,,,,,,,,524.4514603329999,524.4514603329999,524.4514603329999,524.4514603329999,524.4514603329999,524.4514603329999,524.4514603329999,524.4514603329999,524.3668416663332,524.4514603329999,524.4514603329999,524.4514603329999,524.3668416663332,524.4514603329999,524.4514603329999,524.4514603329999,526.524784833,,524.4514603329999,524.4514603329999,529.6317009169998,524.4514603329999,524.4514603329999,524.4514603329999,524.4514603329999,524.9230213749997,525.95837975,524.8922366246663,,526.524784833,527.5630127080003,526.4944679586663,,524.4514603329999,529.6317009169998,524.4514603329999,529.6317009169998,529.6734377080002,530.3379409170002,524.4514603329999,2,1,0.9264498329998787,reldom2_s011,001,2025-02-05_16h35.08.197,Aud-B-Scan_AC,2022.2.5,None,
45,First_Order,8.0,audwhere,stimulus/audwhere_stim/dummy.wav,stimulus/audwhere_stim/dummy.wav,stimulus/audwhere_stim/right_toward_270h.wav,stimulus/audwhere_stim/left_toward_290h.wav,stimulus/audwhere_stim/blank_white.png,stimulus/audwhere_stim/direction_box.png,stimulus/audwhere_stim/direction_yes.png,stimulus/audwhere_stim/direction_no.png,None,Direction,None,Direction,1,0.0,0,5.125,0,5.125,0,5.125,0,0.0,0.625,0,0,0,0,0,0,0,0,0,0.0,0,0.0,1,0.5,1,2.125,0,,,,,0,59,59,59,,,,,,,,,530.5542458330001,530.5542458330001,530.5542458330001,530.5542458330001,530.5542458330001,530.5542458330001,530.5542458330001,530.5542458330001,530.4712742503335,530.5542458330001,530.5542458330001,530.5542458330001,530.4712742503335,530.5542458330001,530.5542458330001,530.5542458330001,532.6465033329996,,530.5542458330001,530.5542458330001,535.724236,530.5542458330001,530.5542458330001,530.5542458330001,530.5542458330001,531.0285017080005,532.0718394579999,530.9975844996663,,532.6465033329996,533.6894341249999,532.6153421246665,,530.5542458330001,535.724236,530.5542458330001,535.724236,535.7663604170002,536.4355355420003,530.5542458330001,1,1,1.5762550409995129,reldom2_s011,001,2025-02-05_16h35.08.197,Aud-B-Scan_AC,2022.2.5,None,
46,First_Order,8.0,audwhere,stimulus/audwhere_stim/dummy.wav,stimulus/audwhere_stim/dummy.wav,stimulus/audwhere_stim/left_away_300h.wav,stimulus/audwhere_stim/left_toward_300h.wav,stimulus/audwhere_stim/blank_white.png,stimulus/audwhere_stim/side_box.png,stimulus/audwhere_stim/side_yes.png,stimulus/audwhere_stim/side_no.png,None,Side,None,Side,1,0.0,0,5.125,0,5.125,0,5.125,0,0.0,0.625,0,0,0,0,0,0,0,0,0,0.0,0,0.0,1,0.5,1,2.125,0,,,,,0,60,60,60,,,,,,,,,536.6521709170001,536.6521709170001,536.6521709170001,536.6521709170001,536.6521709170001,536.6521709170001,536.6521709170001,536.6521709170001,536.5688688753336,536.6521709170001,536.6521709170001,536.6521709170001,536.5688688753336,536.6521709170001,536.6521709170001,536.6521709170001,538.7272686249999,,536.6521709170001,536.6521709170001,541.8394446250004,536.6521709170001,536.6521709170001,536.6521709170001,536.6521709170001,537.1235734170004,538.1594464170003,537.092630166667,,538.7272686249999,539.7670021249996,538.6963962916664,,536.6521709170001,541.8394446250004,536.6521709170001,541.8394446250004,541.8812878750005,542.54674325,536.6521709170001,1,1,1.025143790999664,reldom2_s011,001,2025-02-05_16h35.08.197,Aud-B-Scan_AC,2022.2.5,None,
0,0.0,None,fixation,stimulus/audwhat_stim/blank_white.png,stimulus/audwhat_stim/blank_white.png,stimulus/audwhere_stim/blank_white.png,stimulus/audwhere_stim/blank_white.png,stimulus/audwhat_stim/blank_white.png,stimulus/audwhat_stim/blank_white.png,stimulus/audwhat_stim/blank_white.png,stimulus/audwhat_stim/blank_white.png,0.0,0.0,0.0,0.0,0,0.0,0,0.0,0,0.0,0,0.0,0,0.0,0.0,0,0,0,0,0,0,0,0,0,0.0,0,0.0,0,0.0,0,0.0,9,,,,,0,61,61,61,,,,,,,,,542.7852482500002,542.7852482500002,542.7852482500002,542.7852482500002,542.7852482500002,542.7852482500002,542.7852482500002,542.7852482500002,542.6800765833333,542.7852482500002,542.7852482500002,542.7852482500002,542.6800765833333,542.7852482500002,542.7852482500002,542.7852482500002,542.7852482500002,542.7852482500002,542.7852482500002,542.7852482500002,542.7852482500002,542.7852482500002,542.7852482500002,542.7852482500002,542.7852482500002,542.7852482500002,542.7852482500002,542.7467432499999,542.7852482500002,542.7852482500002,542.7852482500002,542.7467432499999,542.7852482500002,542.7852482500002,542.7852482500002,542.7852482500002,542.7852482500002,548.0031086250001,548.0031086250001,551.9588846670003,None,0,,reldom2_s011,001,2025-02-05_16h35.08.197,Aud-B-Scan_AC,2022.2.5,None,
47,Second_Order,8.0,audwhere,stimulus/audwhere_stim/right_away_300h.wav,stimulus/audwhere_stim/right_toward_270h.wav,stimulus/audwhere_stim/left_away_280h.wav,stimulus/audwhere_stim/left_toward_270h.wav,stimulus/audwhat_stim/match_blank.png,stimulus/audwhat_stim/match_box.png,stimulus/audwhat_stim/match_yes.png,stimulus/audwhat_stim/match_no.png,1.0,Match,Side,Side,1,5.125,0,5.125,0,5.125,0,5.125,0,0.75,0.75,0,0,0,0,0,0,0,0,1,0.5,1,2.125,1,0.5,1,2.125,0,,,,,0,62,62,62,,,,,,,,,551.9588846670003,557.0754218330003,551.9588846670003,551.9588846670003,551.9588846670003,551.9588846670003,552.4130202919996,553.411662167,552.4260590836668,553.4194990830001,554.0349984169998,555.032229083,554.0466649166667,555.0403859170001,557.0754218330003,557.9055974169996,559.9781834169999,563.9220547499999,557.9055974169996,557.9055974169996,563.0953603750004,557.9055974169996,557.9055974169996,557.9055974169996,557.9055974169996,558.3782331250004,559.4140160830002,558.3474593336671,,559.9781834169999,561.017442417,559.9476051246668,,557.9055974169996,563.0953603750004,557.9055974169996,563.0953603750004,563.0953603750004,,557.9055974169996,1,1,1.0637330829999883,reldom2_s011,001,2025-02-05_16h35.08.197,Aud-B-Scan_AC,2022.2.5,None,
48,Second_Order,8.0,audwhere,stimulus/audwhere_stim/right_toward_270h.wav,stimulus/audwhere_stim/right_away_270h.wav,stimulus/audwhere_stim/left_away_280h.wav,stimulus/audwhere_stim/left_toward_290h.wav,stimulus/audwhat_stim/match_blank.png,stimulus/audwhat_stim/match_box.png,stimulus/audwhat_stim/match_yes.png,stimulus/audwhat_stim/match_no.png,1.0,Match,Side,Side,1,5.125,0,5.125,0,5.125,0,5.125,0,0.625,0.625,0,0,0,0,0,0,0,0,1,0.5,1,2.125,1,0.5,1,2.125,0,,,,,0,63,63,63,,,,,,,,,563.9220547499999,569.0368305419997,563.9220547499999,563.9220547499999,563.9220547499999,563.9220547499999,564.3749303750001,565.3725652499998,564.3870906666664,565.3805030000003,565.99635175,566.9930027500004,566.0077807496666,567.0009740830001,569.0368305419997,569.7486120829999,571.8290460420003,,569.7486120829999,569.7486120829999,574.9115102920005,569.7486120829999,569.7486120829999,569.7486120829999,569.7486120829999,570.2205689169996,571.2622962080004,570.1899832916663,,571.8290460420003,572.8785642080002,571.7982164586667,572.8317628329996,569.7486120829999,574.9115102920005,569.7486120829999,574.9115102920005,574.9531391250002,575.6202105829998,569.7486120829999,1,1,1.1028045830003066,reldom2_s011,001,2025-02-05_16h35.08.197,Aud-B-Scan_AC,2022.2.5,None,
0,0.0,None,fixation,stimulus/audwhat_stim/blank_white.png,stimulus/audwhat_stim/blank_white.png,stimulus/audwhere_stim/blank_white.png,stimulus/audwhere_stim/blank_white.png,stimulus/audwhat_stim/blank_white.png,stimulus/audwhat_stim/blank_white.png,stimulus/audwhat_stim/blank_white.png,stimulus/audwhat_stim/blank_white.png,0.0,0.0,0.0,0.0,0,0.0,0,0.0,0,0.0,0,0.0,0,0.0,0.0,0,0,0,0,0,0,0,0,0,0.0,0,0.0,0,0.0,0,0.0,16,,,,,0,64,64,64,,,,,,,,,575.8594960419996,575.8594960419996,575.8594960419996,575.8594960419996,575.8594960419996,575.8594960419996,575.8594960419996,575.8594960419996,575.7535439163331,575.8594960419996,575.8594960419996,575.8594960419996,575.7535439163331,575.8594960419996,575.8594960419996,575.8594960419996,575.8594960419996,575.8594960419996,575.8594960419996,575.8594960419996,575.8594960419996,575.8594960419996,575.8594960419996,575.8594960419996,575.8594960419996,575.8594960419996,575.8594960419996,575.8202105829997,575.8594960419996,575.8594960419996,575.8594960419996,575.8202105829997,575.8594960419996,575.8594960419996,575.8594960419996,575.8594960419996,575.8594960419996,581.0722934579999,581.0722934579999,592.0354776249997,None,0,,reldom2_s011,001,2025-02-05_16h35.08.197,Aud-B-Scan_AC,2022.2.5,None,
