Trial,Order,Block,Type,Stimuli_File1,Stimuli_File2,Stimuli_File3,Stimuli_File4,Cue_File1,Cue_File2,Response_File_Yes,Response_File_No,Match,Cue_Dimension,Pair1_Dimension,Pair2_Dimension,Key,Cue1_Duration,Cue1_Onset,Cue2_Duration,Cue2_Onset,ResponseYes_Duration,ResponseYes_Onset,ResponseNo_Duration,ResponseNo_Onset,ITI_Within,ITI_Between,Image1_Duration,Image1_Onset,Image2_Duration,Image2_Onset,Image3_Duration,Image3_Onset,Image4_Duration,Image4_Onset,Sound1_Duration,Sound1_Onset,Sound2_Duration,Sound2_Onset,Sound3_Duration,Sound3_Onset,Sound4_Duration,Sound4_Onset,Fixation_Duration,trials_2.thisRepN,trials_2.thisTrialN,trials_2.thisN,trials_2.thisIndex,trials.thisRepN,trials.thisTrialN,trials.thisN,trials.thisIndex,text_start.started,key_resp_start.started,key_resp_start.keys,key_resp_start.rt,text2.started,key_resp_2.started,key_resp_2.keys,key_resp_2.rt,cue_file1.started,cue_file1.stopped,image_1.started,image_1.stopped,image_2.started,image_2.stopped,sound_icon1.started,sound_icon1.stopped,sound_1.started,sound_1.stopped,sound_icon2.started,sound_icon2.stopped,sound_2.started,sound_2.stopped,image_blank_1.started,image_blank_1.stopped,key_press.started,key_press.stopped,fixation_text.started,cue_file2.started,cue_file2.stopped,image_3.started,image_3.stopped,image_4.started,image_4.stopped,sound_icon3.started,sound_icon3.stopped,sound_3.started,sound_3.stopped,sound_icon4.started,sound_icon4.stopped,sound_4.started,sound_4.stopped,response_yes.started,response_yes.stopped,response_no.started,response_no.stopped,iti_blank.started,iti_blank.stopped,fixation_text.stopped,key_press.keys,key_press.corr,key_press.rt,participant,session,date,expName,psychopyVersion,frameRate,
,,,,,,,,,,,,,,,,,,,,,,,,,,,,,,,,,,,,,,,,,,,,,,,,,,,,7.857895707999887,7.857895707999887,2,1.6029949169997053,,,,,,,,,,,,,,,,,,,,,,,,,,,,,,,,,,,,,,,,,,,,,,,,reldom2_s003,001,2025-01-31_12h33.39.767,Where-B-Scan_AC,2022.2.5,None,
,,,,,,,,,,,,,,,,,,,,,,,,,,,,,,,,,,,,,,,,,,,,0,0,0,0,,,,,,,,,9.50087295799949,9.50087295799949,5,22.989568709000196,,,,,,,,,,,,,,,,,,,,,,,,,,,,,,,,,,,,,,,,,,,,reldom2_s003,001,2025-01-31_12h33.39.767,Where-B-Scan_AC,2022.2.5,None,
,,,,,,,,,,,,,,,,,,,,,,,,,,,,,,,,,,,,,,,,,,,,1,0,1,0,,,,,,,,,32.50397858299948,32.50397858299948,5,1.9857125409998844,,,,,,,,,,,,,,,,,,,,,,,,,,,,,,,,,,,,,,,,,,,,reldom2_s003,001,2025-01-31_12h33.39.767,Where-B-Scan_AC,2022.2.5,None,
,,,,,,,,,,,,,,,,,,,,,,,,,,,,,,,,,,,,,,,,,,,,2,0,2,0,,,,,,,,,34.500895415999366,34.500895415999366,5,1.9892432500000723,,,,,,,,,,,,,,,,,,,,,,,,,,,,,,,,,,,,,,,,,,,,reldom2_s003,001,2025-01-31_12h33.39.767,Where-B-Scan_AC,2022.2.5,None,
,,,,,,,,,,,,,,,,,,,,,,,,,,,,,,,,,,,,,,,,,,,,3,0,3,0,,,,,,,,,36.49891858299998,36.49891858299998,5,1.9907598330000837,,,,,,,,,,,,,,,,,,,,,,,,,,,,,,,,,,,,,,,,,,,,reldom2_s003,001,2025-01-31_12h33.39.767,Where-B-Scan_AC,2022.2.5,None,
0,0.0,None,fixation,stimulus/audwhere_stim/blank_white.png,stimulus/audwhere_stim/blank_white.png,stimulus/viswhere_stim/blank_white.png,stimulus/viswhere_stim/blank_white.png,stimulus/audwhere_stim/blank_white.png,stimulus/audwhere_stim/blank_white.png,stimulus/audwhere_stim/blank_white.png,stimulus/audwhere_stim/blank_white.png,0.0,0.0,0.0,0.0,0,0.0,0,0.0,0,0.0,0,0.0,0,0.0,0.0,0,0.0,0,0.0,0,0.0,0,0.0,0,0.0,0,0.0,0,0.0,0,0.0,16,,,,,0,0,0,0,,,,,,,,,38.703456582999934,38.703456582999934,38.703456582999934,38.703456582999934,38.703456582999934,38.703456582999934,38.703456582999934,38.703456582999934,38.6022602909994,38.703456582999934,38.703456582999934,38.703456582999934,38.6022602909994,38.703456582999934,38.703456582999934,38.703456582999934,38.703456582999934,38.703456582999934,38.703456582999934,38.703456582999934,38.703456582999934,38.703456582999934,38.703456582999934,38.703456582999934,38.703456582999934,38.703456582999934,38.703456582999934,38.6522602909994,38.703456582999934,38.703456582999934,38.703456582999934,38.6522602909994,38.703456582999934,38.703456582999934,38.703456582999934,38.703456582999934,38.703456582999934,43.910175749999325,43.910175749999325,54.955951832999745,None,0,,reldom2_s003,001,2025-01-31_12h33.39.767,Where-B-Scan_AC,2022.2.5,None,
1,First_Order,1.0,audwhere,stimulus/audwhere_stim/dummy.wav,stimulus/audwhere_stim/dummy.wav,stimulus/audwhere_stim/right_away_290h.wav,stimulus/audwhere_stim/right_toward_300h.wav,stimulus/audwhere_stim/blank_white.png,stimulus/audwhere_stim/direction_box.png,stimulus/audwhere_stim/direction_yes.png,stimulus/audwhere_stim/direction_no.png,None,Direction,None,Side,2,0.0,0,5.125,0,5.125,0,5.125,0,0.0,0.625,0,0.0,0,0.0,0,0.0,0,0.0,0,0.0,0,0.0,1,0.5,1,2.125,0,,,,,0,1,1,1,,,,,,,,,54.955951832999745,54.955951832999745,54.955951832999745,54.955951832999745,54.955951832999745,54.955951832999745,54.955951832999745,54.955951832999745,54.876493999999546,54.955951832999745,54.955951832999745,54.955951832999745,54.876493999999546,54.955951832999745,54.955951832999745,54.955951832999745,57.04042720799953,61.08620174999942,54.955951832999745,54.955951832999745,60.13434808299917,54.955951832999745,54.955951832999745,54.955951832999745,54.955951832999745,55.41992908299926,56.48288145799961,55.39054337466611,,57.04042720799953,58.106183540999155,57.01066312466652,,54.955951832999745,60.13434808299917,54.955951832999745,60.13434808299917,60.175557749999825,60.82729329099948,54.955951832999745,2,1,1.332914874999915,reldom2_s003,001,2025-01-31_12h33.39.767,Where-B-Scan_AC,2022.2.5,None,
2,First_Order,1.0,audwhere,stimulus/audwhere_stim/dummy.wav,stimulus/audwhere_stim/dummy.wav,stimulus/audwhere_stim/left_toward_290h.wav,stimulus/audwhere_stim/right_toward_280h.wav,stimulus/audwhere_stim/blank_white.png,stimulus/audwhere_stim/side_box.png,stimulus/audwhere_stim/side_yes.png,stimulus/audwhere_stim/side_no.png,None,Side,None,Direction,2,0.0,0,5.125,0,5.125,0,5.125,0,0.0,0.625,0,0.0,0,0.0,0,0.0,0,0.0,0,0.0,0,0.0,1,0.5,1,2.125,0,,,,,0,2,2,2,,,,,,,,,61.08620174999942,61.08620174999942,61.08620174999942,61.08620174999942,61.08620174999942,61.08620174999942,61.08620174999942,61.08620174999942,61.00113362433252,61.08620174999942,61.08620174999942,61.08620174999942,61.00113362433252,61.08620174999942,61.08620174999942,61.08620174999942,63.16843633299959,67.21533958299915,61.08620174999942,61.08620174999942,66.26651808299994,61.08620174999942,61.08620174999942,61.08620174999942,61.08620174999942,61.549171249999745,62.61381683299987,61.518989332666266,,63.16843633299959,64.23207879099937,63.138807874666114,,61.08620174999942,66.26651808299994,61.08620174999942,66.26651808299994,66.30783949999932,66.95984145799957,61.08620174999942,2,1,1.0858636660004777,reldom2_s003,001,2025-01-31_12h33.39.767,Where-B-Scan_AC,2022.2.5,None,
3,First_Order,1.0,audwhere,stimulus/audwhere_stim/dummy.wav,stimulus/audwhere_stim/dummy.wav,stimulus/audwhere_stim/right_toward_280h.wav,stimulus/audwhere_stim/right_away_300h.wav,stimulus/audwhere_stim/blank_white.png,stimulus/audwhere_stim/direction_box.png,stimulus/audwhere_stim/direction_yes.png,stimulus/audwhere_stim/direction_no.png,None,Direction,None,Side,2,0.0,0,5.125,0,5.125,0,5.125,0,0.0,0.625,0,0.0,0,0.0,0,0.0,0,0.0,0,0.0,0,0.0,1,0.5,1,2.125,0,,,,,0,3,3,3,,,,,,,,,67.21533958299915,67.21533958299915,67.21533958299915,67.21533958299915,67.21533958299915,67.21533958299915,67.21533958299915,67.21533958299915,67.13305099933325,67.21533958299915,67.21533958299915,67.21533958299915,67.13305099933325,67.21533958299915,67.21533958299915,67.21533958299915,69.32095674999982,,67.21533958299915,67.21533958299915,72.40645574999962,67.21533958299915,67.21533958299915,67.21533958299915,67.21533958299915,67.68357004099926,68.71386124999935,67.65394566666625,,69.32095674999982,70.35263216599924,69.29058612466658,,67.21533958299915,72.40645574999962,67.21533958299915,72.40645574999962,72.40645574999962,73.06616470799963,67.21533958299915,2,1,1.1071205420003025,reldom2_s003,001,2025-01-31_12h33.39.767,Where-B-Scan_AC,2022.2.5,None,
4,First_Order,1.0,audwhere,stimulus/audwhere_stim/dummy.wav,stimulus/audwhere_stim/dummy.wav,stimulus/audwhere_stim/left_toward_270h.wav,stimulus/audwhere_stim/right_toward_300h.wav,stimulus/audwhere_stim/blank_white.png,stimulus/audwhere_stim/direction_box.png,stimulus/audwhere_stim/direction_yes.png,stimulus/audwhere_stim/direction_no.png,None,Direction,None,Direction,1,0.0,0,5.125,0,5.125,0,5.125,0,0.0,0.625,0,0.0,0,0.0,0,0.0,0,0.0,0,0.0,0,0.0,1,0.5,1,2.125,0,,,,,0,4,4,4,,,,,,,,,73.32230641599926,73.32230641599926,73.32230641599926,73.32230641599926,73.32230641599926,73.32230641599926,73.32230641599926,73.32230641599926,73.24057112433286,73.32230641599926,73.32230641599926,73.32230641599926,73.24057112433286,73.32230641599926,73.32230641599926,73.32230641599926,75.42934987499939,,73.32230641599926,73.32230641599926,78.47748537499956,73.32230641599926,73.32230641599926,73.32230641599926,73.32230641599926,73.79153124999993,74.82164020799974,73.76138929166633,,75.42934987499939,76.46467424999992,75.39863462466589,,73.32230641599926,78.47748537499956,73.32230641599926,78.47748537499956,78.5202855409998,79.17864674999964,73.32230641599926,1,1,1.1096217499998602,reldom2_s003,001,2025-01-31_12h33.39.767,Where-B-Scan_AC,2022.2.5,None,
0,0.0,None,fixation,stimulus/audwhere_stim/blank_white.png,stimulus/audwhere_stim/blank_white.png,stimulus/viswhere_stim/blank_white.png,stimulus/viswhere_stim/blank_white.png,stimulus/audwhere_stim/blank_white.png,stimulus/audwhere_stim/blank_white.png,stimulus/audwhere_stim/blank_white.png,stimulus/audwhere_stim/blank_white.png,0.0,0.0,0.0,0.0,0,0.0,0,0.0,0,0.0,0,0.0,0,0.0,0.0,0,0.0,0,0.0,0,0.0,0,0.0,0,0.0,0,0.0,0,0.0,0,0.0,10,,,,,0,5,5,5,,,,,,,,,79.46046399999977,79.46046399999977,79.46046399999977,79.46046399999977,79.46046399999977,79.46046399999977,79.46046399999977,79.46046399999977,79.35296587433288,79.46046399999977,79.46046399999977,79.46046399999977,79.35296587433288,79.46046399999977,79.46046399999977,79.46046399999977,79.46046399999977,79.46046399999977,79.46046399999977,79.46046399999977,79.46046399999977,79.46046399999977,79.46046399999977,79.46046399999977,79.46046399999977,79.46046399999977,79.46046399999977,79.41963254099956,79.46046399999977,79.46046399999977,79.46046399999977,79.41963254099956,79.46046399999977,79.46046399999977,79.46046399999977,79.46046399999977,79.46046399999977,84.67775120799979,84.67775120799979,89.61732754099921,None,0,,reldom2_s003,001,2025-01-31_12h33.39.767,Where-B-Scan_AC,2022.2.5,None,
5,Second_Order,1.0,audwhere,stimulus/audwhere_stim/right_toward_300h.wav,stimulus/audwhere_stim/left_toward_280h.wav,stimulus/audwhere_stim/right_toward_280h.wav,stimulus/audwhere_stim/right_away_280h.wav,stimulus/audwhere_stim/match_blank.png,stimulus/audwhere_stim/match_box.png,stimulus/audwhere_stim/match_yes.png,stimulus/audwhere_stim/match_no.png,2.0,Match,Direction,Side,2,5.125,0,5.125,0,5.125,0,5.125,0,0.75,0.75,0,0.0,0,0.0,0,0.0,0,0.0,1,0.5,1,2.125,1,0.5,1,2.125,0,,,,,0,6,6,6,,,,,,,,,89.61732754099921,94.73759274999975,89.61732754099921,89.61732754099921,89.61732754099921,89.61732754099921,90.07535324999935,91.07282537499941,90.08753079166605,91.0807861659996,91.69586033299947,92.69287649999933,91.70793041666663,92.69916745799947,94.73759274999975,95.56653616599942,97.65979466599947,,95.56653616599942,95.56653616599942,100.73958562499956,95.56653616599942,95.56653616599942,95.56653616599942,95.56653616599942,96.03016187499998,97.10173899999972,96.00002908266585,,97.65979466599947,98.73353254099948,97.6298396666664,,95.56653616599942,100.73958562499956,95.56653616599942,100.73958562499956,100.78071249999994,,95.56653616599942,2,1,1.1834845000003043,reldom2_s003,001,2025-01-31_12h33.39.767,Where-B-Scan_AC,2022.2.5,None,
6,Second_Order,1.0,audwhere,stimulus/audwhere_stim/right_toward_270h.wav,stimulus/audwhere_stim/right_away_290h.wav,stimulus/audwhere_stim/left_toward_300h.wav,stimulus/audwhere_stim/left_away_290h.wav,stimulus/audwhere_stim/match_blank.png,stimulus/audwhere_stim/match_box.png,stimulus/audwhere_stim/match_yes.png,stimulus/audwhere_stim/match_no.png,1.0,Match,Side,Side,1,5.125,0,5.125,0,5.125,0,5.125,0,0.625,0.625,0,0.0,0,0.0,0,0.0,0,0.0,1,0.5,1,2.125,1,0.5,1,2.125,0,,,,,0,7,7,7,,,,,,,,,101.55478116599988,106.6759415409997,101.55478116599988,101.55478116599988,101.55478116599988,101.55478116599988,102.00230562499928,103.0006731249996,102.0148530416666,103.00883512499968,103.63520199999948,104.62521204099994,103.64014791666638,104.6378249999998,106.6759415409997,107.39229970799988,109.47765416599941,113.51834187499935,107.39229970799988,107.39229970799988,112.54555295799946,107.39229970799988,107.39229970799988,107.39229970799988,107.39229970799988,107.85342895799931,108.9232793329993,107.82410387466668,,109.47765416599941,110.55064879099973,109.44810533266651,,107.39229970799988,112.54555295799946,107.39229970799988,112.54555295799946,112.58596933299941,113.2410942079996,107.39229970799988,1,1,1.4280713340003786,reldom2_s003,001,2025-01-31_12h33.39.767,Where-B-Scan_AC,2022.2.5,None,
0,0.0,None,fixation,stimulus/audwhere_stim/blank_white.png,stimulus/audwhere_stim/blank_white.png,stimulus/viswhere_stim/blank_white.png,stimulus/viswhere_stim/blank_white.png,stimulus/audwhere_stim/blank_white.png,stimulus/audwhere_stim/blank_white.png,stimulus/audwhere_stim/blank_white.png,stimulus/audwhere_stim/blank_white.png,0.0,0.0,0.0,0.0,0,0.0,0,0.0,0,0.0,0,0.0,0,0.0,0.0,0,0.0,0,0.0,0,0.0,0,0.0,0,0.0,0,0.0,0,0.0,0,0.0,9,,,,,0,8,8,8,,,,,,,,,113.51834187499935,113.51834187499935,113.51834187499935,113.51834187499935,113.51834187499935,113.51834187499935,113.51834187499935,113.51834187499935,113.4149887913328,113.51834187499935,113.51834187499935,113.51834187499935,113.4149887913328,113.51834187499935,113.51834187499935,113.51834187499935,113.51834187499935,113.51834187499935,113.51834187499935,113.51834187499935,113.51834187499935,113.51834187499935,113.51834187499935,113.51834187499935,113.51834187499935,113.51834187499935,113.51834187499935,113.46498879133281,113.51834187499935,113.51834187499935,113.51834187499935,113.46498879133281,113.51834187499935,113.51834187499935,113.51834187499935,113.51834187499935,113.51834187499935,118.70741112499945,118.70741112499945,122.75768441599939,None,0,,reldom2_s003,001,2025-01-31_12h33.39.767,Where-B-Scan_AC,2022.2.5,None,
7,First_Order,2.0,audwhere,stimulus/audwhere_stim/dummy.wav,stimulus/audwhere_stim/dummy.wav,stimulus/audwhere_stim/left_toward_270h.wav,stimulus/audwhere_stim/right_toward_270h.wav,stimulus/audwhere_stim/blank_white.png,stimulus/audwhere_stim/direction_box.png,stimulus/audwhere_stim/direction_yes.png,stimulus/audwhere_stim/direction_no.png,None,Direction,None,Direction,1,0.0,0,5.125,0,5.125,0,5.125,0,0.0,0.625,0,0.0,0,0.0,0,0.0,0,0.0,0,0.0,0,0.0,1,0.5,1,2.125,0,,,,,0,9,9,9,,,,,,,,,122.75768441599939,122.75768441599939,122.75768441599939,122.75768441599939,122.75768441599939,122.75768441599939,122.75768441599939,122.75768441599939,122.6821377076664,122.75768441599939,122.75768441599939,122.75768441599939,122.6821377076664,122.75768441599939,122.75768441599939,122.75768441599939,124.87177041599989,128.88665354099976,122.75768441599939,122.75768441599939,127.92735295799957,122.75768441599939,122.75768441599939,122.75768441599939,122.75768441599939,123.22665654100001,124.2596709999998,123.19650208266582,,124.87177041599989,125.90769995799928,124.8417032496666,,122.75768441599939,127.92735295799957,122.75768441599939,127.92735295799957,127.9686732909995,128.63037924999935,122.75768441599939,1,1,1.039363666999634,reldom2_s003,001,2025-01-31_12h33.39.767,Where-B-Scan_AC,2022.2.5,None,
8,First_Order,2.0,audwhere,stimulus/audwhere_stim/dummy.wav,stimulus/audwhere_stim/dummy.wav,stimulus/audwhere_stim/left_toward_280h.wav,stimulus/audwhere_stim/right_toward_290h.wav,stimulus/audwhere_stim/blank_white.png,stimulus/audwhere_stim/side_box.png,stimulus/audwhere_stim/side_yes.png,stimulus/audwhere_stim/side_no.png,None,Side,None,Direction,2,0.0,0,5.125,0,5.125,0,5.125,0,0.0,0.625,0,0.0,0,0.0,0,0.0,0,0.0,0,0.0,0,0.0,1,0.5,1,2.125,0,,,,,0,10,10,10,,,,,,,,,128.88665354099976,128.88665354099976,128.88665354099976,128.88665354099976,128.88665354099976,128.88665354099976,128.88665354099976,128.88665354099976,128.804292541333,128.88665354099976,128.88665354099976,128.88665354099976,128.804292541333,128.88665354099976,128.88665354099976,128.88665354099976,130.99246666599993,,128.88665354099976,128.88665354099976,134.08219941599964,128.88665354099976,128.88665354099976,128.88665354099976,128.88665354099976,129.35458158299934,130.42904041599922,129.32405062466594,,130.99246666599993,132.02343545799977,130.9618711666665,,128.88665354099976,134.08219941599964,128.88665354099976,134.08219941599964,134.08219941599964,134.74157383299917,128.88665354099976,2,1,1.127238041000055,reldom2_s003,001,2025-01-31_12h33.39.767,Where-B-Scan_AC,2022.2.5,None,
9,First_Order,2.0,audwhere,stimulus/audwhere_stim/dummy.wav,stimulus/audwhere_stim/dummy.wav,stimulus/audwhere_stim/left_away_270h.wav,stimulus/audwhere_stim/left_toward_290h.wav,stimulus/audwhere_stim/blank_white.png,stimulus/audwhere_stim/side_box.png,stimulus/audwhere_stim/side_yes.png,stimulus/audwhere_stim/side_no.png,None,Side,None,Side,1,0.0,0,5.125,0,5.125,0,5.125,0,0.0,0.625,0,0.0,0,0.0,0,0.0,0,0.0,0,0.0,0,0.0,1,0.5,1,2.125,0,,,,,0,11,11,11,,,,,,,,,135.00065324999923,135.00065324999923,135.00065324999923,135.00065324999923,135.00065324999923,135.00065324999923,135.00065324999923,135.00065324999923,134.91591545833322,135.00065324999923,135.00065324999923,135.00065324999923,134.91591545833322,135.00065324999923,135.00065324999923,135.00065324999923,137.11255462499958,141.11997324999993,135.00065324999923,135.00065324999923,140.16037304099973,135.00065324999923,135.00065324999923,135.00065324999923,135.00065324999923,135.47008654099955,136.50222874999963,135.43941449966613,,137.11255462499958,138.14458041599937,137.08188912466656,,135.00065324999923,140.16037304099973,135.00065324999923,140.16037304099973,140.20202699999936,140.86259208299998,135.00065324999923,1,1,1.158486332999928,reldom2_s003,001,2025-01-31_12h33.39.767,Where-B-Scan_AC,2022.2.5,None,
10,First_Order,2.0,audwhere,stimulus/audwhere_stim/dummy.wav,stimulus/audwhere_stim/dummy.wav,stimulus/audwhere_stim/right_away_290h.wav,stimulus/audwhere_stim/right_toward_290h.wav,stimulus/audwhere_stim/blank_white.png,stimulus/audwhere_stim/side_box.png,stimulus/audwhere_stim/side_yes.png,stimulus/audwhere_stim/side_no.png,None,Side,None,Side,1,0.0,0,5.125,0,5.125,0,5.125,0,0.0,0.625,0,0.0,0,0.0,0,0.0,0,0.0,0,0.0,0,0.0,1,0.5,1,2.125,0,,,,,0,12,12,12,,,,,,,,,141.11997324999993,141.11997324999993,141.11997324999993,141.11997324999993,141.11997324999993,141.11997324999993,141.11997324999993,141.11997324999993,141.03735304133275,141.11997324999993,141.11997324999993,141.11997324999993,141.03735304133275,141.11997324999993,141.11997324999993,141.11997324999993,143.2308533329997,147.2583647499996,141.11997324999993,141.11997324999993,146.2772395409993,141.11997324999993,141.11997324999993,141.11997324999993,141.11997324999993,141.58955074999994,142.62280499999997,141.5587459166666,,143.2308533329997,144.26235120799993,143.20028954166654,,141.11997324999993,146.2772395409993,141.11997324999993,146.2772395409993,146.3181454579999,146.97950299999957,141.11997324999993,1,1,1.0561613749996468,reldom2_s003,001,2025-01-31_12h33.39.767,Where-B-Scan_AC,2022.2.5,None,
0,0.0,None,fixation,stimulus/audwhere_stim/blank_white.png,stimulus/audwhere_stim/blank_white.png,stimulus/viswhere_stim/blank_white.png,stimulus/viswhere_stim/blank_white.png,stimulus/audwhere_stim/blank_white.png,stimulus/audwhere_stim/blank_white.png,stimulus/audwhere_stim/blank_white.png,stimulus/audwhere_stim/blank_white.png,0.0,0.0,0.0,0.0,0,0.0,0,0.0,0,0.0,0,0.0,0,0.0,0.0,0,0.0,0,0.0,0,0.0,0,0.0,0,0.0,0,0.0,0,0.0,0,0.0,9,,,,,0,13,13,13,,,,,,,,,147.2583647499996,147.2583647499996,147.2583647499996,147.2583647499996,147.2583647499996,147.2583647499996,147.2583647499996,147.2583647499996,147.15424599933263,147.2583647499996,147.2583647499996,147.2583647499996,147.15424599933263,147.2583647499996,147.2583647499996,147.2583647499996,147.2583647499996,147.2583647499996,147.2583647499996,147.2583647499996,147.2583647499996,147.2583647499996,147.2583647499996,147.2583647499996,147.2583647499996,147.2583647499996,147.2583647499996,147.2042459993326,147.2583647499996,147.2583647499996,147.2583647499996,147.2042459993326,147.2583647499996,147.2583647499996,147.2583647499996,147.2583647499996,147.2583647499996,152.44427695799914,152.44427695799914,156.43350529099916,None,0,,reldom2_s003,001,2025-01-31_12h33.39.767,Where-B-Scan_AC,2022.2.5,None,
11,Second_Order,2.0,audwhere,stimulus/audwhere_stim/left_toward_280h.wav,stimulus/audwhere_stim/left_away_290h.wav,stimulus/audwhere_stim/left_away_290h.wav,stimulus/audwhere_stim/right_away_280h.wav,stimulus/audwhere_stim/match_blank.png,stimulus/audwhere_stim/match_box.png,stimulus/audwhere_stim/match_yes.png,stimulus/audwhere_stim/match_no.png,2.0,Match,Side,Direction,2,5.125,0,5.125,0,5.125,0,5.125,0,0.75,0.75,0,0.0,0,0.0,0,0.0,0,0.0,1,0.5,1,2.125,1,0.5,1,2.125,0,,,,,0,14,14,14,,,,,,,,,156.43350529099916,161.55644079099966,156.43350529099916,156.43350529099916,156.43350529099916,156.43350529099916,156.89163837499927,157.88039924999975,156.8950008746663,157.89358866599923,158.51202566599932,159.50086083299993,158.5197338326664,159.52141591599957,161.55644079099966,162.3855757499996,164.49122649999936,168.4007327499994,162.3855757499996,162.3855757499996,167.58051616599914,162.3855757499996,162.3855757499996,162.3855757499996,162.3855757499996,162.85563108299993,163.88563608299955,162.8249827496659,,164.49122649999936,165.52259849999973,164.46102591666593,,162.3855757499996,167.58051616599914,162.3855757499996,167.58051616599914,167.58051616599914,,162.3855757499996,2,1,1.2308478340000875,reldom2_s003,001,2025-01-31_12h33.39.767,Where-B-Scan_AC,2022.2.5,None,
12,Second_Order,2.0,audwhere,stimulus/audwhere_stim/left_away_270h.wav,stimulus/audwhere_stim/left_toward_280h.wav,stimulus/audwhere_stim/right_away_280h.wav,stimulus/audwhere_stim/right_toward_300h.wav,stimulus/audwhere_stim/match_blank.png,stimulus/audwhere_stim/match_box.png,stimulus/audwhere_stim/match_yes.png,stimulus/audwhere_stim/match_no.png,1.0,Match,Side,Side,1,5.125,0,5.125,0,5.125,0,5.125,0,0.625,0.625,0,0.0,0,0.0,0,0.0,0,0.0,1,0.5,1,2.125,1,0.5,1,2.125,0,,,,,0,15,15,15,,,,,,,,,168.4007327499994,173.5182474159992,168.4007327499994,168.4007327499994,168.4007327499994,168.4007327499994,168.85653820799962,169.86245966599927,168.86890924966636,169.86245966599927,170.47755637499995,171.47517304099983,170.48961158266619,171.48300562499935,173.5182474159992,174.2265212909997,176.32218491599997,,174.2265212909997,174.2265212909997,179.40735629099981,174.2265212909997,174.2265212909997,174.2265212909997,174.2265212909997,174.69161599999916,175.76164620799955,174.66156462466668,,176.32218491599997,177.3536412909998,176.29166579166602,,174.2265212909997,179.40735629099981,174.2265212909997,179.40735629099981,179.40735629099981,180.065234916,174.2265212909997,1,1,0.9806459159999577,reldom2_s003,001,2025-01-31_12h33.39.767,Where-B-Scan_AC,2022.2.5,None,
0,0.0,None,fixation,stimulus/audwhere_stim/blank_white.png,stimulus/audwhere_stim/blank_white.png,stimulus/viswhere_stim/blank_white.png,stimulus/viswhere_stim/blank_white.png,stimulus/audwhere_stim/blank_white.png,stimulus/audwhere_stim/blank_white.png,stimulus/audwhere_stim/blank_white.png,stimulus/audwhere_stim/blank_white.png,0.0,0.0,0.0,0.0,0,0.0,0,0.0,0,0.0,0,0.0,0,0.0,0.0,0,0.0,0,0.0,0,0.0,0,0.0,0,0.0,0,0.0,0,0.0,0,0.0,8,,,,,0,16,16,16,,,,,,,,,180.34290716599935,180.34290716599935,180.34290716599935,180.34290716599935,180.34290716599935,180.34290716599935,180.34290716599935,180.34290716599935,180.23906033333256,180.34290716599935,180.34290716599935,180.34290716599935,180.23906033333256,180.34290716599935,180.34290716599935,180.34290716599935,180.34290716599935,180.34290716599935,180.34290716599935,180.34290716599935,180.34290716599935,180.34290716599935,180.34290716599935,180.34290716599935,180.34290716599935,180.34290716599935,180.34290716599935,180.28906033333254,180.34290716599935,180.34290716599935,180.34290716599935,180.28906033333254,180.34290716599935,180.34290716599935,180.34290716599935,180.34290716599935,180.34290716599935,185.57067133299915,185.57067133299915,188.5627643329999,None,0,,reldom2_s003,001,2025-01-31_12h33.39.767,Where-B-Scan_AC,2022.2.5,None,
13,First_Order,3.0,viswhere,stimulus/viswhere_stim/blank_white.png,stimulus/viswhere_stim/blank_white.png,stimulus/viswhere_stim/150-deg_dot-left_seagreen.png,stimulus/viswhere_stim/150-deg_dot-right_royalblue.png,stimulus/viswhere_stim/blank_white.png,stimulus/viswhere_stim/line_box.png,stimulus/viswhere_stim/line_yes.png,stimulus/viswhere_stim/line_no.png,None,Line,None,Line,1,0.0,0,5.125,0,5.125,0,5.125,0,0.0,0.625,0,0.0,0,0.0,1,0.5,1,2.125,0,0.0,0,0.0,0,0.0,0,0.0,0,,,,,0,17,17,17,,,,,,,,,188.5627643329999,188.5627643329999,188.5627643329999,188.5627643329999,188.5627643329999,188.5627643329999,188.5627643329999,188.5627643329999,188.53908020766602,188.5627643329999,188.5627643329999,188.5627643329999,188.53908020766602,188.5627643329999,188.5627643329999,188.5627643329999,190.65682695799933,194.62389962499947,188.5627643329999,188.5627643329999,193.6955774579992,189.0327524159993,190.0499439159994,190.65682695799933,191.67833599999994,188.5627643329999,188.5627643329999,188.55574687433267,188.5627643329999,188.5627643329999,188.5627643329999,188.55574687433267,188.5627643329999,188.5627643329999,193.6955774579992,188.5627643329999,193.6955774579992,193.78424408299998,194.4134913329999,188.5627643329999,1,1,1.0445400420003352,reldom2_s003,001,2025-01-31_12h33.39.767,Where-B-Scan_AC,2022.2.5,None,
14,First_Order,3.0,viswhere,stimulus/viswhere_stim/blank_white.png,stimulus/viswhere_stim/blank_white.png,stimulus/viswhere_stim/90-deg_dot-right_cyan.png,stimulus/viswhere_stim/90-deg_dot-left_turquoise.png,stimulus/viswhere_stim/blank_white.png,stimulus/viswhere_stim/line_box.png,stimulus/viswhere_stim/line_yes.png,stimulus/viswhere_stim/line_no.png,None,Line,None,Line,1,0.0,0,5.125,0,5.125,0,5.125,0,0.0,0.625,0,0.0,0,0.0,1,0.5,1,2.125,0,0.0,0,0.0,0,0.0,0,0.0,0,,,,,0,18,18,18,,,,,,,,,194.62389962499947,194.62389962499947,194.62389962499947,194.62389962499947,194.62389962499947,194.62389962499947,194.62389962499947,194.62389962499947,194.60073362433317,194.62389962499947,194.62389962499947,194.62389962499947,194.60073362433317,194.62389962499947,194.62389962499947,194.62389962499947,196.73892049999995,200.6950557909995,194.62389962499947,194.62389962499947,199.7730604999997,195.1085825,196.11808862499947,196.73892049999995,197.75343174999944,194.62389962499947,194.62389962499947,194.61740029099985,194.62389962499947,194.62389962499947,194.62389962499947,194.61740029099985,194.62389962499947,194.62389962499947,199.7730604999997,194.62389962499947,199.7730604999997,199.84514166600002,200.4715315829999,194.62389962499947,1,1,0.7567818750003426,reldom2_s003,001,2025-01-31_12h33.39.767,Where-B-Scan_AC,2022.2.5,None,
15,First_Order,3.0,viswhere,stimulus/viswhere_stim/blank_white.png,stimulus/viswhere_stim/blank_white.png,stimulus/viswhere_stim/60-deg_dot-right_salmon.png,stimulus/viswhere_stim/150-deg_dot-right_turquoise.png,stimulus/viswhere_stim/blank_white.png,stimulus/viswhere_stim/dot_box.png,stimulus/viswhere_stim/dot_yes.png,stimulus/viswhere_stim/dot_no.png,None,Dot,None,Dot,1,0.0,0,5.125,0,5.125,0,5.125,0,0.0,0.625,0,0.0,0,0.0,1,0.5,1,2.125,0,0.0,0,0.0,0,0.0,0,0.0,0,,,,,0,19,19,19,,,,,,,,,200.6950557909995,200.6950557909995,200.6950557909995,200.6950557909995,200.6950557909995,200.6950557909995,200.6950557909995,200.6950557909995,200.67171987433298,200.6950557909995,200.6950557909995,200.6950557909995,200.67171987433298,200.6950557909995,200.6950557909995,200.6950557909995,202.79251583299992,206.7556164159996,200.6950557909995,200.6950557909995,205.82538658299927,201.18028120799954,202.1897874999995,202.79251583299992,203.80514104099984,200.6950557909995,200.6950557909995,200.68838654099966,200.6950557909995,200.6950557909995,200.6950557909995,200.68838654099966,200.6950557909995,200.6950557909995,205.82538658299927,200.6950557909995,205.82538658299927,205.92279570799928,206.55237216599926,200.6950557909995,1,1,1.1132387080006083,reldom2_s003,001,2025-01-31_12h33.39.767,Where-B-Scan_AC,2022.2.5,None,
16,First_Order,3.0,viswhere,stimulus/viswhere_stim/blank_white.png,stimulus/viswhere_stim/blank_white.png,stimulus/viswhere_stim/120-deg_dot-left_peru.png,stimulus/viswhere_stim/120-deg_dot-right_royalblue.png,stimulus/viswhere_stim/blank_white.png,stimulus/viswhere_stim/dot_box.png,stimulus/viswhere_stim/dot_yes.png,stimulus/viswhere_stim/dot_no.png,None,Dot,None,Line,2,0.0,0,5.125,0,5.125,0,5.125,0,0.0,0.625,0,0.0,0,0.0,1,0.5,1,2.125,0,0.0,0,0.0,0,0.0,0,0.0,0,,,,,0,20,20,20,,,,,,,,,206.7556164159996,206.7556164159996,206.7556164159996,206.7556164159996,206.7556164159996,206.7556164159996,206.7556164159996,206.7556164159996,206.73249262433305,206.7556164159996,206.7556164159996,206.7556164159996,206.73249262433305,206.7556164159996,206.7556164159996,206.7556164159996,208.85594024999955,212.90624024999943,206.7556164159996,206.7556164159996,211.88929762499993,207.2368451249995,208.23905845799982,208.85594024999955,209.8642032079997,206.7556164159996,206.7556164159996,206.74915929099973,206.7556164159996,206.7556164159996,206.7556164159996,206.74915929099973,206.7556164159996,206.7556164159996,211.88929762499993,206.7556164159996,211.88929762499993,211.97239233299933,212.59647095799937,206.7556164159996,2,1,1.118770250000125,reldom2_s003,001,2025-01-31_12h33.39.767,Where-B-Scan_AC,2022.2.5,None,
0,0.0,None,fixation,stimulus/audwhere_stim/blank_white.png,stimulus/audwhere_stim/blank_white.png,stimulus/viswhere_stim/blank_white.png,stimulus/viswhere_stim/blank_white.png,stimulus/audwhere_stim/blank_white.png,stimulus/audwhere_stim/blank_white.png,stimulus/audwhere_stim/blank_white.png,stimulus/audwhere_stim/blank_white.png,0.0,0.0,0.0,0.0,0,0.0,0,0.0,0,0.0,0,0.0,0,0.0,0.0,0,0.0,0,0.0,0,0.0,0,0.0,0,0.0,0,0.0,0,0.0,0,0.0,10,,,,,0,21,21,21,,,,,,,,,212.90624024999943,212.90624024999943,212.90624024999943,212.90624024999943,212.90624024999943,212.90624024999943,212.90624024999943,212.90624024999943,212.80513029133303,212.90624024999943,212.90624024999943,212.90624024999943,212.80513029133303,212.90624024999943,212.90624024999943,212.90624024999943,212.90624024999943,212.90624024999943,212.90624024999943,212.90624024999943,212.90624024999943,212.90624024999943,212.90624024999943,212.90624024999943,212.90624024999943,212.90624024999943,212.90624024999943,212.85513029133304,212.90624024999943,212.90624024999943,212.90624024999943,212.85513029133304,212.90624024999943,212.90624024999943,212.90624024999943,212.90624024999943,212.90624024999943,218.11139904099946,218.11139904099946,223.05984279099994,None,0,,reldom2_s003,001,2025-01-31_12h33.39.767,Where-B-Scan_AC,2022.2.5,None,
17,Second_Order,3.0,viswhere,stimulus/viswhere_stim/90-deg_dot-left_lightsseagreen.png,stimulus/viswhere_stim/90-deg_dot-right_lightsseagreen.png,stimulus/viswhere_stim/120-deg_dot-right_cyan.png,stimulus/viswhere_stim/60-deg_dot-right_royalblue.png,stimulus/audwhere_stim/match_blank.png,stimulus/audwhere_stim/match_box.png,stimulus/audwhere_stim/match_yes.png,stimulus/audwhere_stim/match_no.png,2.0,Match,Line,Dot,2,5.125,0,5.125,0,5.125,0,5.125,0,0.75,0.75,1,0.5,1,2.125,1,0.5,1,2.125,0,0.0,0,0.0,0,0.0,0,0.0,0,,,,,0,22,22,22,,,,,,,,,223.05984279099994,228.17683087499972,223.532436083,224.53107491599985,225.1659276249993,226.15487104099975,223.05984279099994,223.05984279099994,223.07167804133329,223.05984279099994,223.05984279099994,223.05984279099994,223.07167804133329,223.05984279099994,228.17683087499972,228.9592955829994,231.053608833,234.946446166,228.9592955829994,228.9592955829994,234.08819104099985,229.42515770799946,230.43320099999983,231.053608833,232.069991458,228.9592955829994,228.9592955829994,228.94599333333332,228.9592955829994,228.9592955829994,228.9592955829994,228.94599333333332,228.9592955829994,228.9592955829994,234.08819104099985,228.9592955829994,234.08819104099985,234.17135220799992,234.946446166,228.9592955829994,2,1,0.7893317919997571,reldom2_s003,001,2025-01-31_12h33.39.767,Where-B-Scan_AC,2022.2.5,None,
18,Second_Order,3.0,viswhere,stimulus/viswhere_stim/90-deg_dot-left_lightsseagreen.png,stimulus/viswhere_stim/60-deg_dot-left_mediumslateblue.png,stimulus/viswhere_stim/60-deg_dot-right_lightsseagreen.png,stimulus/viswhere_stim/30-deg_dot-right_goldenrod.png,stimulus/audwhere_stim/match_blank.png,stimulus/audwhere_stim/match_box.png,stimulus/audwhere_stim/match_yes.png,stimulus/audwhere_stim/match_no.png,1.0,Match,Dot,Dot,1,5.125,0,5.125,0,5.125,0,5.125,0,0.625,0.625,1,0.5,1,2.125,1,0.5,1,2.125,0,0.0,0,0.0,0,0.0,0,0.0,0,,,,,0,23,23,23,,,,,,,,,234.946446166,240.0712962079997,235.4264847079994,236.4249544159993,237.04801374999988,238.0454809999992,234.946446166,234.946446166,234.9587416249995,234.946446166,234.946446166,234.946446166,234.9587416249995,234.946446166,240.0712962079997,240.72873329100003,242.81991479099997,246.85525304099974,240.72873329100003,240.72873329100003,245.85192962499968,241.19255679099933,242.20029262499975,242.81991479099997,243.83326491599928,240.72873329100003,240.72873329100003,240.7183033333327,240.72873329100003,240.72873329100003,240.72873329100003,240.7183033333327,240.72873329100003,240.72873329100003,245.85192962499968,240.72873329100003,245.85192962499968,245.9403399999992,246.5721301249996,240.72873329100003,1,1,0.9726780420005525,reldom2_s003,001,2025-01-31_12h33.39.767,Where-B-Scan_AC,2022.2.5,None,
0,0.0,None,fixation,stimulus/audwhere_stim/blank_white.png,stimulus/audwhere_stim/blank_white.png,stimulus/viswhere_stim/blank_white.png,stimulus/viswhere_stim/blank_white.png,stimulus/audwhere_stim/blank_white.png,stimulus/audwhere_stim/blank_white.png,stimulus/audwhere_stim/blank_white.png,stimulus/audwhere_stim/blank_white.png,0.0,0.0,0.0,0.0,0,0.0,0,0.0,0,0.0,0,0.0,0,0.0,0.0,0,0.0,0,0.0,0,0.0,0,0.0,0,0.0,0,0.0,0,0.0,0,0.0,9,,,,,0,24,24,24,,,,,,,,,246.85525304099974,246.85525304099974,246.85525304099974,246.85525304099974,246.85525304099974,246.85525304099974,246.85525304099974,246.85525304099974,246.75204908333248,246.85525304099974,246.85525304099974,246.85525304099974,246.75204908333248,246.85525304099974,246.85525304099974,246.85525304099974,246.85525304099974,246.85525304099974,246.85525304099974,246.85525304099974,246.85525304099974,246.85525304099974,246.85525304099974,246.85525304099974,246.85525304099974,246.85525304099974,246.85525304099974,246.8020490833325,246.85525304099974,246.85525304099974,246.85525304099974,246.8020490833325,246.85525304099974,246.85525304099974,246.85525304099974,246.85525304099974,246.85525304099974,252.05569924999963,252.05569924999963,256.0403944999998,None,0,,reldom2_s003,001,2025-01-31_12h33.39.767,Where-B-Scan_AC,2022.2.5,None,
19,First_Order,4.0,viswhere,stimulus/viswhere_stim/blank_white.png,stimulus/viswhere_stim/blank_white.png,stimulus/viswhere_stim/90-deg_dot-left_seagreen.png,stimulus/viswhere_stim/150-deg_dot-left_lightsseagreen.png,stimulus/viswhere_stim/blank_white.png,stimulus/viswhere_stim/dot_box.png,stimulus/viswhere_stim/dot_yes.png,stimulus/viswhere_stim/dot_no.png,None,Dot,None,Dot,1,0.0,0,5.125,0,5.125,0,5.125,0,0.0,0.625,0,0.0,0,0.0,1,0.5,1,2.125,0,0.0,0,0.0,0,0.0,0,0.0,0,,,,,0,25,25,25,,,,,,,,,256.0403944999998,256.0403944999998,256.0403944999998,256.0403944999998,256.0403944999998,256.0403944999998,256.0403944999998,256.0403944999998,256.0167312916662,256.0403944999998,256.0403944999998,256.0403944999998,256.0167312916662,256.0403944999998,256.0403944999998,256.0403944999998,258.14214620799976,262.1090328329992,256.0403944999998,256.0403944999998,261.1669732909995,256.52769008299947,257.5402407499996,258.14214620799976,259.16150195799946,256.0403944999998,256.0403944999998,256.03339795833284,256.0403944999998,256.0403944999998,256.0403944999998,256.03339795833284,256.0403944999998,256.0403944999998,261.1669732909995,256.0403944999998,261.1669732909995,261.26477054099996,261.8906951659992,256.0403944999998,1,1,0.8617724579999049,reldom2_s003,001,2025-01-31_12h33.39.767,Where-B-Scan_AC,2022.2.5,None,
20,First_Order,4.0,viswhere,stimulus/viswhere_stim/blank_white.png,stimulus/viswhere_stim/blank_white.png,stimulus/viswhere_stim/30-deg_dot-left_peru.png,stimulus/viswhere_stim/30-deg_dot-right_salmon.png,stimulus/viswhere_stim/blank_white.png,stimulus/viswhere_stim/dot_box.png,stimulus/viswhere_stim/dot_yes.png,stimulus/viswhere_stim/dot_no.png,None,Dot,None,Line,2,0.0,0,5.125,0,5.125,0,5.125,0,0.0,0.625,0,0.0,0,0.0,1,0.5,1,2.125,0,0.0,0,0.0,0,0.0,0,0.0,0,,,,,0,26,26,26,,,,,,,,,262.1090328329992,262.1090328329992,262.1090328329992,262.1090328329992,262.1090328329992,262.1090328329992,262.1090328329992,262.1090328329992,262.0854772083333,262.1090328329992,262.1090328329992,262.1090328329992,262.0854772083333,262.1090328329992,262.1090328329992,262.1090328329992,264.21559974999946,268.18084158299916,262.1090328329992,262.1090328329992,267.23950591599987,262.59317137499966,263.59887658299976,264.21559974999946,265.22964808300003,262.1090328329992,262.1090328329992,262.10214387499997,262.1090328329992,262.1090328329992,262.1090328329992,262.10214387499997,262.1090328329992,262.1090328329992,267.23950591599987,262.1090328329992,267.23950591599987,267.3366773329999,267.96362241599945,262.1090328329992,2,1,0.7362300830000095,reldom2_s003,001,2025-01-31_12h33.39.767,Where-B-Scan_AC,2022.2.5,None,
21,First_Order,4.0,viswhere,stimulus/viswhere_stim/blank_white.png,stimulus/viswhere_stim/blank_white.png,stimulus/viswhere_stim/60-deg_dot-left_lightsseagreen.png,stimulus/viswhere_stim/30-deg_dot-left_slateblue.png,stimulus/viswhere_stim/blank_white.png,stimulus/viswhere_stim/line_box.png,stimulus/viswhere_stim/line_yes.png,stimulus/viswhere_stim/line_no.png,None,Line,None,Dot,2,0.0,0,5.125,0,5.125,0,5.125,0,0.0,0.625,0,0.0,0,0.0,1,0.5,1,2.125,0,0.0,0,0.0,0,0.0,0,0.0,0,,,,,0,27,27,27,,,,,,,,,268.18084158299916,268.18084158299916,268.18084158299916,268.18084158299916,268.18084158299916,268.18084158299916,268.18084158299916,268.18084158299916,268.15761804133246,268.18084158299916,268.18084158299916,268.18084158299916,268.15761804133246,268.18084158299916,268.18084158299916,268.18084158299916,270.29273791599917,274.2484040829995,268.18084158299916,268.18084158299916,273.3188691659998,268.6677257909996,269.6749069999996,270.29273791599917,271.3056105409996,268.18084158299916,268.18084158299916,268.1742847079991,268.18084158299916,268.18084158299916,268.18084158299916,268.1742847079991,268.18084158299916,268.18084158299916,273.3188691659998,268.18084158299916,273.3188691659998,273.40408108299926,274.030003375,268.18084158299916,2,1,1.3548864579997826,reldom2_s003,001,2025-01-31_12h33.39.767,Where-B-Scan_AC,2022.2.5,None,
22,First_Order,4.0,viswhere,stimulus/viswhere_stim/blank_white.png,stimulus/viswhere_stim/blank_white.png,stimulus/viswhere_stim/120-deg_dot-right_peru.png,stimulus/viswhere_stim/150-deg_dot-right_peru.png,stimulus/viswhere_stim/blank_white.png,stimulus/viswhere_stim/line_box.png,stimulus/viswhere_stim/line_yes.png,stimulus/viswhere_stim/line_no.png,None,Line,None,Dot,2,0.0,0,5.125,0,5.125,0,5.125,0,0.0,0.625,0,0.0,0,0.0,1,0.5,1,2.125,0,0.0,0,0.0,0,0.0,0,0.0,0,,,,,0,28,28,28,,,,,,,,,274.2484040829995,274.2484040829995,274.2484040829995,274.2484040829995,274.2484040829995,274.2484040829995,274.2484040829995,274.2484040829995,274.22487749933254,274.2484040829995,274.2484040829995,274.2484040829995,274.22487749933254,274.2484040829995,274.2484040829995,274.2484040829995,276.3489842909994,280.3902828329992,274.2484040829995,274.2484040829995,279.3698705829993,274.73567558299965,275.7466519159998,276.3489842909994,277.36778199999935,274.2484040829995,274.2484040829995,274.2415441659992,274.2484040829995,274.2484040829995,274.2484040829995,274.2415441659992,274.2484040829995,274.2484040829995,279.3698705829993,274.2484040829995,279.3698705829993,279.46790608299943,280.0938031249998,274.2484040829995,2,1,0.8266179579995878,reldom2_s003,001,2025-01-31_12h33.39.767,Where-B-Scan_AC,2022.2.5,None,
0,0.0,None,fixation,stimulus/audwhere_stim/blank_white.png,stimulus/audwhere_stim/blank_white.png,stimulus/viswhere_stim/blank_white.png,stimulus/viswhere_stim/blank_white.png,stimulus/audwhere_stim/blank_white.png,stimulus/audwhere_stim/blank_white.png,stimulus/audwhere_stim/blank_white.png,stimulus/audwhere_stim/blank_white.png,0.0,0.0,0.0,0.0,0,0.0,0,0.0,0,0.0,0,0.0,0,0.0,0.0,0,0.0,0,0.0,0,0.0,0,0.0,0,0.0,0,0.0,0,0.0,0,0.0,10,,,,,0,29,29,29,,,,,,,,,280.3902828329992,280.3902828329992,280.3902828329992,280.3902828329992,280.3902828329992,280.3902828329992,280.3902828329992,280.3902828329992,280.28878262433255,280.3902828329992,280.3902828329992,280.3902828329992,280.28878262433255,280.3902828329992,280.3902828329992,280.3902828329992,280.3902828329992,280.3902828329992,280.3902828329992,280.3902828329992,280.3902828329992,280.3902828329992,280.3902828329992,280.3902828329992,280.3902828329992,280.3902828329992,280.3902828329992,280.33878262433257,280.3902828329992,280.3902828329992,280.3902828329992,280.33878262433257,280.3902828329992,280.3902828329992,280.3902828329992,280.3902828329992,280.3902828329992,285.6047529159996,285.6047529159996,290.5097067079996,None,0,,reldom2_s003,001,2025-01-31_12h33.39.767,Where-B-Scan_AC,2022.2.5,None,
23,Second_Order,4.0,viswhere,stimulus/viswhere_stim/60-deg_dot-right_peru.png,stimulus/viswhere_stim/60-deg_dot-left_royalblue.png,stimulus/viswhere_stim/90-deg_dot-left_slateblue.png,stimulus/viswhere_stim/90-deg_dot-right_royalblue.png,stimulus/audwhere_stim/match_blank.png,stimulus/audwhere_stim/match_box.png,stimulus/audwhere_stim/match_yes.png,stimulus/audwhere_stim/match_no.png,1.0,Match,Line,Line,1,5.125,0,5.125,0,5.125,0,5.125,0,0.75,0.75,1,0.5,1,2.125,1,0.5,1,2.125,0,0.0,0,0.0,0,0.0,0,0.0,0,,,,,0,30,30,30,,,,,,,,,290.5097067079996,295.63302595799996,290.987844708,291.9865836659992,292.6087779999998,293.6070134579995,290.5097067079996,290.5097067079996,290.520401666333,290.5097067079996,290.5097067079996,290.5097067079996,290.520401666333,290.5097067079996,295.63302595799996,296.4140707909992,298.5040348749999,302.3984485409992,296.4140707909992,296.4140707909992,301.54113904099995,296.88462383299975,297.8999629579994,298.5040348749999,299.5079211249995,296.4140707909992,296.4140707909992,296.40038845833305,296.4140707909992,296.4140707909992,296.4140707909992,296.40038845833305,296.4140707909992,296.4140707909992,301.54113904099995,296.4140707909992,301.54113904099995,301.6243946659997,302.3984485409992,296.4140707909992,1,1,0.6869202080006289,reldom2_s003,001,2025-01-31_12h33.39.767,Where-B-Scan_AC,2022.2.5,None,
24,Second_Order,4.0,viswhere,stimulus/viswhere_stim/120-deg_dot-left_peru.png,stimulus/viswhere_stim/120-deg_dot-right_peru.png,stimulus/viswhere_stim/30-deg_dot-right_peru.png,stimulus/viswhere_stim/30-deg_dot-left_lightsseagreen.png,stimulus/audwhere_stim/match_blank.png,stimulus/audwhere_stim/match_box.png,stimulus/audwhere_stim/match_yes.png,stimulus/audwhere_stim/match_no.png,1.0,Match,Line,Line,1,5.125,0,5.125,0,5.125,0,5.125,0,0.625,0.625,1,0.5,1,2.125,1,0.5,1,2.125,0,0.0,0,0.0,0,0.0,0,0.0,0,,,,,0,31,31,31,,,,,,,,,302.3984485409992,307.5222415829994,302.8822448329993,303.88033379099943,304.5072954999996,305.5044184159997,302.3984485409992,302.3984485409992,302.4119602909994,302.3984485409992,302.3984485409992,302.3984485409992,302.4119602909994,302.3984485409992,307.5222415829994,308.1840318329996,310.28216408299977,314.3211489999994,308.1840318329996,308.1840318329996,313.3244399159994,308.6519908749997,309.66130237499965,310.28216408299977,311.30095804099983,308.1840318329996,308.1840318329996,308.17395891633305,308.1840318329996,308.1840318329996,308.1840318329996,308.17395891633305,308.1840318329996,308.1840318329996,313.3244399159994,308.1840318329996,313.3244399159994,313.39623199999915,314.02196683299917,308.1840318329996,1,1,0.6789401249998264,reldom2_s003,001,2025-01-31_12h33.39.767,Where-B-Scan_AC,2022.2.5,None,
0,0.0,None,fixation,stimulus/audwhere_stim/blank_white.png,stimulus/audwhere_stim/blank_white.png,stimulus/viswhere_stim/blank_white.png,stimulus/viswhere_stim/blank_white.png,stimulus/audwhere_stim/blank_white.png,stimulus/audwhere_stim/blank_white.png,stimulus/audwhere_stim/blank_white.png,stimulus/audwhere_stim/blank_white.png,0.0,0.0,0.0,0.0,0,0.0,0,0.0,0,0.0,0,0.0,0,0.0,0.0,0,0.0,0,0.0,0,0.0,0,0.0,0,0.0,0,0.0,0,0.0,0,0.0,9,,,,,0,32,32,32,,,,,,,,,314.3211489999994,314.3211489999994,314.3211489999994,314.3211489999994,314.3211489999994,314.3211489999994,314.3211489999994,314.3211489999994,314.21703079133323,314.3211489999994,314.3211489999994,314.3211489999994,314.21703079133323,314.3211489999994,314.3211489999994,314.3211489999994,314.3211489999994,314.3211489999994,314.3211489999994,314.3211489999994,314.3211489999994,314.3211489999994,314.3211489999994,314.3211489999994,314.3211489999994,314.3211489999994,314.3211489999994,314.26703079133324,314.3211489999994,314.3211489999994,314.3211489999994,314.26703079133324,314.3211489999994,314.3211489999994,314.3211489999994,314.3211489999994,314.3211489999994,319.52563412499967,319.52563412499967,323.5590199999997,None,0,,reldom2_s003,001,2025-01-31_12h33.39.767,Where-B-Scan_AC,2022.2.5,None,
25,First_Order,5.0,audwhere,stimulus/audwhere_stim/dummy.wav,stimulus/audwhere_stim/dummy.wav,stimulus/audwhere_stim/right_toward_280h.wav,stimulus/audwhere_stim/right_away_290h.wav,stimulus/audwhere_stim/blank_white.png,stimulus/audwhere_stim/side_box.png,stimulus/audwhere_stim/side_yes.png,stimulus/audwhere_stim/side_no.png,None,Side,None,Side,1,0.0,0,5.125,0,5.125,0,5.125,0,0.0,0.625,0,0.0,0,0.0,0,0.0,0,0.0,0,0.0,0,0.0,1,0.5,1,2.125,0,,,,,0,33,33,33,,,,,,,,,323.5590199999997,323.5590199999997,323.5590199999997,323.5590199999997,323.5590199999997,323.5590199999997,323.5590199999997,323.5590199999997,323.4832463746658,323.5590199999997,323.5590199999997,323.5590199999997,323.4832463746658,323.5590199999997,323.5590199999997,323.5590199999997,325.6344864579996,,323.5590199999997,323.5590199999997,328.74151283299943,323.5590199999997,323.5590199999997,323.5590199999997,323.5590199999997,324.03081437499986,325.0686766659992,324.00012945766616,,325.6344864579996,326.67405045799933,325.6037230826662,,323.5590199999997,328.74151283299943,323.5590199999997,328.74151283299943,328.78337974999977,329.4454002909997,323.5590199999997,1,1,0.8956777909997982,reldom2_s003,001,2025-01-31_12h33.39.767,Where-B-Scan_AC,2022.2.5,None,
26,First_Order,5.0,audwhere,stimulus/audwhere_stim/dummy.wav,stimulus/audwhere_stim/dummy.wav,stimulus/audwhere_stim/right_toward_300h.wav,stimulus/audwhere_stim/left_toward_270h.wav,stimulus/audwhere_stim/blank_white.png,stimulus/audwhere_stim/direction_box.png,stimulus/audwhere_stim/direction_yes.png,stimulus/audwhere_stim/direction_no.png,None,Direction,None,Direction,1,0.0,0,5.125,0,5.125,0,5.125,0,0.0,0.625,0,0.0,0,0.0,0,0.0,0,0.0,0,0.0,0,0.0,1,0.5,1,2.125,0,,,,,0,34,34,34,,,,,,,,,329.6609737909994,329.6609737909994,329.6609737909994,329.6609737909994,329.6609737909994,329.6609737909994,329.6609737909994,329.6609737909994,329.57873362433304,329.6609737909994,329.6609737909994,329.6609737909994,329.57873362433304,329.6609737909994,329.6609737909994,329.6609737909994,331.7462590409996,335.7959610409998,329.6609737909994,329.6609737909994,334.826099291,329.6609737909994,329.6609737909994,329.6609737909994,329.6609737909994,330.1349215829996,331.17898704099935,330.1041174996665,,331.7462590409996,332.79188199999953,331.7152634576662,,329.6609737909994,334.826099291,329.6609737909994,334.826099291,334.8682210829993,335.5341499159995,329.6609737909994,1,1,1.1236957499995697,reldom2_s003,001,2025-01-31_12h33.39.767,Where-B-Scan_AC,2022.2.5,None,
27,First_Order,5.0,audwhere,stimulus/audwhere_stim/dummy.wav,stimulus/audwhere_stim/dummy.wav,stimulus/audwhere_stim/left_toward_290h.wav,stimulus/audwhere_stim/left_away_300h.wav,stimulus/audwhere_stim/blank_white.png,stimulus/audwhere_stim/direction_box.png,stimulus/audwhere_stim/direction_yes.png,stimulus/audwhere_stim/direction_no.png,None,Direction,None,Side,2,0.0,0,5.125,0,5.125,0,5.125,0,0.0,0.625,0,0.0,0,0.0,0,0.0,0,0.0,0,0.0,0,0.0,1,0.5,1,2.125,0,,,,,0,35,35,35,,,,,,,,,335.7959610409998,335.7959610409998,335.7959610409998,335.7959610409998,335.7959610409998,335.7959610409998,335.7959610409998,335.7959610409998,335.7089493743325,335.7959610409998,335.7959610409998,335.7959610409998,335.7089493743325,335.7959610409998,335.7959610409998,335.7959610409998,337.8805402909993,341.922777625,335.7959610409998,335.7959610409998,340.95801845799997,335.7959610409998,335.7959610409998,335.7959610409998,335.7959610409998,336.2691017499992,337.3131967499994,336.2381927496665,,337.8805402909993,338.92476570799954,337.8495778746658,,335.7959610409998,340.95801845799997,335.7959610409998,340.95801845799997,341.00004516599984,341.66477662499983,335.7959610409998,2,1,1.4573620420005682,reldom2_s003,001,2025-01-31_12h33.39.767,Where-B-Scan_AC,2022.2.5,None,
28,First_Order,5.0,audwhere,stimulus/audwhere_stim/dummy.wav,stimulus/audwhere_stim/dummy.wav,stimulus/audwhere_stim/right_away_300h.wav,stimulus/audwhere_stim/right_toward_290h.wav,stimulus/audwhere_stim/blank_white.png,stimulus/audwhere_stim/direction_box.png,stimulus/audwhere_stim/direction_yes.png,stimulus/audwhere_stim/direction_no.png,None,Direction,None,Side,2,0.0,0,5.125,0,5.125,0,5.125,0,0.0,0.625,0,0.0,0,0.0,0,0.0,0,0.0,0,0.0,0,0.0,1,0.5,1,2.125,0,,,,,0,36,36,36,,,,,,,,,341.922777625,341.922777625,341.922777625,341.922777625,341.922777625,341.922777625,341.922777625,341.922777625,341.83927916633286,341.922777625,341.922777625,341.922777625,341.83927916633286,341.922777625,341.922777625,341.922777625,344.0085441249994,348.0754259999994,341.922777625,341.922777625,347.088916875,341.922777625,341.922777625,341.922777625,341.922777625,342.3985768749999,343.4418762079995,342.3679049996665,,344.0085441249994,345.05399416599994,343.9777516246661,,341.922777625,347.088916875,341.922777625,347.088916875,347.13089283299996,347.7959597079998,341.922777625,2,1,0.9651101660001586,reldom2_s003,001,2025-01-31_12h33.39.767,Where-B-Scan_AC,2022.2.5,None,
0,0.0,None,fixation,stimulus/audwhere_stim/blank_white.png,stimulus/audwhere_stim/blank_white.png,stimulus/viswhere_stim/blank_white.png,stimulus/viswhere_stim/blank_white.png,stimulus/audwhere_stim/blank_white.png,stimulus/audwhere_stim/blank_white.png,stimulus/audwhere_stim/blank_white.png,stimulus/audwhere_stim/blank_white.png,0.0,0.0,0.0,0.0,0,0.0,0,0.0,0,0.0,0,0.0,0,0.0,0.0,0,0.0,0,0.0,0,0.0,0,0.0,0,0.0,0,0.0,0,0.0,0,0.0,10,,,,,0,37,37,37,,,,,,,,,348.0754259999994,348.0754259999994,348.0754259999994,348.0754259999994,348.0754259999994,348.0754259999994,348.0754259999994,348.0754259999994,347.97094479133295,348.0754259999994,348.0754259999994,348.0754259999994,347.97094479133295,348.0754259999994,348.0754259999994,348.0754259999994,348.0754259999994,348.0754259999994,348.0754259999994,348.0754259999994,348.0754259999994,348.0754259999994,348.0754259999994,348.0754259999994,348.0754259999994,348.0754259999994,348.0754259999994,348.02094479133297,348.0754259999994,348.0754259999994,348.0754259999994,348.02094479133297,348.0754259999994,348.0754259999994,348.0754259999994,348.0754259999994,348.0754259999994,353.29844704099924,353.29844704099924,358.23002387499946,None,0,,reldom2_s003,001,2025-01-31_12h33.39.767,Where-B-Scan_AC,2022.2.5,None,
29,Second_Order,5.0,audwhere,stimulus/audwhere_stim/right_toward_270h.wav,stimulus/audwhere_stim/right_away_280h.wav,stimulus/audwhere_stim/left_away_270h.wav,stimulus/audwhere_stim/right_away_300h.wav,stimulus/audwhere_stim/match_blank.png,stimulus/audwhere_stim/match_box.png,stimulus/audwhere_stim/match_yes.png,stimulus/audwhere_stim/match_no.png,2.0,Match,Side,Direction,2,5.125,0,5.125,0,5.125,0,5.125,0,0.75,0.75,0,0.0,0,0.0,0,0.0,0,0.0,1,0.5,1,2.125,1,0.5,1,2.125,0,,,,,0,38,38,38,,,,,,,,,358.23002387499946,363.3510375829992,358.23002387499946,358.23002387499946,358.23002387499946,358.23002387499946,358.67770762499913,359.6757107499998,358.69054899966636,359.68405266599984,360.3108589579997,361.2994634159995,360.3147254166663,361.31277091599986,363.3510375829992,364.1828787079994,366.25481916599983,370.18944612499945,364.1828787079994,364.1828787079994,369.36598308299926,364.1828787079994,364.1828787079994,364.1828787079994,364.1828787079994,364.65522029099975,365.6907754999993,364.62479524966625,,366.25481916599983,367.2944067499993,366.22397424966607,,364.1828787079994,369.36598308299926,364.1828787079994,369.36598308299926,369.36598308299926,,364.1828787079994,2,1,0.956572000000051,reldom2_s003,001,2025-01-31_12h33.39.767,Where-B-Scan_AC,2022.2.5,None,
30,Second_Order,5.0,audwhere,stimulus/audwhere_stim/right_away_300h.wav,stimulus/audwhere_stim/right_toward_300h.wav,stimulus/audwhere_stim/left_toward_290h.wav,stimulus/audwhere_stim/left_away_270h.wav,stimulus/audwhere_stim/match_blank.png,stimulus/audwhere_stim/match_box.png,stimulus/audwhere_stim/match_yes.png,stimulus/audwhere_stim/match_no.png,1.0,Match,Side,Side,1,5.125,0,5.125,0,5.125,0,5.125,0,0.625,0.625,0,0.0,0,0.0,0,0.0,0,0.0,1,0.5,1,2.125,1,0.5,1,2.125,0,,,,,0,39,39,39,,,,,,,,,370.18944612499945,375.3121062909995,370.18944612499945,370.18944612499945,370.18944612499945,370.18944612499945,370.63856249999935,371.63664787499965,370.65087079166665,371.64471254099954,372.27149024999926,373.2610339999992,372.2768743746658,373.2738464999993,375.3121062909995,376.0293530409999,378.09643341599985,,376.0293530409999,376.0293530409999,381.2075227079995,376.0293530409999,376.0293530409999,376.0293530409999,376.0293530409999,376.49885433299914,377.53308141599973,376.4670396666663,,378.09643341599985,379.13760620799985,378.0658771246665,,376.0293530409999,381.2075227079995,376.0293530409999,381.2075227079995,381.2075227079995,381.8700385409993,376.0293530409999,1,1,0.9377925000007963,reldom2_s003,001,2025-01-31_12h33.39.767,Where-B-Scan_AC,2022.2.5,None,
0,0.0,None,fixation,stimulus/audwhere_stim/blank_white.png,stimulus/audwhere_stim/blank_white.png,stimulus/viswhere_stim/blank_white.png,stimulus/viswhere_stim/blank_white.png,stimulus/audwhere_stim/blank_white.png,stimulus/audwhere_stim/blank_white.png,stimulus/audwhere_stim/blank_white.png,stimulus/audwhere_stim/blank_white.png,0.0,0.0,0.0,0.0,0,0.0,0,0.0,0,0.0,0,0.0,0,0.0,0.0,0,0.0,0,0.0,0,0.0,0,0.0,0,0.0,0,0.0,0,0.0,0,0.0,8,,,,,0,40,40,40,,,,,,,,,382.14905120799995,382.14905120799995,382.14905120799995,382.14905120799995,382.14905120799995,382.14905120799995,382.14905120799995,382.14905120799995,382.0447241243329,382.14905120799995,382.14905120799995,382.14905120799995,382.0447241243329,382.14905120799995,382.14905120799995,382.14905120799995,382.14905120799995,382.14905120799995,382.14905120799995,382.14905120799995,382.14905120799995,382.14905120799995,382.14905120799995,382.14905120799995,382.14905120799995,382.14905120799995,382.14905120799995,382.0947241243329,382.14905120799995,382.14905120799995,382.14905120799995,382.0947241243329,382.14905120799995,382.14905120799995,382.14905120799995,382.14905120799995,382.14905120799995,387.35074433299997,387.35074433299997,390.4161605829995,None,0,,reldom2_s003,001,2025-01-31_12h33.39.767,Where-B-Scan_AC,2022.2.5,None,
31,First_Order,6.0,audwhere,stimulus/audwhere_stim/dummy.wav,stimulus/audwhere_stim/dummy.wav,stimulus/audwhere_stim/left_toward_270h.wav,stimulus/audwhere_stim/right_toward_280h.wav,stimulus/audwhere_stim/blank_white.png,stimulus/audwhere_stim/side_box.png,stimulus/audwhere_stim/side_yes.png,stimulus/audwhere_stim/side_no.png,None,Side,None,Direction,2,0.0,0,5.125,0,5.125,0,5.125,0,0.0,0.625,0,0.0,0,0.0,0,0.0,0,0.0,0,0.0,0,0.0,1,0.5,1,2.125,0,,,,,0,41,41,41,,,,,,,,,390.4161605829995,390.4161605829995,390.4161605829995,390.4161605829995,390.4161605829995,390.4161605829995,390.4161605829995,390.4161605829995,390.33978891666595,390.4161605829995,390.4161605829995,390.4161605829995,390.33978891666595,390.4161605829995,390.4161605829995,390.4161605829995,392.4882111659999,,390.4161605829995,390.4161605829995,395.595500208,390.4161605829995,390.4161605829995,390.4161605829995,390.4161605829995,390.88973658299983,391.92345345799913,390.859388416666,,392.4882111659999,393.52837270799955,392.45723937466596,,390.4161605829995,395.595500208,390.4161605829995,395.595500208,395.6373569159996,396.29950804099917,390.4161605829995,2,1,0.9602256670004863,reldom2_s003,001,2025-01-31_12h33.39.767,Where-B-Scan_AC,2022.2.5,None,
32,First_Order,6.0,audwhere,stimulus/audwhere_stim/dummy.wav,stimulus/audwhere_stim/dummy.wav,stimulus/audwhere_stim/right_toward_280h.wav,stimulus/audwhere_stim/left_toward_290h.wav,stimulus/audwhere_stim/blank_white.png,stimulus/audwhere_stim/direction_box.png,stimulus/audwhere_stim/direction_yes.png,stimulus/audwhere_stim/direction_no.png,None,Direction,None,Direction,1,0.0,0,5.125,0,5.125,0,5.125,0,0.0,0.625,0,0.0,0,0.0,0,0.0,0,0.0,0,0.0,0,0.0,1,0.5,1,2.125,0,,,,,0,42,42,42,,,,,,,,,396.51783570799944,396.51783570799944,396.51783570799944,396.51783570799944,396.51783570799944,396.51783570799944,396.51783570799944,396.51783570799944,396.4328413743325,396.51783570799944,396.51783570799944,396.51783570799944,396.4328413743325,396.51783570799944,396.51783570799944,396.51783570799944,398.6043145829999,402.65361816599943,396.51783570799944,396.51783570799944,401.6815731659999,396.51783570799944,396.51783570799944,396.51783570799944,396.51783570799944,396.99208191599973,398.033334666,396.9616375826665,,398.6043145829999,399.648966666,398.5732881246661,,396.51783570799944,401.6815731659999,396.51783570799944,401.6815731659999,401.7236080829998,402.3897159579992,396.51783570799944,1,1,1.0438712499999383,reldom2_s003,001,2025-01-31_12h33.39.767,Where-B-Scan_AC,2022.2.5,None,
33,First_Order,6.0,audwhere,stimulus/audwhere_stim/dummy.wav,stimulus/audwhere_stim/dummy.wav,stimulus/audwhere_stim/left_toward_270h.wav,stimulus/audwhere_stim/left_away_300h.wav,stimulus/audwhere_stim/blank_white.png,stimulus/audwhere_stim/side_box.png,stimulus/audwhere_stim/side_yes.png,stimulus/audwhere_stim/side_no.png,None,Side,None,Side,1,0.0,0,5.125,0,5.125,0,5.125,0,0.0,0.625,0,0.0,0,0.0,0,0.0,0,0.0,0,0.0,0,0.0,1,0.5,1,2.125,0,,,,,0,43,43,43,,,,,,,,,402.65361816599943,402.65361816599943,402.65361816599943,402.65361816599943,402.65361816599943,402.65361816599943,402.65361816599943,402.65361816599943,402.56463758333314,402.65361816599943,402.65361816599943,402.65361816599943,402.56463758333314,402.65361816599943,402.65361816599943,402.65361816599943,404.7253004999993,,402.65361816599943,402.65361816599943,407.8328668749991,402.65361816599943,402.65361816599943,402.65361816599943,402.65361816599943,403.12351987499915,404.15927637499954,403.092917207666,,404.7253004999993,405.7637334159999,404.6944364576659,,402.65361816599943,407.8328668749991,402.65361816599943,407.8328668749991,407.87474254099925,408.537791791,402.65361816599943,1,1,1.1145883330000288,reldom2_s003,001,2025-01-31_12h33.39.767,Where-B-Scan_AC,2022.2.5,None,
34,First_Order,6.0,audwhere,stimulus/audwhere_stim/dummy.wav,stimulus/audwhere_stim/dummy.wav,stimulus/audwhere_stim/right_toward_300h.wav,stimulus/audwhere_stim/left_toward_290h.wav,stimulus/audwhere_stim/blank_white.png,stimulus/audwhere_stim/side_box.png,stimulus/audwhere_stim/side_yes.png,stimulus/audwhere_stim/side_no.png,None,Side,None,Direction,2,0.0,0,5.125,0,5.125,0,5.125,0,0.0,0.625,0,0.0,0,0.0,0,0.0,0,0.0,0,0.0,0,0.0,1,0.5,1,2.125,0,,,,,0,44,44,44,,,,,,,,,408.7534516249998,408.7534516249998,408.7534516249998,408.7534516249998,408.7534516249998,408.7534516249998,408.7534516249998,408.7534516249998,408.67112512433334,408.7534516249998,408.7534516249998,408.7534516249998,408.67112512433334,408.7534516249998,408.7534516249998,408.7534516249998,410.82888074999937,,408.7534516249998,408.7534516249998,413.9374561659997,408.7534516249998,408.7534516249998,408.7534516249998,408.7534516249998,409.22487637499944,410.2604897499996,409.19449066666607,,410.82888074999937,411.8648767909999,410.79805437466644,,408.7534516249998,413.9374561659997,408.7534516249998,413.9374561659997,413.9792350409998,414.64442779099954,408.7534516249998,2,1,1.0472611249997499,reldom2_s003,001,2025-01-31_12h33.39.767,Where-B-Scan_AC,2022.2.5,None,
0,0.0,None,fixation,stimulus/audwhere_stim/blank_white.png,stimulus/audwhere_stim/blank_white.png,stimulus/viswhere_stim/blank_white.png,stimulus/viswhere_stim/blank_white.png,stimulus/audwhere_stim/blank_white.png,stimulus/audwhere_stim/blank_white.png,stimulus/audwhere_stim/blank_white.png,stimulus/audwhere_stim/blank_white.png,0.0,0.0,0.0,0.0,0,0.0,0,0.0,0,0.0,0,0.0,0,0.0,0.0,0,0.0,0,0.0,0,0.0,0,0.0,0,0.0,0,0.0,0,0.0,0,0.0,8,,,,,0,45,45,45,,,,,,,,,414.88273333300003,414.88273333300003,414.88273333300003,414.88273333300003,414.88273333300003,414.88273333300003,414.88273333300003,414.88273333300003,414.77776112433287,414.88273333300003,414.88273333300003,414.88273333300003,414.77776112433287,414.88273333300003,414.88273333300003,414.88273333300003,414.88273333300003,414.88273333300003,414.88273333300003,414.88273333300003,414.88273333300003,414.88273333300003,414.88273333300003,414.88273333300003,414.88273333300003,414.88273333300003,414.88273333300003,414.8277611243329,414.88273333300003,414.88273333300003,414.88273333300003,414.8277611243329,414.88273333300003,414.88273333300003,414.88273333300003,414.88273333300003,414.88273333300003,420.09206174999963,420.09206174999963,423.01235562499915,None,0,,reldom2_s003,001,2025-01-31_12h33.39.767,Where-B-Scan_AC,2022.2.5,None,
35,Second_Order,6.0,audwhere,stimulus/audwhere_stim/left_toward_280h.wav,stimulus/audwhere_stim/right_toward_270h.wav,stimulus/audwhere_stim/left_away_300h.wav,stimulus/audwhere_stim/right_away_280h.wav,stimulus/audwhere_stim/match_blank.png,stimulus/audwhere_stim/match_box.png,stimulus/audwhere_stim/match_yes.png,stimulus/audwhere_stim/match_no.png,1.0,Match,Direction,Direction,1,5.125,0,5.125,0,5.125,0,5.125,0,0.75,0.75,0,0.0,0,0.0,0,0.0,0,0.0,1,0.5,1,2.125,1,0.5,1,2.125,0,,,,,0,46,46,46,,,,,,,,,423.01235562499915,428.1338463329994,423.01235562499915,423.01235562499915,423.01235562499915,423.01235562499915,423.46052449999934,424.45872687499923,423.4730084576661,424.4668545409995,425.09370654099985,426.08233524999923,425.09745308266633,426.09555699999964,428.1338463329994,428.96639462499934,431.03695895799956,,428.96639462499934,428.96639462499934,434.1449902079994,428.96639462499934,428.96639462499934,428.96639462499934,428.96639462499934,429.4367951659997,430.47145754099984,429.40627404166594,,431.03695895799956,432.0762679159998,431.00622429166583,,428.96639462499934,434.1449902079994,428.96639462499934,434.1449902079994,434.1449902079994,,428.96639462499934,1,1,0.9250622500003374,reldom2_s003,001,2025-01-31_12h33.39.767,Where-B-Scan_AC,2022.2.5,None,
36,Second_Order,6.0,audwhere,stimulus/audwhere_stim/left_toward_300h.wav,stimulus/audwhere_stim/right_toward_280h.wav,stimulus/audwhere_stim/left_away_300h.wav,stimulus/audwhere_stim/right_away_300h.wav,stimulus/audwhere_stim/match_blank.png,stimulus/audwhere_stim/match_box.png,stimulus/audwhere_stim/match_yes.png,stimulus/audwhere_stim/match_no.png,1.0,Match,Direction,Direction,1,5.125,0,5.125,0,5.125,0,5.125,0,0.625,0.625,0,0.0,0,0.0,0,0.0,0,0.0,1,0.5,1,2.125,1,0.5,1,2.125,0,,,,,0,47,47,47,,,,,,,,,434.9705837909996,440.0836826249997,434.9705837909996,434.9705837909996,434.9705837909996,434.9705837909996,435.42164916599995,436.4196017909999,435.4337431246661,436.4272559579995,437.05434141599926,438.0436265829994,437.0581390826658,438.05664012499983,440.0836826249997,440.7918159159999,442.853573333,,440.7918159159999,440.7918159159999,445.9535187909996,440.7918159159999,440.7918159159999,440.7918159159999,440.7918159159999,441.2584938329992,442.2886969579995,441.227784957666,,442.853573333,443.88908233299935,442.82358774966656,,440.7918159159999,445.9535187909996,440.7918159159999,445.9535187909996,445.99556287499945,446.65713208299985,440.7918159159999,1,1,0.9427161670000714,reldom2_s003,001,2025-01-31_12h33.39.767,Where-B-Scan_AC,2022.2.5,None,
0,0.0,None,fixation,stimulus/audwhere_stim/blank_white.png,stimulus/audwhere_stim/blank_white.png,stimulus/viswhere_stim/blank_white.png,stimulus/viswhere_stim/blank_white.png,stimulus/audwhere_stim/blank_white.png,stimulus/audwhere_stim/blank_white.png,stimulus/audwhere_stim/blank_white.png,stimulus/audwhere_stim/blank_white.png,0.0,0.0,0.0,0.0,0,0.0,0,0.0,0,0.0,0,0.0,0,0.0,0.0,0,0.0,0,0.0,0,0.0,0,0.0,0,0.0,0,0.0,0,0.0,0,0.0,10,,,,,0,48,48,48,,,,,,,,,446.8950603329995,446.8950603329995,446.8950603329995,446.8950603329995,446.8950603329995,446.8950603329995,446.8950603329995,446.8950603329995,446.7904654163332,446.8950603329995,446.8950603329995,446.8950603329995,446.7904654163332,446.8950603329995,446.8950603329995,446.8950603329995,446.8950603329995,446.8950603329995,446.8950603329995,446.8950603329995,446.8950603329995,446.8950603329995,446.8950603329995,446.8950603329995,446.8950603329995,446.8950603329995,446.8950603329995,446.8404654163332,446.8950603329995,446.8950603329995,446.8950603329995,446.8404654163332,446.8950603329995,446.8950603329995,446.8950603329995,446.8950603329995,446.8950603329995,452.0952100409995,452.0952100409995,457.11526070799937,None,0,,reldom2_s003,001,2025-01-31_12h33.39.767,Where-B-Scan_AC,2022.2.5,None,
37,First_Order,7.0,viswhere,stimulus/viswhere_stim/blank_white.png,stimulus/viswhere_stim/blank_white.png,stimulus/viswhere_stim/150-deg_dot-left_turquoise.png,stimulus/viswhere_stim/120-deg_dot-left_mediumslateblue.png,stimulus/viswhere_stim/blank_white.png,stimulus/viswhere_stim/line_box.png,stimulus/viswhere_stim/line_yes.png,stimulus/viswhere_stim/line_no.png,None,Line,None,Dot,2,0.0,0,5.125,0,5.125,0,5.125,0,0.0,0.625,0,0.0,0,0.0,1,0.5,1,2.125,0,0.0,0,0.0,0,0.0,0,0.0,0,,,,,0,49,49,49,,,,,,,,,457.11526070799937,457.11526070799937,457.11526070799937,457.11526070799937,457.11526070799937,457.11526070799937,457.11526070799937,457.11526070799937,457.0914528326663,457.11526070799937,457.11526070799937,457.11526070799937,457.0914528326663,457.11526070799937,457.11526070799937,457.11526070799937,459.2162618329994,463.1731340409997,457.11526070799937,457.11526070799937,462.2367495409999,457.60219816599965,458.61544229099945,459.2162618329994,460.23377129099936,457.11526070799937,457.11526070799937,457.108119499333,457.11526070799937,457.11526070799937,457.11526070799937,457.108119499333,457.11526070799937,457.11526070799937,462.2367495409999,457.11526070799937,462.2367495409999,462.334055583,462.96832929099946,457.11526070799937,2,1,0.8840491250002742,reldom2_s003,001,2025-01-31_12h33.39.767,Where-B-Scan_AC,2022.2.5,None,
38,First_Order,7.0,viswhere,stimulus/viswhere_stim/blank_white.png,stimulus/viswhere_stim/blank_white.png,stimulus/viswhere_stim/120-deg_dot-left_mediumslateblue.png,stimulus/viswhere_stim/120-deg_dot-right_seagreen.png,stimulus/viswhere_stim/blank_white.png,stimulus/viswhere_stim/dot_box.png,stimulus/viswhere_stim/dot_yes.png,stimulus/viswhere_stim/dot_no.png,None,Dot,None,Line,2,0.0,0,5.125,0,5.125,0,5.125,0,0.0,0.625,0,0.0,0,0.0,1,0.5,1,2.125,0,0.0,0,0.0,0,0.0,0,0.0,0,,,,,0,50,50,50,,,,,,,,,463.1731340409997,463.1731340409997,463.1731340409997,463.1731340409997,463.1731340409997,463.1731340409997,463.1731340409997,463.1731340409997,463.149271124333,463.1731340409997,463.1731340409997,463.1731340409997,463.149271124333,463.1731340409997,463.1731340409997,463.1731340409997,465.2751681659993,469.2455116249994,463.1731340409997,463.1731340409997,468.30927474999953,463.6556412079999,464.65969870799927,465.2751681659993,466.2839653329993,463.1731340409997,463.1731340409997,463.16593779099964,463.1731340409997,463.1731340409997,463.1731340409997,463.16593779099964,463.1731340409997,463.1731340409997,468.30927474999953,463.1731340409997,468.30927474999953,468.39245712499996,469.02714608299993,463.1731340409997,2,1,0.888397917000475,reldom2_s003,001,2025-01-31_12h33.39.767,Where-B-Scan_AC,2022.2.5,None,
39,First_Order,7.0,viswhere,stimulus/viswhere_stim/blank_white.png,stimulus/viswhere_stim/blank_white.png,stimulus/viswhere_stim/60-deg_dot-right_salmon.png,stimulus/viswhere_stim/60-deg_dot-left_peru.png,stimulus/viswhere_stim/blank_white.png,stimulus/viswhere_stim/line_box.png,stimulus/viswhere_stim/line_yes.png,stimulus/viswhere_stim/line_no.png,None,Line,None,Line,1,0.0,0,5.125,0,5.125,0,5.125,0,0.0,0.625,0,0.0,0,0.0,1,0.5,1,2.125,0,0.0,0,0.0,0,0.0,0,0.0,0,,,,,0,51,51,51,,,,,,,,,469.2455116249994,469.2455116249994,469.2455116249994,469.2455116249994,469.2455116249994,469.2455116249994,469.2455116249994,469.2455116249994,469.2212686663327,469.2455116249994,469.2455116249994,469.2455116249994,469.2212686663327,469.2455116249994,469.2455116249994,469.2455116249994,471.3580514159994,475.3209004579994,469.2455116249994,469.2455116249994,474.382037458,469.7299399579997,470.73937516599926,471.3580514159994,472.36982579099913,469.2455116249994,469.2455116249994,469.23793533299937,469.2455116249994,469.2455116249994,469.2455116249994,469.23793533299937,469.2455116249994,469.2455116249994,474.382037458,469.2455116249994,474.382037458,474.470512375,475.09859920799954,469.2455116249994,1,1,0.6386010830001396,reldom2_s003,001,2025-01-31_12h33.39.767,Where-B-Scan_AC,2022.2.5,None,
40,First_Order,7.0,viswhere,stimulus/viswhere_stim/blank_white.png,stimulus/viswhere_stim/blank_white.png,stimulus/viswhere_stim/60-deg_dot-right_slateblue.png,stimulus/viswhere_stim/90-deg_dot-right_royalblue.png,stimulus/viswhere_stim/blank_white.png,stimulus/viswhere_stim/dot_box.png,stimulus/viswhere_stim/dot_yes.png,stimulus/viswhere_stim/dot_no.png,None,Dot,None,Dot,1,0.0,0,5.125,0,5.125,0,5.125,0,0.0,0.625,0,0.0,0,0.0,1,0.5,1,2.125,0,0.0,0,0.0,0,0.0,0,0.0,0,,,,,0,52,52,52,,,,,,,,,475.3209004579994,475.3209004579994,475.3209004579994,475.3209004579994,475.3209004579994,475.3209004579994,475.3209004579994,475.3209004579994,475.29389229133295,475.3209004579994,475.3209004579994,475.3209004579994,475.29389229133295,475.3209004579994,475.3209004579994,475.3209004579994,477.4144257909993,481.46331775,475.3209004579994,475.3209004579994,480.44246699999985,475.80563754099967,476.81496337499993,477.4144257909993,478.4240399579994,475.3209004579994,475.3209004579994,475.3105589579996,475.3209004579994,475.3209004579994,475.3209004579994,475.3105589579996,475.3209004579994,475.3209004579994,480.44246699999985,475.3209004579994,480.44246699999985,480.54088591599975,481.1688812499997,475.3209004579994,1,1,1.050510041999587,reldom2_s003,001,2025-01-31_12h33.39.767,Where-B-Scan_AC,2022.2.5,None,
0,0.0,None,fixation,stimulus/audwhere_stim/blank_white.png,stimulus/audwhere_stim/blank_white.png,stimulus/viswhere_stim/blank_white.png,stimulus/viswhere_stim/blank_white.png,stimulus/audwhere_stim/blank_white.png,stimulus/audwhere_stim/blank_white.png,stimulus/audwhere_stim/blank_white.png,stimulus/audwhere_stim/blank_white.png,0.0,0.0,0.0,0.0,0,0.0,0,0.0,0,0.0,0,0.0,0,0.0,0.0,0,0.0,0,0.0,0,0.0,0,0.0,0,0.0,0,0.0,0,0.0,0,0.0,8,,,,,0,53,53,53,,,,,,,,,481.46331775,481.46331775,481.46331775,481.46331775,481.46331775,481.46331775,481.46331775,481.46331775,481.36277508333325,481.46331775,481.46331775,481.46331775,481.36277508333325,481.46331775,481.46331775,481.46331775,481.46331775,481.46331775,481.46331775,481.46331775,481.46331775,481.46331775,481.46331775,481.46331775,481.46331775,481.46331775,481.46331775,481.41277508333326,481.46331775,481.46331775,481.46331775,481.41277508333326,481.46331775,481.46331775,481.46331775,481.46331775,481.46331775,486.6784748329992,486.6784748329992,489.5688637079993,None,0,,reldom2_s003,001,2025-01-31_12h33.39.767,Where-B-Scan_AC,2022.2.5,None,
41,Second_Order,7.0,viswhere,stimulus/viswhere_stim/60-deg_dot-right_seagreen.png,stimulus/viswhere_stim/30-deg_dot-right_mediumslateblue.png,stimulus/viswhere_stim/60-deg_dot-left_mediumslateblue.png,stimulus/viswhere_stim/150-deg_dot-left_salmon.png,stimulus/audwhere_stim/match_blank.png,stimulus/audwhere_stim/match_box.png,stimulus/audwhere_stim/match_yes.png,stimulus/audwhere_stim/match_no.png,1.0,Match,Dot,Dot,1,5.125,0,5.125,0,5.125,0,5.125,0,0.75,0.75,1,0.5,1,2.125,1,0.5,1,2.125,0,0.0,0,0.0,0,0.0,0,0.0,0,,,,,0,54,54,54,,,,,,,,,489.5688637079993,494.69156424999983,490.0468213749991,491.0455296249993,491.66855929099984,492.6657407499997,489.5688637079993,489.5688637079993,489.58115766633284,489.5688637079993,489.5688637079993,489.5688637079993,489.58115766633284,489.5688637079993,494.69156424999983,495.46838070799913,497.56469633300003,501.4527852499996,495.46838070799913,495.46838070799913,500.6084368749998,495.9393415409995,496.9589567079993,497.56469633300003,498.57093024999995,495.46838070799913,495.46838070799913,495.45953499933285,495.46838070799913,495.46838070799913,495.46838070799913,495.45953499933285,495.46838070799913,495.46838070799913,500.6084368749998,495.46838070799913,500.6084368749998,500.67838783299976,501.4527852499996,495.46838070799913,1,1,0.6155374580002899,reldom2_s003,001,2025-01-31_12h33.39.767,Where-B-Scan_AC,2022.2.5,None,
42,Second_Order,7.0,viswhere,stimulus/viswhere_stim/90-deg_dot-right_goldenrod.png,stimulus/viswhere_stim/120-deg_dot-right_mediumslateblue.png,stimulus/viswhere_stim/60-deg_dot-right_peru.png,stimulus/viswhere_stim/60-deg_dot-left_mediumslateblue.png,stimulus/audwhere_stim/match_blank.png,stimulus/audwhere_stim/match_box.png,stimulus/audwhere_stim/match_yes.png,stimulus/audwhere_stim/match_no.png,2.0,Match,Dot,Line,2,5.125,0,5.125,0,5.125,0,5.125,0,0.625,0.625,1,0.5,1,2.125,1,0.5,1,2.125,0,0.0,0,0.0,0,0.0,0,0.0,0,,,,,0,55,55,55,,,,,,,,,501.4527852499996,506.56873204099975,501.9371245829998,502.9264868329992,503.5627388749999,504.56008999999995,501.4527852499996,501.4527852499996,501.4657511249996,501.4527852499996,501.4527852499996,501.4527852499996,501.4657511249996,501.4527852499996,506.56873204099975,507.2240063329991,509.3238798329994,513.3664932499996,507.2240063329991,507.2240063329991,512.3633137909992,507.6907367499998,508.70345658299993,509.3238798329994,510.34084891599923,507.2240063329991,507.2240063329991,507.21618741633256,507.2240063329991,507.2240063329991,507.2240063329991,507.21618741633256,507.2240063329991,507.2240063329991,512.3633137909992,507.2240063329991,512.3633137909992,512.4322802079996,513.0789436249997,507.2240063329991,2,1,0.6388256250002087,reldom2_s003,001,2025-01-31_12h33.39.767,Where-B-Scan_AC,2022.2.5,None,
0,0.0,None,fixation,stimulus/audwhere_stim/blank_white.png,stimulus/audwhere_stim/blank_white.png,stimulus/viswhere_stim/blank_white.png,stimulus/viswhere_stim/blank_white.png,stimulus/audwhere_stim/blank_white.png,stimulus/audwhere_stim/blank_white.png,stimulus/audwhere_stim/blank_white.png,stimulus/audwhere_stim/blank_white.png,0.0,0.0,0.0,0.0,0,0.0,0,0.0,0,0.0,0,0.0,0,0.0,0.0,0,0.0,0,0.0,0,0.0,0,0.0,0,0.0,0,0.0,0,0.0,0,0.0,8,,,,,0,56,56,56,,,,,,,,,513.3664932499996,513.3664932499996,513.3664932499996,513.3664932499996,513.3664932499996,513.3664932499996,513.3664932499996,513.3664932499996,513.2623406243332,513.3664932499996,513.3664932499996,513.3664932499996,513.2623406243332,513.3664932499996,513.3664932499996,513.3664932499996,513.3664932499996,513.3664932499996,513.3664932499996,513.3664932499996,513.3664932499996,513.3664932499996,513.3664932499996,513.3664932499996,513.3664932499996,513.3664932499996,513.3664932499996,513.3123406243332,513.3664932499996,513.3664932499996,513.3664932499996,513.3123406243332,513.3664932499996,513.3664932499996,513.3664932499996,513.3664932499996,513.3664932499996,518.5810791659997,518.5810791659997,521.5926101659998,None,0,,reldom2_s003,001,2025-01-31_12h33.39.767,Where-B-Scan_AC,2022.2.5,None,
43,First_Order,8.0,viswhere,stimulus/viswhere_stim/blank_white.png,stimulus/viswhere_stim/blank_white.png,stimulus/viswhere_stim/120-deg_dot-left_lightsseagreen.png,stimulus/viswhere_stim/120-deg_dot-right_royalblue.png,stimulus/viswhere_stim/blank_white.png,stimulus/viswhere_stim/line_box.png,stimulus/viswhere_stim/line_yes.png,stimulus/viswhere_stim/line_no.png,None,Line,None,Line,1,0.0,0,5.125,0,5.125,0,5.125,0,0.0,0.625,0,0.0,0,0.0,1,0.5,1,2.125,0,0.0,0,0.0,0,0.0,0,0.0,0,,,,,0,57,57,57,,,,,,,,,521.5926101659998,521.5926101659998,521.5926101659998,521.5926101659998,521.5926101659998,521.5926101659998,521.5926101659998,521.5926101659998,521.5693089576658,521.5926101659998,521.5926101659998,521.5926101659998,521.5693089576658,521.5926101659998,521.5926101659998,521.5926101659998,523.7035844999991,527.6563482499996,521.5926101659998,521.5926101659998,526.7293853749998,522.0769100829993,523.0849445829999,523.7035844999991,524.7169291249993,521.5926101659998,521.5926101659998,521.5859756243325,521.5926101659998,521.5926101659998,521.5926101659998,521.5859756243325,521.5926101659998,521.5926101659998,526.7293853749998,521.5926101659998,526.7293853749998,526.8130680409995,527.4394064159997,521.5926101659998,1,1,0.5869031660004111,reldom2_s003,001,2025-01-31_12h33.39.767,Where-B-Scan_AC,2022.2.5,None,
44,First_Order,8.0,viswhere,stimulus/viswhere_stim/blank_white.png,stimulus/viswhere_stim/blank_white.png,stimulus/viswhere_stim/60-deg_dot-right_peru.png,stimulus/viswhere_stim/90-deg_dot-right_turquoise.png,stimulus/viswhere_stim/blank_white.png,stimulus/viswhere_stim/dot_box.png,stimulus/viswhere_stim/dot_yes.png,stimulus/viswhere_stim/dot_no.png,None,Dot,None,Dot,1,0.0,0,5.125,0,5.125,0,5.125,0,0.0,0.625,0,0.0,0,0.0,1,0.5,1,2.125,0,0.0,0,0.0,0,0.0,0,0.0,0,,,,,0,58,58,58,,,,,,,,,527.6563482499996,527.6563482499996,527.6563482499996,527.6563482499996,527.6563482499996,527.6563482499996,527.6563482499996,527.6563482499996,527.6334603333329,527.6563482499996,527.6563482499996,527.6563482499996,527.6334603333329,527.6563482499996,527.6563482499996,527.6563482499996,529.7679168329996,533.7282525829996,527.6563482499996,527.6563482499996,532.7830309159999,528.141250791,529.1509331249999,529.7679168329996,530.7833498749997,527.6563482499996,527.6563482499996,527.6501269999995,527.6563482499996,527.6563482499996,527.6563482499996,527.6501269999995,527.6563482499996,527.6563482499996,532.7830309159999,527.6563482499996,532.7830309159999,532.8795611249998,533.5062154999996,527.6563482499996,1,1,0.7238926660002107,reldom2_s003,001,2025-01-31_12h33.39.767,Where-B-Scan_AC,2022.2.5,None,
45,First_Order,8.0,viswhere,stimulus/viswhere_stim/blank_white.png,stimulus/viswhere_stim/blank_white.png,stimulus/viswhere_stim/150-deg_dot-right_lightsseagreen.png,stimulus/viswhere_stim/150-deg_dot-left_royalblue.png,stimulus/viswhere_stim/blank_white.png,stimulus/viswhere_stim/dot_box.png,stimulus/viswhere_stim/dot_yes.png,stimulus/viswhere_stim/dot_no.png,None,Dot,None,Line,2,0.0,0,5.125,0,5.125,0,5.125,0,0.0,0.625,0,0.0,0,0.0,1,0.5,1,2.125,0,0.0,0,0.0,0,0.0,0,0.0,0,,,,,0,59,59,59,,,,,,,,,533.7282525829996,533.7282525829996,533.7282525829996,533.7282525829996,533.7282525829996,533.7282525829996,533.7282525829996,533.7282525829996,533.700482083333,533.7282525829996,533.7282525829996,533.7282525829996,533.700482083333,533.7282525829996,533.7282525829996,533.7282525829996,535.8218227909992,539.7917251659992,533.7282525829996,533.7282525829996,538.8680251659998,534.1966299159994,535.2172834159992,535.8218227909992,536.8272775829992,533.7282525829996,533.7282525829996,533.7171487499996,533.7282525829996,533.7282525829996,533.7282525829996,533.7171487499996,533.7282525829996,533.7282525829996,538.8680251659998,533.7282525829996,538.8680251659998,538.9527476659996,539.5870042079996,533.7282525829996,2,1,0.8667076249994352,reldom2_s003,001,2025-01-31_12h33.39.767,Where-B-Scan_AC,2022.2.5,None,
46,First_Order,8.0,viswhere,stimulus/viswhere_stim/blank_white.png,stimulus/viswhere_stim/blank_white.png,stimulus/viswhere_stim/30-deg_dot-left_salmon.png,stimulus/viswhere_stim/150-deg_dot-left_turquoise.png,stimulus/viswhere_stim/blank_white.png,stimulus/viswhere_stim/line_box.png,stimulus/viswhere_stim/line_yes.png,stimulus/viswhere_stim/line_no.png,None,Line,None,Dot,2,0.0,0,5.125,0,5.125,0,5.125,0,0.0,0.625,0,0.0,0,0.0,1,0.5,1,2.125,0,0.0,0,0.0,0,0.0,0,0.0,0,,,,,0,60,60,60,,,,,,,,,539.7917251659992,539.7917251659992,539.7917251659992,539.7917251659992,539.7917251659992,539.7917251659992,539.7917251659992,539.7917251659992,539.7679262083333,539.7917251659992,539.7917251659992,539.7917251659992,539.7679262083333,539.7917251659992,539.7917251659992,539.7917251659992,541.9028199159993,545.93716425,539.7917251659992,539.7917251659992,544.918865916,540.2806415409996,541.2987808329999,541.9028199159993,542.9081987079999,539.7917251659992,539.7917251659992,539.7845928749999,539.7917251659992,539.7917251659992,539.7917251659992,539.7845928749999,539.7917251659992,539.7917251659992,544.918865916,539.7917251659992,544.918865916,545.0166443749995,545.654322333,539.7917251659992,2,1,0.7235966670004927,reldom2_s003,001,2025-01-31_12h33.39.767,Where-B-Scan_AC,2022.2.5,None,
0,0.0,None,fixation,stimulus/audwhere_stim/blank_white.png,stimulus/audwhere_stim/blank_white.png,stimulus/viswhere_stim/blank_white.png,stimulus/viswhere_stim/blank_white.png,stimulus/audwhere_stim/blank_white.png,stimulus/audwhere_stim/blank_white.png,stimulus/audwhere_stim/blank_white.png,stimulus/audwhere_stim/blank_white.png,0.0,0.0,0.0,0.0,0,0.0,0,0.0,0,0.0,0,0.0,0,0.0,0.0,0,0.0,0,0.0,0,0.0,0,0.0,0,0.0,0,0.0,0,0.0,0,0.0,9,,,,,0,61,61,61,,,,,,,,,545.93716425,545.93716425,545.93716425,545.93716425,545.93716425,545.93716425,545.93716425,545.93716425,545.8345226663326,545.93716425,545.93716425,545.93716425,545.8345226663326,545.93716425,545.93716425,545.93716425,545.93716425,545.93716425,545.93716425,545.93716425,545.93716425,545.93716425,545.93716425,545.93716425,545.93716425,545.93716425,545.93716425,545.8845226663326,545.93716425,545.93716425,545.93716425,545.8845226663326,545.93716425,545.93716425,545.93716425,545.93716425,545.93716425,551.1651759159995,551.1651759159995,555.0428973329999,None,0,,reldom2_s003,001,2025-01-31_12h33.39.767,Where-B-Scan_AC,2022.2.5,None,
47,Second_Order,8.0,viswhere,stimulus/viswhere_stim/90-deg_dot-left_lightsseagreen.png,stimulus/viswhere_stim/120-deg_dot-left_royalblue.png,stimulus/viswhere_stim/30-deg_dot-right_mediumslateblue.png,stimulus/viswhere_stim/60-deg_dot-right_lightsseagreen.png,stimulus/audwhere_stim/match_blank.png,stimulus/audwhere_stim/match_box.png,stimulus/audwhere_stim/match_yes.png,stimulus/audwhere_stim/match_no.png,1.0,Match,Dot,Dot,1,5.125,0,5.125,0,5.125,0,5.125,0,0.75,0.75,1,0.5,1,2.125,1,0.5,1,2.125,0,0.0,0,0.0,0,0.0,0,0.0,0,,,,,0,62,62,62,,,,,,,,,555.0428973329999,560.1611973749996,555.5153906659998,556.5132839159996,557.14806675,558.137444041,555.0428973329999,555.0428973329999,555.0556182913325,555.0428973329999,555.0428973329999,555.0428973329999,555.0556182913325,555.0428973329999,560.1611973749996,560.9511548329992,563.0540935409999,566.9375757079997,560.9511548329992,560.9511548329992,566.074361,561.4179890409996,562.4303734159994,563.0540935409999,564.0712753329999,560.9511548329992,560.9511548329992,560.9399940833332,560.9511548329992,560.9511548329992,560.9511548329992,560.9399940833332,560.9511548329992,560.9511548329992,566.074361,560.9511548329992,566.074361,566.1593217499994,566.9375757079997,560.9511548329992,1,1,0.7642514580002171,reldom2_s003,001,2025-01-31_12h33.39.767,Where-B-Scan_AC,2022.2.5,None,
48,Second_Order,8.0,viswhere,stimulus/viswhere_stim/60-deg_dot-left_seagreen.png,stimulus/viswhere_stim/90-deg_dot-left_peru.png,stimulus/viswhere_stim/30-deg_dot-right_turquoise.png,stimulus/viswhere_stim/30-deg_dot-left_lightsseagreen.png,stimulus/audwhere_stim/match_blank.png,stimulus/audwhere_stim/match_box.png,stimulus/audwhere_stim/match_yes.png,stimulus/audwhere_stim/match_no.png,2.0,Match,Dot,Line,2,5.125,0,5.125,0,5.125,0,5.125,0,0.625,0.625,1,0.5,1,2.125,1,0.5,1,2.125,0,0.0,0,0.0,0,0.0,0,0.0,0,,,,,0,63,63,63,,,,,,,,,566.9375757079997,572.0545022079996,567.4386154159993,568.4276731659993,569.0480713329998,570.0441899579992,566.9375757079997,566.9375757079997,566.9499939579998,566.9375757079997,566.9375757079997,566.9375757079997,566.9499939579998,566.9375757079997,572.0545022079996,572.7086155829993,574.8089562079995,578.8473858749994,572.7086155829993,572.7086155829993,577.8486288329996,573.1756727079992,574.18704875,574.8089562079995,575.8256120829992,572.7086155829993,572.7086155829993,572.7007501663325,572.7086155829993,572.7086155829993,572.7086155829993,572.7007501663325,572.7086155829993,572.7086155829993,577.8486288329996,572.7086155829993,577.8486288329996,577.9197669159994,578.5489285829999,572.7086155829993,2,1,0.7765295830004106,reldom2_s003,001,2025-01-31_12h33.39.767,Where-B-Scan_AC,2022.2.5,None,
0,0.0,None,fixation,stimulus/audwhere_stim/blank_white.png,stimulus/audwhere_stim/blank_white.png,stimulus/viswhere_stim/blank_white.png,stimulus/viswhere_stim/blank_white.png,stimulus/audwhere_stim/blank_white.png,stimulus/audwhere_stim/blank_white.png,stimulus/audwhere_stim/blank_white.png,stimulus/audwhere_stim/blank_white.png,0.0,0.0,0.0,0.0,0,0.0,0,0.0,0,0.0,0,0.0,0,0.0,0.0,0,0.0,0,0.0,0,0.0,0,0.0,0,0.0,0,0.0,0,0.0,0,0.0,16,,,,,0,64,64,64,,,,,,,,,578.8473858749994,578.8473858749994,578.8473858749994,578.8473858749994,578.8473858749994,578.8473858749994,578.8473858749994,578.8473858749994,578.7436341663328,578.8473858749994,578.8473858749994,578.8473858749994,578.7436341663328,578.8473858749994,578.8473858749994,578.8473858749994,578.8473858749994,578.8473858749994,578.8473858749994,578.8473858749994,578.8473858749994,578.8473858749994,578.8473858749994,578.8473858749994,578.8473858749994,578.8473858749994,578.8473858749994,578.7936341663327,578.8473858749994,578.8473858749994,578.8473858749994,578.7936341663327,578.8473858749994,578.8473858749994,578.8473858749994,578.8473858749994,578.8473858749994,584.0671331249996,584.0671331249996,594.9760923329995,None,0,,reldom2_s003,001,2025-01-31_12h33.39.767,Where-B-Scan_AC,2022.2.5,None,
