Trial,Order,Block,Type,Stimuli_File1,Stimuli_File2,Stimuli_File3,Stimuli_File4,Cue_File1,Cue_File2,Response_File_Yes,Response_File_No,Match,Cue_Dimension,Pair1_Dimension,Pair2_Dimension,Key,Cue1_Duration,Cue1_Onset,Cue2_Duration,Cue2_Onset,ResponseYes_Duration,ResponseYes_Onset,ResponseNo_Duration,ResponseNo_Onset,ITI_Within,ITI_Between,Image1_Duration,Image1_Onset,Image2_Duration,Image2_Onset,Image3_Duration,Image3_Onset,Image4_Duration,Image4_Onset,Sound1_Duration,Sound1_Onset,Sound2_Duration,Sound2_Onset,Sound3_Duration,Sound3_Onset,Sound4_Duration,Sound4_Onset,Fixation_Duration,trials_2.thisRepN,trials_2.thisTrialN,trials_2.thisN,trials_2.thisIndex,trials.thisRepN,trials.thisTrialN,trials.thisN,trials.thisIndex,text_start.started,key_resp_start.started,key_resp_start.keys,key_resp_start.rt,text2.started,key_resp_2.started,key_resp_2.keys,key_resp_2.rt,cue_file1.started,cue_file1.stopped,image_1.started,image_1.stopped,image_2.started,image_2.stopped,sound_icon1.started,sound_icon1.stopped,sound_1.started,sound_1.stopped,sound_icon2.started,sound_icon2.stopped,sound_2.started,sound_2.stopped,image_blank_1.started,image_blank_1.stopped,key_press.started,key_press.stopped,fixation_text.started,cue_file2.started,cue_file2.stopped,image_3.started,image_3.stopped,image_4.started,image_4.stopped,sound_icon3.started,sound_icon3.stopped,sound_3.started,sound_3.stopped,sound_icon4.started,sound_icon4.stopped,sound_4.started,sound_4.stopped,response_yes.started,response_yes.stopped,response_no.started,response_no.stopped,iti_blank.started,iti_blank.stopped,fixation_text.stopped,key_press.keys,key_press.corr,key_press.rt,participant,session,date,expName,psychopyVersion,frameRate,
,,,,,,,,,,,,,,,,,,,,,,,,,,,,,,,,,,,,,,,,,,,,,,,,,,,,7.768225707999591,7.768225707999591,2,1.7891442920008558,,,,,,,,,,,,,,,,,,,,,,,,,,,,,,,,,,,,,,,,,,,,,,,,reldom2_s003,001,2025-01-31_12h22.04.066,What-B-Scan_AC,2022.2.5,None,
,,,,,,,,,,,,,,,,,,,,,,,,,,,,,,,,,,,,,,,,,,,,0,0,0,0,,,,,,,,,9.579847625000184,9.579847625000184,5,40.128711833000125,,,,,,,,,,,,,,,,,,,,,,,,,,,,,,,,,,,,,,,,,,,,reldom2_s003,001,2025-01-31_12h22.04.066,What-B-Scan_AC,2022.2.5,None,
,,,,,,,,,,,,,,,,,,,,,,,,,,,,,,,,,,,,,,,,,,,,1,0,1,0,,,,,,,,,49.72026641699995,49.72026641699995,5,1.9869277920006425,,,,,,,,,,,,,,,,,,,,,,,,,,,,,,,,,,,,,,,,,,,,reldom2_s003,001,2025-01-31_12h22.04.066,What-B-Scan_AC,2022.2.5,None,
,,,,,,,,,,,,,,,,,,,,,,,,,,,,,,,,,,,,,,,,,,,,2,0,2,0,,,,,,,,,51.728436249999504,51.728436249999504,5,1.9802672499999971,,,,,,,,,,,,,,,,,,,,,,,,,,,,,,,,,,,,,,,,,,,,reldom2_s003,001,2025-01-31_12h22.04.066,What-B-Scan_AC,2022.2.5,None,
,,,,,,,,,,,,,,,,,,,,,,,,,,,,,,,,,,,,,,,,,,,,3,0,3,0,,,,,,,,,53.722138791999896,53.722138791999896,5,1.9854306250008449,,,,,,,,,,,,,,,,,,,,,,,,,,,,,,,,,,,,,,,,,,,,reldom2_s003,001,2025-01-31_12h22.04.066,What-B-Scan_AC,2022.2.5,None,
0,0.0,None,fixation,stimulus/viswhat_stim/blank_white.png,stimulus/viswhat_stim/blank_white.png,stimulus/audwhat_stim/blank_white.png,stimulus/audwhat_stim/blank_white.png,stimulus/viswhat_stim/blank_white.png,stimulus/viswhat_stim/blank_white.png,stimulus/viswhat_stim/blank_white.png,stimulus/viswhat_stim/blank_white.png,0.0,0.0,0.0,0.0,0,0.0,0,0.0,0,0.0,0,0.0,0,0.0,0.0,0,0.0,0,0.0,0,0.0,0,0.0,0,0.0,0,0.0,0,0.0,0,0.0,16,,,,,0,0,0,0,,,,,,,,,55.904513792000216,55.904513792000216,55.904513792000216,55.904513792000216,55.904513792000216,55.904513792000216,55.904513792000216,55.904513792000216,55.810919832999936,55.904513792000216,55.904513792000216,55.904513792000216,55.810919832999936,55.904513792000216,55.904513792000216,55.904513792000216,55.904513792000216,55.904513792000216,55.904513792000216,55.904513792000216,55.904513792000216,55.904513792000216,55.904513792000216,55.904513792000216,55.904513792000216,55.904513792000216,55.904513792000216,55.86091983299993,55.904513792000216,55.904513792000216,55.904513792000216,55.86091983299993,55.904513792000216,55.904513792000216,55.904513792000216,55.904513792000216,55.904513792000216,61.120133417000034,61.120133417000034,72.34909199999947,None,0,,reldom2_s003,001,2025-01-31_12h22.04.066,What-B-Scan_AC,2022.2.5,None,
1,First_Order,1.0,viswhat,stimulus/viswhat_stim/blank_white.png,stimulus/viswhat_stim/blank_white.png,stimulus/viswhat_stim/water_vehicle-pirateship.png,stimulus/viswhat_stim/water_animal-lobster.png,stimulus/viswhat_stim/blank_white.png,stimulus/viswhat_stim/location_box.png,stimulus/viswhat_stim/location_yes.png,stimulus/viswhat_stim/location_no.png,None,Location,None,Location,1,0.0,0,5.125,0,5.125,0,5.125,0,0.0,0.625,0,0.0,0,0.0,1,0.5,1,2.125,0,0.0,0,0.0,0,0.0,0,0.0,0,,,,,0,1,1,1,,,,,,,,,72.34909199999947,72.34909199999947,72.34909199999947,72.34909199999947,72.34909199999947,72.34909199999947,72.34909199999947,72.34909199999947,72.06187195800013,72.34909199999947,72.34909199999947,72.34909199999947,72.06187195800013,72.34909199999947,72.34909199999947,72.34909199999947,74.32949933300006,,72.34909199999947,72.34909199999947,77.60693149999952,72.77255154199975,73.9059822499994,74.32949933300006,75.4684573329996,72.34909199999947,72.34909199999947,72.21187195800012,72.34909199999947,72.34909199999947,72.34909199999947,72.21187195800012,72.34909199999947,72.34909199999947,77.60693149999952,72.34909199999947,77.60693149999952,77.46990620799988,,72.34909199999947,1,1,1.0167238330004693,reldom2_s003,001,2025-01-31_12h22.04.066,What-B-Scan_AC,2022.2.5,None,
2,First_Order,1.0,viswhat,stimulus/viswhat_stim/blank_white.png,stimulus/viswhat_stim/blank_white.png,stimulus/viswhat_stim/land_vehicle-firetruck.png,stimulus/viswhat_stim/water_vehicle-jetski.png,stimulus/viswhat_stim/blank_white.png,stimulus/viswhat_stim/location_box.png,stimulus/viswhat_stim/location_yes.png,stimulus/viswhat_stim/location_no.png,None,Location,None,Type,2,0.0,0,5.125,0,5.125,0,5.125,0,0.0,0.625,0,0.0,0,0.0,1,0.5,1,2.125,0,0.0,0,0.0,0,0.0,0,0.0,0,,,,,0,2,2,2,,,,,,,,,78.3826275829997,78.3826275829997,78.3826275829997,78.3826275829997,78.3826275829997,78.3826275829997,78.3826275829997,78.3826275829997,78.35297904133343,78.3826275829997,78.3826275829997,78.3826275829997,78.35297904133343,78.3826275829997,78.3826275829997,78.3826275829997,80.49161595799978,84.5242702079995,78.3826275829997,78.3826275829997,83.5199034999996,78.86897904199941,79.884051,80.49161595799978,81.5201615420001,78.3826275829997,78.3826275829997,78.36964570800009,78.3826275829997,78.3826275829997,78.3826275829997,78.36964570800009,78.3826275829997,78.3826275829997,83.5199034999996,78.3826275829997,83.5199034999996,83.59548050000012,84.23406095799965,78.3826275829997,2,1,0.8898100830001567,reldom2_s003,001,2025-01-31_12h22.04.066,What-B-Scan_AC,2022.2.5,None,
3,First_Order,1.0,viswhat,stimulus/viswhat_stim/blank_white.png,stimulus/viswhat_stim/blank_white.png,stimulus/viswhat_stim/land_animal-moose.png,stimulus/viswhat_stim/water_animal-jellyfish.png,stimulus/viswhat_stim/blank_white.png,stimulus/viswhat_stim/type_box.png,stimulus/viswhat_stim/type_yes.png,stimulus/viswhat_stim/type_no.png,None,Type,None,Type,1,0.0,0,5.125,0,5.125,0,5.125,0,0.0,0.625,0,0.0,0,0.0,1,0.5,1,2.125,0,0.0,0,0.0,0,0.0,0,0.0,0,,,,,0,3,3,3,,,,,,,,,84.5242702079995,84.5242702079995,84.5242702079995,84.5242702079995,84.5242702079995,84.5242702079995,84.5242702079995,84.5242702079995,84.42737904199984,84.5242702079995,84.5242702079995,84.5242702079995,84.42737904199984,84.5242702079995,84.5242702079995,84.5242702079995,86.59158579199993,,84.5242702079995,84.5242702079995,89.72037979200013,84.99749491700004,86.05809975000011,86.59158579199993,87.65564545799953,84.5242702079995,84.5242702079995,84.47737904199985,84.5242702079995,84.5242702079995,84.5242702079995,84.47737904199985,84.5242702079995,84.5242702079995,89.72037979200013,84.5242702079995,89.72037979200013,89.72037979200013,90.57811395799945,84.5242702079995,1,1,0.7121024999996735,reldom2_s003,001,2025-01-31_12h22.04.066,What-B-Scan_AC,2022.2.5,None,
4,First_Order,1.0,viswhat,stimulus/viswhat_stim/blank_white.png,stimulus/viswhat_stim/blank_white.png,stimulus/viswhat_stim/land_animal-tiger.png,stimulus/viswhat_stim/land_vehicle-rv.png,stimulus/viswhat_stim/blank_white.png,stimulus/viswhat_stim/type_box.png,stimulus/viswhat_stim/type_yes.png,stimulus/viswhat_stim/type_no.png,None,Type,None,Location,2,0.0,0,5.125,0,5.125,0,5.125,0,0.0,0.625,0,0.0,0,0.0,1,0.5,1,2.125,0,0.0,0,0.0,0,0.0,0,0.0,0,,,,,0,4,4,4,,,,,,,,,90.57811395799945,90.57811395799945,90.57811395799945,90.57811395799945,90.57811395799945,90.57811395799945,90.57811395799945,90.57811395799945,90.52948387466647,90.57811395799945,90.57811395799945,90.57811395799945,90.52948387466647,90.57811395799945,90.57811395799945,90.57811395799945,92.67351820800013,,90.57811395799945,90.57811395799945,95.74567399999978,91.05859266700008,92.09092945799966,92.67351820800013,93.71283154199955,90.57811395799945,90.57811395799945,90.54615054133313,90.57811395799945,90.57811395799945,90.57811395799945,90.54615054133313,90.57811395799945,90.57811395799945,95.74567399999978,90.57811395799945,95.74567399999978,95.80372687499948,96.46747258300002,90.57811395799945,2,1,0.6934980000005453,reldom2_s003,001,2025-01-31_12h22.04.066,What-B-Scan_AC,2022.2.5,None,
0,0.0,None,fixation,stimulus/viswhat_stim/blank_white.png,stimulus/viswhat_stim/blank_white.png,stimulus/audwhat_stim/blank_white.png,stimulus/audwhat_stim/blank_white.png,stimulus/viswhat_stim/blank_white.png,stimulus/viswhat_stim/blank_white.png,stimulus/viswhat_stim/blank_white.png,stimulus/viswhat_stim/blank_white.png,0.0,0.0,0.0,0.0,0,0.0,0,0.0,0,0.0,0,0.0,0,0.0,0.0,0,0.0,0,0.0,0,0.0,0,0.0,0,0.0,0,0.0,0,0.0,0,0.0,9,,,,,0,5,5,5,,,,,,,,,96.70655579199956,96.70655579199956,96.70655579199956,96.70655579199956,96.70655579199956,96.70655579199956,96.70655579199956,96.70655579199956,96.61311991666649,96.70655579199956,96.70655579199956,96.70655579199956,96.61311991666649,96.70655579199956,96.70655579199956,96.70655579199956,96.70655579199956,96.70655579199956,96.70655579199956,96.70655579199956,96.70655579199956,96.70655579199956,96.70655579199956,96.70655579199956,96.70655579199956,96.70655579199956,96.70655579199956,96.6631199166665,96.70655579199956,96.70655579199956,96.70655579199956,96.6631199166665,96.70655579199956,96.70655579199956,96.70655579199956,96.70655579199956,96.70655579199956,101.92962404199989,101.92962404199989,105.8578889169994,None,0,,reldom2_s003,001,2025-01-31_12h22.04.066,What-B-Scan_AC,2022.2.5,None,
5,Second_Order,1.0,viswhat,stimulus/viswhat_stim/land_animal-bunny.png,stimulus/viswhat_stim/land_vehicle-motorcycle.png,stimulus/viswhat_stim/water_animal-octopus.png,stimulus/viswhat_stim/land_animal-fox.png,stimulus/viswhat_stim/match_blank.png,stimulus/viswhat_stim/match_box.png,stimulus/viswhat_stim/match_yes.png,stimulus/viswhat_stim/match_no.png,2.0,Match,Location,Type,2,5.125,0,5.125,0,5.125,0,5.125,0,0.75,0.75,1,0.5,1,2.125,1,0.5,1,2.125,0,0.0,0,0.0,0,0.0,0,0.0,0,,,,,0,6,6,6,,,,,,,,,105.8578889169994,110.97631275000003,106.29760875000011,107.29618066700004,107.91907224999977,108.91694662499958,105.8578889169994,105.8578889169994,105.86872212466612,105.8578889169994,105.8578889169994,105.8578889169994,105.86872212466612,105.8578889169994,110.97631275000003,111.78365741699963,113.86399545799941,,111.78365741699963,111.78365741699963,116.94627566700001,112.24775633299942,113.27221966700017,113.86399545799941,114.89266787499946,111.78365741699963,111.78365741699963,111.76098866699958,111.78365741699963,111.78365741699963,111.78365741699963,111.76098866699958,111.78365741699963,111.78365741699963,116.94627566700001,111.78365741699963,116.94627566700001,116.97234191699954,,111.78365741699963,2,1,0.7690208750000238,reldom2_s003,001,2025-01-31_12h22.04.066,What-B-Scan_AC,2022.2.5,None,
6,Second_Order,1.0,viswhat,stimulus/viswhat_stim/land_vehicle-tank.png,stimulus/viswhat_stim/land_animal-wolf.png,stimulus/viswhat_stim/water_vehicle-motorboatraft.png,stimulus/viswhat_stim/water_animal-squid.png,stimulus/viswhat_stim/match_blank.png,stimulus/viswhat_stim/match_box.png,stimulus/viswhat_stim/match_yes.png,stimulus/viswhat_stim/match_no.png,1.0,Match,Location,Location,1,5.125,0,5.125,0,5.125,0,5.125,0,0.625,0.625,1,0.5,1,2.125,1,0.5,1,2.125,0,0.0,0,0.0,0,0.0,0,0.0,0,,,,,0,7,7,7,,,,,,,,,117.7551720829997,122.87012508299995,118.22554691699952,119.22403666699938,119.85855025000001,120.84774337499948,117.7551720829997,117.7551720829997,117.75459749966654,117.7551720829997,117.7551720829997,117.7551720829997,117.75459749966654,117.7551720829997,122.87012508299995,123.54723749999994,125.63413029200001,,123.54723749999994,123.54723749999994,128.70349345799968,124.01728166700013,125.04578633299934,125.63413029200001,126.67104366700005,123.54723749999994,123.54723749999994,123.5335965000002,123.54723749999994,123.54723749999994,123.54723749999994,123.5335965000002,123.54723749999994,123.54723749999994,128.70349345799968,123.54723749999994,128.70349345799968,128.7509509169995,129.39416916699975,123.54723749999994,1,1,0.798633250000421,reldom2_s003,001,2025-01-31_12h22.04.066,What-B-Scan_AC,2022.2.5,None,
0,0.0,None,fixation,stimulus/viswhat_stim/blank_white.png,stimulus/viswhat_stim/blank_white.png,stimulus/audwhat_stim/blank_white.png,stimulus/audwhat_stim/blank_white.png,stimulus/viswhat_stim/blank_white.png,stimulus/viswhat_stim/blank_white.png,stimulus/viswhat_stim/blank_white.png,stimulus/viswhat_stim/blank_white.png,0.0,0.0,0.0,0.0,0,0.0,0,0.0,0,0.0,0,0.0,0,0.0,0.0,0,0.0,0,0.0,0,0.0,0,0.0,0,0.0,0,0.0,0,0.0,0,0.0,9,,,,,0,8,8,8,,,,,,,,,129.66779383299945,129.66779383299945,129.66779383299945,129.66779383299945,129.66779383299945,129.66779383299945,129.66779383299945,129.66779383299945,129.56539312499956,129.66779383299945,129.66779383299945,129.66779383299945,129.56539312499956,129.66779383299945,129.66779383299945,129.66779383299945,129.66779383299945,129.66779383299945,129.66779383299945,129.66779383299945,129.66779383299945,129.66779383299945,129.66779383299945,129.66779383299945,129.66779383299945,129.66779383299945,129.66779383299945,129.61539312499954,129.66779383299945,129.66779383299945,129.66779383299945,129.61539312499954,129.66779383299945,129.66779383299945,129.66779383299945,129.66779383299945,129.66779383299945,134.85701866699947,134.85701866699947,139.14051087499956,None,0,,reldom2_s003,001,2025-01-31_12h22.04.066,What-B-Scan_AC,2022.2.5,None,
7,First_Order,2.0,viswhat,stimulus/viswhat_stim/blank_white.png,stimulus/viswhat_stim/blank_white.png,stimulus/viswhat_stim/water_animal-lobster.png,stimulus/viswhat_stim/water_vehicle-canoe.png,stimulus/viswhat_stim/blank_white.png,stimulus/viswhat_stim/location_box.png,stimulus/viswhat_stim/location_yes.png,stimulus/viswhat_stim/location_no.png,None,Location,None,Location,1,0.0,0,5.125,0,5.125,0,5.125,0,0.0,0.625,0,0.0,0,0.0,1,0.5,1,2.125,0,0.0,0,0.0,0,0.0,0,0.0,0,,,,,0,9,9,9,,,,,,,,,139.14051087499956,139.14051087499956,139.14051087499956,139.14051087499956,139.14051087499956,139.14051087499956,139.14051087499956,139.14051087499956,138.85865674966652,139.14051087499956,139.14051087499956,139.14051087499956,138.85865674966652,139.14051087499956,139.14051087499956,139.14051087499956,141.23891179200018,145.2660469579996,139.14051087499956,139.14051087499956,144.54052220799986,139.59073024999998,140.7915575830002,141.23891179200018,142.43955424999967,139.14051087499956,139.14051087499956,138.99199008299985,139.14051087499956,139.14051087499956,139.14051087499956,138.99199008299985,139.14051087499956,139.14051087499956,144.54052220799986,139.14051087499956,144.54052220799986,144.245275708,,139.14051087499956,1,1,0.7308627080001315,reldom2_s003,001,2025-01-31_12h22.04.066,What-B-Scan_AC,2022.2.5,None,
8,First_Order,2.0,viswhat,stimulus/viswhat_stim/blank_white.png,stimulus/viswhat_stim/blank_white.png,stimulus/viswhat_stim/water_animal-jellyfish.png,stimulus/viswhat_stim/land_animal-bunny.png,stimulus/viswhat_stim/blank_white.png,stimulus/viswhat_stim/type_box.png,stimulus/viswhat_stim/type_yes.png,stimulus/viswhat_stim/type_no.png,None,Type,None,Type,1,0.0,0,5.125,0,5.125,0,5.125,0,0.0,0.625,0,0.0,0,0.0,1,0.5,1,2.125,0,0.0,0,0.0,0,0.0,0,0.0,0,,,,,0,10,10,10,,,,,,,,,145.2660469579996,145.2660469579996,145.2660469579996,145.2660469579996,145.2660469579996,145.2660469579996,145.2660469579996,145.2660469579996,145.1792862919998,145.2660469579996,145.2660469579996,145.2660469579996,145.1792862919998,145.2660469579996,145.2660469579996,145.2660469579996,147.36110195799938,151.35682524999993,145.2660469579996,145.2660469579996,150.45425562499986,145.73765920799997,146.78487883300022,147.36110195799938,148.41463379200013,145.2660469579996,145.2660469579996,145.22928629199978,145.2660469579996,145.2660469579996,145.2660469579996,145.22928629199978,145.2660469579996,145.2660469579996,150.45425562499986,145.2660469579996,150.45425562499986,150.45425562499986,151.1100394999994,145.2660469579996,1,1,0.6708182909997049,reldom2_s003,001,2025-01-31_12h22.04.066,What-B-Scan_AC,2022.2.5,None,
9,First_Order,2.0,viswhat,stimulus/viswhat_stim/blank_white.png,stimulus/viswhat_stim/blank_white.png,stimulus/viswhat_stim/land_animal-cat.png,stimulus/viswhat_stim/water_animal-whale (1).png,stimulus/viswhat_stim/blank_white.png,stimulus/viswhat_stim/location_box.png,stimulus/viswhat_stim/location_yes.png,stimulus/viswhat_stim/location_no.png,None,Location,None,Type,2,0.0,0,5.125,0,5.125,0,5.125,0,0.0,0.625,0,0.0,0,0.0,1,0.5,1,2.125,0,0.0,0,0.0,0,0.0,0,0.0,0,,,,,0,11,11,11,,,,,,,,,151.35682524999993,151.35682524999993,151.35682524999993,151.35682524999993,151.35682524999993,151.35682524999993,151.35682524999993,151.35682524999993,151.30678262499933,151.35682524999993,151.35682524999993,151.35682524999993,151.30678262499933,151.35682524999993,151.35682524999993,151.35682524999993,153.45530670799963,157.4820517500002,151.35682524999993,151.35682524999993,156.5008440419997,151.84156529199936,152.8741660830001,153.45530670799963,154.49942999999985,151.35682524999993,151.35682524999993,151.34011595833266,151.35682524999993,151.35682524999993,151.35682524999993,151.34011595833266,151.35682524999993,151.35682524999993,156.5008440419997,151.35682524999993,156.5008440419997,156.58021920800002,157.21832458300014,151.35682524999993,2,1,0.7085109170002397,reldom2_s003,001,2025-01-31_12h22.04.066,What-B-Scan_AC,2022.2.5,None,
10,First_Order,2.0,viswhat,stimulus/viswhat_stim/blank_white.png,stimulus/viswhat_stim/blank_white.png,stimulus/viswhat_stim/water_animal-shark.png,stimulus/viswhat_stim/water_vehicle-yacht.png,stimulus/viswhat_stim/blank_white.png,stimulus/viswhat_stim/type_box.png,stimulus/viswhat_stim/type_yes.png,stimulus/viswhat_stim/type_no.png,None,Type,None,Location,2,0.0,0,5.125,0,5.125,0,5.125,0,0.0,0.625,0,0.0,0,0.0,1,0.5,1,2.125,0,0.0,0,0.0,0,0.0,0,0.0,0,,,,,0,12,12,12,,,,,,,,,157.4820517500002,157.4820517500002,157.4820517500002,157.4820517500002,157.4820517500002,157.4820517500002,157.4820517500002,157.4820517500002,157.41461520866676,157.4820517500002,157.4820517500002,157.4820517500002,157.41461520866676,157.4820517500002,157.4820517500002,157.4820517500002,159.5508224999994,,157.4820517500002,157.4820517500002,162.65855658300006,157.95788083299976,158.99252199999955,159.5508224999994,160.5924262919998,157.4820517500002,157.4820517500002,157.4479485420001,157.4820517500002,157.4820517500002,157.4820517500002,157.4479485420001,157.4820517500002,157.4820517500002,162.65855658300006,157.4820517500002,162.65855658300006,162.69607104199986,163.36987574999966,157.4820517500002,2,1,0.5838934160001372,reldom2_s003,001,2025-01-31_12h22.04.066,What-B-Scan_AC,2022.2.5,None,
0,0.0,None,fixation,stimulus/viswhat_stim/blank_white.png,stimulus/viswhat_stim/blank_white.png,stimulus/audwhat_stim/blank_white.png,stimulus/audwhat_stim/blank_white.png,stimulus/viswhat_stim/blank_white.png,stimulus/viswhat_stim/blank_white.png,stimulus/viswhat_stim/blank_white.png,stimulus/viswhat_stim/blank_white.png,0.0,0.0,0.0,0.0,0,0.0,0,0.0,0,0.0,0,0.0,0,0.0,0.0,0,0.0,0,0.0,0,0.0,0,0.0,0,0.0,0,0.0,0,0.0,0,0.0,10,,,,,0,13,13,13,,,,,,,,,163.60062070799995,163.60062070799995,163.60062070799995,163.60062070799995,163.60062070799995,163.60062070799995,163.60062070799995,163.60062070799995,163.50320908333302,163.60062070799995,163.60062070799995,163.60062070799995,163.50320908333302,163.60062070799995,163.60062070799995,163.60062070799995,163.60062070799995,163.60062070799995,163.60062070799995,163.60062070799995,163.60062070799995,163.60062070799995,163.60062070799995,163.60062070799995,163.60062070799995,163.60062070799995,163.60062070799995,163.553209083333,163.60062070799995,163.60062070799995,163.60062070799995,163.553209083333,163.60062070799995,163.60062070799995,163.60062070799995,163.60062070799995,163.60062070799995,168.82906270799958,168.82906270799958,173.75819062499977,None,0,,reldom2_s003,001,2025-01-31_12h22.04.066,What-B-Scan_AC,2022.2.5,None,
11,Second_Order,2.0,viswhat,stimulus/viswhat_stim/land_animal-ostrich.png,stimulus/viswhat_stim/water_animal-stingray.png,stimulus/viswhat_stim/water_vehicle-cruiseship.png,stimulus/viswhat_stim/water_animal-seaturtle.png,stimulus/viswhat_stim/match_blank.png,stimulus/viswhat_stim/match_box.png,stimulus/viswhat_stim/match_yes.png,stimulus/viswhat_stim/match_no.png,2.0,Match,Type,Location,2,5.125,0,5.125,0,5.125,0,5.125,0,0.75,0.75,1,0.5,1,2.125,1,0.5,1,2.125,0,0.0,0,0.0,0,0.0,0,0.0,0,,,,,0,14,14,14,,,,,,,,,173.75819062499977,178.88465608299975,174.2381727920001,175.23657466699933,175.85856950000016,176.85689291699964,173.75819062499977,173.75819062499977,173.76757720833317,173.75819062499977,173.75819062499977,173.75819062499977,173.76757720833317,173.75819062499977,178.88465608299975,179.84065137499965,181.87555791700015,185.84270987499985,179.84065137499965,179.84065137499965,185.13532837499952,180.24813366699982,181.36567424999976,181.87555791700015,182.99864241700016,179.84065137499965,179.84065137499965,179.75152387533322,179.84065137499965,179.84065137499965,179.84065137499965,179.75152387533322,179.84065137499965,179.84065137499965,185.13532837499952,179.84065137499965,185.13532837499952,185.03947633299958,,179.84065137499965,2,1,0.7295692500001678,reldom2_s003,001,2025-01-31_12h22.04.066,What-B-Scan_AC,2022.2.5,None,
12,Second_Order,2.0,viswhat,stimulus/viswhat_stim/land_animal-ostrich.png,stimulus/viswhat_stim/land_vehicle-oldcar.png,stimulus/viswhat_stim/water_vehicle-ship.png,stimulus/viswhat_stim/land_vehicle-vespa.png,stimulus/viswhat_stim/match_blank.png,stimulus/viswhat_stim/match_box.png,stimulus/viswhat_stim/match_yes.png,stimulus/viswhat_stim/match_no.png,2.0,Match,Location,Type,2,5.125,0,5.125,0,5.125,0,5.125,0,0.625,0.625,1,0.5,1,2.125,1,0.5,1,2.125,0,0.0,0,0.0,0,0.0,0,0.0,0,,,,,0,15,15,15,,,,,,,,,185.84270987499985,190.96021329199993,186.29798295799992,187.28424070799974,187.9204178330001,188.9178655830001,185.84270987499985,185.84270987499985,185.84888633333298,185.84270987499985,185.84270987499985,185.84270987499985,185.84888633333298,185.84270987499985,190.96021329199993,191.7213032919999,193.77895683299994,197.85032941699956,191.7213032919999,191.7213032919999,196.93599087499933,192.13040166700011,193.22928262499954,193.77895683299994,194.87731737499962,191.7213032919999,191.7213032919999,191.65761050033356,191.7213032919999,191.7213032919999,191.7213032919999,191.65761050033356,191.7213032919999,191.7213032919999,196.93599087499933,191.7213032919999,196.93599087499933,196.93599087499933,197.85032941699956,191.7213032919999,2,1,0.8177249170003051,reldom2_s003,001,2025-01-31_12h22.04.066,What-B-Scan_AC,2022.2.5,None,
0,0.0,None,fixation,stimulus/viswhat_stim/blank_white.png,stimulus/viswhat_stim/blank_white.png,stimulus/audwhat_stim/blank_white.png,stimulus/audwhat_stim/blank_white.png,stimulus/viswhat_stim/blank_white.png,stimulus/viswhat_stim/blank_white.png,stimulus/viswhat_stim/blank_white.png,stimulus/viswhat_stim/blank_white.png,0.0,0.0,0.0,0.0,0,0.0,0,0.0,0,0.0,0,0.0,0,0.0,0.0,0,0.0,0,0.0,0,0.0,0,0.0,0,0.0,0,0.0,0,0.0,0,0.0,9,,,,,0,16,16,16,,,,,,,,,197.85032941699956,197.85032941699956,197.85032941699956,197.85032941699956,197.85032941699956,197.85032941699956,197.85032941699956,197.85032941699956,197.74855704133273,197.85032941699956,197.85032941699956,197.85032941699956,197.74855704133273,197.85032941699956,197.85032941699956,197.85032941699956,197.85032941699956,197.85032941699956,197.85032941699956,197.85032941699956,197.85032941699956,197.85032941699956,197.85032941699956,197.85032941699956,197.85032941699956,197.85032941699956,197.85032941699956,197.79855704133274,197.85032941699956,197.85032941699956,197.85032941699956,197.79855704133274,197.85032941699956,197.85032941699956,197.85032941699956,197.85032941699956,197.85032941699956,203.04498483299994,203.04498483299994,207.11887733299955,None,0,,reldom2_s003,001,2025-01-31_12h22.04.066,What-B-Scan_AC,2022.2.5,None,
13,First_Order,3.0,audwhat,stimulus/audwhat_stim/dummy.wav,stimulus/audwhat_stim/dummy.wav,stimulus/audwhat_stim/percussion mallet_low-pitch_Ftri_loud.wav,stimulus/audwhat_stim/percussion xylophone_high-pitch_Dtri_loud.wav,stimulus/audwhat_stim/blank_white.png,stimulus/audwhat_stim/pitch_box.png,stimulus/audwhat_stim/pitch_yes.png,stimulus/audwhat_stim/pitch_no.png,None,Pitch,None,Category,2,0.0,0,5.125,0,5.125,0,5.125,0,0.0,0.625,0,0.0,0,0.0,0,0.0,0,0.0,0,0.0,0,0.0,1,0.5,1,2.125,0,,,,,0,17,17,17,,,,,,,,,207.11887733299955,207.11887733299955,207.11887733299955,207.11887733299955,207.11887733299955,207.11887733299955,207.11887733299955,207.11887733299955,207.04230920866638,207.11887733299955,207.11887733299955,207.11887733299955,207.04230920866638,207.11887733299955,207.11887733299955,207.11887733299955,209.20622441700016,,207.11887733299955,207.11887733299955,212.27544566699999,207.11887733299955,207.11887733299955,207.11887733299955,207.11887733299955,207.5823082500001,208.65002458299932,207.55286079166606,,209.20622441700016,210.2827944999999,209.17573945866687,210.2367605419995,207.11887733299955,212.27544566699999,207.11887733299955,212.27544566699999,212.31672337500004,212.96812725000018,207.11887733299955,2,1,1.3755909990004511,reldom2_s003,001,2025-01-31_12h22.04.066,What-B-Scan_AC,2022.2.5,None,
14,First_Order,3.0,audwhat,stimulus/audwhat_stim/dummy.wav,stimulus/audwhat_stim/dummy.wav,stimulus/audwhat_stim/string cello_low-pitch_D_loud.wav,stimulus/audwhat_stim/percussion mallet_low-pitch_D_loud.wav,stimulus/audwhat_stim/blank_white.png,stimulus/audwhat_stim/pitch_box.png,stimulus/audwhat_stim/pitch_yes.png,stimulus/audwhat_stim/pitch_no.png,None,Pitch,None,Pitch,1,0.0,0,5.125,0,5.125,0,5.125,0,0.0,0.625,0,0.0,0,0.0,0,0.0,0,0.0,0,0.0,0,0.0,1,0.5,1,2.125,0,,,,,0,18,18,18,,,,,,,,,213.2252122079999,213.2252122079999,213.2252122079999,213.2252122079999,213.2252122079999,213.2252122079999,213.2252122079999,213.2252122079999,213.14243462533355,213.2252122079999,213.2252122079999,213.2252122079999,213.14243462533355,213.2252122079999,213.2252122079999,213.2252122079999,215.31668466700012,219.34975683299945,213.2252122079999,213.2252122079999,218.39639816699946,213.2252122079999,213.2252122079999,213.2252122079999,213.2252122079999,213.691343167,214.75845783299974,213.66163237466688,,215.31668466700012,216.34638924999945,215.2861363336663,,213.2252122079999,218.39639816699946,213.2252122079999,218.39639816699946,218.43734529199992,219.09095650000017,213.2252122079999,1,1,1.1722055410000394,reldom2_s003,001,2025-01-31_12h22.04.066,What-B-Scan_AC,2022.2.5,None,
15,First_Order,3.0,audwhat,stimulus/audwhat_stim/dummy.wav,stimulus/audwhat_stim/dummy.wav,stimulus/audwhat_stim/string cello_high-pitch_D_loud.wav,stimulus/audwhat_stim/string cello_low-pitch_Ftri_loud.wav,stimulus/audwhat_stim/blank_white.png,stimulus/audwhat_stim/category_box.png,stimulus/audwhat_stim/category_yes.png,stimulus/audwhat_stim/category_no.png,None,Category,None,Category,1,0.0,0,5.125,0,5.125,0,5.125,0,0.0,0.625,0,0.0,0,0.0,0,0.0,0,0.0,0,0.0,0,0.0,1,0.5,1,2.125,0,,,,,0,19,19,19,,,,,,,,,219.34975683299945,219.34975683299945,219.34975683299945,219.34975683299945,219.34975683299945,219.34975683299945,219.34975683299945,219.34975683299945,219.26492695833272,219.34975683299945,219.34975683299945,219.34975683299945,219.26492695833272,219.34975683299945,219.34975683299945,219.34975683299945,221.4563397920001,,219.34975683299945,219.34975683299945,224.5039380829994,219.34975683299945,219.34975683299945,219.34975683299945,219.34975683299945,219.82059649999974,220.8954412920002,219.79037324966637,,221.4563397920001,222.4914309169999,221.42661433366655,,219.34975683299945,224.5039380829994,219.34975683299945,224.5039380829994,224.5453089169996,225.20301445799942,219.34975683299945,1,1,1.1023328330002187,reldom2_s003,001,2025-01-31_12h22.04.066,What-B-Scan_AC,2022.2.5,None,
16,First_Order,3.0,audwhat,stimulus/audwhat_stim/dummy.wav,stimulus/audwhat_stim/dummy.wav,stimulus/audwhat_stim/string viola_low-pitch_F_loud.wav,stimulus/audwhat_stim/percussion mallet_low-pitch_F_loud.wav,stimulus/audwhat_stim/blank_white.png,stimulus/audwhat_stim/category_box.png,stimulus/audwhat_stim/category_yes.png,stimulus/audwhat_stim/category_no.png,None,Category,None,Pitch,2,0.0,0,5.125,0,5.125,0,5.125,0,0.0,0.625,0,0.0,0,0.0,0,0.0,0,0.0,0,0.0,0,0.0,1,0.5,1,2.125,0,,,,,0,20,20,20,,,,,,,,,225.46052383299957,225.46052383299957,225.46052383299957,225.46052383299957,225.46052383299957,225.46052383299957,225.46052383299957,225.46052383299957,225.37769062533349,225.46052383299957,225.46052383299957,225.46052383299957,225.37769062533349,225.46052383299957,225.46052383299957,225.46052383299957,227.57098137499997,231.59925124999972,225.46052383299957,225.46052383299957,230.61715345799985,225.46052383299957,225.46052383299957,225.46052383299957,225.46052383299957,225.92949908299943,226.96203845799937,225.89844204166664,,227.57098137499997,228.60567654199986,227.54045391666685,,225.46052383299957,230.61715345799985,225.46052383299957,230.61715345799985,230.6590177500002,231.31877537499986,225.46052383299957,2,1,0.7202934990000358,reldom2_s003,001,2025-01-31_12h22.04.066,What-B-Scan_AC,2022.2.5,None,
0,0.0,None,fixation,stimulus/viswhat_stim/blank_white.png,stimulus/viswhat_stim/blank_white.png,stimulus/audwhat_stim/blank_white.png,stimulus/audwhat_stim/blank_white.png,stimulus/viswhat_stim/blank_white.png,stimulus/viswhat_stim/blank_white.png,stimulus/viswhat_stim/blank_white.png,stimulus/viswhat_stim/blank_white.png,0.0,0.0,0.0,0.0,0,0.0,0,0.0,0,0.0,0,0.0,0,0.0,0.0,0,0.0,0,0.0,0,0.0,0,0.0,0,0.0,0,0.0,0,0.0,0,0.0,9,,,,,0,21,21,21,,,,,,,,,231.59925124999972,231.59925124999972,231.59925124999972,231.59925124999972,231.59925124999972,231.59925124999972,231.59925124999972,231.59925124999972,231.49330008333268,231.59925124999972,231.59925124999972,231.59925124999972,231.49330008333268,231.59925124999972,231.59925124999972,231.59925124999972,231.59925124999972,231.59925124999972,231.59925124999972,231.59925124999972,231.59925124999972,231.59925124999972,231.59925124999972,231.59925124999972,231.59925124999972,231.59925124999972,231.59925124999972,231.55996674999935,231.59925124999972,231.59925124999972,231.59925124999972,231.55996674999935,231.59925124999972,231.59925124999972,231.59925124999972,231.59925124999972,231.59925124999972,236.815072333,236.815072333,240.72944958300013,None,0,,reldom2_s003,001,2025-01-31_12h22.04.066,What-B-Scan_AC,2022.2.5,None,
17,Second_Order,3.0,audwhat,stimulus/audwhat_stim/percussion mallet_high-pitch_Ftri_loud.wav,stimulus/audwhat_stim/string cello_high-pitch_Ftri_loud.wav,stimulus/audwhat_stim/percussion mallet_low-pitch_D_loud.wav,stimulus/audwhat_stim/string viola_low-pitch_D_loud.wav,stimulus/viswhat_stim/match_blank.png,stimulus/viswhat_stim/match_box.png,stimulus/viswhat_stim/match_yes.png,stimulus/viswhat_stim/match_no.png,1.0,Match,Pitch,Pitch,1,5.125,0,5.125,0,5.125,0,5.125,0,0.75,0.75,0,0.0,0,0.0,0,0.0,0,0.0,1,0.5,1,2.125,1,0.5,1,2.125,0,,,,,0,22,22,22,,,,,,,,,240.72944958300013,245.8536530829997,240.72944958300013,240.72944958300013,240.72944958300013,240.72944958300013,241.1759676669999,242.1745900420001,241.18836208366636,242.1841075829998,242.81389725000008,243.81128887500017,242.82558112466657,,245.8536530829997,246.68656395800008,248.773476458,252.6989350419999,246.68656395800008,246.68656395800008,251.84383737499957,246.68656395800008,246.68656395800008,246.68656395800008,246.68656395800008,247.14934008299952,248.21470812499956,247.1189813336662,,248.773476458,249.847837583,248.74315245866663,,246.68656395800008,251.84383737499957,246.68656395800008,251.84383737499957,251.88421391700012,,246.68656395800008,1,1,1.6118274580003344,reldom2_s003,001,2025-01-31_12h22.04.066,What-B-Scan_AC,2022.2.5,None,
18,Second_Order,3.0,audwhat,stimulus/audwhat_stim/percussion mallet_high-pitch_Dtri_loud.wav,stimulus/audwhat_stim/string cello_high-pitch_Dtri_loud.wav,stimulus/audwhat_stim/string viola_low-pitch_Ftri_loud.wav,stimulus/audwhat_stim/percussion mallet_low-pitch_Ftri_loud.wav,stimulus/viswhat_stim/match_blank.png,stimulus/viswhat_stim/match_box.png,stimulus/viswhat_stim/match_yes.png,stimulus/viswhat_stim/match_no.png,1.0,Match,Pitch,Pitch,1,5.125,0,5.125,0,5.125,0,5.125,0,0.625,0.625,0,0.0,0,0.0,0,0.0,0,0.0,1,0.5,1,2.125,1,0.5,1,2.125,0,,,,,0,23,23,23,,,,,,,,,252.6989350419999,257.8147475420001,252.6989350419999,252.6989350419999,252.6989350419999,252.6989350419999,253.15243879199988,254.13790791700012,253.1658670836662,254.1594719169998,254.77602308299993,255.7719442079997,254.78696141666686,,257.8147475420001,258.52462883299995,260.59818758299934,,258.52462883299995,258.52462883299995,263.7002737499997,258.52462883299995,258.52462883299995,258.52462883299995,258.52462883299995,258.9850913330001,260.04606816700016,258.95503783366644,,260.59818758299934,261.66289099999995,260.56891524966636,,258.52462883299995,263.7002737499997,258.52462883299995,263.7002737499997,263.74256650000007,264.395260583,258.52462883299995,2,0,1.1319027919998916,reldom2_s003,001,2025-01-31_12h22.04.066,What-B-Scan_AC,2022.2.5,None,
0,0.0,None,fixation,stimulus/viswhat_stim/blank_white.png,stimulus/viswhat_stim/blank_white.png,stimulus/audwhat_stim/blank_white.png,stimulus/audwhat_stim/blank_white.png,stimulus/viswhat_stim/blank_white.png,stimulus/viswhat_stim/blank_white.png,stimulus/viswhat_stim/blank_white.png,stimulus/viswhat_stim/blank_white.png,0.0,0.0,0.0,0.0,0,0.0,0,0.0,0,0.0,0,0.0,0,0.0,0.0,0,0.0,0,0.0,0,0.0,0,0.0,0,0.0,0,0.0,0,0.0,0,0.0,8,,,,,0,24,24,24,,,,,,,,,264.62909883300017,264.62909883300017,264.62909883300017,264.62909883300017,264.62909883300017,264.62909883300017,264.62909883300017,264.62909883300017,264.5285939163333,264.62909883300017,264.62909883300017,264.62909883300017,264.5285939163333,264.62909883300017,264.62909883300017,264.62909883300017,264.62909883300017,264.62909883300017,264.62909883300017,264.62909883300017,264.62909883300017,264.62909883300017,264.62909883300017,264.62909883300017,264.62909883300017,264.62909883300017,264.62909883300017,264.5785939163333,264.62909883300017,264.62909883300017,264.62909883300017,264.5785939163333,264.62909883300017,264.62909883300017,264.62909883300017,264.62909883300017,264.62909883300017,269.8648825829996,269.8648825829996,272.8865139169993,None,0,,reldom2_s003,001,2025-01-31_12h22.04.066,What-B-Scan_AC,2022.2.5,None,
19,First_Order,4.0,audwhat,stimulus/audwhat_stim/dummy.wav,stimulus/audwhat_stim/dummy.wav,stimulus/audwhat_stim/percussion mallet_low-pitch_Ftri_loud.wav,stimulus/audwhat_stim/string viola_low-pitch_Ftri_loud.wav,stimulus/audwhat_stim/blank_white.png,stimulus/audwhat_stim/pitch_box.png,stimulus/audwhat_stim/pitch_yes.png,stimulus/audwhat_stim/pitch_no.png,None,Pitch,None,Pitch,1,0.0,0,5.125,0,5.125,0,5.125,0,0.0,0.625,0,0.0,0,0.0,0,0.0,0,0.0,0,0.0,0,0.0,1,0.5,1,2.125,0,,,,,0,25,25,25,,,,,,,,,272.8865139169993,272.8865139169993,272.8865139169993,272.8865139169993,272.8865139169993,272.8865139169993,272.8865139169993,272.8865139169993,272.81393095866645,272.8865139169993,272.8865139169993,272.8865139169993,272.81393095866645,272.8865139169993,272.8865139169993,272.8865139169993,274.97989708299974,279.0115511670001,272.8865139169993,272.8865139169993,278.0560618749996,272.8865139169993,272.8865139169993,272.8865139169993,272.8865139169993,273.35165320799933,274.42295145800017,273.32196279166624,,274.97989708299974,276.0550377499994,274.9495732496664,,272.8865139169993,278.0560618749996,272.8865139169993,278.0560618749996,278.09706883299987,278.7516762079995,272.8865139169993,1,1,1.2877287500004968,reldom2_s003,001,2025-01-31_12h22.04.066,What-B-Scan_AC,2022.2.5,None,
20,First_Order,4.0,audwhat,stimulus/audwhat_stim/dummy.wav,stimulus/audwhat_stim/dummy.wav,stimulus/audwhat_stim/string viola_low-pitch_F_loud.wav,stimulus/audwhat_stim/string cello_high-pitch_Ftri_loud.wav,stimulus/audwhat_stim/blank_white.png,stimulus/audwhat_stim/category_box.png,stimulus/audwhat_stim/category_yes.png,stimulus/audwhat_stim/category_no.png,None,Category,None,Category,1,0.0,0,5.125,0,5.125,0,5.125,0,0.0,0.625,0,0.0,0,0.0,0,0.0,0,0.0,0,0.0,0,0.0,1,0.5,1,2.125,0,,,,,0,26,26,26,,,,,,,,,279.0115511670001,279.0115511670001,279.0115511670001,279.0115511670001,279.0115511670001,279.0115511670001,279.0115511670001,279.0115511670001,278.92557170833345,279.0115511670001,279.0115511670001,279.0115511670001,278.92557170833345,279.0115511670001,279.0115511670001,279.0115511670001,281.1176649580002,285.12788058299975,279.0115511670001,279.0115511670001,284.1695868329998,279.0115511670001,279.0115511670001,279.0115511670001,279.0115511670001,279.47882404199936,280.51048566699956,279.4483983336661,,281.1176649580002,282.1518197919995,281.0872567496665,,279.0115511670001,284.1695868329998,279.0115511670001,284.1695868329998,284.21089245799976,284.8697055419998,279.0115511670001,1,1,1.2223790410007496,reldom2_s003,001,2025-01-31_12h22.04.066,What-B-Scan_AC,2022.2.5,None,
21,First_Order,4.0,audwhat,stimulus/audwhat_stim/dummy.wav,stimulus/audwhat_stim/dummy.wav,stimulus/audwhat_stim/string viola_high-pitch_F_loud.wav,stimulus/audwhat_stim/percussion mallet_high-pitch_F_loud.wav,stimulus/audwhat_stim/blank_white.png,stimulus/audwhat_stim/category_box.png,stimulus/audwhat_stim/category_yes.png,stimulus/audwhat_stim/category_no.png,None,Category,None,Pitch,2,0.0,0,5.125,0,5.125,0,5.125,0,0.0,0.625,0,0.0,0,0.0,0,0.0,0,0.0,0,0.0,0,0.0,1,0.5,1,2.125,0,,,,,0,27,27,27,,,,,,,,,285.12788058299975,285.12788058299975,285.12788058299975,285.12788058299975,285.12788058299975,285.12788058299975,285.12788058299975,285.12788058299975,285.0441513753332,285.12788058299975,285.12788058299975,285.12788058299975,285.0441513753332,285.12788058299975,285.12788058299975,285.12788058299975,287.2402029999994,291.24905608300014,285.12788058299975,285.12788058299975,290.2880024169999,285.12788058299975,285.12788058299975,285.12788058299975,285.12788058299975,285.59744045800016,286.6318099169994,285.5667624996661,,287.2402029999994,288.2754717500002,287.2093500416661,,285.12788058299975,290.2880024169999,285.12788058299975,290.2880024169999,290.3296110829997,290.990770417,285.12788058299975,2,1,1.4060712500004229,reldom2_s003,001,2025-01-31_12h22.04.066,What-B-Scan_AC,2022.2.5,None,
22,First_Order,4.0,audwhat,stimulus/audwhat_stim/dummy.wav,stimulus/audwhat_stim/dummy.wav,stimulus/audwhat_stim/percussion xylophone_high-pitch_D_loud.wav,stimulus/audwhat_stim/percussion mallet_low-pitch_F_loud.wav,stimulus/audwhat_stim/blank_white.png,stimulus/audwhat_stim/pitch_box.png,stimulus/audwhat_stim/pitch_yes.png,stimulus/audwhat_stim/pitch_no.png,None,Pitch,None,Category,2,0.0,0,5.125,0,5.125,0,5.125,0,0.0,0.625,0,0.0,0,0.0,0,0.0,0,0.0,0,0.0,0,0.0,1,0.5,1,2.125,0,,,,,0,28,28,28,,,,,,,,,291.24905608300014,291.24905608300014,291.24905608300014,291.24905608300014,291.24905608300014,291.24905608300014,291.24905608300014,291.24905608300014,291.1655781253331,291.24905608300014,291.24905608300014,291.24905608300014,291.1655781253331,291.24905608300014,291.24905608300014,291.24905608300014,293.3563068329995,,291.24905608300014,291.24905608300014,296.39876124999955,291.24905608300014,291.24905608300014,291.24905608300014,291.24905608300014,291.71766750000006,292.7969478750001,291.6857962496663,292.7499924579997,293.3563068329995,294.3889249169997,293.32579970866686,,291.24905608300014,296.39876124999955,291.24905608300014,296.39876124999955,296.44005695799933,297.09775241699936,291.24905608300014,2,1,1.441512542000055,reldom2_s003,001,2025-01-31_12h22.04.066,What-B-Scan_AC,2022.2.5,None,
0,0.0,None,fixation,stimulus/viswhat_stim/blank_white.png,stimulus/viswhat_stim/blank_white.png,stimulus/audwhat_stim/blank_white.png,stimulus/audwhat_stim/blank_white.png,stimulus/viswhat_stim/blank_white.png,stimulus/viswhat_stim/blank_white.png,stimulus/viswhat_stim/blank_white.png,stimulus/viswhat_stim/blank_white.png,0.0,0.0,0.0,0.0,0,0.0,0,0.0,0,0.0,0,0.0,0,0.0,0.0,0,0.0,0,0.0,0,0.0,0,0.0,0,0.0,0,0.0,0,0.0,0,0.0,10,,,,,0,29,29,29,,,,,,,,,297.3755550830001,297.3755550830001,297.3755550830001,297.3755550830001,297.3755550830001,297.3755550830001,297.3755550830001,297.3755550830001,297.27213891633266,297.3755550830001,297.3755550830001,297.3755550830001,297.27213891633266,297.3755550830001,297.3755550830001,297.3755550830001,297.3755550830001,297.3755550830001,297.3755550830001,297.3755550830001,297.3755550830001,297.3755550830001,297.3755550830001,297.3755550830001,297.3755550830001,297.3755550830001,297.3755550830001,297.3221389163327,297.3755550830001,297.3755550830001,297.3755550830001,297.3221389163327,297.3755550830001,297.3755550830001,297.3755550830001,297.3755550830001,297.3755550830001,302.6027962500002,302.6027962500002,307.5410112919999,None,0,,reldom2_s003,001,2025-01-31_12h22.04.066,What-B-Scan_AC,2022.2.5,None,
23,Second_Order,4.0,audwhat,stimulus/audwhat_stim/percussion mallet_high-pitch_Ftri_loud.wav,stimulus/audwhat_stim/percussion mallet_low-pitch_Dtri_loud.wav,stimulus/audwhat_stim/percussion mallet_high-pitch_D_loud.wav,stimulus/audwhat_stim/string viola_high-pitch_D_loud.wav,stimulus/viswhat_stim/match_blank.png,stimulus/viswhat_stim/match_box.png,stimulus/viswhat_stim/match_yes.png,stimulus/viswhat_stim/match_no.png,2.0,Match,Category,Pitch,2,5.125,0,5.125,0,5.125,0,5.125,0,0.75,0.75,0,0.0,0,0.0,0,0.0,0,0.0,1,0.5,1,2.125,1,0.5,1,2.125,0,,,,,0,30,30,30,,,,,,,,,307.5410112919999,312.6576835830001,307.5410112919999,307.5410112919999,307.5410112919999,307.5410112919999,307.9963412500001,308.9950292499998,308.00906208366655,309.00259712499974,309.617538042,310.61541487500017,309.6295567916661,310.6232105829995,312.6576835830001,313.48950049999985,315.58665904200006,,313.48950049999985,313.48950049999985,318.6624152079994,313.48950049999985,313.48950049999985,313.48950049999985,313.48950049999985,313.95628583300004,315.0259239999996,313.9255875416668,,315.58665904200006,316.66153287499947,315.55601983366637,,313.48950049999985,318.6624152079994,313.48950049999985,318.6624152079994,318.7033361670001,,313.48950049999985,2,1,1.3035013329999856,reldom2_s003,001,2025-01-31_12h22.04.066,What-B-Scan_AC,2022.2.5,None,
24,Second_Order,4.0,audwhat,stimulus/audwhat_stim/string viola_high-pitch_Dtri_loud.wav,stimulus/audwhat_stim/percussion mallet_high-pitch_Dtri_loud.wav,stimulus/audwhat_stim/string cello_low-pitch_Dtri_loud.wav,stimulus/audwhat_stim/string viola_high-pitch_Ftri_loud.wav,stimulus/viswhat_stim/match_blank.png,stimulus/viswhat_stim/match_box.png,stimulus/viswhat_stim/match_yes.png,stimulus/viswhat_stim/match_no.png,2.0,Match,Pitch,Category,2,5.125,0,5.125,0,5.125,0,5.125,0,0.625,0.625,0,0.0,0,0.0,0,0.0,0,0.0,1,0.5,1,2.125,1,0.5,1,2.125,0,,,,,0,31,31,31,,,,,,,,,319.4780899999996,324.6020519579997,319.4780899999996,319.4780899999996,319.4780899999996,319.4780899999996,319.92433229200014,320.92244308299996,319.9367421666668,,321.5625890000001,322.5592541669994,321.57403933366663,322.5676191249995,324.6020519579997,325.314059583,327.3931442920002,,325.314059583,325.314059583,330.4621346670001,325.314059583,325.314059583,325.314059583,325.314059583,325.7766593749993,326.83828316699964,325.74679020866665,,327.3931442920002,328.46403116700003,327.36334937466677,,325.314059583,330.4621346670001,325.314059583,330.4621346670001,330.5037224580001,331.1561582919994,325.314059583,1,0,1.4789098330002162,reldom2_s003,001,2025-01-31_12h22.04.066,What-B-Scan_AC,2022.2.5,None,
0,0.0,None,fixation,stimulus/viswhat_stim/blank_white.png,stimulus/viswhat_stim/blank_white.png,stimulus/audwhat_stim/blank_white.png,stimulus/audwhat_stim/blank_white.png,stimulus/viswhat_stim/blank_white.png,stimulus/viswhat_stim/blank_white.png,stimulus/viswhat_stim/blank_white.png,stimulus/viswhat_stim/blank_white.png,0.0,0.0,0.0,0.0,0,0.0,0,0.0,0,0.0,0,0.0,0,0.0,0.0,0,0.0,0,0.0,0,0.0,0,0.0,0,0.0,0,0.0,0,0.0,0,0.0,9,,,,,0,32,32,32,,,,,,,,,331.4314345829998,331.4314345829998,331.4314345829998,331.4314345829998,331.4314345829998,331.4314345829998,331.4314345829998,331.4314345829998,331.33011070833265,331.4314345829998,331.4314345829998,331.4314345829998,331.33011070833265,331.4314345829998,331.4314345829998,331.4314345829998,331.4314345829998,331.4314345829998,331.4314345829998,331.4314345829998,331.4314345829998,331.4314345829998,331.4314345829998,331.4314345829998,331.4314345829998,331.4314345829998,331.4314345829998,331.38011070833267,331.4314345829998,331.4314345829998,331.4314345829998,331.38011070833267,331.4314345829998,331.4314345829998,331.4314345829998,331.4314345829998,331.4314345829998,336.62345449999975,336.62345449999975,340.7008019169998,None,0,,reldom2_s003,001,2025-01-31_12h22.04.066,What-B-Scan_AC,2022.2.5,None,
25,First_Order,5.0,viswhat,stimulus/viswhat_stim/blank_white.png,stimulus/viswhat_stim/blank_white.png,stimulus/viswhat_stim/land_animal-elephant.png,stimulus/viswhat_stim/land_vehicle-firetruck.png,stimulus/viswhat_stim/blank_white.png,stimulus/viswhat_stim/location_box.png,stimulus/viswhat_stim/location_yes.png,stimulus/viswhat_stim/location_no.png,None,Location,None,Location,1,0.0,0,5.125,0,5.125,0,5.125,0,0.0,0.625,0,0.0,0,0.0,1,0.5,1,2.125,0,0.0,0,0.0,0,0.0,0,0.0,0,,,,,0,33,33,33,,,,,,,,,340.7008019169998,340.7008019169998,340.7008019169998,340.7008019169998,340.7008019169998,340.7008019169998,340.7008019169998,340.7008019169998,340.596741791666,340.7008019169998,340.7008019169998,340.7008019169998,340.596741791666,340.7008019169998,340.7008019169998,340.7008019169998,342.8031813329999,346.76656733299933,340.7008019169998,340.7008019169998,345.9211304579994,341.18169124999986,342.2623879169996,342.8031813329999,343.88703033299953,340.7008019169998,340.7008019169998,340.646741791666,340.7008019169998,340.7008019169998,340.7008019169998,340.646741791666,340.7008019169998,340.7008019169998,345.9211304579994,340.7008019169998,345.9211304579994,345.9211304579994,346.76656733299933,340.7008019169998,1,1,1.1622474989999318,reldom2_s003,001,2025-01-31_12h22.04.066,What-B-Scan_AC,2022.2.5,None,
26,First_Order,5.0,viswhat,stimulus/viswhat_stim/blank_white.png,stimulus/viswhat_stim/blank_white.png,stimulus/viswhat_stim/land_vehicle-tank.png,stimulus/viswhat_stim/land_animal-pig.png,stimulus/viswhat_stim/blank_white.png,stimulus/viswhat_stim/type_box.png,stimulus/viswhat_stim/type_yes.png,stimulus/viswhat_stim/type_no.png,None,Type,None,Location,2,0.0,0,5.125,0,5.125,0,5.125,0,0.0,0.625,0,0.0,0,0.0,1,0.5,1,2.125,0,0.0,0,0.0,0,0.0,0,0.0,0,,,,,0,34,34,34,,,,,,,,,346.76656733299933,346.76656733299933,346.76656733299933,346.76656733299933,346.76656733299933,346.76656733299933,346.76656733299933,346.76656733299933,346.73976474966605,346.76656733299933,346.76656733299933,346.76656733299933,346.73976474966605,346.76656733299933,346.76656733299933,346.76656733299933,348.86464604199955,352.9219343329996,346.76656733299933,346.76656733299933,351.8985862919999,347.2517620419994,348.27048079199994,348.86464604199955,349.88849516699975,346.76656733299933,346.76656733299933,346.75643141633276,346.76656733299933,346.76656733299933,346.76656733299933,346.75643141633276,346.76656733299933,346.76656733299933,351.8985862919999,346.76656733299933,351.8985862919999,351.9810654169996,352.61361283299993,346.76656733299933,2,1,0.6700857080004425,reldom2_s003,001,2025-01-31_12h22.04.066,What-B-Scan_AC,2022.2.5,None,
27,First_Order,5.0,viswhat,stimulus/viswhat_stim/blank_white.png,stimulus/viswhat_stim/blank_white.png,stimulus/viswhat_stim/land_animal-moose.png,stimulus/viswhat_stim/land_vehicle-vespa.png,stimulus/viswhat_stim/blank_white.png,stimulus/viswhat_stim/location_box.png,stimulus/viswhat_stim/location_yes.png,stimulus/viswhat_stim/location_no.png,None,Location,None,Location,1,0.0,0,5.125,0,5.125,0,5.125,0,0.0,0.625,0,0.0,0,0.0,1,0.5,1,2.125,0,0.0,0,0.0,0,0.0,0,0.0,0,,,,,0,35,35,35,,,,,,,,,352.9219343329996,352.9219343329996,352.9219343329996,352.9219343329996,352.9219343329996,352.9219343329996,352.9219343329996,352.9219343329996,352.7972407913333,352.9219343329996,352.9219343329996,352.9219343329996,352.7972407913333,352.9219343329996,352.9219343329996,352.9219343329996,355.03026341699933,,352.9219343329996,352.9219343329996,358.15237666699977,353.3975028750001,354.4862142080001,355.03026341699933,356.11874958299995,352.9219343329996,352.9219343329996,352.86390745799997,352.9219343329996,352.9219343329996,352.9219343329996,352.86390745799997,352.9219343329996,352.9219343329996,358.15237666699977,352.9219343329996,358.15237666699977,358.15237666699977,359.05058754199945,352.9219343329996,1,1,0.7533285830004388,reldom2_s003,001,2025-01-31_12h22.04.066,What-B-Scan_AC,2022.2.5,None,
28,First_Order,5.0,viswhat,stimulus/viswhat_stim/blank_white.png,stimulus/viswhat_stim/blank_white.png,stimulus/viswhat_stim/land_animal-giraffe.png,stimulus/viswhat_stim/water_animal-squid.png,stimulus/viswhat_stim/blank_white.png,stimulus/viswhat_stim/location_box.png,stimulus/viswhat_stim/location_yes.png,stimulus/viswhat_stim/location_no.png,None,Location,None,Type,2,0.0,0,5.125,0,5.125,0,5.125,0,0.0,0.625,0,0.0,0,0.0,1,0.5,1,2.125,0,0.0,0,0.0,0,0.0,0,0.0,0,,,,,0,36,36,36,,,,,,,,,359.05058754199945,359.05058754199945,359.05058754199945,359.05058754199945,359.05058754199945,359.05058754199945,359.05058754199945,359.05058754199945,358.95601725033333,359.05058754199945,359.05058754199945,359.05058754199945,358.95601725033333,359.05058754199945,359.05058754199945,359.05058754199945,361.1264536669996,,359.05058754199945,359.05058754199945,364.2099316670001,359.4974933329995,360.5645432499996,361.1264536669996,362.1968195419995,359.05058754199945,359.05058754199945,359.0060172503333,359.05058754199945,359.05058754199945,359.05058754199945,359.0060172503333,359.05058754199945,359.05058754199945,364.2099316670001,359.05058754199945,364.2099316670001,364.2605376669999,365.1755379999995,359.05058754199945,2,1,1.0040531660006309,reldom2_s003,001,2025-01-31_12h22.04.066,What-B-Scan_AC,2022.2.5,None,
0,0.0,None,fixation,stimulus/viswhat_stim/blank_white.png,stimulus/viswhat_stim/blank_white.png,stimulus/audwhat_stim/blank_white.png,stimulus/audwhat_stim/blank_white.png,stimulus/viswhat_stim/blank_white.png,stimulus/viswhat_stim/blank_white.png,stimulus/viswhat_stim/blank_white.png,stimulus/viswhat_stim/blank_white.png,0.0,0.0,0.0,0.0,0,0.0,0,0.0,0,0.0,0,0.0,0,0.0,0.0,0,0.0,0,0.0,0,0.0,0,0.0,0,0.0,0,0.0,0,0.0,0,0.0,9,,,,,0,37,37,37,,,,,,,,,365.1755379999995,365.1755379999995,365.1755379999995,365.1755379999995,365.1755379999995,365.1755379999995,365.1755379999995,365.1755379999995,365.06272766699965,365.1755379999995,365.1755379999995,365.1755379999995,365.06272766699965,365.1755379999995,365.1755379999995,365.1755379999995,365.1755379999995,365.1755379999995,365.1755379999995,365.1755379999995,365.1755379999995,365.1755379999995,365.1755379999995,365.1755379999995,365.1755379999995,365.1755379999995,365.1755379999995,365.1293943336663,365.1755379999995,365.1755379999995,365.1755379999995,365.1293943336663,365.1755379999995,365.1755379999995,365.1755379999995,365.1755379999995,365.1755379999995,370.3697771669995,370.3697771669995,374.3348163749997,None,0,,reldom2_s003,001,2025-01-31_12h22.04.066,What-B-Scan_AC,2022.2.5,None,
29,Second_Order,5.0,viswhat,stimulus/viswhat_stim/water_vehicle-pirateship.png,stimulus/viswhat_stim/land_vehicle-schoolbus.png,stimulus/viswhat_stim/water_animal-dolphin.png,stimulus/viswhat_stim/land_animal-cat.png,stimulus/viswhat_stim/match_blank.png,stimulus/viswhat_stim/match_box.png,stimulus/viswhat_stim/match_yes.png,stimulus/viswhat_stim/match_no.png,1.0,Match,Type,Type,1,5.125,0,5.125,0,5.125,0,5.125,0,0.75,0.75,1,0.5,1,2.125,1,0.5,1,2.125,0,0.0,0,0.0,0,0.0,0,0.0,0,,,,,0,38,38,38,,,,,,,,,374.3348163749997,379.45752941699993,374.80036779199963,375.7989872500002,376.43354112499946,377.42302525000014,374.3348163749997,374.3348163749997,374.3393652913329,374.3348163749997,374.3348163749997,374.3348163749997,374.3393652913329,374.3348163749997,379.45752941699993,380.26247991699984,382.35632554199947,,380.26247991699984,380.26247991699984,385.42556479199993,380.71325325,381.74518312500004,382.35632554199947,383.39367366699935,380.26247991699984,380.26247991699984,380.2425882079995,380.26247991699984,380.26247991699984,380.26247991699984,380.2425882079995,380.26247991699984,380.26247991699984,385.42556479199993,380.26247991699984,385.42556479199993,385.4783735000001,,380.26247991699984,1,1,0.6944049160001668,reldom2_s003,001,2025-01-31_12h22.04.066,What-B-Scan_AC,2022.2.5,None,
30,Second_Order,5.0,viswhat,stimulus/viswhat_stim/water_animal-orka.png,stimulus/viswhat_stim/land_animal-bunny.png,stimulus/viswhat_stim/land_vehicle-motorcycle.png,stimulus/viswhat_stim/water_vehicle-motorboatraft.png,stimulus/viswhat_stim/match_blank.png,stimulus/viswhat_stim/match_box.png,stimulus/viswhat_stim/match_yes.png,stimulus/viswhat_stim/match_no.png,1.0,Match,Type,Type,1,5.125,0,5.125,0,5.125,0,5.125,0,0.625,0.625,1,0.5,1,2.125,1,0.5,1,2.125,0,0.0,0,0.0,0,0.0,0,0.0,0,,,,,0,39,39,39,,,,,,,,,386.30565558299986,391.4230182499996,386.7112439169996,387.7100715830002,388.3329667500002,389.3302735829993,386.30565558299986,386.30565558299986,386.3194139579995,386.30565558299986,386.30565558299986,386.30565558299986,386.3194139579995,386.30565558299986,391.4230182499996,392.1030668329995,394.20288883299963,398.2477640420002,392.1030668329995,392.1030668329995,397.23593654199976,392.5519960419997,393.57149483299963,394.20288883299963,395.2275601249994,392.1030668329995,392.1030668329995,392.08667012499956,392.1030668329995,392.1030668329995,392.1030668329995,392.08667012499956,392.1030668329995,392.1030668329995,397.23593654199976,392.1030668329995,397.23593654199976,397.3082556669997,397.9416284580002,392.1030668329995,1,1,0.8119025830001192,reldom2_s003,001,2025-01-31_12h22.04.066,What-B-Scan_AC,2022.2.5,None,
0,0.0,None,fixation,stimulus/viswhat_stim/blank_white.png,stimulus/viswhat_stim/blank_white.png,stimulus/audwhat_stim/blank_white.png,stimulus/audwhat_stim/blank_white.png,stimulus/viswhat_stim/blank_white.png,stimulus/viswhat_stim/blank_white.png,stimulus/viswhat_stim/blank_white.png,stimulus/viswhat_stim/blank_white.png,0.0,0.0,0.0,0.0,0,0.0,0,0.0,0,0.0,0,0.0,0,0.0,0.0,0,0.0,0,0.0,0,0.0,0,0.0,0,0.0,0,0.0,0,0.0,0,0.0,9,,,,,0,40,40,40,,,,,,,,,398.2477640420002,398.2477640420002,398.2477640420002,398.2477640420002,398.2477640420002,398.2477640420002,398.2477640420002,398.2477640420002,398.1545802916661,398.2477640420002,398.2477640420002,398.2477640420002,398.1545802916661,398.2477640420002,398.2477640420002,398.2477640420002,398.2477640420002,398.2477640420002,398.2477640420002,398.2477640420002,398.2477640420002,398.2477640420002,398.2477640420002,398.2477640420002,398.2477640420002,398.2477640420002,398.2477640420002,398.20458029166605,398.2477640420002,398.2477640420002,398.2477640420002,398.20458029166605,398.2477640420002,398.2477640420002,398.2477640420002,398.2477640420002,398.2477640420002,403.44793970799947,403.44793970799947,407.5392242500002,None,0,,reldom2_s003,001,2025-01-31_12h22.04.066,What-B-Scan_AC,2022.2.5,None,
31,First_Order,6.0,viswhat,stimulus/viswhat_stim/blank_white.png,stimulus/viswhat_stim/blank_white.png,stimulus/viswhat_stim/water_vehicle-ship.png,stimulus/viswhat_stim/land_vehicle-schoolbus.png,stimulus/viswhat_stim/blank_white.png,stimulus/viswhat_stim/location_box.png,stimulus/viswhat_stim/location_yes.png,stimulus/viswhat_stim/location_no.png,None,Location,None,Type,2,0.0,0,5.125,0,5.125,0,5.125,0,0.0,0.625,0,0.0,0,0.0,1,0.5,1,2.125,0,0.0,0,0.0,0,0.0,0,0.0,0,,,,,0,41,41,41,,,,,,,,,407.5392242500002,407.5392242500002,407.5392242500002,407.5392242500002,407.5392242500002,407.5392242500002,407.5392242500002,407.5392242500002,407.4340495836665,407.5392242500002,407.5392242500002,407.5392242500002,407.4340495836665,407.5392242500002,407.5392242500002,407.5392242500002,409.61564270799954,,407.5392242500002,407.5392242500002,412.72432879200005,407.9698646249999,409.0687213330002,409.61564270799954,410.71591699999954,407.5392242500002,407.5392242500002,407.4840495836665,407.5392242500002,407.5392242500002,407.5392242500002,407.4840495836665,407.5392242500002,407.5392242500002,412.72432879200005,407.5392242500002,412.72432879200005,412.72432879200005,413.59464062499956,407.5392242500002,2,1,0.6771936240002105,reldom2_s003,001,2025-01-31_12h22.04.066,What-B-Scan_AC,2022.2.5,None,
32,First_Order,6.0,viswhat,stimulus/viswhat_stim/blank_white.png,stimulus/viswhat_stim/blank_white.png,stimulus/viswhat_stim/land_vehicle-bus.png,stimulus/viswhat_stim/water_vehicle-jetski.png,stimulus/viswhat_stim/blank_white.png,stimulus/viswhat_stim/type_box.png,stimulus/viswhat_stim/type_yes.png,stimulus/viswhat_stim/type_no.png,None,Type,None,Type,1,0.0,0,5.125,0,5.125,0,5.125,0,0.0,0.625,0,0.0,0,0.0,1,0.5,1,2.125,0,0.0,0,0.0,0,0.0,0,0.0,0,,,,,0,42,42,42,,,,,,,,,413.59464062499956,413.59464062499956,413.59464062499956,413.59464062499956,413.59464062499956,413.59464062499956,413.59464062499956,413.59464062499956,413.55140483366597,413.59464062499956,413.59464062499956,413.59464062499956,413.55140483366597,413.59464062499956,413.59464062499956,413.59464062499956,415.6872632499999,419.69301025000004,413.59464062499956,413.59464062499956,418.728519583,414.0672535829999,415.1011301669996,415.6872632499999,416.72424158299964,413.59464062499956,413.59464062499956,413.5680715003327,413.59464062499956,413.59464062499956,413.59464062499956,413.5680715003327,413.59464062499956,413.59464062499956,418.728519583,413.59464062499956,418.728519583,418.8231245420002,419.46385279199967,413.59464062499956,1,1,1.337105417001112,reldom2_s003,001,2025-01-31_12h22.04.066,What-B-Scan_AC,2022.2.5,None,
33,First_Order,6.0,viswhat,stimulus/viswhat_stim/blank_white.png,stimulus/viswhat_stim/blank_white.png,stimulus/viswhat_stim/water_animal-seahorse.png,stimulus/viswhat_stim/water_vehicle-cabincruiser.png,stimulus/viswhat_stim/blank_white.png,stimulus/viswhat_stim/type_box.png,stimulus/viswhat_stim/type_yes.png,stimulus/viswhat_stim/type_no.png,None,Type,None,Location,2,0.0,0,5.125,0,5.125,0,5.125,0,0.0,0.625,0,0.0,0,0.0,1,0.5,1,2.125,0,0.0,0,0.0,0,0.0,0,0.0,0,,,,,0,43,43,43,,,,,,,,,419.69301025000004,419.69301025000004,419.69301025000004,419.69301025000004,419.69301025000004,419.69301025000004,419.69301025000004,419.69301025000004,419.63461650000005,419.69301025000004,419.69301025000004,419.69301025000004,419.63461650000005,419.69301025000004,419.69301025000004,419.69301025000004,421.79205683300006,425.81379229199956,419.69301025000004,419.69301025000004,424.83593462499994,420.1498978749996,421.19768912499967,421.79205683300006,422.8124362079998,419.69301025000004,419.69301025000004,419.6679498333334,419.69301025000004,419.69301025000004,419.69301025000004,419.6679498333334,419.69301025000004,419.69301025000004,424.83593462499994,419.69301025000004,424.83593462499994,424.89474874999996,425.53772133299935,419.69301025000004,2,1,0.9130344580007659,reldom2_s003,001,2025-01-31_12h22.04.066,What-B-Scan_AC,2022.2.5,None,
34,First_Order,6.0,viswhat,stimulus/viswhat_stim/blank_white.png,stimulus/viswhat_stim/blank_white.png,stimulus/viswhat_stim/land_animal-tiger.png,stimulus/viswhat_stim/water_animal-octopus.png,stimulus/viswhat_stim/blank_white.png,stimulus/viswhat_stim/type_box.png,stimulus/viswhat_stim/type_yes.png,stimulus/viswhat_stim/type_no.png,None,Type,None,Type,1,0.0,0,5.125,0,5.125,0,5.125,0,0.0,0.625,0,0.0,0,0.0,1,0.5,1,2.125,0,0.0,0,0.0,0,0.0,0,0.0,0,,,,,0,44,44,44,,,,,,,,,425.81379229199956,425.81379229199956,425.81379229199956,425.81379229199956,425.81379229199956,425.81379229199956,425.81379229199956,425.81379229199956,425.74162162466644,425.81379229199956,425.81379229199956,425.81379229199956,425.74162162466644,425.81379229199956,425.81379229199956,425.81379229199956,427.9153685829997,431.96990666700003,425.81379229199956,425.81379229199956,430.97414229199967,426.294697583,427.3459699169998,427.9153685829997,428.9692579579996,425.81379229199956,425.81379229199956,425.77495495799974,425.81379229199956,425.81379229199956,425.81379229199956,425.77495495799974,425.81379229199956,425.81379229199956,430.97414229199967,425.81379229199956,430.97414229199967,431.0123458749995,431.6582633749995,425.81379229199956,1,1,0.47048708300008,reldom2_s003,001,2025-01-31_12h22.04.066,What-B-Scan_AC,2022.2.5,None,
0,0.0,None,fixation,stimulus/viswhat_stim/blank_white.png,stimulus/viswhat_stim/blank_white.png,stimulus/audwhat_stim/blank_white.png,stimulus/audwhat_stim/blank_white.png,stimulus/viswhat_stim/blank_white.png,stimulus/viswhat_stim/blank_white.png,stimulus/viswhat_stim/blank_white.png,stimulus/viswhat_stim/blank_white.png,0.0,0.0,0.0,0.0,0,0.0,0,0.0,0,0.0,0,0.0,0,0.0,0.0,0,0.0,0,0.0,0,0.0,0,0.0,0,0.0,0,0.0,0,0.0,0,0.0,8,,,,,0,45,45,45,,,,,,,,,431.96990666700003,431.96990666700003,431.96990666700003,431.96990666700003,431.96990666700003,431.96990666700003,431.96990666700003,431.96990666700003,431.8688922503335,431.96990666700003,431.96990666700003,431.96990666700003,431.8688922503335,431.96990666700003,431.96990666700003,431.96990666700003,431.96990666700003,431.96990666700003,431.96990666700003,431.96990666700003,431.96990666700003,431.96990666700003,431.96990666700003,431.96990666700003,431.96990666700003,431.96990666700003,431.96990666700003,431.9188922503335,431.96990666700003,431.96990666700003,431.96990666700003,431.9188922503335,431.96990666700003,431.96990666700003,431.96990666700003,431.96990666700003,431.96990666700003,437.16474516699964,437.16474516699964,440.1111927080001,None,0,,reldom2_s003,001,2025-01-31_12h22.04.066,What-B-Scan_AC,2022.2.5,None,
35,Second_Order,6.0,viswhat,stimulus/viswhat_stim/land_animal-wolf.png,stimulus/viswhat_stim/land_vehicle-schoolbus.png,stimulus/viswhat_stim/water_animal-shark.png,stimulus/viswhat_stim/water_vehicle-ship.png,stimulus/viswhat_stim/match_blank.png,stimulus/viswhat_stim/match_box.png,stimulus/viswhat_stim/match_yes.png,stimulus/viswhat_stim/match_no.png,1.0,Match,Location,Location,1,5.125,0,5.125,0,5.125,0,5.125,0,0.75,0.75,1,0.5,1,2.125,1,0.5,1,2.125,0,0.0,0,0.0,0,0.0,0,0.0,0,,,,,0,46,46,46,,,,,,,,,440.1111927080001,445.23124649999954,440.5856509999994,441.58414337500017,442.2066938749995,443.20433808300004,440.1111927080001,440.1111927080001,440.1179005833329,440.1111927080001,440.1111927080001,440.1111927080001,440.1179005833329,440.1111927080001,445.23124649999954,446.11046816699945,448.1547097920002,,446.11046816699945,446.11046816699945,451.32396441699984,446.5327139579995,447.5899586249998,448.1547097920002,449.21406408299936,446.11046816699945,446.11046816699945,446.04813545833287,446.11046816699945,446.11046816699945,446.11046816699945,446.04813545833287,446.11046816699945,446.11046816699945,451.32396441699984,446.11046816699945,451.32396441699984,451.32396441699984,,446.11046816699945,1,1,0.7578608330004499,reldom2_s003,001,2025-01-31_12h22.04.066,What-B-Scan_AC,2022.2.5,None,
36,Second_Order,6.0,viswhat,stimulus/viswhat_stim/land_vehicle-oldcar.png,stimulus/viswhat_stim/land_animal-cat.png,stimulus/viswhat_stim/water_vehicle-cargoboat.png,stimulus/viswhat_stim/water_animal-orka.png,stimulus/viswhat_stim/match_blank.png,stimulus/viswhat_stim/match_box.png,stimulus/viswhat_stim/match_yes.png,stimulus/viswhat_stim/match_no.png,1.0,Match,Location,Location,1,5.125,0,5.125,0,5.125,0,5.125,0,0.625,0.625,1,0.5,1,2.125,1,0.5,1,2.125,0,0.0,0,0.0,0,0.0,0,0.0,0,,,,,0,47,47,47,,,,,,,,,452.07727350000005,457.19152716699955,452.5299715000001,453.5280063330001,454.1515714999996,455.1487247919995,452.07727350000005,452.07727350000005,452.07503387466625,452.07727350000005,452.07727350000005,452.07727350000005,452.07503387466625,452.07727350000005,457.19152716699955,457.9409825829998,459.9971568330002,464.07666362500004,457.9409825829998,457.9409825829998,463.1281729169996,458.4034131669996,459.4629174169995,459.9971568330002,461.0647796249996,457.9409825829998,457.9409825829998,457.8881808333329,457.9409825829998,457.9409825829998,457.9409825829998,457.8881808333329,457.9409825829998,457.9409825829998,463.1281729169996,457.9409825829998,463.1281729169996,463.1281729169996,463.79586545799975,457.9409825829998,1,1,0.6832660830004897,reldom2_s003,001,2025-01-31_12h22.04.066,What-B-Scan_AC,2022.2.5,None,
0,0.0,None,fixation,stimulus/viswhat_stim/blank_white.png,stimulus/viswhat_stim/blank_white.png,stimulus/audwhat_stim/blank_white.png,stimulus/audwhat_stim/blank_white.png,stimulus/viswhat_stim/blank_white.png,stimulus/viswhat_stim/blank_white.png,stimulus/viswhat_stim/blank_white.png,stimulus/viswhat_stim/blank_white.png,0.0,0.0,0.0,0.0,0,0.0,0,0.0,0,0.0,0,0.0,0,0.0,0.0,0,0.0,0,0.0,0,0.0,0,0.0,0,0.0,0,0.0,0,0.0,0,0.0,10,,,,,0,48,48,48,,,,,,,,,464.07666362500004,464.07666362500004,464.07666362500004,464.07666362500004,464.07666362500004,464.07666362500004,464.07666362500004,464.07666362500004,463.9791987913331,464.07666362500004,464.07666362500004,464.07666362500004,463.9791987913331,464.07666362500004,464.07666362500004,464.07666362500004,464.07666362500004,464.07666362500004,464.07666362500004,464.07666362500004,464.07666362500004,464.07666362500004,464.07666362500004,464.07666362500004,464.07666362500004,464.07666362500004,464.07666362500004,464.02919879133304,464.07666362500004,464.07666362500004,464.07666362500004,464.02919879133304,464.07666362500004,464.07666362500004,464.07666362500004,464.07666362500004,464.07666362500004,469.2836721670001,469.2836721670001,474.31044974999986,None,0,,reldom2_s003,001,2025-01-31_12h22.04.066,What-B-Scan_AC,2022.2.5,None,
37,First_Order,7.0,audwhat,stimulus/audwhat_stim/dummy.wav,stimulus/audwhat_stim/dummy.wav,stimulus/audwhat_stim/string viola_low-pitch_Ftri_loud.wav,stimulus/audwhat_stim/string viola_high-pitch_Dtri_loud.wav,stimulus/audwhat_stim/blank_white.png,stimulus/audwhat_stim/category_box.png,stimulus/audwhat_stim/category_yes.png,stimulus/audwhat_stim/category_no.png,None,Category,None,Category,1,0.0,0,5.125,0,5.125,0,5.125,0,0.0,0.625,0,0.0,0,0.0,0,0.0,0,0.0,0,0.0,0,0.0,1,0.5,1,2.125,0,,,,,0,49,49,49,,,,,,,,,474.31044974999986,474.31044974999986,474.31044974999986,474.31044974999986,474.31044974999986,474.31044974999986,474.31044974999986,474.31044974999986,474.2331115836665,474.31044974999986,474.31044974999986,474.31044974999986,474.2331115836665,474.31044974999986,474.31044974999986,474.31044974999986,476.37959616699936,,474.31044974999986,474.31044974999986,479.4810790829997,474.31044974999986,474.31044974999986,474.31044974999986,474.31044974999986,474.7780164579999,475.81533554199996,474.74790679166676,,476.37959616699936,477.4156369579996,476.3489537496664,,474.31044974999986,479.4810790829997,474.31044974999986,479.4810790829997,479.52231570799995,480.18640058299934,474.31044974999986,1,1,1.958417833000567,reldom2_s003,001,2025-01-31_12h22.04.066,What-B-Scan_AC,2022.2.5,None,
38,First_Order,7.0,audwhat,stimulus/audwhat_stim/dummy.wav,stimulus/audwhat_stim/dummy.wav,stimulus/audwhat_stim/percussion mallet_high-pitch_D_loud.wav,stimulus/audwhat_stim/string viola_high-pitch_D_loud.wav,stimulus/audwhat_stim/blank_white.png,stimulus/audwhat_stim/pitch_box.png,stimulus/audwhat_stim/pitch_yes.png,stimulus/audwhat_stim/pitch_no.png,None,Pitch,None,Pitch,1,0.0,0,5.125,0,5.125,0,5.125,0,0.0,0.625,0,0.0,0,0.0,0,0.0,0,0.0,0,0.0,0,0.0,1,0.5,1,2.125,0,,,,,0,50,50,50,,,,,,,,,480.40274624999984,480.40274624999984,480.40274624999984,480.40274624999984,480.40274624999984,480.40274624999984,480.40274624999984,480.40274624999984,480.31973391633267,480.40274624999984,480.40274624999984,480.40274624999984,480.31973391633267,480.40274624999984,480.40274624999984,480.40274624999984,482.5149564579997,486.5237063750001,480.40274624999984,480.40274624999984,485.56184974999996,480.40274624999984,480.40274624999984,480.40274624999984,480.40274624999984,480.87287987499985,481.908637042,480.8421422916665,,482.5149564579997,483.54591829199944,482.48505170866633,,480.40274624999984,485.56184974999996,480.40274624999984,485.56184974999996,485.6034327919997,486.26455325000006,480.40274624999984,1,1,1.0767020000002958,reldom2_s003,001,2025-01-31_12h22.04.066,What-B-Scan_AC,2022.2.5,None,
39,First_Order,7.0,audwhat,stimulus/audwhat_stim/dummy.wav,stimulus/audwhat_stim/dummy.wav,stimulus/audwhat_stim/string viola_low-pitch_Dtri_loud.wav,stimulus/audwhat_stim/percussion mallet_low-pitch_Dtri_loud.wav,stimulus/audwhat_stim/blank_white.png,stimulus/audwhat_stim/category_box.png,stimulus/audwhat_stim/category_yes.png,stimulus/audwhat_stim/category_no.png,None,Category,None,Pitch,2,0.0,0,5.125,0,5.125,0,5.125,0,0.0,0.625,0,0.0,0,0.0,0,0.0,0,0.0,0,0.0,0,0.0,1,0.5,1,2.125,0,,,,,0,51,51,51,,,,,,,,,486.5237063750001,486.5237063750001,486.5237063750001,486.5237063750001,486.5237063750001,486.5237063750001,486.5237063750001,486.5237063750001,486.4392400413327,486.5237063750001,486.5237063750001,486.5237063750001,486.4392400413327,486.5237063750001,486.5237063750001,486.5237063750001,488.59934075,,486.5237063750001,486.5237063750001,491.71225270800005,486.5237063750001,486.5237063750001,486.5237063750001,486.5237063750001,486.996229458,488.03470220799954,486.9654037916664,,488.59934075,489.6372617500001,488.56877612466656,,486.5237063750001,491.71225270800005,486.5237063750001,491.71225270800005,491.71225270800005,492.37582270799976,486.5237063750001,2,1,0.4799470409998321,reldom2_s003,001,2025-01-31_12h22.04.066,What-B-Scan_AC,2022.2.5,None,
40,First_Order,7.0,audwhat,stimulus/audwhat_stim/dummy.wav,stimulus/audwhat_stim/dummy.wav,stimulus/audwhat_stim/string viola_high-pitch_F_loud.wav,stimulus/audwhat_stim/string viola_low-pitch_Ftri_loud.wav,stimulus/audwhat_stim/blank_white.png,stimulus/audwhat_stim/pitch_box.png,stimulus/audwhat_stim/pitch_yes.png,stimulus/audwhat_stim/pitch_no.png,None,Pitch,None,Category,2,0.0,0,5.125,0,5.125,0,5.125,0,0.0,0.625,0,0.0,0,0.0,0,0.0,0,0.0,0,0.0,0,0.0,1,0.5,1,2.125,0,,,,,0,52,52,52,,,,,,,,,492.6334460829994,492.6334460829994,492.6334460829994,492.6334460829994,492.6334460829994,492.6334460829994,492.6334460829994,492.6334460829994,492.5496930003329,492.6334460829994,492.6334460829994,492.6334460829994,492.5496930003329,492.6334460829994,492.6334460829994,492.6334460829994,494.7451808329997,498.7867666249995,492.6334460829994,492.6334460829994,497.8001044169996,492.6334460829994,492.6334460829994,492.6334460829994,492.6334460829994,493.10301770800015,494.13690408299954,493.07302579166685,,494.7451808329997,495.7845134580002,494.71501916666625,,492.6334460829994,497.8001044169996,492.6334460829994,497.8001044169996,497.8418417080002,498.5034027920001,492.6334460829994,2,1,0.8166898330000549,reldom2_s003,001,2025-01-31_12h22.04.066,What-B-Scan_AC,2022.2.5,None,
0,0.0,None,fixation,stimulus/viswhat_stim/blank_white.png,stimulus/viswhat_stim/blank_white.png,stimulus/audwhat_stim/blank_white.png,stimulus/audwhat_stim/blank_white.png,stimulus/viswhat_stim/blank_white.png,stimulus/viswhat_stim/blank_white.png,stimulus/viswhat_stim/blank_white.png,stimulus/viswhat_stim/blank_white.png,0.0,0.0,0.0,0.0,0,0.0,0,0.0,0,0.0,0,0.0,0,0.0,0.0,0,0.0,0,0.0,0,0.0,0,0.0,0,0.0,0,0.0,0,0.0,0,0.0,9,,,,,0,53,53,53,,,,,,,,,498.7867666249995,498.7867666249995,498.7867666249995,498.7867666249995,498.7867666249995,498.7867666249995,498.7867666249995,498.7867666249995,498.67820475033307,498.7867666249995,498.7867666249995,498.7867666249995,498.67820475033307,498.7867666249995,498.7867666249995,498.7867666249995,498.7867666249995,498.7867666249995,498.7867666249995,498.7867666249995,498.7867666249995,498.7867666249995,498.7867666249995,498.7867666249995,498.7867666249995,498.7867666249995,498.7867666249995,498.74487141699973,498.7867666249995,498.7867666249995,498.7867666249995,498.74487141699973,498.7867666249995,498.7867666249995,498.7867666249995,498.7867666249995,498.7867666249995,503.9887886669994,503.9887886669994,507.9257085419995,None,0,,reldom2_s003,001,2025-01-31_12h22.04.066,What-B-Scan_AC,2022.2.5,None,
41,Second_Order,7.0,audwhat,stimulus/audwhat_stim/percussion mallet_low-pitch_F_loud.wav,stimulus/audwhat_stim/percussion mallet_high-pitch_D_loud.wav,stimulus/audwhat_stim/string cello_low-pitch_Dtri_loud.wav,stimulus/audwhat_stim/string viola_high-pitch_F_loud.wav,stimulus/viswhat_stim/match_blank.png,stimulus/viswhat_stim/match_box.png,stimulus/viswhat_stim/match_yes.png,stimulus/viswhat_stim/match_no.png,1.0,Match,Category,Category,1,5.125,0,5.125,0,5.125,0,5.125,0,0.75,0.75,0,0.0,0,0.0,0,0.0,0,0.0,1,0.5,1,2.125,1,0.5,1,2.125,0,,,,,0,54,54,54,,,,,,,,,507.9257085419995,513.0487825,507.9257085419995,507.9257085419995,507.9257085419995,507.9257085419995,508.37574874999973,509.3734836249996,508.38825741666665,509.3811870419995,510.0086528749998,510.9985857920001,510.01237699966646,511.01094479199946,513.0487825,513.8812541669995,515.9409314169998,519.8930675419997,513.8812541669995,513.8812541669995,519.0304087919994,513.8812541669995,513.8812541669995,513.8812541669995,513.8812541669995,514.3511428749998,515.426174792,514.3205562496662,,515.9409314169998,516.9719219580002,515.9106174166666,,513.8812541669995,519.0304087919994,513.8812541669995,519.0304087919994,519.07173375,,513.8812541669995,1,1,1.1257033750007395,reldom2_s003,001,2025-01-31_12h22.04.066,What-B-Scan_AC,2022.2.5,None,
42,Second_Order,7.0,audwhat,stimulus/audwhat_stim/percussion mallet_high-pitch_Ftri_loud.wav,stimulus/audwhat_stim/percussion mallet_low-pitch_F_loud.wav,stimulus/audwhat_stim/percussion mallet_low-pitch_Dtri_loud.wav,stimulus/audwhat_stim/string viola_low-pitch_Dtri_loud.wav,stimulus/viswhat_stim/match_blank.png,stimulus/viswhat_stim/match_box.png,stimulus/viswhat_stim/match_yes.png,stimulus/viswhat_stim/match_no.png,2.0,Match,Category,Pitch,2,5.125,0,5.125,0,5.125,0,5.125,0,0.625,0.625,0,0.0,0,0.0,0,0.0,0,0.0,1,0.5,1,2.125,1,0.5,1,2.125,0,,,,,0,55,55,55,,,,,,,,,519.8930675419997,525.0141612079997,519.8930675419997,519.8930675419997,519.8930675419997,519.8930675419997,520.3525860829996,521.3513965419997,520.3658337086665,521.3590999580001,521.9753187919996,522.9718517499996,521.9863669586668,522.9799772079996,525.0141612079997,525.7291247499998,527.8261029999994,,525.7291247499998,525.7291247499998,530.901731375,525.7291247499998,525.7291247499998,525.7291247499998,525.7291247499998,526.1941385829996,527.2664504169998,526.1631974586664,,527.8261029999994,528.9008738329994,527.7962900836667,,525.7291247499998,530.901731375,525.7291247499998,530.901731375,530.9429154999998,531.5982074169997,525.7291247499998,2,1,1.291030000000319,reldom2_s003,001,2025-01-31_12h22.04.066,What-B-Scan_AC,2022.2.5,None,
0,0.0,None,fixation,stimulus/viswhat_stim/blank_white.png,stimulus/viswhat_stim/blank_white.png,stimulus/audwhat_stim/blank_white.png,stimulus/audwhat_stim/blank_white.png,stimulus/viswhat_stim/blank_white.png,stimulus/viswhat_stim/blank_white.png,stimulus/viswhat_stim/blank_white.png,stimulus/viswhat_stim/blank_white.png,0.0,0.0,0.0,0.0,0,0.0,0,0.0,0,0.0,0,0.0,0,0.0,0.0,0,0.0,0,0.0,0,0.0,0,0.0,0,0.0,0,0.0,0,0.0,0,0.0,9,,,,,0,56,56,56,,,,,,,,,531.8360982079994,531.8360982079994,531.8360982079994,531.8360982079994,531.8360982079994,531.8360982079994,531.8360982079994,531.8360982079994,531.731540750333,531.8360982079994,531.8360982079994,531.8360982079994,531.731540750333,531.8360982079994,531.8360982079994,531.8360982079994,531.8360982079994,531.8360982079994,531.8360982079994,531.8360982079994,531.8360982079994,531.8360982079994,531.8360982079994,531.8360982079994,531.8360982079994,531.8360982079994,531.8360982079994,531.781540750333,531.8360982079994,531.8360982079994,531.8360982079994,531.781540750333,531.8360982079994,531.8360982079994,531.8360982079994,531.8360982079994,531.8360982079994,537.0553378329996,537.0553378329996,541.0716266250001,None,0,,reldom2_s003,001,2025-01-31_12h22.04.066,What-B-Scan_AC,2022.2.5,None,
43,First_Order,8.0,audwhat,stimulus/audwhat_stim/dummy.wav,stimulus/audwhat_stim/dummy.wav,stimulus/audwhat_stim/string cello_high-pitch_D_loud.wav,stimulus/audwhat_stim/string cello_low-pitch_F_loud.wav,stimulus/audwhat_stim/blank_white.png,stimulus/audwhat_stim/pitch_box.png,stimulus/audwhat_stim/pitch_yes.png,stimulus/audwhat_stim/pitch_no.png,None,Pitch,None,Category,2,0.0,0,5.125,0,5.125,0,5.125,0,0.0,0.625,0,0.0,0,0.0,0,0.0,0,0.0,0,0.0,0,0.0,1,0.5,1,2.125,0,,,,,0,57,57,57,,,,,,,,,541.0716266250001,541.0716266250001,541.0716266250001,541.0716266250001,541.0716266250001,541.0716266250001,541.0716266250001,541.0716266250001,540.9954648336667,541.0716266250001,541.0716266250001,541.0716266250001,540.9954648336667,541.0716266250001,541.0716266250001,541.0716266250001,543.1809121669994,547.1844446670002,541.0716266250001,541.0716266250001,546.2260116669995,541.0716266250001,541.0716266250001,541.0716266250001,541.0716266250001,541.5403724999996,542.5730069169995,541.5101529996666,,543.1809121669994,544.2139171250001,543.1509754166666,,541.0716266250001,546.2260116669995,541.0716266250001,546.2260116669995,546.2677004999996,546.9274787919994,541.0716266250001,2,1,1.0392012080001223,reldom2_s003,001,2025-01-31_12h22.04.066,What-B-Scan_AC,2022.2.5,None,
44,First_Order,8.0,audwhat,stimulus/audwhat_stim/dummy.wav,stimulus/audwhat_stim/dummy.wav,stimulus/audwhat_stim/percussion mallet_low-pitch_F_loud.wav,stimulus/audwhat_stim/string cello_low-pitch_F_loud.wav,stimulus/audwhat_stim/blank_white.png,stimulus/audwhat_stim/pitch_box.png,stimulus/audwhat_stim/pitch_yes.png,stimulus/audwhat_stim/pitch_no.png,None,Pitch,None,Pitch,1,0.0,0,5.125,0,5.125,0,5.125,0,0.0,0.625,0,0.0,0,0.0,0,0.0,0,0.0,0,0.0,0,0.0,1,0.5,1,2.125,0,,,,,0,58,58,58,,,,,,,,,547.1844446670002,547.1844446670002,547.1844446670002,547.1844446670002,547.1844446670002,547.1844446670002,547.1844446670002,547.1844446670002,547.1020915003329,547.1844446670002,547.1844446670002,547.1844446670002,547.1020915003329,547.1844446670002,547.1844446670002,547.1844446670002,549.2982791670001,553.319431375,547.1844446670002,547.1844446670002,552.3555597919994,547.1844446670002,547.1844446670002,547.1844446670002,547.1844446670002,547.6533354579997,548.688918625,547.622776874666,,549.2982791670001,550.3390575829999,549.2674838746664,,547.1844446670002,552.3555597919994,547.1844446670002,552.3555597919994,552.3967283749998,553.0579827920001,547.1844446670002,1,1,0.9991058330006126,reldom2_s003,001,2025-01-31_12h22.04.066,What-B-Scan_AC,2022.2.5,None,
45,First_Order,8.0,audwhat,stimulus/audwhat_stim/dummy.wav,stimulus/audwhat_stim/dummy.wav,stimulus/audwhat_stim/string viola_low-pitch_Dtri_loud.wav,stimulus/audwhat_stim/string cello_high-pitch_Ftri_loud.wav,stimulus/audwhat_stim/blank_white.png,stimulus/audwhat_stim/category_box.png,stimulus/audwhat_stim/category_yes.png,stimulus/audwhat_stim/category_no.png,None,Category,None,Category,1,0.0,0,5.125,0,5.125,0,5.125,0,0.0,0.625,0,0.0,0,0.0,0,0.0,0,0.0,0,0.0,0,0.0,1,0.5,1,2.125,0,,,,,0,59,59,59,,,,,,,,,553.319431375,553.319431375,553.319431375,553.319431375,553.319431375,553.319431375,553.319431375,553.319431375,553.2321602503335,553.319431375,553.319431375,553.319431375,553.2321602503335,553.319431375,553.319431375,553.319431375,555.3989485419997,559.4400541670002,553.319431375,553.319431375,558.5156279169996,553.319431375,553.319431375,553.319431375,553.319431375,553.7928274169999,554.833327583,553.7621454166667,,555.3989485419997,556.4421381249995,555.3685117086663,,553.319431375,558.5156279169996,553.319431375,558.5156279169996,558.5156279169996,559.1808837079998,553.319431375,1,1,0.7227356240009613,reldom2_s003,001,2025-01-31_12h22.04.066,What-B-Scan_AC,2022.2.5,None,
46,First_Order,8.0,audwhat,stimulus/audwhat_stim/dummy.wav,stimulus/audwhat_stim/dummy.wav,stimulus/audwhat_stim/string viola_high-pitch_Ftri_loud.wav,stimulus/audwhat_stim/percussion xylophone_high-pitch_Ftri_loud.wav,stimulus/audwhat_stim/blank_white.png,stimulus/audwhat_stim/category_box.png,stimulus/audwhat_stim/category_yes.png,stimulus/audwhat_stim/category_no.png,None,Category,None,Pitch,2,0.0,0,5.125,0,5.125,0,5.125,0,0.0,0.625,0,0.0,0,0.0,0,0.0,0,0.0,0,0.0,0,0.0,1,0.5,1,2.125,0,,,,,0,60,60,60,,,,,,,,,559.4400541670002,559.4400541670002,559.4400541670002,559.4400541670002,559.4400541670002,559.4400541670002,559.4400541670002,559.4400541670002,559.3558097503329,559.4400541670002,559.4400541670002,559.4400541670002,559.3558097503329,559.4400541670002,559.4400541670002,559.4400541670002,561.5197899579998,565.5793334579994,559.4400541670002,559.4400541670002,564.5946423750001,559.4400541670002,559.4400541670002,559.4400541670002,559.4400541670002,559.9127629999994,560.9544510420001,559.8818382916663,,561.5197899579998,562.5665007079997,561.4888730836667,562.5665007079997,559.4400541670002,564.5946423750001,559.4400541670002,564.5946423750001,564.6364078749993,565.3004878329994,559.4400541670002,2,1,1.5742470830009552,reldom2_s003,001,2025-01-31_12h22.04.066,What-B-Scan_AC,2022.2.5,None,
0,0.0,None,fixation,stimulus/viswhat_stim/blank_white.png,stimulus/viswhat_stim/blank_white.png,stimulus/audwhat_stim/blank_white.png,stimulus/audwhat_stim/blank_white.png,stimulus/viswhat_stim/blank_white.png,stimulus/viswhat_stim/blank_white.png,stimulus/viswhat_stim/blank_white.png,stimulus/viswhat_stim/blank_white.png,0.0,0.0,0.0,0.0,0,0.0,0,0.0,0,0.0,0,0.0,0,0.0,0.0,0,0.0,0,0.0,0,0.0,0,0.0,0,0.0,0,0.0,0,0.0,0,0.0,8,,,,,0,61,61,61,,,,,,,,,565.5793334579994,565.5793334579994,565.5793334579994,565.5793334579994,565.5793334579994,565.5793334579994,565.5793334579994,565.5793334579994,565.4746740833335,565.5793334579994,565.5793334579994,565.5793334579994,565.4746740833335,565.5793334579994,565.5793334579994,565.5793334579994,565.5793334579994,565.5793334579994,565.5793334579994,565.5793334579994,565.5793334579994,565.5793334579994,565.5793334579994,565.5793334579994,565.5793334579994,565.5793334579994,565.5793334579994,565.5246740833335,565.5793334579994,565.5793334579994,565.5793334579994,565.5246740833335,565.5793334579994,565.5793334579994,565.5793334579994,565.5793334579994,565.5793334579994,570.7964505419995,570.7964505419995,573.7631160000001,None,0,,reldom2_s003,001,2025-01-31_12h22.04.066,What-B-Scan_AC,2022.2.5,None,
47,Second_Order,8.0,audwhat,stimulus/audwhat_stim/string cello_low-pitch_Dtri_loud.wav,stimulus/audwhat_stim/string viola_high-pitch_D_loud.wav,stimulus/audwhat_stim/percussion xylophone_high-pitch_F_loud.wav,stimulus/audwhat_stim/percussion mallet_low-pitch_D_loud.wav,stimulus/viswhat_stim/match_blank.png,stimulus/viswhat_stim/match_box.png,stimulus/viswhat_stim/match_yes.png,stimulus/viswhat_stim/match_no.png,1.0,Match,Category,Category,1,5.125,0,5.125,0,5.125,0,5.125,0,0.75,0.75,0,0.0,0,0.0,0,0.0,0,0.0,1,0.5,1,2.125,1,0.5,1,2.125,0,,,,,0,62,62,62,,,,,,,,,573.7631160000001,578.8843489169994,573.7631160000001,573.7631160000001,573.7631160000001,573.7631160000001,574.2104220000001,575.2091183749999,574.2232706666666,,575.8435780419995,576.8331215419994,575.8474444166661,,578.8843489169994,579.721170625,581.7864234999997,585.7400962499996,579.721170625,579.721170625,584.8771332919996,579.721170625,579.721170625,579.721170625,579.721170625,580.188978958,581.2241099579996,580.1587399996663,581.2241099579996,581.7864234999997,582.8190142080002,581.7551469166667,,579.721170625,584.8771332919996,579.721170625,584.8771332919996,584.9187011249996,,579.721170625,1,1,1.012610792000487,reldom2_s003,001,2025-01-31_12h22.04.066,What-B-Scan_AC,2022.2.5,None,
48,Second_Order,8.0,audwhat,stimulus/audwhat_stim/percussion mallet_high-pitch_D_loud.wav,stimulus/audwhat_stim/percussion mallet_low-pitch_Dtri_loud.wav,stimulus/audwhat_stim/string viola_high-pitch_F_loud.wav,stimulus/audwhat_stim/string viola_low-pitch_Dtri_loud.wav,stimulus/viswhat_stim/match_blank.png,stimulus/viswhat_stim/match_box.png,stimulus/viswhat_stim/match_yes.png,stimulus/viswhat_stim/match_no.png,1.0,Match,Category,Category,1,5.125,0,5.125,0,5.125,0,5.125,0,0.625,0.625,0,0.0,0,0.0,0,0.0,0,0.0,1,0.5,1,2.125,1,0.5,1,2.125,0,,,,,0,63,63,63,,,,,,,,,585.7400962499996,590.8613622499997,585.7400962499996,585.7400962499996,585.7400962499996,585.7400962499996,586.1882347499995,587.1864920829994,586.200802624666,587.1944938749994,587.8215853749998,588.8102200829999,587.8245415416661,588.8233904999997,590.8613622499997,591.5773221250001,593.676979375,,591.5773221250001,591.5773221250001,596.761094042,591.5773221250001,591.5773221250001,591.5773221250001,591.5773221250001,592.0456895420002,593.1159792919998,592.0162790416664,,593.676979375,594.709989125,593.6472166666665,,591.5773221250001,596.761094042,591.5773221250001,596.761094042,596.761094042,597.4182052079996,591.5773221250001,1,1,0.8770987079997212,reldom2_s003,001,2025-01-31_12h22.04.066,What-B-Scan_AC,2022.2.5,None,
0,0.0,None,fixation,stimulus/viswhat_stim/blank_white.png,stimulus/viswhat_stim/blank_white.png,stimulus/audwhat_stim/blank_white.png,stimulus/audwhat_stim/blank_white.png,stimulus/viswhat_stim/blank_white.png,stimulus/viswhat_stim/blank_white.png,stimulus/viswhat_stim/blank_white.png,stimulus/viswhat_stim/blank_white.png,0.0,0.0,0.0,0.0,0,0.0,0,0.0,0,0.0,0,0.0,0,0.0,0.0,0,0.0,0,0.0,0,0.0,0,0.0,0,0.0,0,0.0,0,0.0,0,0.0,16,,,,,0,64,64,64,,,,,,,,,597.6964490419996,597.6964490419996,597.6964490419996,597.6964490419996,597.6964490419996,597.6964490419996,597.6964490419996,597.6964490419996,597.5931393333332,597.6964490419996,597.6964490419996,597.6964490419996,597.5931393333332,597.6964490419996,597.6964490419996,597.6964490419996,597.6964490419996,597.6964490419996,597.6964490419996,597.6964490419996,597.6964490419996,597.6964490419996,597.6964490419996,597.6964490419996,597.6964490419996,597.6964490419996,597.6964490419996,597.6431393333331,597.6964490419996,597.6964490419996,597.6964490419996,597.6431393333331,597.6964490419996,597.6964490419996,597.6964490419996,597.6964490419996,597.6964490419996,602.917526708,602.917526708,613.8675576669993,None,0,,reldom2_s003,001,2025-01-31_12h22.04.066,What-B-Scan_AC,2022.2.5,None,
