Trial,Order,Block,Type,Stimuli_File1,Stimuli_File2,Stimuli_File3,Stimuli_File4,Cue_File1,Cue_File2,Response_File_Yes,Response_File_No,Match,Cue_Dimension,Pair1_Dimension,Pair2_Dimension,Key,Cue1_Duration,Cue1_Onset,Cue2_Duration,Cue2_Onset,ResponseYes_Duration,ResponseYes_Onset,ResponseNo_Duration,ResponseNo_Onset,ITI_Within,ITI_Between,Image1_Duration,Image1_Onset,Image2_Duration,Image2_Onset,Image3_Duration,Image3_Onset,Image4_Duration,Image4_Onset,Sound1_Duration,Sound1_Onset,Sound2_Duration,Sound2_Onset,Sound3_Duration,Sound3_Onset,Sound4_Duration,Sound4_Onset,Fixation_Duration,trials_2.thisRepN,trials_2.thisTrialN,trials_2.thisN,trials_2.thisIndex,trials.thisRepN,trials.thisTrialN,trials.thisN,trials.thisIndex,text_start.started,key_resp_start.started,key_resp_start.keys,key_resp_start.rt,text2.started,key_resp_2.started,key_resp_2.keys,key_resp_2.rt,cue_file1.started,cue_file1.stopped,image_1.started,image_1.stopped,image_2.started,image_2.stopped,sound_icon1.started,sound_icon1.stopped,sound_1.started,sound_1.stopped,sound_icon2.started,sound_icon2.stopped,sound_2.started,sound_2.stopped,image_blank_1.started,image_blank_1.stopped,key_press.started,key_press.stopped,fixation_text.started,cue_file2.started,cue_file2.stopped,image_3.started,image_3.stopped,image_4.started,image_4.stopped,sound_icon3.started,sound_icon3.stopped,sound_3.started,sound_3.stopped,sound_icon4.started,sound_icon4.stopped,sound_4.started,sound_4.stopped,response_yes.started,response_yes.stopped,response_no.started,response_no.stopped,iti_blank.started,iti_blank.stopped,fixation_text.stopped,key_press.keys,key_press.corr,key_press.rt,participant,session,date,expName,psychopyVersion,frameRate,
,,,,,,,,,,,,,,,,,,,,,,,,,,,,,,,,,,,,,,,,,,,,,,,,,,,,7.981882583999777,7.981882583999777,2,3.2942906250000306,,,,,,,,,,,,,,,,,,,,,,,,,,,,,,,,,,,,,,,,,,,,,,,,reldom2_s003,001,2025-01-31_12h05.46.945,Vis-B-Scan_AC,2022.2.5,None,
,,,,,,,,,,,,,,,,,,,,,,,,,,,,,,,,,,,,,,,,,,,,0,0,0,0,,,,,,,,,11.295734625000023,11.295734625000023,5,18.131157081999845,,,,,,,,,,,,,,,,,,,,,,,,,,,,,,,,,,,,,,,,,,,,reldom2_s003,001,2025-01-31_12h05.46.945,Vis-B-Scan_AC,2022.2.5,None,
,,,,,,,,,,,,,,,,,,,,,,,,,,,,,,,,,,,,,,,,,,,,1,0,1,0,,,,,,,,,29.438847041999907,29.438847041999907,5,1.9878790409998146,,,,,,,,,,,,,,,,,,,,,,,,,,,,,,,,,,,,,,,,,,,,reldom2_s003,001,2025-01-31_12h05.46.945,Vis-B-Scan_AC,2022.2.5,None,
,,,,,,,,,,,,,,,,,,,,,,,,,,,,,,,,,,,,,,,,,,,,2,0,2,0,,,,,,,,,31.444817624999814,31.444817624999814,5,1.982187956999951,,,,,,,,,,,,,,,,,,,,,,,,,,,,,,,,,,,,,,,,,,,,reldom2_s003,001,2025-01-31_12h05.46.945,Vis-B-Scan_AC,2022.2.5,None,
,,,,,,,,,,,,,,,,,,,,,,,,,,,,,,,,,,,,,,,,,,,,3,0,3,0,,,,,,,,,33.441239959000086,33.441239959000086,5,1.9859109159997388,,,,,,,,,,,,,,,,,,,,,,,,,,,,,,,,,,,,,,,,,,,,reldom2_s003,001,2025-01-31_12h05.46.945,Vis-B-Scan_AC,2022.2.5,None,
0,0.0,None,fixation,stimulus/viswhere_stim/blank_white.png,stimulus/viswhere_stim/blank_white.png,stimulus/viswhat_stim/blank_white.png,stimulus/viswhat_stim/blank_white.png,stimulus/viswhere_stim/blank_white.png,stimulus/viswhere_stim/blank_white.png,stimulus/viswhere_stim/blank_white.png,stimulus/viswhere_stim/blank_white.png,0.0,0.0,0.0,0.0,0,0.0,0,0.0,0,0.0,0,0.0,0,0.0,0.0,0,0.0,0,0.0,0,0.0,0,0.0,0,0,0,0,0,0,0,0,16,,,,,0,0,0,0,,,,,,,,,35.62459924999985,35.62459924999985,35.62459924999985,35.62459924999985,35.62459924999985,35.62459924999985,35.62459924999985,35.62459924999985,35.5290636249998,35.62459924999985,35.62459924999985,35.62459924999985,35.5290636249998,35.62459924999985,35.62459924999985,35.62459924999985,35.62459924999985,35.62459924999985,35.62459924999985,35.62459924999985,35.62459924999985,35.62459924999985,35.62459924999985,35.62459924999985,35.62459924999985,35.62459924999985,35.62459924999985,35.5790636249998,35.62459924999985,35.62459924999985,35.62459924999985,35.5790636249998,35.62459924999985,35.62459924999985,35.62459924999985,35.62459924999985,35.62459924999985,40.827869917000044,40.827869917000044,51.827308166999956,None,0,,reldom2_s003,001,2025-01-31_12h05.46.945,Vis-B-Scan_AC,2022.2.5,None,
1,First_Order,1.0,viswhere,stimulus/viswhere_stim/blank_white.png,stimulus/viswhere_stim/blank_white.png,stimulus/viswhere_stim/150-deg_dot-left_royalblue.png,stimulus/viswhere_stim/150-deg_dot-right_peru.png,stimulus/viswhere_stim/blank_white.png,stimulus/viswhere_stim/dot_box.png,stimulus/viswhere_stim/dot_yes.png,stimulus/viswhere_stim/dot_no.png,None,Dot,None,Line,2,0.0,0,5.125,0,5.125,0,5.125,0,0.0,0.625,0,0.0,0,0.0,1,0.5,1,2.125,0,0,0,0,0,0,0,0,0,,,,,0,1,1,1,,,,,,,,,51.827308166999956,51.827308166999956,51.827308166999956,51.827308166999956,51.827308166999956,51.827308166999956,51.827308166999956,51.827308166999956,51.80348825000001,51.827308166999956,51.827308166999956,51.827308166999956,51.80348825000001,51.827308166999956,51.827308166999956,51.827308166999956,53.938577500000065,57.88282237500016,51.827308166999956,51.827308166999956,56.94952404200012,52.29703512500009,53.302942208999866,53.938577500000065,54.95029375000013,51.827308166999956,51.827308166999956,51.820154916666674,51.827308166999956,51.827308166999956,51.827308166999956,51.820154916666674,51.827308166999956,51.827308166999956,56.94952404200012,51.827308166999956,56.94952404200012,57.044762999999875,57.69626041699985,51.827308166999956,2,1,1.2680453319999287,reldom2_s003,001,2025-01-31_12h05.46.945,Vis-B-Scan_AC,2022.2.5,None,
2,First_Order,1.0,viswhere,stimulus/viswhere_stim/blank_white.png,stimulus/viswhere_stim/blank_white.png,stimulus/viswhere_stim/30-deg_dot-left_salmon.png,stimulus/viswhere_stim/30-deg_dot-right_seagreen.png,stimulus/viswhere_stim/blank_white.png,stimulus/viswhere_stim/dot_box.png,stimulus/viswhere_stim/dot_yes.png,stimulus/viswhere_stim/dot_no.png,None,Dot,None,Line,2,0.0,0,5.125,0,5.125,0,5.125,0,0.0,0.625,0,0.0,0,0.0,1,0.5,1,2.125,0,0,0,0,0,0,0,0,0,,,,,0,2,2,2,,,,,,,,,57.88282237500016,57.88282237500016,57.88282237500016,57.88282237500016,57.88282237500016,57.88282237500016,57.88282237500016,57.88282237500016,57.86304345833317,57.88282237500016,57.88282237500016,57.88282237500016,57.86304345833317,57.88282237500016,57.88282237500016,57.88282237500016,59.987385667000126,63.938086167000165,57.88282237500016,57.88282237500016,63.01498558399999,58.36200845900021,59.37810045900005,59.987385667000126,61.00613912500012,57.88282237500016,57.88282237500016,57.86304345833317,57.88282237500016,57.88282237500016,57.88282237500016,57.86304345833317,57.88282237500016,57.88282237500016,63.01498558399999,57.88282237500016,63.01498558399999,63.10866245899979,63.72932512499983,57.88282237500016,2,1,1.3047412910000276,reldom2_s003,001,2025-01-31_12h05.46.945,Vis-B-Scan_AC,2022.2.5,None,
3,First_Order,1.0,viswhere,stimulus/viswhere_stim/blank_white.png,stimulus/viswhere_stim/blank_white.png,stimulus/viswhere_stim/120-deg_dot-left_goldenrod.png,stimulus/viswhere_stim/30-deg_dot-left_slateblue.png,stimulus/viswhere_stim/blank_white.png,stimulus/viswhere_stim/dot_box.png,stimulus/viswhere_stim/dot_yes.png,stimulus/viswhere_stim/dot_no.png,None,Dot,None,Dot,1,0.0,0,5.125,0,5.125,0,5.125,0,0.0,0.625,0,0.0,0,0.0,1,0.5,1,2.125,0,0,0,0,0,0,0,0,0,,,,,0,3,3,3,,,,,,,,,63.938086167000165,63.938086167000165,63.938086167000165,63.938086167000165,63.938086167000165,63.938086167000165,63.938086167000165,63.938086167000165,63.91966100033354,63.938086167000165,63.938086167000165,63.938086167000165,63.91966100033354,63.938086167000165,63.938086167000165,63.938086167000165,66.04669599999988,70.00134258400021,63.938086167000165,63.938086167000165,69.07484295899985,64.4180826249999,65.43640129200003,66.04669599999988,67.0518935,63.938086167000165,63.938086167000165,63.91966100033354,63.938086167000165,63.938086167000165,63.938086167000165,63.91966100033354,63.938086167000165,63.938086167000165,69.07484295899985,63.938086167000165,69.07484295899985,69.156000167,69.77719179199994,63.938086167000165,1,1,0.9290529569998398,reldom2_s003,001,2025-01-31_12h05.46.945,Vis-B-Scan_AC,2022.2.5,None,
4,First_Order,1.0,viswhere,stimulus/viswhere_stim/blank_white.png,stimulus/viswhere_stim/blank_white.png,stimulus/viswhere_stim/150-deg_dot-right_royalblue.png,stimulus/viswhere_stim/30-deg_dot-right_salmon.png,stimulus/viswhere_stim/blank_white.png,stimulus/viswhere_stim/line_box.png,stimulus/viswhere_stim/line_yes.png,stimulus/viswhere_stim/line_no.png,None,Line,None,Dot,2,0.0,0,5.125,0,5.125,0,5.125,0,0.0,0.625,0,0.0,0,0.0,1,0.5,1,2.125,0,0,0,0,0,0,0,0,0,,,,,0,4,4,4,,,,,,,,,70.00134258400021,70.00134258400021,70.00134258400021,70.00134258400021,70.00134258400021,70.00134258400021,70.00134258400021,70.00134258400021,69.98014354233312,70.00134258400021,70.00134258400021,70.00134258400021,69.98014354233312,70.00134258400021,70.00134258400021,70.00134258400021,72.11011825000014,76.1366764999998,70.00134258400021,70.00134258400021,75.13635358400006,70.47228704200006,71.48928808399978,72.11011825000014,73.11382987500019,70.00134258400021,70.00134258400021,69.99681020899979,70.00134258400021,70.00134258400021,70.00134258400021,69.99681020899979,70.00134258400021,70.00134258400021,75.13635358400006,70.00134258400021,75.13635358400006,75.23674170899994,75.86806200000001,70.00134258400021,2,1,0.9258864579996953,reldom2_s003,001,2025-01-31_12h05.46.945,Vis-B-Scan_AC,2022.2.5,None,
0,0.0,None,fixation,stimulus/viswhere_stim/blank_white.png,stimulus/viswhere_stim/blank_white.png,stimulus/viswhat_stim/blank_white.png,stimulus/viswhat_stim/blank_white.png,stimulus/viswhere_stim/blank_white.png,stimulus/viswhere_stim/blank_white.png,stimulus/viswhere_stim/blank_white.png,stimulus/viswhere_stim/blank_white.png,0.0,0.0,0.0,0.0,0,0.0,0,0.0,0,0.0,0,0.0,0,0.0,0.0,0,0.0,0,0.0,0,0.0,0,0.0,0,0,0,0,0,0,0,0,9,,,,,0,5,5,5,,,,,,,,,76.1366764999998,76.1366764999998,76.1366764999998,76.1366764999998,76.1366764999998,76.1366764999998,76.1366764999998,76.1366764999998,76.04467570833351,76.1366764999998,76.1366764999998,76.1366764999998,76.04467570833351,76.1366764999998,76.1366764999998,76.1366764999998,76.1366764999998,76.1366764999998,76.1366764999998,76.1366764999998,76.1366764999998,76.1366764999998,76.1366764999998,76.1366764999998,76.1366764999998,76.1366764999998,76.1366764999998,76.09467570833351,76.1366764999998,76.1366764999998,76.1366764999998,76.09467570833351,76.1366764999998,76.1366764999998,76.1366764999998,76.1366764999998,76.1366764999998,81.3321232090002,81.3321232090002,85.26553866699987,None,0,,reldom2_s003,001,2025-01-31_12h05.46.945,Vis-B-Scan_AC,2022.2.5,None,
5,Second_Order,1.0,viswhere,stimulus/viswhere_stim/90-deg_dot-left_mediumslateblue.png,stimulus/viswhere_stim/30-deg_dot-left_slateblue.png,stimulus/viswhere_stim/90-deg_dot-left_royalblue.png,stimulus/viswhere_stim/90-deg_dot-right_goldenrod.png,stimulus/viswhere_stim/match_blank.png,stimulus/viswhere_stim/match_box.png,stimulus/viswhere_stim/match_yes.png,stimulus/viswhere_stim/match_no.png,2.0,Match,Dot,Line,2,5.125,0,5.125,0,5.125,0,5.125,0,0.75,0.75,1,0.5,1,2.125,1,0.5,1,2.125,0,0,0,0,0,0,0,0,0,,,,,0,6,6,6,,,,,,,,,85.26553866699987,90.38943579199986,85.74896795899986,86.74751000000015,87.3707761249998,88.36791112499986,85.26553866699987,85.26553866699987,85.26653050066658,85.26553866699987,85.26553866699987,85.26553866699987,85.26653050066658,85.26553866699987,90.38943579199986,91.17263787499996,93.27062262499976,97.15715474999979,91.17263787499996,91.17263787499996,96.2982465,91.6453213750001,92.64794008399986,93.27062262499976,94.28312841700017,91.17263787499996,91.17263787499996,91.15736891733334,91.17263787499996,91.17263787499996,91.17263787499996,91.15736891733334,91.17263787499996,91.17263787499996,96.2982465,91.17263787499996,96.2982465,96.3790290840002,97.15715474999979,91.17263787499996,2,1,0.8402090820000012,reldom2_s003,001,2025-01-31_12h05.46.945,Vis-B-Scan_AC,2022.2.5,None,
6,Second_Order,1.0,viswhere,stimulus/viswhere_stim/30-deg_dot-right_turquoise.png,stimulus/viswhere_stim/30-deg_dot-left_goldenrod.png,stimulus/viswhere_stim/60-deg_dot-left_salmon.png,stimulus/viswhere_stim/60-deg_dot-right_slateblue.png,stimulus/viswhere_stim/match_blank.png,stimulus/viswhere_stim/match_box.png,stimulus/viswhere_stim/match_yes.png,stimulus/viswhere_stim/match_no.png,1.0,Match,Line,Line,1,5.125,0,5.125,0,5.125,0,5.125,0,0.625,0.625,1,0.5,1,2.125,1,0.5,1,2.125,0,0,0,0,0,0,0,0,0,,,,,0,7,7,7,,,,,,,,,97.15715474999979,102.27069633400015,97.6435536670001,98.6418197500002,99.26438070899985,100.26175520900006,97.15715474999979,97.15715474999979,97.17054220900017,97.15715474999979,97.15715474999979,97.15715474999979,97.17054220900017,97.15715474999979,102.27069633400015,102.9271981249999,105.0291918339999,109.05280508399983,102.9271981249999,102.9271981249999,108.05799129199977,103.39283487500006,104.40870412499999,105.0291918339999,106.037069084,102.9271981249999,102.9271981249999,102.91823912533349,102.9271981249999,102.9271981249999,102.9271981249999,102.91823912533349,102.9271981249999,102.9271981249999,108.05799129199977,102.9271981249999,108.05799129199977,108.139277709,108.7807833339998,102.9271981249999,1,1,0.8397408330001781,reldom2_s003,001,2025-01-31_12h05.46.945,Vis-B-Scan_AC,2022.2.5,None,
0,0.0,None,fixation,stimulus/viswhere_stim/blank_white.png,stimulus/viswhere_stim/blank_white.png,stimulus/viswhat_stim/blank_white.png,stimulus/viswhat_stim/blank_white.png,stimulus/viswhere_stim/blank_white.png,stimulus/viswhere_stim/blank_white.png,stimulus/viswhere_stim/blank_white.png,stimulus/viswhere_stim/blank_white.png,0.0,0.0,0.0,0.0,0,0.0,0,0.0,0,0.0,0,0.0,0,0.0,0.0,0,0.0,0,0.0,0,0.0,0,0.0,0,0,0,0,0,0,0,0,9,,,,,0,8,8,8,,,,,,,,,109.05280508399983,109.05280508399983,109.05280508399983,109.05280508399983,109.05280508399983,109.05280508399983,109.05280508399983,109.05280508399983,108.95721437533332,109.05280508399983,109.05280508399983,109.05280508399983,108.95721437533332,109.05280508399983,109.05280508399983,109.05280508399983,109.05280508399983,109.05280508399983,109.05280508399983,109.05280508399983,109.05280508399983,109.05280508399983,109.05280508399983,109.05280508399983,109.05280508399983,109.05280508399983,109.05280508399983,109.00721437533332,109.05280508399983,109.05280508399983,109.05280508399983,109.00721437533332,109.05280508399983,109.05280508399983,109.05280508399983,109.05280508399983,109.05280508399983,114.27421116699998,114.27421116699998,118.23114549999991,None,0,,reldom2_s003,001,2025-01-31_12h05.46.945,Vis-B-Scan_AC,2022.2.5,None,
7,First_Order,2.0,viswhere,stimulus/viswhere_stim/blank_white.png,stimulus/viswhere_stim/blank_white.png,stimulus/viswhere_stim/60-deg_dot-right_peru.png,stimulus/viswhere_stim/120-deg_dot-right_goldenrod.png,stimulus/viswhere_stim/blank_white.png,stimulus/viswhere_stim/line_box.png,stimulus/viswhere_stim/line_yes.png,stimulus/viswhere_stim/line_no.png,None,Line,None,Dot,2,0.0,0,5.125,0,5.125,0,5.125,0,0.0,0.625,0,0.0,0,0.0,1,0.5,1,2.125,0,0,0,0,0,0,0,0,0,,,,,0,9,9,9,,,,,,,,,118.23114549999991,118.23114549999991,118.23114549999991,118.23114549999991,118.23114549999991,118.23114549999991,118.23114549999991,118.23114549999991,118.19983808399994,118.23114549999991,118.23114549999991,118.23114549999991,118.19983808399994,118.23114549999991,118.23114549999991,118.23114549999991,120.34156745900009,124.29391424999994,118.23114549999991,118.23114549999991,123.353791,118.7068238339998,119.71621970900014,120.34156745900009,121.35622341699991,118.23114549999991,118.23114549999991,118.2165047506666,118.23114549999991,118.23114549999991,118.23114549999991,118.2165047506666,118.23114549999991,118.23114549999991,123.353791,118.23114549999991,123.353791,123.45026183399978,124.0730857919998,118.23114549999991,2,1,0.8122712909998882,reldom2_s003,001,2025-01-31_12h05.46.945,Vis-B-Scan_AC,2022.2.5,None,
8,First_Order,2.0,viswhere,stimulus/viswhere_stim/blank_white.png,stimulus/viswhere_stim/blank_white.png,stimulus/viswhere_stim/90-deg_dot-left_turquoise.png,stimulus/viswhere_stim/90-deg_dot-right_peru.png,stimulus/viswhere_stim/blank_white.png,stimulus/viswhere_stim/line_box.png,stimulus/viswhere_stim/line_yes.png,stimulus/viswhere_stim/line_no.png,None,Line,None,Line,1,0.0,0,5.125,0,5.125,0,5.125,0,0.0,0.625,0,0.0,0,0.0,1,0.5,1,2.125,0,0,0,0,0,0,0,0,0,,,,,0,10,10,10,,,,,,,,,124.29391424999994,124.29391424999994,124.29391424999994,124.29391424999994,124.29391424999994,124.29391424999994,124.29391424999994,124.29391424999994,124.26963816733344,124.29391424999994,124.29391424999994,124.29391424999994,124.26963816733344,124.29391424999994,124.29391424999994,124.29391424999994,126.39964337499987,130.34645275000003,124.29391424999994,124.29391424999994,129.41579091699987,124.7733082499999,125.78897004200007,126.39964337499987,127.42003058399996,124.29391424999994,124.29391424999994,124.2863048340001,124.29391424999994,124.29391424999994,124.29391424999994,124.2863048340001,124.29391424999994,124.29391424999994,129.41579091699987,124.29391424999994,129.41579091699987,129.5165649999999,130.14316495899993,124.29391424999994,1,1,0.7454102910000984,reldom2_s003,001,2025-01-31_12h05.46.945,Vis-B-Scan_AC,2022.2.5,None,
9,First_Order,2.0,viswhere,stimulus/viswhere_stim/blank_white.png,stimulus/viswhere_stim/blank_white.png,stimulus/viswhere_stim/60-deg_dot-right_seagreen.png,stimulus/viswhere_stim/120-deg_dot-right_salmon.png,stimulus/viswhere_stim/blank_white.png,stimulus/viswhere_stim/dot_box.png,stimulus/viswhere_stim/dot_yes.png,stimulus/viswhere_stim/dot_no.png,None,Dot,None,Dot,1,0.0,0,5.125,0,5.125,0,5.125,0,0.0,0.625,0,0.0,0,0.0,1,0.5,1,2.125,0,0,0,0,0,0,0,0,0,,,,,0,11,11,11,,,,,,,,,130.34645275000003,130.34645275000003,130.34645275000003,130.34645275000003,130.34645275000003,130.34645275000003,130.34645275000003,130.34645275000003,130.32658266733355,130.34645275000003,130.34645275000003,130.34645275000003,130.32658266733355,130.34645275000003,130.34645275000003,130.34645275000003,132.4475084999999,136.4120631249998,130.34645275000003,130.34645275000003,135.47609375000002,130.82430895900006,131.83663875000002,132.4475084999999,133.46408929200015,130.34645275000003,130.34645275000003,130.32658266733355,130.34645275000003,130.34645275000003,130.34645275000003,130.32658266733355,130.34645275000003,130.34645275000003,135.47609375000002,130.34645275000003,135.47609375000002,135.5727180419999,136.20418095900004,130.34645275000003,1,1,1.2460950830000002,reldom2_s003,001,2025-01-31_12h05.46.945,Vis-B-Scan_AC,2022.2.5,None,
10,First_Order,2.0,viswhere,stimulus/viswhere_stim/blank_white.png,stimulus/viswhere_stim/blank_white.png,stimulus/viswhere_stim/120-deg_dot-right_cyan.png,stimulus/viswhere_stim/120-deg_dot-left_turquoise.png,stimulus/viswhere_stim/blank_white.png,stimulus/viswhere_stim/line_box.png,stimulus/viswhere_stim/line_yes.png,stimulus/viswhere_stim/line_no.png,None,Line,None,Line,1,0.0,0,5.125,0,5.125,0,5.125,0,0.0,0.625,0,0.0,0,0.0,1,0.5,1,2.125,0,0,0,0,0,0,0,0,0,,,,,0,12,12,12,,,,,,,,,136.4120631249998,136.4120631249998,136.4120631249998,136.4120631249998,136.4120631249998,136.4120631249998,136.4120631249998,136.4120631249998,136.3874387923332,136.4120631249998,136.4120631249998,136.4120631249998,136.3874387923332,136.4120631249998,136.4120631249998,136.4120631249998,138.506496084,142.54775987499988,136.4120631249998,136.4120631249998,141.544140125,136.89231791700013,137.91255691700007,138.506496084,139.5102471250002,136.4120631249998,136.4120631249998,136.40410545899988,136.4120631249998,136.4120631249998,136.4120631249998,136.40410545899988,136.4120631249998,136.4120631249998,141.544140125,136.4120631249998,141.544140125,141.6274780839999,142.25432254199995,136.4120631249998,1,1,0.9302450830000453,reldom2_s003,001,2025-01-31_12h05.46.945,Vis-B-Scan_AC,2022.2.5,None,
0,0.0,None,fixation,stimulus/viswhere_stim/blank_white.png,stimulus/viswhere_stim/blank_white.png,stimulus/viswhat_stim/blank_white.png,stimulus/viswhat_stim/blank_white.png,stimulus/viswhere_stim/blank_white.png,stimulus/viswhere_stim/blank_white.png,stimulus/viswhere_stim/blank_white.png,stimulus/viswhere_stim/blank_white.png,0.0,0.0,0.0,0.0,0,0.0,0,0.0,0,0.0,0,0.0,0,0.0,0.0,0,0.0,0,0.0,0,0.0,0,0.0,0,0,0,0,0,0,0,0,8,,,,,0,13,13,13,,,,,,,,,142.54775987499988,142.54775987499988,142.54775987499988,142.54775987499988,142.54775987499988,142.54775987499988,142.54775987499988,142.54775987499988,142.45159945833333,142.54775987499988,142.54775987499988,142.54775987499988,142.45159945833333,142.54775987499988,142.54775987499988,142.54775987499988,142.54775987499988,142.54775987499988,142.54775987499988,142.54775987499988,142.54775987499988,142.54775987499988,142.54775987499988,142.54775987499988,142.54775987499988,142.54775987499988,142.54775987499988,142.50159945833335,142.54775987499988,142.54775987499988,142.54775987499988,142.50159945833335,142.54775987499988,142.54775987499988,142.54775987499988,142.54775987499988,142.54775987499988,147.7458930419998,147.7458930419998,150.65535020900006,None,0,,reldom2_s003,001,2025-01-31_12h05.46.945,Vis-B-Scan_AC,2022.2.5,None,
11,Second_Order,2.0,viswhere,stimulus/viswhere_stim/120-deg_dot-left_slateblue.png,stimulus/viswhere_stim/60-deg_dot-left_seagreen.png,stimulus/viswhere_stim/90-deg_dot-right_seagreen.png,stimulus/viswhere_stim/30-deg_dot-right_mediumslateblue.png,stimulus/viswhere_stim/match_blank.png,stimulus/viswhere_stim/match_box.png,stimulus/viswhere_stim/match_yes.png,stimulus/viswhere_stim/match_no.png,1.0,Match,Dot,Dot,1,5.125,0,5.125,0,5.125,0,5.125,0,0.75,0.75,1,0.5,1,2.125,1,0.5,1,2.125,0,0,0,0,0,0,0,0,0,,,,,0,14,14,14,,,,,,,,,150.65535020900006,155.77839454200011,151.13328687500007,152.13167520900015,152.75455999999986,153.75188045899995,150.65535020900006,150.65535020900006,150.66976579233338,150.65535020900006,150.65535020900006,150.65535020900006,150.66976579233338,150.65535020900006,155.77839454200011,156.5577633339999,158.65533812500007,162.5390281250002,156.5577633339999,156.5577633339999,161.6928214999998,157.01847962500005,158.0209849590001,158.65533812500007,159.6647817500002,156.5577633339999,156.5577633339999,156.5452483333334,156.5577633339999,156.5577633339999,156.5577633339999,156.5452483333334,156.5577633339999,156.5577633339999,161.6928214999998,156.5577633339999,161.6928214999998,161.76349174999996,162.5390281250002,156.5577633339999,1,1,0.9922371239999848,reldom2_s003,001,2025-01-31_12h05.46.945,Vis-B-Scan_AC,2022.2.5,None,
12,Second_Order,2.0,viswhere,stimulus/viswhere_stim/90-deg_dot-right_cyan.png,stimulus/viswhere_stim/90-deg_dot-left_salmon.png,stimulus/viswhere_stim/30-deg_dot-left_goldenrod.png,stimulus/viswhere_stim/60-deg_dot-left_turquoise.png,stimulus/viswhere_stim/match_blank.png,stimulus/viswhere_stim/match_box.png,stimulus/viswhere_stim/match_yes.png,stimulus/viswhere_stim/match_no.png,2.0,Match,Line,Dot,2,5.125,0,5.125,0,5.125,0,5.125,0,0.625,0.625,1,0.5,1,2.125,1,0.5,1,2.125,0,0,0,0,0,0,0,0,0,,,,,0,15,15,15,,,,,,,,,162.5390281250002,167.6566707500001,163.02339145899987,164.01270166699987,164.64817191700013,165.6462697920001,162.5390281250002,162.5390281250002,162.5517109999999,162.5390281250002,162.5390281250002,162.5390281250002,162.5517109999999,162.5390281250002,167.6566707500001,168.31163887499997,170.41508900000008,174.43661225000005,168.31163887499997,168.31163887499997,173.43506558399986,168.7876738340001,169.80327158399996,170.41508900000008,171.43683420900015,168.31163887499997,168.31163887499997,168.30236545833355,168.31163887499997,168.31163887499997,168.31163887499997,168.30236545833355,168.31163887499997,168.31163887499997,173.43506558399986,168.31163887499997,173.43506558399986,173.51786374999983,174.14499058399997,168.31163887499997,2,1,0.7238605410002492,reldom2_s003,001,2025-01-31_12h05.46.945,Vis-B-Scan_AC,2022.2.5,None,
0,0.0,None,fixation,stimulus/viswhere_stim/blank_white.png,stimulus/viswhere_stim/blank_white.png,stimulus/viswhat_stim/blank_white.png,stimulus/viswhat_stim/blank_white.png,stimulus/viswhere_stim/blank_white.png,stimulus/viswhere_stim/blank_white.png,stimulus/viswhere_stim/blank_white.png,stimulus/viswhere_stim/blank_white.png,0.0,0.0,0.0,0.0,0,0.0,0,0.0,0,0.0,0,0.0,0,0.0,0.0,0,0.0,0,0.0,0,0.0,0,0.0,0,0,0,0,0,0,0,0,10,,,,,0,16,16,16,,,,,,,,,174.43661225000005,174.43661225000005,174.43661225000005,174.43661225000005,174.43661225000005,174.43661225000005,174.43661225000005,174.43661225000005,174.33856412533336,174.43661225000005,174.43661225000005,174.43661225000005,174.33856412533336,174.43661225000005,174.43661225000005,174.43661225000005,174.43661225000005,174.43661225000005,174.43661225000005,174.43661225000005,174.43661225000005,174.43661225000005,174.43661225000005,174.43661225000005,174.43661225000005,174.43661225000005,174.43661225000005,174.38856412533337,174.43661225000005,174.43661225000005,174.43661225000005,174.38856412533337,174.43661225000005,174.43661225000005,174.43661225000005,174.43661225000005,174.43661225000005,179.66990808399987,179.66990808399987,184.712714625,None,0,,reldom2_s003,001,2025-01-31_12h05.46.945,Vis-B-Scan_AC,2022.2.5,None,
13,First_Order,3.0,viswhat,stimulus/viswhat_stim/blank_white.png,stimulus/viswhat_stim/blank_white.png,stimulus/viswhat_stim/land_animal-moose.png,stimulus/viswhat_stim/water_animal-whale (1).png,stimulus/viswhat_stim/blank_white.png,stimulus/viswhat_stim/type_box.png,stimulus/viswhat_stim/type_yes.png,stimulus/viswhat_stim/type_no.png,None,Type,None,Type,1,0.0,0,5.125,0,5.125,0,5.125,0,0.0,0.625,0,0.0,0,0.0,1,0.5,1,2.125,0,0,0,0,0,0,0,0,0,,,,,0,17,17,17,,,,,,,,,184.712714625,184.712714625,184.712714625,184.712714625,184.712714625,184.712714625,184.712714625,184.712714625,184.61135879166676,184.712714625,184.712714625,184.712714625,184.61135879166676,184.712714625,184.712714625,184.712714625,186.81920854200007,,184.712714625,184.712714625,189.9261030839998,185.1807484169999,186.23709429200017,186.81920854200007,187.87796441699993,184.712714625,184.712714625,184.66135879166674,184.712714625,184.712714625,184.712714625,184.66135879166674,184.712714625,184.712714625,189.9261030839998,184.712714625,189.9261030839998,189.9261030839998,190.75830166700007,184.712714625,1,1,1.0337816239998574,reldom2_s003,001,2025-01-31_12h05.46.945,Vis-B-Scan_AC,2022.2.5,None,
14,First_Order,3.0,viswhat,stimulus/viswhat_stim/blank_white.png,stimulus/viswhat_stim/blank_white.png,stimulus/viswhat_stim/land_vehicle-trolley.png,stimulus/viswhat_stim/water_vehicle-jetski.png,stimulus/viswhat_stim/blank_white.png,stimulus/viswhat_stim/location_box.png,stimulus/viswhat_stim/location_yes.png,stimulus/viswhat_stim/location_no.png,None,Location,None,Type,2,0.0,0,5.125,0,5.125,0,5.125,0,0.0,0.625,0,0.0,0,0.0,1,0.5,1,2.125,0,0,0,0,0,0,0,0,0,,,,,0,18,18,18,,,,,,,,,190.75830166700007,190.75830166700007,190.75830166700007,190.75830166700007,190.75830166700007,190.75830166700007,190.75830166700007,190.75830166700007,190.72523679166687,190.75830166700007,190.75830166700007,190.75830166700007,190.72523679166687,190.75830166700007,190.75830166700007,190.75830166700007,192.864181292,196.832822417,190.75830166700007,190.75830166700007,195.88692112499984,191.24116358399988,192.25659833400005,192.864181292,193.88356591699994,190.75830166700007,190.75830166700007,190.74190345833352,190.75830166700007,190.75830166700007,190.75830166700007,190.74190345833352,190.75830166700007,190.75830166700007,195.88692112499984,190.75830166700007,195.88692112499984,195.964640959,196.60951654200016,190.75830166700007,2,1,1.1096732069995596,reldom2_s003,001,2025-01-31_12h05.46.945,Vis-B-Scan_AC,2022.2.5,None,
15,First_Order,3.0,viswhat,stimulus/viswhat_stim/blank_white.png,stimulus/viswhat_stim/blank_white.png,stimulus/viswhat_stim/land_animal-ostrich.png,stimulus/viswhat_stim/land_vehicle-train.png,stimulus/viswhat_stim/blank_white.png,stimulus/viswhat_stim/location_box.png,stimulus/viswhat_stim/location_yes.png,stimulus/viswhat_stim/location_no.png,None,Location,None,Location,1,0.0,0,5.125,0,5.125,0,5.125,0,0.0,0.625,0,0.0,0,0.0,1,0.5,1,2.125,0,0,0,0,0,0,0,0,0,,,,,0,19,19,19,,,,,,,,,196.832822417,196.832822417,196.832822417,196.832822417,196.832822417,196.832822417,196.832822417,196.832822417,196.80632350000008,196.832822417,196.832822417,196.832822417,196.80632350000008,196.832822417,196.832822417,196.832822417,198.94495858399978,203.24952754200012,196.832822417,196.832822417,201.96244212500005,197.32036083399998,198.34251641699984,198.94495858399978,199.95658012500007,196.832822417,196.832822417,196.82299016666673,196.832822417,196.832822417,196.832822417,196.82299016666673,196.832822417,196.832822417,201.96244212500005,196.832822417,201.96244212500005,202.05085762499994,202.6801415,196.832822417,1,1,0.9429006660002415,reldom2_s003,001,2025-01-31_12h05.46.945,Vis-B-Scan_AC,2022.2.5,None,
16,First_Order,3.0,viswhat,stimulus/viswhat_stim/blank_white.png,stimulus/viswhat_stim/blank_white.png,stimulus/viswhat_stim/water_animal-lobster.png,stimulus/viswhat_stim/land_animal-moose.png,stimulus/viswhat_stim/blank_white.png,stimulus/viswhat_stim/location_box.png,stimulus/viswhat_stim/location_yes.png,stimulus/viswhat_stim/location_no.png,None,Location,None,Type,2,0.0,0,5.125,0,5.125,0,5.125,0,0.0,0.625,0,0.0,0,0.0,1,0.5,1,2.125,0,0,0,0,0,0,0,0,0,,,,,0,20,20,20,,,,,,,,,203.24952754200012,203.24952754200012,203.24952754200012,203.24952754200012,203.24952754200012,203.24952754200012,203.24952754200012,203.24952754200012,202.8808712083331,203.24952754200012,203.24952754200012,203.24952754200012,202.8808712083331,203.24952754200012,203.24952754200012,203.24952754200012,205.23942683399991,,203.24952754200012,203.24952754200012,208.66277479200016,203.61198887499995,204.87805783400017,205.23942683399991,206.50485012499985,203.24952754200012,203.24952754200012,203.08087120833312,203.24952754200012,203.24952754200012,203.24952754200012,203.08087120833312,203.24952754200012,203.24952754200012,208.66277479200016,203.24952754200012,208.66277479200016,208.30790779200015,,203.24952754200012,2,1,1.125820707999992,reldom2_s003,001,2025-01-31_12h05.46.945,Vis-B-Scan_AC,2022.2.5,None,
0,0.0,None,fixation,stimulus/viswhere_stim/blank_white.png,stimulus/viswhere_stim/blank_white.png,stimulus/viswhat_stim/blank_white.png,stimulus/viswhat_stim/blank_white.png,stimulus/viswhere_stim/blank_white.png,stimulus/viswhere_stim/blank_white.png,stimulus/viswhere_stim/blank_white.png,stimulus/viswhere_stim/blank_white.png,0.0,0.0,0.0,0.0,0,0.0,0,0.0,0,0.0,0,0.0,0,0.0,0.0,0,0.0,0,0.0,0,0.0,0,0.0,0,0,0,0,0,0,0,0,8,,,,,0,21,21,21,,,,,,,,,209.34955837500002,209.34955837500002,209.34955837500002,209.34955837500002,209.34955837500002,209.34955837500002,209.34955837500002,209.34955837500002,209.23868333400006,209.34955837500002,209.34955837500002,209.34955837500002,209.23868333400006,209.34955837500002,209.34955837500002,209.34955837500002,209.34955837500002,209.34955837500002,209.34955837500002,209.34955837500002,209.34955837500002,209.34955837500002,209.34955837500002,209.34955837500002,209.34955837500002,209.34955837500002,209.34955837500002,209.30535000066672,209.34955837500002,209.34955837500002,209.34955837500002,209.30535000066672,209.34955837500002,209.34955837500002,209.34955837500002,209.34955837500002,209.34955837500002,214.56439262499998,214.56439262499998,217.482442,None,0,,reldom2_s003,001,2025-01-31_12h05.46.945,Vis-B-Scan_AC,2022.2.5,None,
17,Second_Order,3.0,viswhat,stimulus/viswhat_stim/land_animal-giraffe.png,stimulus/viswhat_stim/water_animal-stingray.png,stimulus/viswhat_stim/water_animal-squid.png,stimulus/viswhat_stim/water_vehicle-yacht.png,stimulus/viswhere_stim/match_blank.png,stimulus/viswhere_stim/match_box.png,stimulus/viswhere_stim/match_yes.png,stimulus/viswhere_stim/match_no.png,2.0,Match,Type,Location,2,5.125,0,5.125,0,5.125,0,5.125,0,0.75,0.75,1,0.5,1,2.125,1,0.5,1,2.125,0,0,0,0,0,0,0,0,0,,,,,0,22,22,22,,,,,,,,,217.482442,222.598341292,217.93354716700014,218.92252720899978,219.5579052920002,220.55604729200013,217.482442,217.482442,217.48271995899987,217.482442,217.482442,217.482442,217.48271995899987,217.482442,222.598341292,223.42041708399984,225.49498499999982,229.4282495839998,223.42041708399984,223.42041708399984,228.59487908399979,223.8725272920001,224.92928366700016,225.49498499999982,226.51753316699978,223.42041708399984,223.42041708399984,223.38385120899994,223.42041708399984,223.42041708399984,223.42041708399984,223.38385120899994,223.42041708399984,223.42041708399984,228.59487908399979,223.42041708399984,228.59487908399979,228.62702366699978,,223.42041708399984,2,1,0.9227233319998049,reldom2_s003,001,2025-01-31_12h05.46.945,Vis-B-Scan_AC,2022.2.5,None,
18,Second_Order,3.0,viswhat,stimulus/viswhat_stim/water_animal-whale (1).png,stimulus/viswhat_stim/land_animal-tiger.png,stimulus/viswhat_stim/water_animal-orka.png,stimulus/viswhat_stim/water_vehicle-cargoboat.png,stimulus/viswhere_stim/match_blank.png,stimulus/viswhere_stim/match_box.png,stimulus/viswhere_stim/match_yes.png,stimulus/viswhere_stim/match_no.png,2.0,Match,Type,Location,2,5.125,0,5.125,0,5.125,0,5.125,0,0.625,0.625,1,0.5,1,2.125,1,0.5,1,2.125,0,0,0,0,0,0,0,0,0,,,,,0,23,23,23,,,,,,,,,229.4282495839998,234.54285712499995,229.88149991699993,230.87999608400014,231.52007754199985,232.5171340840002,229.4282495839998,229.4282495839998,229.4321369999999,229.4282495839998,229.4282495839998,229.4282495839998,229.4321369999999,229.4282495839998,234.54285712499995,235.2970302499998,237.39151137499994,,235.2970302499998,235.2970302499998,240.4812137089998,235.75576779199992,236.8677200420002,237.39151137499994,238.4473334170002,235.2970302499998,235.2970302499998,235.24019154233324,235.2970302499998,235.2970302499998,235.2970302499998,235.24019154233324,235.2970302499998,235.2970302499998,240.4812137089998,235.2970302499998,240.4812137089998,240.4812137089998,241.41872629199997,235.2970302499998,2,1,0.7870188739998412,reldom2_s003,001,2025-01-31_12h05.46.945,Vis-B-Scan_AC,2022.2.5,None,
0,0.0,None,fixation,stimulus/viswhere_stim/blank_white.png,stimulus/viswhere_stim/blank_white.png,stimulus/viswhat_stim/blank_white.png,stimulus/viswhat_stim/blank_white.png,stimulus/viswhere_stim/blank_white.png,stimulus/viswhere_stim/blank_white.png,stimulus/viswhere_stim/blank_white.png,stimulus/viswhere_stim/blank_white.png,0.0,0.0,0.0,0.0,0,0.0,0,0.0,0,0.0,0,0.0,0,0.0,0.0,0,0.0,0,0.0,0,0.0,0,0.0,0,0,0,0,0,0,0,0,9,,,,,0,24,24,24,,,,,,,,,241.41872629199997,241.41872629199997,241.41872629199997,241.41872629199997,241.41872629199997,241.41872629199997,241.41872629199997,241.41872629199997,241.32342550033349,241.41872629199997,241.41872629199997,241.41872629199997,241.32342550033349,241.41872629199997,241.41872629199997,241.41872629199997,241.41872629199997,241.41872629199997,241.41872629199997,241.41872629199997,241.41872629199997,241.41872629199997,241.41872629199997,241.41872629199997,241.41872629199997,241.41872629199997,241.41872629199997,241.3734255003335,241.41872629199997,241.41872629199997,241.41872629199997,241.3734255003335,241.41872629199997,241.41872629199997,241.41872629199997,241.41872629199997,241.41872629199997,246.63430979199984,246.63430979199984,250.6442266670001,None,0,,reldom2_s003,001,2025-01-31_12h05.46.945,Vis-B-Scan_AC,2022.2.5,None,
19,First_Order,4.0,viswhat,stimulus/viswhat_stim/blank_white.png,stimulus/viswhat_stim/blank_white.png,stimulus/viswhat_stim/water_animal-dolphin.png,stimulus/viswhat_stim/water_vehicle-canoe.png,stimulus/viswhat_stim/blank_white.png,stimulus/viswhat_stim/type_box.png,stimulus/viswhat_stim/type_yes.png,stimulus/viswhat_stim/type_no.png,None,Type,None,Location,2,0.0,0,5.125,0,5.125,0,5.125,0,0.0,0.625,0,0.0,0,0.0,1,0.5,1,2.125,0,0,0,0,0,0,0,0,0,,,,,0,25,25,25,,,,,,,,,250.6442266670001,250.6442266670001,250.6442266670001,250.6442266670001,250.6442266670001,250.6442266670001,250.6442266670001,250.6442266670001,250.6002437506665,250.6442266670001,250.6442266670001,250.6442266670001,250.6002437506665,250.6442266670001,250.6442266670001,250.6442266670001,252.74343283400003,256.794230084,250.6442266670001,250.6442266670001,255.78670775,251.10972608400016,252.1339320000002,252.74343283400003,253.7731309169999,250.6442266670001,250.6442266670001,250.61691041733314,250.6442266670001,250.6442266670001,250.6442266670001,250.61691041733314,250.6442266670001,250.6442266670001,255.78670775,250.6442266670001,255.78670775,255.85749674999988,256.49143308400016,250.6442266670001,2,1,0.9666948740000407,reldom2_s003,001,2025-01-31_12h05.46.945,Vis-B-Scan_AC,2022.2.5,None,
20,First_Order,4.0,viswhat,stimulus/viswhat_stim/blank_white.png,stimulus/viswhat_stim/blank_white.png,stimulus/viswhat_stim/land_animal-elephant.png,stimulus/viswhat_stim/land_vehicle-pickuptruck.png,stimulus/viswhat_stim/blank_white.png,stimulus/viswhat_stim/type_box.png,stimulus/viswhat_stim/type_yes.png,stimulus/viswhat_stim/type_no.png,None,Type,None,Location,2,0.0,0,5.125,0,5.125,0,5.125,0,0.0,0.625,0,0.0,0,0.0,1,0.5,1,2.125,0,0,0,0,0,0,0,0,0,,,,,0,26,26,26,,,,,,,,,256.794230084,256.794230084,256.794230084,256.794230084,256.794230084,256.794230084,256.794230084,256.794230084,256.68523708399977,256.794230084,256.794230084,256.794230084,256.68523708399977,256.794230084,256.794230084,256.794230084,258.8891479590002,,256.794230084,256.794230084,262.00328041700004,257.27402516699976,258.3520923750002,258.8891479590002,259.96944408399986,256.794230084,256.794230084,256.7352370839998,256.794230084,256.794230084,256.794230084,256.7352370839998,256.794230084,256.794230084,262.00328041700004,256.794230084,262.00328041700004,262.00328041700004,263.053841334,256.794230084,2,1,0.9501329989998339,reldom2_s003,001,2025-01-31_12h05.46.945,Vis-B-Scan_AC,2022.2.5,None,
21,First_Order,4.0,viswhat,stimulus/viswhat_stim/blank_white.png,stimulus/viswhat_stim/blank_white.png,stimulus/viswhat_stim/water_vehicle-cruiseship.png,stimulus/viswhat_stim/land_vehicle-oldcar.png,stimulus/viswhat_stim/blank_white.png,stimulus/viswhat_stim/type_box.png,stimulus/viswhat_stim/type_yes.png,stimulus/viswhat_stim/type_no.png,None,Type,None,Type,1,0.0,0,5.125,0,5.125,0,5.125,0,0.0,0.625,0,0.0,0,0.0,1,0.5,1,2.125,0,0,0,0,0,0,0,0,0,,,,,0,27,27,27,,,,,,,,,263.053841334,263.053841334,263.053841334,263.053841334,263.053841334,263.053841334,263.053841334,263.053841334,262.82291266666664,263.053841334,263.053841334,263.053841334,262.82291266666664,263.053841334,263.053841334,263.053841334,265.03955770899984,,263.053841334,263.053841334,268.30833133399983,263.52166529199985,264.689677375,265.03955770899984,266.211059667,263.053841334,263.053841334,262.9395793333333,263.053841334,263.053841334,263.053841334,262.9395793333333,263.053841334,263.053841334,268.30833133399983,263.053841334,268.30833133399983,268.19746699999996,,263.053841334,1,1,0.6240461239999604,reldom2_s003,001,2025-01-31_12h05.46.945,Vis-B-Scan_AC,2022.2.5,None,
22,First_Order,4.0,viswhat,stimulus/viswhat_stim/blank_white.png,stimulus/viswhat_stim/blank_white.png,stimulus/viswhat_stim/water_vehicle-pirateship.png,stimulus/viswhat_stim/water_animal-orka.png,stimulus/viswhat_stim/blank_white.png,stimulus/viswhat_stim/location_box.png,stimulus/viswhat_stim/location_yes.png,stimulus/viswhat_stim/location_no.png,None,Location,None,Location,1,0.0,0,5.125,0,5.125,0,5.125,0,0.0,0.625,0,0.0,0,0.0,1,0.5,1,2.125,0,0,0,0,0,0,0,0,0,,,,,0,28,28,28,,,,,,,,,269.15386616700016,269.15386616700016,269.15386616700016,269.15386616700016,269.15386616700016,269.15386616700016,269.15386616700016,269.15386616700016,269.0365391253331,269.15386616700016,269.15386616700016,269.15386616700016,269.0365391253331,269.15386616700016,269.15386616700016,269.15386616700016,271.240699125,275.2928406249998,269.15386616700016,269.15386616700016,274.34160191699993,269.62654304199987,270.702294917,271.240699125,272.32362970899976,269.15386616700016,269.15386616700016,269.0865391253331,269.15386616700016,269.15386616700016,269.15386616700016,269.0865391253331,269.15386616700016,269.15386616700016,274.34160191699993,269.15386616700016,274.34160191699993,274.34160191699993,275.01653987500003,269.15386616700016,1,1,0.9701833740000438,reldom2_s003,001,2025-01-31_12h05.46.945,Vis-B-Scan_AC,2022.2.5,None,
0,0.0,None,fixation,stimulus/viswhere_stim/blank_white.png,stimulus/viswhere_stim/blank_white.png,stimulus/viswhat_stim/blank_white.png,stimulus/viswhat_stim/blank_white.png,stimulus/viswhere_stim/blank_white.png,stimulus/viswhere_stim/blank_white.png,stimulus/viswhere_stim/blank_white.png,stimulus/viswhere_stim/blank_white.png,0.0,0.0,0.0,0.0,0,0.0,0,0.0,0,0.0,0,0.0,0,0.0,0.0,0,0.0,0,0.0,0,0.0,0,0.0,0,0,0,0,0,0,0,0,10,,,,,0,29,29,29,,,,,,,,,275.2928406249998,275.2928406249998,275.2928406249998,275.2928406249998,275.2928406249998,275.2928406249998,275.2928406249998,275.2928406249998,275.1998732083334,275.2928406249998,275.2928406249998,275.2928406249998,275.1998732083334,275.2928406249998,275.2928406249998,275.2928406249998,275.2928406249998,275.2928406249998,275.2928406249998,275.2928406249998,275.2928406249998,275.2928406249998,275.2928406249998,275.2928406249998,275.2928406249998,275.2928406249998,275.2928406249998,275.2498732083333,275.2928406249998,275.2928406249998,275.2928406249998,275.2498732083333,275.2928406249998,275.2928406249998,275.2928406249998,275.2928406249998,275.2928406249998,280.47704424999984,280.47704424999984,285.426447542,None,0,,reldom2_s003,001,2025-01-31_12h05.46.945,Vis-B-Scan_AC,2022.2.5,None,
23,Second_Order,4.0,viswhat,stimulus/viswhat_stim/land_vehicle-pickuptruck.png,stimulus/viswhat_stim/land_animal-lion.png,stimulus/viswhat_stim/water_animal-jellyfish.png,stimulus/viswhat_stim/water_vehicle-cabincruiser.png,stimulus/viswhere_stim/match_blank.png,stimulus/viswhere_stim/match_box.png,stimulus/viswhere_stim/match_yes.png,stimulus/viswhere_stim/match_no.png,1.0,Match,Location,Location,1,5.125,0,5.125,0,5.125,0,5.125,0,0.75,0.75,1,0.5,1,2.125,1,0.5,1,2.125,0,0,0,0,0,0,0,0,0,,,,,0,30,30,30,,,,,,,,,285.426447542,290.53853204200004,285.8938642500002,286.89233616699994,287.51458112499995,288.5129967920002,285.426447542,285.426447542,285.4245398753334,285.426447542,285.426447542,285.426447542,285.4245398753334,285.426447542,290.53853204200004,291.35854395900014,293.44814270899997,297.36273908400017,291.35854395900014,291.35854395900014,296.5023187500001,291.8002154999999,292.84406795899986,293.44814270899997,294.495204459,291.35854395900014,291.35854395900014,291.3224318750002,291.35854395900014,291.35854395900014,291.35854395900014,291.3224318750002,291.35854395900014,291.35854395900014,296.5023187500001,291.35854395900014,296.5023187500001,296.57183866700007,,291.35854395900014,1,1,0.7026262489998771,reldom2_s003,001,2025-01-31_12h05.46.945,Vis-B-Scan_AC,2022.2.5,None,
24,Second_Order,4.0,viswhat,stimulus/viswhat_stim/water_vehicle-pirateship.png,stimulus/viswhat_stim/land_vehicle-oldcar.png,stimulus/viswhat_stim/land_animal-zebra.png,stimulus/viswhat_stim/water_animal-seahorse.png,stimulus/viswhere_stim/match_blank.png,stimulus/viswhere_stim/match_box.png,stimulus/viswhere_stim/match_yes.png,stimulus/viswhere_stim/match_no.png,1.0,Match,Type,Type,1,5.125,0,5.125,0,5.125,0,5.125,0,0.625,0.625,1,0.5,1,2.125,1,0.5,1,2.125,0,0,0,0,0,0,0,0,0,,,,,0,31,31,31,,,,,,,,,297.36273908400017,302.4841027090001,297.82167445899995,298.81986941700006,299.4466443749998,300.44356212499997,297.36273908400017,297.36273908400017,297.37582275066677,297.36273908400017,297.36273908400017,297.36273908400017,297.37582275066677,297.36273908400017,302.4841027090001,303.1524546249998,305.23392675000014,309.2761923339999,303.1524546249998,303.1524546249998,308.2927863750001,303.6177886249998,304.6472450000001,305.23392675000014,306.246206625,303.1524546249998,303.1524546249998,303.1298400833334,303.1524546249998,303.1524546249998,303.1524546249998,303.1298400833334,303.1524546249998,303.1524546249998,308.2927863750001,303.1524546249998,308.2927863750001,308.3495495000002,308.98908066700005,303.1524546249998,1,1,0.6153151239996077,reldom2_s003,001,2025-01-31_12h05.46.945,Vis-B-Scan_AC,2022.2.5,None,
0,0.0,None,fixation,stimulus/viswhere_stim/blank_white.png,stimulus/viswhere_stim/blank_white.png,stimulus/viswhat_stim/blank_white.png,stimulus/viswhat_stim/blank_white.png,stimulus/viswhere_stim/blank_white.png,stimulus/viswhere_stim/blank_white.png,stimulus/viswhere_stim/blank_white.png,stimulus/viswhere_stim/blank_white.png,0.0,0.0,0.0,0.0,0,0.0,0,0.0,0,0.0,0,0.0,0,0.0,0.0,0,0.0,0,0.0,0,0.0,0,0.0,0,0,0,0,0,0,0,0,9,,,,,0,32,32,32,,,,,,,,,309.2761923339999,309.2761923339999,309.2761923339999,309.2761923339999,309.2761923339999,309.2761923339999,309.2761923339999,309.2761923339999,309.183025334,309.2761923339999,309.2761923339999,309.2761923339999,309.183025334,309.2761923339999,309.2761923339999,309.2761923339999,309.2761923339999,309.2761923339999,309.2761923339999,309.2761923339999,309.2761923339999,309.2761923339999,309.2761923339999,309.2761923339999,309.2761923339999,309.2761923339999,309.2761923339999,309.233025334,309.2761923339999,309.2761923339999,309.2761923339999,309.233025334,309.2761923339999,309.2761923339999,309.2761923339999,309.2761923339999,309.2761923339999,314.4653090840002,314.4653090840002,318.47328645900006,None,0,,reldom2_s003,001,2025-01-31_12h05.46.945,Vis-B-Scan_AC,2022.2.5,None,
25,First_Order,5.0,viswhere,stimulus/viswhere_stim/blank_white.png,stimulus/viswhere_stim/blank_white.png,stimulus/viswhere_stim/90-deg_dot-right_seagreen.png,stimulus/viswhere_stim/150-deg_dot-right_turquoise.png,stimulus/viswhere_stim/blank_white.png,stimulus/viswhere_stim/line_box.png,stimulus/viswhere_stim/line_yes.png,stimulus/viswhere_stim/line_no.png,None,Line,None,Dot,2,0.0,0,5.125,0,5.125,0,5.125,0,0.0,0.625,0,0.0,0,0.0,1,0.5,1,2.125,0,0,0,0,0,0,0,0,0,,,,,0,33,33,33,,,,,,,,,318.47328645900006,318.47328645900006,318.47328645900006,318.47328645900006,318.47328645900006,318.47328645900006,318.47328645900006,318.47328645900006,318.4535962916667,318.47328645900006,318.47328645900006,318.47328645900006,318.4535962916667,318.47328645900006,318.47328645900006,318.47328645900006,320.5781025420001,324.53696470900013,318.47328645900006,318.47328645900006,323.6096780419998,318.9606749169998,319.97511495900017,320.5781025420001,321.5986886249998,318.47328645900006,318.47328645900006,318.4535962916667,318.47328645900006,318.47328645900006,318.47328645900006,318.4535962916667,318.47328645900006,318.47328645900006,323.6096780419998,318.47328645900006,323.6096780419998,323.692996667,324.31926258400017,318.47328645900006,2,1,0.8858367909997469,reldom2_s003,001,2025-01-31_12h05.46.945,Vis-B-Scan_AC,2022.2.5,None,
26,First_Order,5.0,viswhere,stimulus/viswhere_stim/blank_white.png,stimulus/viswhere_stim/blank_white.png,stimulus/viswhere_stim/150-deg_dot-left_seagreen.png,stimulus/viswhere_stim/150-deg_dot-right_seagreen.png,stimulus/viswhere_stim/blank_white.png,stimulus/viswhere_stim/dot_box.png,stimulus/viswhere_stim/dot_yes.png,stimulus/viswhere_stim/dot_no.png,None,Dot,None,Line,2,0.0,0,5.125,0,5.125,0,5.125,0,0.0,0.625,0,0.0,0,0.0,1,0.5,1,2.125,0,0,0,0,0,0,0,0,0,,,,,0,34,34,34,,,,,,,,,324.53696470900013,324.53696470900013,324.53696470900013,324.53696470900013,324.53696470900013,324.53696470900013,324.53696470900013,324.53696470900013,324.51376670833343,324.53696470900013,324.53696470900013,324.53696470900013,324.51376670833343,324.53696470900013,324.53696470900013,324.53696470900013,326.6493586249999,330.6001657920001,324.53696470900013,324.53696470900013,329.66884066700004,325.0250663339998,326.04444283400017,326.6493586249999,327.65222804199993,324.53696470900013,324.53696470900013,324.5304333750001,324.53696470900013,324.53696470900013,324.53696470900013,324.5304333750001,324.53696470900013,324.53696470900013,329.66884066700004,324.53696470900013,329.66884066700004,329.75457099999994,330.3780347500001,324.53696470900013,2,1,1.0263626239998302,reldom2_s003,001,2025-01-31_12h05.46.945,Vis-B-Scan_AC,2022.2.5,None,
27,First_Order,5.0,viswhere,stimulus/viswhere_stim/blank_white.png,stimulus/viswhere_stim/blank_white.png,stimulus/viswhere_stim/90-deg_dot-left_turquoise.png,stimulus/viswhere_stim/90-deg_dot-right_seagreen.png,stimulus/viswhere_stim/blank_white.png,stimulus/viswhere_stim/line_box.png,stimulus/viswhere_stim/line_yes.png,stimulus/viswhere_stim/line_no.png,None,Line,None,Line,1,0.0,0,5.125,0,5.125,0,5.125,0,0.0,0.625,0,0.0,0,0.0,1,0.5,1,2.125,0,0,0,0,0,0,0,0,0,,,,,0,35,35,35,,,,,,,,,330.6001657920001,330.6001657920001,330.6001657920001,330.6001657920001,330.6001657920001,330.6001657920001,330.6001657920001,330.6001657920001,330.5780131253335,330.6001657920001,330.6001657920001,330.6001657920001,330.5780131253335,330.6001657920001,330.6001657920001,330.6001657920001,332.70175283399976,336.6674491250001,330.6001657920001,330.6001657920001,335.72601595900005,331.0865950419998,332.10064016700017,332.70175283399976,333.7213095840002,330.6001657920001,330.6001657920001,330.59467979200014,330.6001657920001,330.6001657920001,330.6001657920001,330.59467979200014,330.6001657920001,330.6001657920001,335.72601595900005,330.6001657920001,335.72601595900005,335.8233464589998,336.44969949999995,330.6001657920001,1,1,0.6276223330000903,reldom2_s003,001,2025-01-31_12h05.46.945,Vis-B-Scan_AC,2022.2.5,None,
28,First_Order,5.0,viswhere,stimulus/viswhere_stim/blank_white.png,stimulus/viswhere_stim/blank_white.png,stimulus/viswhere_stim/120-deg_dot-right_mediumslateblue.png,stimulus/viswhere_stim/90-deg_dot-right_lightsseagreen.png,stimulus/viswhere_stim/blank_white.png,stimulus/viswhere_stim/dot_box.png,stimulus/viswhere_stim/dot_yes.png,stimulus/viswhere_stim/dot_no.png,None,Dot,None,Dot,1,0.0,0,5.125,0,5.125,0,5.125,0,0.0,0.625,0,0.0,0,0.0,1,0.5,1,2.125,0,0,0,0,0,0,0,0,0,,,,,0,36,36,36,,,,,,,,,336.6674491250001,336.6674491250001,336.6674491250001,336.6674491250001,336.6674491250001,336.6674491250001,336.6674491250001,336.6674491250001,336.6442956253334,336.6674491250001,336.6674491250001,336.6674491250001,336.6442956253334,336.6674491250001,336.6674491250001,336.6674491250001,338.78023225000015,342.808408334,336.6674491250001,336.6674491250001,341.7934499170001,337.15122141699976,338.1619519169999,338.78023225000015,339.79445750000014,336.6674491250001,336.6674491250001,336.6609622920001,336.6674491250001,336.6674491250001,336.6674491250001,336.6609622920001,336.6674491250001,336.6674491250001,341.7934499170001,336.6674491250001,341.7934499170001,341.88935441700005,342.5167177090002,336.6674491250001,1,1,0.9154714159999457,reldom2_s003,001,2025-01-31_12h05.46.945,Vis-B-Scan_AC,2022.2.5,None,
0,0.0,None,fixation,stimulus/viswhere_stim/blank_white.png,stimulus/viswhere_stim/blank_white.png,stimulus/viswhat_stim/blank_white.png,stimulus/viswhat_stim/blank_white.png,stimulus/viswhere_stim/blank_white.png,stimulus/viswhere_stim/blank_white.png,stimulus/viswhere_stim/blank_white.png,stimulus/viswhere_stim/blank_white.png,0.0,0.0,0.0,0.0,0,0.0,0,0.0,0,0.0,0,0.0,0,0.0,0.0,0,0.0,0,0.0,0,0.0,0,0.0,0,0,0,0,0,0,0,0,10,,,,,0,37,37,37,,,,,,,,,342.808408334,342.808408334,342.808408334,342.808408334,342.808408334,342.808408334,342.808408334,342.808408334,342.71078354233333,342.808408334,342.808408334,342.808408334,342.71078354233333,342.808408334,342.808408334,342.808408334,342.808408334,342.808408334,342.808408334,342.808408334,342.808408334,342.808408334,342.808408334,342.808408334,342.808408334,342.808408334,342.808408334,342.76078354233334,342.808408334,342.808408334,342.808408334,342.76078354233334,342.808408334,342.808408334,342.808408334,342.808408334,342.808408334,348.0140745839999,348.0140745839999,352.9586009589998,None,0,,reldom2_s003,001,2025-01-31_12h05.46.945,Vis-B-Scan_AC,2022.2.5,None,
29,Second_Order,5.0,viswhere,stimulus/viswhere_stim/30-deg_dot-right_peru.png,stimulus/viswhere_stim/120-deg_dot-right_royalblue.png,stimulus/viswhere_stim/120-deg_dot-left_lightsseagreen.png,stimulus/viswhere_stim/90-deg_dot-left_seagreen.png,stimulus/viswhere_stim/match_blank.png,stimulus/viswhere_stim/match_box.png,stimulus/viswhere_stim/match_yes.png,stimulus/viswhere_stim/match_no.png,1.0,Match,Dot,Dot,1,5.125,0,5.125,0,5.125,0,5.125,0,0.75,0.75,1,0.5,1,2.125,1,0.5,1,2.125,0,0,0,0,0,0,0,0,0,,,,,0,38,38,38,,,,,,,,,352.9586009589998,358.0786698339998,353.4369847500002,354.4344944589998,355.0702634170002,356.0687169590001,352.9586009589998,352.9586009589998,352.9711700833333,352.9586009589998,352.9586009589998,352.9586009589998,352.9711700833333,352.9586009589998,358.0786698339998,358.8592309999999,360.942431167,364.8392478750002,358.8592309999999,358.8592309999999,363.9893969589998,359.3260816669999,360.34018341699993,360.942431167,361.96321854200005,358.8592309999999,358.8592309999999,358.84533408333346,358.8592309999999,358.8592309999999,358.8592309999999,358.84533408333346,358.8592309999999,358.8592309999999,363.9893969589998,358.8592309999999,363.9893969589998,364.06374525,364.8392478750002,358.8592309999999,1,1,0.5929729159997805,reldom2_s003,001,2025-01-31_12h05.46.945,Vis-B-Scan_AC,2022.2.5,None,
30,Second_Order,5.0,viswhere,stimulus/viswhere_stim/60-deg_dot-right_seagreen.png,stimulus/viswhere_stim/60-deg_dot-left_slateblue.png,stimulus/viswhere_stim/120-deg_dot-left_seagreen.png,stimulus/viswhere_stim/30-deg_dot-left_cyan.png,stimulus/viswhere_stim/match_blank.png,stimulus/viswhere_stim/match_box.png,stimulus/viswhere_stim/match_yes.png,stimulus/viswhere_stim/match_no.png,2.0,Match,Line,Dot,2,5.125,0,5.125,0,5.125,0,5.125,0,0.625,0.625,1,0.5,1,2.125,1,0.5,1,2.125,0,0,0,0,0,0,0,0,0,,,,,0,39,39,39,,,,,,,,,364.8392478750002,369.955622125,365.32311812499984,366.31243916699987,366.9489310419999,367.94601837499977,364.8392478750002,364.8392478750002,364.8515310420001,364.8392478750002,364.8392478750002,364.8392478750002,364.8515310420001,364.8392478750002,369.955622125,370.6146865840001,372.7083524589998,376.7480219170002,370.6146865840001,370.6146865840001,375.7426893339998,371.0789655839999,372.08752300000015,372.7083524589998,373.72407891700004,370.6146865840001,370.6146865840001,370.6021625423332,370.6146865840001,370.6146865840001,370.6146865840001,370.6021625423332,370.6146865840001,370.6146865840001,375.7426893339998,370.6146865840001,375.7426893339998,375.8273385839998,376.4531333750001,370.6146865840001,2,1,0.9169861239997772,reldom2_s003,001,2025-01-31_12h05.46.945,Vis-B-Scan_AC,2022.2.5,None,
0,0.0,None,fixation,stimulus/viswhere_stim/blank_white.png,stimulus/viswhere_stim/blank_white.png,stimulus/viswhat_stim/blank_white.png,stimulus/viswhat_stim/blank_white.png,stimulus/viswhere_stim/blank_white.png,stimulus/viswhere_stim/blank_white.png,stimulus/viswhere_stim/blank_white.png,stimulus/viswhere_stim/blank_white.png,0.0,0.0,0.0,0.0,0,0.0,0,0.0,0,0.0,0,0.0,0,0.0,0.0,0,0.0,0,0.0,0,0.0,0,0.0,0,0,0,0,0,0,0,0,9,,,,,0,40,40,40,,,,,,,,,376.7480219170002,376.7480219170002,376.7480219170002,376.7480219170002,376.7480219170002,376.7480219170002,376.7480219170002,376.7480219170002,376.6482811253334,376.7480219170002,376.7480219170002,376.7480219170002,376.6482811253334,376.7480219170002,376.7480219170002,376.7480219170002,376.7480219170002,376.7480219170002,376.7480219170002,376.7480219170002,376.7480219170002,376.7480219170002,376.7480219170002,376.7480219170002,376.7480219170002,376.7480219170002,376.7480219170002,376.69828112533344,376.7480219170002,376.7480219170002,376.7480219170002,376.69828112533344,376.7480219170002,376.7480219170002,376.7480219170002,376.7480219170002,376.7480219170002,381.975238042,381.975238042,385.9501033749998,None,0,,reldom2_s003,001,2025-01-31_12h05.46.945,Vis-B-Scan_AC,2022.2.5,None,
31,First_Order,6.0,viswhere,stimulus/viswhere_stim/blank_white.png,stimulus/viswhere_stim/blank_white.png,stimulus/viswhere_stim/120-deg_dot-left_royalblue.png,stimulus/viswhere_stim/30-deg_dot-left_goldenrod.png,stimulus/viswhere_stim/blank_white.png,stimulus/viswhere_stim/dot_box.png,stimulus/viswhere_stim/dot_yes.png,stimulus/viswhere_stim/dot_no.png,None,Dot,None,Dot,1,0.0,0,5.125,0,5.125,0,5.125,0,0.0,0.625,0,0.0,0,0.0,1,0.5,1,2.125,0,0,0,0,0,0,0,0,0,,,,,0,41,41,41,,,,,,,,,385.9501033749998,385.9501033749998,385.9501033749998,385.9501033749998,385.9501033749998,385.9501033749998,385.9501033749998,385.9501033749998,385.92976425066684,385.9501033749998,385.9501033749998,385.9501033749998,385.92976425066684,385.9501033749998,385.9501033749998,385.9501033749998,388.0597250840001,392.0141457919999,385.9501033749998,385.9501033749998,391.08199079199994,386.435556334,387.4427324590001,388.0597250840001,389.0706356669998,385.9501033749998,385.9501033749998,385.92976425066684,385.9501033749998,385.9501033749998,385.9501033749998,385.92976425066684,385.9501033749998,385.9501033749998,391.08199079199994,385.9501033749998,391.08199079199994,391.16534550000006,391.797146292,385.9501033749998,1,1,0.8086537079998379,reldom2_s003,001,2025-01-31_12h05.46.945,Vis-B-Scan_AC,2022.2.5,None,
32,First_Order,6.0,viswhere,stimulus/viswhere_stim/blank_white.png,stimulus/viswhere_stim/blank_white.png,stimulus/viswhere_stim/150-deg_dot-left_salmon.png,stimulus/viswhere_stim/150-deg_dot-right_salmon.png,stimulus/viswhere_stim/blank_white.png,stimulus/viswhere_stim/dot_box.png,stimulus/viswhere_stim/dot_yes.png,stimulus/viswhere_stim/dot_no.png,None,Dot,None,Line,2,0.0,0,5.125,0,5.125,0,5.125,0,0.0,0.625,0,0.0,0,0.0,1,0.5,1,2.125,0,0,0,0,0,0,0,0,0,,,,,0,42,42,42,,,,,,,,,392.0141457919999,392.0141457919999,392.0141457919999,392.0141457919999,392.0141457919999,392.0141457919999,392.0141457919999,392.0141457919999,391.99125125033316,392.0141457919999,392.0141457919999,392.0141457919999,391.99125125033316,392.0141457919999,392.0141457919999,392.0141457919999,394.124896584,398.0885575839998,392.0141457919999,392.0141457919999,397.1412343339998,392.5027452919999,393.5204210420002,394.124896584,395.1280889169998,392.0141457919999,392.0141457919999,392.0079179169998,392.0141457919999,392.0141457919999,392.0141457919999,392.0079179169998,392.0141457919999,392.0141457919999,397.1412343339998,392.0141457919999,397.1412343339998,397.24340870900005,397.8664199169998,392.0141457919999,2,1,0.6867619990002822,reldom2_s003,001,2025-01-31_12h05.46.945,Vis-B-Scan_AC,2022.2.5,None,
33,First_Order,6.0,viswhere,stimulus/viswhere_stim/blank_white.png,stimulus/viswhere_stim/blank_white.png,stimulus/viswhere_stim/150-deg_dot-left_cyan.png,stimulus/viswhere_stim/150-deg_dot-right_seagreen.png,stimulus/viswhere_stim/blank_white.png,stimulus/viswhere_stim/line_box.png,stimulus/viswhere_stim/line_yes.png,stimulus/viswhere_stim/line_no.png,None,Line,None,Line,1,0.0,0,5.125,0,5.125,0,5.125,0,0.0,0.625,0,0.0,0,0.0,1,0.5,1,2.125,0,0,0,0,0,0,0,0,0,,,,,0,43,43,43,,,,,,,,,398.0885575839998,398.0885575839998,398.0885575839998,398.0885575839998,398.0885575839998,398.0885575839998,398.0885575839998,398.0885575839998,398.0613906253332,398.0885575839998,398.0885575839998,398.0885575839998,398.0613906253332,398.0885575839998,398.0885575839998,398.0885575839998,400.19102733399995,404.1518942920002,398.0885575839998,398.0885575839998,403.22120995900013,398.56063137499996,399.5633559590001,400.19102733399995,401.1997003749998,398.0885575839998,398.0885575839998,398.07805729199987,398.0885575839998,398.0885575839998,398.0885575839998,398.07805729199987,398.0885575839998,398.0885575839998,403.22120995900013,398.0885575839998,403.22120995900013,403.3102236670002,403.9615924589998,398.0885575839998,1,1,0.8077393739995387,reldom2_s003,001,2025-01-31_12h05.46.945,Vis-B-Scan_AC,2022.2.5,None,
34,First_Order,6.0,viswhere,stimulus/viswhere_stim/blank_white.png,stimulus/viswhere_stim/blank_white.png,stimulus/viswhere_stim/150-deg_dot-right_cyan.png,stimulus/viswhere_stim/120-deg_dot-right_cyan.png,stimulus/viswhere_stim/blank_white.png,stimulus/viswhere_stim/line_box.png,stimulus/viswhere_stim/line_yes.png,stimulus/viswhere_stim/line_no.png,None,Line,None,Dot,2,0.0,0,5.125,0,5.125,0,5.125,0,0.0,0.625,0,0.0,0,0.0,1,0.5,1,2.125,0,0,0,0,0,0,0,0,0,,,,,0,44,44,44,,,,,,,,,404.1518942920002,404.1518942920002,404.1518942920002,404.1518942920002,404.1518942920002,404.1518942920002,404.1518942920002,404.1518942920002,404.1282952083332,404.1518942920002,404.1518942920002,404.1518942920002,404.1282952083332,404.1518942920002,404.1518942920002,404.1518942920002,406.25816962499994,410.294075709,404.1518942920002,404.1518942920002,409.3071437919998,404.63889583399987,405.6545526670002,406.25816962499994,407.26039387499986,404.1518942920002,404.1518942920002,404.14496187499986,404.1518942920002,404.1518942920002,404.1518942920002,404.14496187499986,404.1518942920002,404.1518942920002,409.3071437919998,404.1518942920002,409.3071437919998,409.3789824589999,410.0088609999998,404.1518942920002,2,1,0.7825136659998861,reldom2_s003,001,2025-01-31_12h05.46.945,Vis-B-Scan_AC,2022.2.5,None,
0,0.0,None,fixation,stimulus/viswhere_stim/blank_white.png,stimulus/viswhere_stim/blank_white.png,stimulus/viswhat_stim/blank_white.png,stimulus/viswhat_stim/blank_white.png,stimulus/viswhere_stim/blank_white.png,stimulus/viswhere_stim/blank_white.png,stimulus/viswhere_stim/blank_white.png,stimulus/viswhere_stim/blank_white.png,0.0,0.0,0.0,0.0,0,0.0,0,0.0,0,0.0,0,0.0,0,0.0,0.0,0,0.0,0,0.0,0,0.0,0,0.0,0,0,0,0,0,0,0,0,8,,,,,0,45,45,45,,,,,,,,,410.294075709,410.294075709,410.294075709,410.294075709,410.294075709,410.294075709,410.294075709,410.294075709,410.1891685003332,410.294075709,410.294075709,410.294075709,410.1891685003332,410.294075709,410.294075709,410.294075709,410.294075709,410.294075709,410.294075709,410.294075709,410.294075709,410.294075709,410.294075709,410.294075709,410.294075709,410.294075709,410.294075709,410.2391685003332,410.294075709,410.294075709,410.294075709,410.2391685003332,410.294075709,410.294075709,410.294075709,410.294075709,410.294075709,415.5231669169998,415.5231669169998,418.44350808399986,None,0,,reldom2_s003,001,2025-01-31_12h05.46.945,Vis-B-Scan_AC,2022.2.5,None,
35,Second_Order,6.0,viswhere,stimulus/viswhere_stim/60-deg_dot-right_cyan.png,stimulus/viswhere_stim/60-deg_dot-left_goldenrod.png,stimulus/viswhere_stim/150-deg_dot-left_salmon.png,stimulus/viswhere_stim/150-deg_dot-right_goldenrod.png,stimulus/viswhere_stim/match_blank.png,stimulus/viswhere_stim/match_box.png,stimulus/viswhere_stim/match_yes.png,stimulus/viswhere_stim/match_no.png,1.0,Match,Line,Line,1,5.125,0,5.125,0,5.125,0,5.125,0,0.75,0.75,1,0.5,1,2.125,1,0.5,1,2.125,0,0,0,0,0,0,0,0,0,,,,,0,46,46,46,,,,,,,,,418.44350808399986,423.5616419170001,418.91712666700005,419.9158859999998,420.550617334,421.54005404200007,418.44350808399986,418.44350808399986,418.4560132503335,418.44350808399986,418.44350808399986,418.44350808399986,418.4560132503335,418.44350808399986,423.5616419170001,424.3446372499998,426.43257200000016,430.32408216700014,424.3446372499998,424.3446372499998,429.472681792,424.81780200000003,425.8228308339999,426.43257200000016,427.44363433399985,424.3446372499998,424.3446372499998,424.3308483753335,424.3446372499998,424.3446372499998,424.3446372499998,424.3308483753335,424.3446372499998,424.3446372499998,429.472681792,424.3446372499998,429.472681792,429.5569062919999,,424.3446372499998,1,1,0.7693633740000223,reldom2_s003,001,2025-01-31_12h05.46.945,Vis-B-Scan_AC,2022.2.5,None,
36,Second_Order,6.0,viswhere,stimulus/viswhere_stim/120-deg_dot-right_slateblue.png,stimulus/viswhere_stim/120-deg_dot-left_royalblue.png,stimulus/viswhere_stim/150-deg_dot-right_royalblue.png,stimulus/viswhere_stim/150-deg_dot-left_salmon.png,stimulus/viswhere_stim/match_blank.png,stimulus/viswhere_stim/match_box.png,stimulus/viswhere_stim/match_yes.png,stimulus/viswhere_stim/match_no.png,1.0,Match,Line,Line,1,5.125,0,5.125,0,5.125,0,5.125,0,0.625,0.625,1,0.5,1,2.125,1,0.5,1,2.125,0,0,0,0,0,0,0,0,0,,,,,0,47,47,47,,,,,,,,,430.32408216700014,435.44264650000014,430.80774708399986,431.79658845899985,432.4334681669998,433.43048924999994,430.32408216700014,430.32408216700014,430.3360967500001,430.32408216700014,430.32408216700014,430.32408216700014,430.3360967500001,430.32408216700014,435.44264650000014,436.09663145900004,438.19731412500005,442.22762837499977,436.09663145900004,436.09663145900004,441.2308670419998,436.5665905420001,437.5697707919999,438.19731412500005,439.2049408339999,436.09663145900004,436.09663145900004,436.0866785833332,436.09663145900004,436.09663145900004,436.09663145900004,436.0866785833332,436.09663145900004,436.09663145900004,441.2308670419998,436.09663145900004,441.2308670419998,441.33149616699984,441.9824976250002,436.09663145900004,1,1,0.6638581249999334,reldom2_s003,001,2025-01-31_12h05.46.945,Vis-B-Scan_AC,2022.2.5,None,
0,0.0,None,fixation,stimulus/viswhere_stim/blank_white.png,stimulus/viswhere_stim/blank_white.png,stimulus/viswhat_stim/blank_white.png,stimulus/viswhat_stim/blank_white.png,stimulus/viswhere_stim/blank_white.png,stimulus/viswhere_stim/blank_white.png,stimulus/viswhere_stim/blank_white.png,stimulus/viswhere_stim/blank_white.png,0.0,0.0,0.0,0.0,0,0.0,0,0.0,0,0.0,0,0.0,0,0.0,0.0,0,0.0,0,0.0,0,0.0,0,0.0,0,0,0,0,0,0,0,0,10,,,,,0,48,48,48,,,,,,,,,442.22762837499977,442.22762837499977,442.22762837499977,442.22762837499977,442.22762837499977,442.22762837499977,442.22762837499977,442.22762837499977,442.1241115003334,442.22762837499977,442.22762837499977,442.22762837499977,442.1241115003334,442.22762837499977,442.22762837499977,442.22762837499977,442.22762837499977,442.22762837499977,442.22762837499977,442.22762837499977,442.22762837499977,442.22762837499977,442.22762837499977,442.22762837499977,442.22762837499977,442.22762837499977,442.22762837499977,442.1741115003334,442.22762837499977,442.22762837499977,442.22762837499977,442.1741115003334,442.22762837499977,442.22762837499977,442.22762837499977,442.22762837499977,442.22762837499977,447.4064275420001,447.4064275420001,452.48216675000003,None,0,,reldom2_s003,001,2025-01-31_12h05.46.945,Vis-B-Scan_AC,2022.2.5,None,
37,First_Order,7.0,viswhat,stimulus/viswhat_stim/blank_white.png,stimulus/viswhat_stim/blank_white.png,stimulus/viswhat_stim/water_vehicle-sailboat.png,stimulus/viswhat_stim/land_vehicle-bus.png,stimulus/viswhat_stim/blank_white.png,stimulus/viswhat_stim/location_box.png,stimulus/viswhat_stim/location_yes.png,stimulus/viswhat_stim/location_no.png,None,Location,None,Type,2,0.0,0,5.125,0,5.125,0,5.125,0,0.0,0.625,0,0.0,0,0.0,1,0.5,1,2.125,0,0,0,0,0,0,0,0,0,,,,,0,49,49,49,,,,,,,,,452.48216675000003,452.48216675000003,452.48216675000003,452.48216675000003,452.48216675000003,452.48216675000003,452.48216675000003,452.48216675000003,452.3902916666667,452.48216675000003,452.48216675000003,452.48216675000003,452.3902916666667,452.48216675000003,452.48216675000003,452.48216675000003,454.5852635000001,458.6224537500002,452.48216675000003,452.48216675000003,457.6464516249998,452.91428995900014,453.9934324999999,454.5852635000001,455.66214141699993,452.48216675000003,452.48216675000003,452.4402916666667,452.48216675000003,452.48216675000003,452.48216675000003,452.4402916666667,452.48216675000003,452.48216675000003,457.6464516249998,452.48216675000003,457.6464516249998,457.694734959,458.36326762499993,452.48216675000003,2,1,1.4401659159998417,reldom2_s003,001,2025-01-31_12h05.46.945,Vis-B-Scan_AC,2022.2.5,None,
38,First_Order,7.0,viswhat,stimulus/viswhat_stim/blank_white.png,stimulus/viswhat_stim/blank_white.png,stimulus/viswhat_stim/land_vehicle-tank.png,stimulus/viswhat_stim/land_animal-elephant.png,stimulus/viswhat_stim/blank_white.png,stimulus/viswhat_stim/type_box.png,stimulus/viswhat_stim/type_yes.png,stimulus/viswhat_stim/type_no.png,None,Type,None,Location,2,0.0,0,5.125,0,5.125,0,5.125,0,0.0,0.625,0,0.0,0,0.0,1,0.5,1,2.125,0,0,0,0,0,0,0,0,0,,,,,0,50,50,50,,,,,,,,,458.6224537500002,458.6224537500002,458.6224537500002,458.6224537500002,458.6224537500002,458.6224537500002,458.6224537500002,458.6224537500002,458.5132676249999,458.6224537500002,458.6224537500002,458.6224537500002,458.5132676249999,458.6224537500002,458.6224537500002,458.6224537500002,460.72557612499986,,458.6224537500002,458.6224537500002,463.8269982920001,459.0886936669999,460.14046237499997,460.72557612499986,461.78435249999984,458.6224537500002,458.6224537500002,458.5632676249999,458.6224537500002,458.6224537500002,458.6224537500002,458.5632676249999,458.6224537500002,458.6224537500002,463.8269982920001,458.6224537500002,463.8269982920001,463.8269982920001,464.66443258399977,458.6224537500002,2,1,0.9004558329997963,reldom2_s003,001,2025-01-31_12h05.46.945,Vis-B-Scan_AC,2022.2.5,None,
39,First_Order,7.0,viswhat,stimulus/viswhat_stim/blank_white.png,stimulus/viswhat_stim/blank_white.png,stimulus/viswhat_stim/land_animal-ostrich.png,stimulus/viswhat_stim/water_animal-whale.png,stimulus/viswhat_stim/blank_white.png,stimulus/viswhat_stim/location_box.png,stimulus/viswhat_stim/location_yes.png,stimulus/viswhat_stim/location_no.png,None,Location,None,Type,2,0.0,0,5.125,0,5.125,0,5.125,0,0.0,0.625,0,0.0,0,0.0,1,0.5,1,2.125,0,0,0,0,0,0,0,0,0,,,,,0,51,51,51,,,,,,,,,464.66443258399977,464.66443258399977,464.66443258399977,464.66443258399977,464.66443258399977,464.66443258399977,464.66443258399977,464.66443258399977,464.62545312566647,464.66443258399977,464.66443258399977,464.66443258399977,464.62545312566647,464.66443258399977,464.66443258399977,464.66443258399977,466.7558000419999,470.7368677499999,464.66443258399977,464.66443258399977,469.8070027919998,465.13835800000015,466.1711609170002,466.7558000419999,467.76965570899984,464.66443258399977,464.66443258399977,464.6421197923332,464.66443258399977,464.66443258399977,464.66443258399977,464.6421197923332,464.66443258399977,464.66443258399977,469.8070027919998,464.66443258399977,469.8070027919998,469.87346350000007,470.5152320420002,464.66443258399977,2,1,0.8251143320003393,reldom2_s003,001,2025-01-31_12h05.46.945,Vis-B-Scan_AC,2022.2.5,None,
40,First_Order,7.0,viswhat,stimulus/viswhat_stim/blank_white.png,stimulus/viswhat_stim/blank_white.png,stimulus/viswhat_stim/land_vehicle-truck.png,stimulus/viswhat_stim/land_animal-fox.png,stimulus/viswhat_stim/blank_white.png,stimulus/viswhat_stim/location_box.png,stimulus/viswhat_stim/location_yes.png,stimulus/viswhat_stim/location_no.png,None,Location,None,Location,1,0.0,0,5.125,0,5.125,0,5.125,0,0.0,0.625,0,0.0,0,0.0,1,0.5,1,2.125,0,0,0,0,0,0,0,0,0,,,,,0,52,52,52,,,,,,,,,470.7368677499999,470.7368677499999,470.7368677499999,470.7368677499999,470.7368677499999,470.7368677499999,470.7368677499999,470.7368677499999,470.7033177499998,470.7368677499999,470.7368677499999,470.7368677499999,470.7033177499998,470.7368677499999,470.7368677499999,470.7368677499999,472.8294474999998,476.8778051250001,470.7368677499999,470.7368677499999,475.8761482089999,471.2122170419998,472.23666083399985,472.8294474999998,473.85702916699984,470.7368677499999,470.7368677499999,470.71998441666653,470.7368677499999,470.7368677499999,470.7368677499999,470.71998441666653,470.7368677499999,470.7368677499999,475.8761482089999,470.7368677499999,475.8761482089999,475.9489517090001,476.57779233400015,470.7368677499999,1,1,0.6410794160001387,reldom2_s003,001,2025-01-31_12h05.46.945,Vis-B-Scan_AC,2022.2.5,None,
0,0.0,None,fixation,stimulus/viswhere_stim/blank_white.png,stimulus/viswhere_stim/blank_white.png,stimulus/viswhat_stim/blank_white.png,stimulus/viswhat_stim/blank_white.png,stimulus/viswhere_stim/blank_white.png,stimulus/viswhere_stim/blank_white.png,stimulus/viswhere_stim/blank_white.png,stimulus/viswhere_stim/blank_white.png,0.0,0.0,0.0,0.0,0,0.0,0,0.0,0,0.0,0,0.0,0,0.0,0.0,0,0.0,0,0.0,0,0.0,0,0.0,0,0,0,0,0,0,0,0,8,,,,,0,53,53,53,,,,,,,,,476.8778051250001,476.8778051250001,476.8778051250001,476.8778051250001,476.8778051250001,476.8778051250001,476.8778051250001,476.8778051250001,476.7694972503335,476.8778051250001,476.8778051250001,476.8778051250001,476.7694972503335,476.8778051250001,476.8778051250001,476.8778051250001,476.8778051250001,476.8778051250001,476.8778051250001,476.8778051250001,476.8778051250001,476.8778051250001,476.8778051250001,476.8778051250001,476.8778051250001,476.8778051250001,476.8778051250001,476.83616391700014,476.8778051250001,476.8778051250001,476.8778051250001,476.83616391700014,476.8778051250001,476.8778051250001,476.8778051250001,476.8778051250001,476.8778051250001,482.0611841250002,482.0611841250002,484.9925133339998,None,0,,reldom2_s003,001,2025-01-31_12h05.46.945,Vis-B-Scan_AC,2022.2.5,None,
41,Second_Order,7.0,viswhat,stimulus/viswhat_stim/water_animal-whale (1).png,stimulus/viswhat_stim/water_vehicle-canoe(1).png,stimulus/viswhat_stim/land_animal-tiger.png,stimulus/viswhat_stim/land_vehicle-train.png,stimulus/viswhere_stim/match_blank.png,stimulus/viswhere_stim/match_box.png,stimulus/viswhere_stim/match_yes.png,stimulus/viswhere_stim/match_no.png,1.0,Match,Location,Location,1,5.125,0,5.125,0,5.125,0,5.125,0,0.75,0.75,1,0.5,1,2.125,1,0.5,1,2.125,0,0,0,0,0,0,0,0,0,,,,,0,54,54,54,,,,,,,,,484.9925133339998,490.1160338750001,485.46740066699977,486.4564463749998,487.0922596669998,488.08987933399976,484.9925133339998,484.9925133339998,484.9981305003331,484.9925133339998,484.9925133339998,484.9925133339998,484.9981305003331,484.9925133339998,490.1160338750001,490.9215832499999,492.9988652500001,,490.9215832499999,490.9215832499999,496.0614729590002,491.39840037500016,492.4212963340001,492.9988652500001,494.0235699169998,490.9215832499999,490.9215832499999,490.8994095000001,490.9215832499999,490.9215832499999,490.9215832499999,490.8994095000001,490.9215832499999,490.9215832499999,496.0614729590002,490.9215832499999,496.0614729590002,496.11877474999983,,490.9215832499999,1,1,1.2996895409996796,reldom2_s003,001,2025-01-31_12h05.46.945,Vis-B-Scan_AC,2022.2.5,None,
42,Second_Order,7.0,viswhat,stimulus/viswhat_stim/land_vehicle-buldozer.png,stimulus/viswhat_stim/water_vehicle-jetski.png,stimulus/viswhat_stim/water_animal-whale.png,stimulus/viswhat_stim/land_animal-fox.png,stimulus/viswhere_stim/match_blank.png,stimulus/viswhere_stim/match_box.png,stimulus/viswhere_stim/match_yes.png,stimulus/viswhere_stim/match_no.png,1.0,Match,Type,Type,1,5.125,0,5.125,0,5.125,0,5.125,0,0.625,0.625,1,0.5,1,2.125,1,0.5,1,2.125,0,0,0,0,0,0,0,0,0,,,,,0,55,55,55,,,,,,,,,496.90916341699995,502.025980292,497.36525979199996,498.363338959,499.00429591700004,500.00065908399984,496.90916341699995,496.90916341699995,496.90732062533317,496.90916341699995,496.90916341699995,496.90916341699995,496.90732062533317,496.90916341699995,502.025980292,502.69805695900004,504.7936427919999,508.84152566700004,502.69805695900004,502.69805695900004,507.8264362499999,503.1742341670001,504.184693834,504.7936427919999,505.80967087499994,502.69805695900004,502.69805695900004,502.6734814583333,502.69805695900004,502.69805695900004,502.69805695900004,502.6734814583333,502.69805695900004,502.69805695900004,507.8264362499999,502.69805695900004,507.8264362499999,507.90997845899983,508.55775433400004,502.69805695900004,1,1,0.5152384569996684,reldom2_s003,001,2025-01-31_12h05.46.945,Vis-B-Scan_AC,2022.2.5,None,
0,0.0,None,fixation,stimulus/viswhere_stim/blank_white.png,stimulus/viswhere_stim/blank_white.png,stimulus/viswhat_stim/blank_white.png,stimulus/viswhat_stim/blank_white.png,stimulus/viswhere_stim/blank_white.png,stimulus/viswhere_stim/blank_white.png,stimulus/viswhere_stim/blank_white.png,stimulus/viswhere_stim/blank_white.png,0.0,0.0,0.0,0.0,0,0.0,0,0.0,0,0.0,0,0.0,0,0.0,0.0,0,0.0,0,0.0,0,0.0,0,0.0,0,0,0,0,0,0,0,0,9,,,,,0,56,56,56,,,,,,,,,508.84152566700004,508.84152566700004,508.84152566700004,508.84152566700004,508.84152566700004,508.84152566700004,508.84152566700004,508.84152566700004,508.7409141670001,508.84152566700004,508.84152566700004,508.84152566700004,508.7409141670001,508.84152566700004,508.84152566700004,508.84152566700004,508.84152566700004,508.84152566700004,508.84152566700004,508.84152566700004,508.84152566700004,508.84152566700004,508.84152566700004,508.84152566700004,508.84152566700004,508.84152566700004,508.84152566700004,508.7909141670001,508.84152566700004,508.84152566700004,508.84152566700004,508.7909141670001,508.84152566700004,508.84152566700004,508.84152566700004,508.84152566700004,508.84152566700004,514.031232417,514.031232417,518.043765209,None,0,,reldom2_s003,001,2025-01-31_12h05.46.945,Vis-B-Scan_AC,2022.2.5,None,
43,First_Order,8.0,viswhat,stimulus/viswhat_stim/blank_white.png,stimulus/viswhat_stim/blank_white.png,stimulus/viswhat_stim/land_animal-fox.png,stimulus/viswhat_stim/land_vehicle-motorcycle.png,stimulus/viswhat_stim/blank_white.png,stimulus/viswhat_stim/type_box.png,stimulus/viswhat_stim/type_yes.png,stimulus/viswhat_stim/type_no.png,None,Type,None,Location,2,0.0,0,5.125,0,5.125,0,5.125,0,0.0,0.625,0,0.0,0,0.0,1,0.5,1,2.125,0,0,0,0,0,0,0,0,0,,,,,0,57,57,57,,,,,,,,,518.043765209,518.043765209,518.043765209,518.043765209,518.043765209,518.043765209,518.043765209,518.043765209,517.9995767916668,518.043765209,518.043765209,518.043765209,517.9995767916668,518.043765209,518.043765209,518.043765209,520.135887292,524.1152433749999,518.043765209,518.043765209,523.180639792,518.5038879170002,519.5187067090001,520.135887292,521.1535631249999,518.043765209,518.043765209,518.0162434583334,518.043765209,518.043765209,518.043765209,518.0162434583334,518.043765209,518.043765209,523.180639792,518.043765209,523.180639792,523.2554131249999,523.8967389589998,518.043765209,2,1,1.0902418749997196,reldom2_s003,001,2025-01-31_12h05.46.945,Vis-B-Scan_AC,2022.2.5,None,
44,First_Order,8.0,viswhat,stimulus/viswhat_stim/blank_white.png,stimulus/viswhat_stim/blank_white.png,stimulus/viswhat_stim/land_animal-pig.png,stimulus/viswhat_stim/land_vehicle-firetruck.png,stimulus/viswhat_stim/blank_white.png,stimulus/viswhat_stim/location_box.png,stimulus/viswhat_stim/location_yes.png,stimulus/viswhat_stim/location_no.png,None,Location,None,Location,1,0.0,0,5.125,0,5.125,0,5.125,0,0.0,0.625,0,0.0,0,0.0,1,0.5,1,2.125,0,0,0,0,0,0,0,0,0,,,,,0,58,58,58,,,,,,,,,524.1152433749999,524.1152433749999,524.1152433749999,524.1152433749999,524.1152433749999,524.1152433749999,524.1152433749999,524.1152433749999,524.0718467500002,524.1152433749999,524.1152433749999,524.1152433749999,524.0718467500002,524.1152433749999,524.1152433749999,524.1152433749999,526.207023084,530.24147025,524.1152433749999,524.1152433749999,529.253833625,524.58990025,525.6136083339998,526.207023084,527.2357520420001,524.1152433749999,524.1152433749999,524.1051800833335,524.1152433749999,524.1152433749999,524.1152433749999,524.1051800833335,524.1152433749999,524.1152433749999,529.253833625,524.1152433749999,529.253833625,529.3252238340001,529.9580142089999,524.1152433749999,1,1,1.017499831999885,reldom2_s003,001,2025-01-31_12h05.46.945,Vis-B-Scan_AC,2022.2.5,None,
45,First_Order,8.0,viswhat,stimulus/viswhat_stim/blank_white.png,stimulus/viswhat_stim/blank_white.png,stimulus/viswhat_stim/land_vehicle-trolley.png,stimulus/viswhat_stim/water_vehicle-sailboat.png,stimulus/viswhat_stim/blank_white.png,stimulus/viswhat_stim/type_box.png,stimulus/viswhat_stim/type_yes.png,stimulus/viswhat_stim/type_no.png,None,Type,None,Type,1,0.0,0,5.125,0,5.125,0,5.125,0,0.0,0.625,0,0.0,0,0.0,1,0.5,1,2.125,0,0,0,0,0,0,0,0,0,,,,,0,59,59,59,,,,,,,,,530.24147025,530.24147025,530.24147025,530.24147025,530.24147025,530.24147025,530.24147025,530.24147025,530.1648629590001,530.24147025,530.24147025,530.24147025,530.1648629590001,530.24147025,530.24147025,530.24147025,532.3093414999998,,530.24147025,530.24147025,535.4115757089999,530.6851258749998,531.7200671249998,532.3093414999998,533.350129334,530.24147025,530.24147025,530.1981962923334,530.24147025,530.24147025,530.24147025,530.1981962923334,530.24147025,530.24147025,535.4115757089999,530.24147025,535.4115757089999,535.4563075000001,536.1103147499998,530.24147025,1,1,0.6997353740002836,reldom2_s003,001,2025-01-31_12h05.46.945,Vis-B-Scan_AC,2022.2.5,None,
46,First_Order,8.0,viswhat,stimulus/viswhat_stim/blank_white.png,stimulus/viswhat_stim/blank_white.png,stimulus/viswhat_stim/water_vehicle-canoe(1).png,stimulus/viswhat_stim/land_vehicle-truck.png,stimulus/viswhat_stim/blank_white.png,stimulus/viswhat_stim/type_box.png,stimulus/viswhat_stim/type_yes.png,stimulus/viswhat_stim/type_no.png,None,Type,None,Type,1,0.0,0,5.125,0,5.125,0,5.125,0,0.0,0.625,0,0.0,0,0.0,1,0.5,1,2.125,0,0,0,0,0,0,0,0,0,,,,,0,60,60,60,,,,,,,,,536.285907292,536.285907292,536.285907292,536.285907292,536.285907292,536.285907292,536.285907292,536.285907292,536.2603147499998,536.285907292,536.285907292,536.285907292,536.2603147499998,536.285907292,536.285907292,536.285907292,538.3944299589998,542.422361417,536.285907292,536.285907292,541.4198120000001,536.7509713750001,537.7739942919998,538.3944299589998,539.399542959,536.285907292,536.285907292,536.2603147499998,536.285907292,536.285907292,536.285907292,536.2603147499998,536.285907292,536.285907292,541.4198120000001,536.285907292,541.4198120000001,541.504401959,542.1332157090001,536.285907292,1,1,0.7596837079995566,reldom2_s003,001,2025-01-31_12h05.46.945,Vis-B-Scan_AC,2022.2.5,None,
0,0.0,None,fixation,stimulus/viswhere_stim/blank_white.png,stimulus/viswhere_stim/blank_white.png,stimulus/viswhat_stim/blank_white.png,stimulus/viswhat_stim/blank_white.png,stimulus/viswhere_stim/blank_white.png,stimulus/viswhere_stim/blank_white.png,stimulus/viswhere_stim/blank_white.png,stimulus/viswhere_stim/blank_white.png,0.0,0.0,0.0,0.0,0,0.0,0,0.0,0,0.0,0,0.0,0,0.0,0.0,0,0.0,0,0.0,0,0.0,0,0.0,0,0,0,0,0,0,0,0,9,,,,,0,61,61,61,,,,,,,,,542.422361417,542.422361417,542.422361417,542.422361417,542.422361417,542.422361417,542.422361417,542.422361417,542.3162383753332,542.422361417,542.422361417,542.422361417,542.3162383753332,542.422361417,542.422361417,542.422361417,542.422361417,542.422361417,542.422361417,542.422361417,542.422361417,542.422361417,542.422361417,542.422361417,542.422361417,542.422361417,542.422361417,542.3829050419998,542.422361417,542.422361417,542.422361417,542.3829050419998,542.422361417,542.422361417,542.422361417,542.422361417,542.422361417,547.6164841250002,547.6164841250002,551.588184959,None,0,,reldom2_s003,001,2025-01-31_12h05.46.945,Vis-B-Scan_AC,2022.2.5,None,
47,Second_Order,8.0,viswhat,stimulus/viswhat_stim/water_animal-seaturtle.png,stimulus/viswhat_stim/water_vehicle-kayak.png,stimulus/viswhat_stim/water_vehicle-motorboatraft.png,stimulus/viswhat_stim/land_vehicle-tank.png,stimulus/viswhere_stim/match_blank.png,stimulus/viswhere_stim/match_box.png,stimulus/viswhere_stim/match_yes.png,stimulus/viswhere_stim/match_no.png,2.0,Match,Location,Type,2,5.125,0,5.125,0,5.125,0,5.125,0,0.75,0.75,1,0.5,1,2.125,1,0.5,1,2.125,0,0,0,0,0,0,0,0,0,,,,,0,62,62,62,,,,,,,,,551.588184959,556.7032569590001,552.0537878750001,553.043824584,553.680830792,554.676868,551.588184959,551.588184959,551.5827968753334,551.588184959,551.588184959,551.588184959,551.5827968753334,551.588184959,556.7032569590001,557.488862875,559.577515209,563.4769421669998,557.488862875,557.488862875,562.630542459,557.9483783750002,558.9721373339999,559.577515209,560.5852770420001,557.488862875,557.488862875,557.4750062503331,557.488862875,557.488862875,557.488862875,557.4750062503331,557.488862875,557.488862875,562.630542459,557.488862875,562.630542459,562.696395084,563.4769421669998,557.488862875,2,1,0.7865715819998513,reldom2_s003,001,2025-01-31_12h05.46.945,Vis-B-Scan_AC,2022.2.5,None,
48,Second_Order,8.0,viswhat,stimulus/viswhat_stim/land_vehicle-rv.png,stimulus/viswhat_stim/water_vehicle-cargoboat.png,stimulus/viswhat_stim/water_animal-squid.png,stimulus/viswhat_stim/land_animal-dog.png,stimulus/viswhere_stim/match_blank.png,stimulus/viswhere_stim/match_box.png,stimulus/viswhere_stim/match_yes.png,stimulus/viswhere_stim/match_no.png,1.0,Match,Type,Type,1,5.125,0,5.125,0,5.125,0,5.125,0,0.625,0.625,1,0.5,1,2.125,1,0.5,1,2.125,0,0,0,0,0,0,0,0,0,,,,,0,63,63,63,,,,,,,,,563.4769421669998,568.597028792,563.9525684169998,564.9502741249999,565.5730570420001,566.5704632090001,563.4769421669998,563.4769421669998,563.4794494999999,563.4769421669998,563.4769421669998,563.4769421669998,563.4794494999999,563.4769421669998,568.597028792,569.2758706670002,571.3796681250001,575.4112096250001,569.2758706670002,569.2758706670002,574.4315432919998,569.7470780839999,570.783704042,571.3796681250001,572.4210531250001,569.2758706670002,569.2758706670002,569.2603862089998,569.2758706670002,569.2758706670002,569.2758706670002,569.2603862089998,569.2758706670002,569.2758706670002,574.4315432919998,569.2758706670002,574.4315432919998,574.4826673339999,575.1245922919998,569.2758706670002,1,1,1.6355649989995982,reldom2_s003,001,2025-01-31_12h05.46.945,Vis-B-Scan_AC,2022.2.5,None,
0,0.0,None,fixation,stimulus/viswhere_stim/blank_white.png,stimulus/viswhere_stim/blank_white.png,stimulus/viswhat_stim/blank_white.png,stimulus/viswhat_stim/blank_white.png,stimulus/viswhere_stim/blank_white.png,stimulus/viswhere_stim/blank_white.png,stimulus/viswhere_stim/blank_white.png,stimulus/viswhere_stim/blank_white.png,0.0,0.0,0.0,0.0,0,0.0,0,0.0,0,0.0,0,0.0,0,0.0,0.0,0,0.0,0,0.0,0,0.0,0,0.0,0,0,0,0,0,0,0,0,16,,,,,0,64,64,64,,,,,,,,,575.4112096250001,575.4112096250001,575.4112096250001,575.4112096250001,575.4112096250001,575.4112096250001,575.4112096250001,575.4112096250001,575.3177695836665,575.4112096250001,575.4112096250001,575.4112096250001,575.3177695836665,575.4112096250001,575.4112096250001,575.4112096250001,575.4112096250001,575.4112096250001,575.4112096250001,575.4112096250001,575.4112096250001,575.4112096250001,575.4112096250001,575.4112096250001,575.4112096250001,575.4112096250001,575.4112096250001,575.3677695836665,575.4112096250001,575.4112096250001,575.4112096250001,575.3677695836665,575.4112096250001,575.4112096250001,575.4112096250001,575.4112096250001,575.4112096250001,580.604255834,580.604255834,591.5539343750002,None,0,,reldom2_s003,001,2025-01-31_12h05.46.945,Vis-B-Scan_AC,2022.2.5,None,
