Trial,Order,Block,Type,Stimuli_File1,Stimuli_File2,Stimuli_File3,Stimuli_File4,Cue_File1,Cue_File2,Response_File_Yes,Response_File_No,Match,Cue_Dimension,Pair1_Dimension,Pair2_Dimension,Key,Cue1_Duration,Cue1_Onset,Cue2_Duration,Cue2_Onset,ResponseYes_Duration,ResponseYes_Onset,ResponseNo_Duration,ResponseNo_Onset,ITI_Within,ITI_Between,Image1_Duration,Image1_Onset,Image2_Duration,Image2_Onset,Image3_Duration,Image3_Onset,Image4_Duration,Image4_Onset,Sound1_Duration,Sound1_Onset,Sound2_Duration,Sound2_Onset,Sound3_Duration,Sound3_Onset,Sound4_Duration,Sound4_Onset,Fixation_Duration,trials_2.thisRepN,trials_2.thisTrialN,trials_2.thisN,trials_2.thisIndex,trials.thisRepN,trials.thisTrialN,trials.thisN,trials.thisIndex,text_start.started,key_resp_start.started,key_resp_start.keys,key_resp_start.rt,text2.started,key_resp_2.started,key_resp_2.keys,key_resp_2.rt,cue_file1.started,cue_file1.stopped,image_1.started,image_1.stopped,image_2.started,image_2.stopped,sound_icon1.started,sound_icon1.stopped,sound_1.started,sound_1.stopped,sound_icon2.started,sound_icon2.stopped,sound_2.started,sound_2.stopped,image_blank_1.started,image_blank_1.stopped,key_press.started,key_press.stopped,fixation_text.started,cue_file2.started,cue_file2.stopped,image_3.started,image_3.stopped,image_4.started,image_4.stopped,sound_icon3.started,sound_icon3.stopped,sound_3.started,sound_3.stopped,sound_icon4.started,sound_icon4.stopped,sound_4.started,sound_4.stopped,response_yes.started,response_yes.stopped,response_no.started,response_no.stopped,iti_blank.started,iti_blank.stopped,fixation_text.stopped,key_press.keys,key_press.corr,key_press.rt,participant,session,date,expName,psychopyVersion,frameRate,
,,,,,,,,,,,,,,,,,,,,,,,,,,,,,,,,,,,,,,,,,,,,,,,,,,,,9.120470541999566,9.120470541999566,2,2.987000041000101,,,,,,,,,,,,,,,,,,,,,,,,,,,,,,,,,,,,,,,,,,,,,,,,reldom2_s003,001,2025-01-31_12h45.06.522,Aud-B-Scan_AC,2022.2.5,None,
,,,,,,,,,,,,,,,,,,,,,,,,,,,,,,,,,,,,,,,,,,,,0,0,0,0,,,,,,,,,12.129506249999395,12.129506249999395,5,16.020988416001273,,,,,,,,,,,,,,,,,,,,,,,,,,,,,,,,,,,,,,,,,,,,reldom2_s003,001,2025-01-31_12h45.06.522,Aud-B-Scan_AC,2022.2.5,None,
,,,,,,,,,,,,,,,,,,,,,,,,,,,,,,,,,,,,,,,,,,,,1,0,1,0,,,,,,,,,28.167230833999383,28.167230833999383,5,1.9837045000003855,,,,,,,,,,,,,,,,,,,,,,,,,,,,,,,,,,,,,,,,,,,,reldom2_s003,001,2025-01-31_12h45.06.522,Aud-B-Scan_AC,2022.2.5,None,
,,,,,,,,,,,,,,,,,,,,,,,,,,,,,,,,,,,,,,,,,,,,2,0,2,0,,,,,,,,,30.163972083999397,30.163972083999397,5,1.9874540410010013,,,,,,,,,,,,,,,,,,,,,,,,,,,,,,,,,,,,,,,,,,,,reldom2_s003,001,2025-01-31_12h45.06.522,Aud-B-Scan_AC,2022.2.5,None,
,,,,,,,,,,,,,,,,,,,,,,,,,,,,,,,,,,,,,,,,,,,,3,0,3,0,,,,,,,,,32.157937166999545,32.157937166999545,5,1.9926341240006877,,,,,,,,,,,,,,,,,,,,,,,,,,,,,,,,,,,,,,,,,,,,reldom2_s003,001,2025-01-31_12h45.06.522,Aud-B-Scan_AC,2022.2.5,None,
0,0.0,None,fixation,stimulus/audwhat_stim/blank_white.png,stimulus/audwhat_stim/blank_white.png,stimulus/audwhere_stim/blank_white.png,stimulus/audwhere_stim/blank_white.png,stimulus/audwhat_stim/blank_white.png,stimulus/audwhat_stim/blank_white.png,stimulus/audwhat_stim/blank_white.png,stimulus/audwhat_stim/blank_white.png,0.0,0.0,0.0,0.0,0,0.0,0,0.0,0,0.0,0,0.0,0,0.0,0.0,0,0,0,0,0,0,0,0,0,0.0,0,0.0,0,0.0,0,0.0,16,,,,,0,0,0,0,,,,,,,,,34.35276829199938,34.35276829199938,34.35276829199938,34.35276829199938,34.35276829199938,34.35276829199938,34.35276829199938,34.35276829199938,34.256428791999134,34.35276829199938,34.35276829199938,34.35276829199938,34.256428791999134,34.35276829199938,34.35276829199938,34.35276829199938,34.35276829199938,34.35276829199938,34.35276829199938,34.35276829199938,34.35276829199938,34.35276829199938,34.35276829199938,34.35276829199938,34.35276829199938,34.35276829199938,34.35276829199938,34.30642879199913,34.35276829199938,34.35276829199938,34.35276829199938,34.30642879199913,34.35276829199938,34.35276829199938,34.35276829199938,34.35276829199938,34.35276829199938,39.572242874999574,39.572242874999574,50.58502637499987,None,0,,reldom2_s003,001,2025-01-31_12h45.06.522,Aud-B-Scan_AC,2022.2.5,None,
1,First_Order,1.0,audwhat,stimulus/audwhat_stim/dummy.wav,stimulus/audwhat_stim/dummy.wav,stimulus/audwhat_stim/string viola_low-pitch_F_loud.wav,stimulus/audwhat_stim/string cello_high-pitch_Dtri_loud.wav,stimulus/audwhat_stim/blank_white.png,stimulus/audwhat_stim/pitch_box.png,stimulus/audwhat_stim/pitch_yes.png,stimulus/audwhat_stim/pitch_no.png,None,Pitch,None,Category,2,0.0,0,5.125,0,5.125,0,5.125,0,0.0,0.625,0,0,0,0,0,0,0,0,0,0.0,0,0.0,1,0.5,1,2.125,0,,,,,0,1,1,1,,,,,,,,,50.58502637499987,50.58502637499987,50.58502637499987,50.58502637499987,50.58502637499987,50.58502637499987,50.58502637499987,50.58502637499987,50.50645087499961,50.58502637499987,50.58502637499987,50.58502637499987,50.50645087499961,50.58502637499987,50.58502637499987,50.58502637499987,52.683040624999194,56.71246658399923,50.58502637499987,50.58502637499987,55.75749349999933,50.58502637499987,50.58502637499987,50.58502637499987,50.58502637499987,51.052412084000025,52.12301320899951,51.02205987566619,,52.683040624999194,53.75615941699925,52.65227204166628,,50.58502637499987,55.75749349999933,50.58502637499987,55.75749349999933,55.798366374999205,56.45717554199928,50.58502637499987,2,1,1.0556137080002372,reldom2_s003,001,2025-01-31_12h45.06.522,Aud-B-Scan_AC,2022.2.5,None,
2,First_Order,1.0,audwhat,stimulus/audwhat_stim/dummy.wav,stimulus/audwhat_stim/dummy.wav,stimulus/audwhat_stim/percussion xylophone_high-pitch_Ftri_loud.wav,stimulus/audwhat_stim/string viola_high-pitch_Ftri_loud.wav,stimulus/audwhat_stim/blank_white.png,stimulus/audwhat_stim/pitch_box.png,stimulus/audwhat_stim/pitch_yes.png,stimulus/audwhat_stim/pitch_no.png,None,Pitch,None,Pitch,1,0.0,0,5.125,0,5.125,0,5.125,0,0.0,0.625,0,0,0,0,0,0,0,0,0,0.0,0,0.0,1,0.5,1,2.125,0,,,,,0,2,2,2,,,,,,,,,56.71246658399923,56.71246658399923,56.71246658399923,56.71246658399923,56.71246658399923,56.71246658399923,56.71246658399923,56.71246658399923,56.630822792332886,56.71246658399923,56.71246658399923,56.71246658399923,56.630822792332886,56.71246658399923,56.71246658399923,56.71246658399923,58.81789241699971,,56.71246658399923,56.71246658399923,61.90365954199933,56.71246658399923,56.71246658399923,56.71246658399923,56.71246658399923,57.17893333399934,58.25798162499996,57.148937500666094,58.21157895899978,58.81789241699971,59.89422212499994,58.78749954166621,,56.71246658399923,61.90365954199933,56.71246658399923,61.90365954199933,61.90365954199933,62.561976249999134,56.71246658399923,2,0,1.266931291000219,reldom2_s003,001,2025-01-31_12h45.06.522,Aud-B-Scan_AC,2022.2.5,None,
3,First_Order,1.0,audwhat,stimulus/audwhat_stim/dummy.wav,stimulus/audwhat_stim/dummy.wav,stimulus/audwhat_stim/string viola_low-pitch_Dtri_loud.wav,stimulus/audwhat_stim/percussion mallet_low-pitch_Dtri_loud.wav,stimulus/audwhat_stim/blank_white.png,stimulus/audwhat_stim/category_box.png,stimulus/audwhat_stim/category_yes.png,stimulus/audwhat_stim/category_no.png,None,Category,None,Pitch,2,0.0,0,5.125,0,5.125,0,5.125,0,0.0,0.625,0,0,0,0,0,0,0,0,0,0.0,0,0.0,1,0.5,1,2.125,0,,,,,0,3,3,3,,,,,,,,,62.819574083999214,62.819574083999214,62.819574083999214,62.819574083999214,62.819574083999214,62.819574083999214,62.819574083999214,62.819574083999214,62.73716191733286,62.819574083999214,62.819574083999214,62.819574083999214,62.73716191733286,62.819574083999214,62.819574083999214,62.819574083999214,64.93527337499927,68.95234049999999,62.819574083999214,62.819574083999214,67.99316541699955,62.819574083999214,62.819574083999214,62.819574083999214,62.819574083999214,63.290466249999554,64.3257559169997,63.26027566666586,,64.93527337499927,65.96992620899982,64.9046328336665,,62.819574083999214,67.99316541699955,62.819574083999214,67.99316541699955,68.03434070899948,68.69437345899951,62.819574083999214,2,1,1.1744569580014286,reldom2_s003,001,2025-01-31_12h45.06.522,Aud-B-Scan_AC,2022.2.5,None,
4,First_Order,1.0,audwhat,stimulus/audwhat_stim/dummy.wav,stimulus/audwhat_stim/dummy.wav,stimulus/audwhat_stim/percussion mallet_low-pitch_D_loud.wav,stimulus/audwhat_stim/percussion xylophone_high-pitch_Dtri_loud.wav,stimulus/audwhat_stim/blank_white.png,stimulus/audwhat_stim/pitch_box.png,stimulus/audwhat_stim/pitch_yes.png,stimulus/audwhat_stim/pitch_no.png,None,Pitch,None,Category,2,0.0,0,5.125,0,5.125,0,5.125,0,0.0,0.625,0,0,0,0,0,0,0,0,0,0.0,0,0.0,1,0.5,1,2.125,0,,,,,0,4,4,4,,,,,,,,,68.95234049999999,68.95234049999999,68.95234049999999,68.95234049999999,68.95234049999999,68.95234049999999,68.95234049999999,68.95234049999999,68.86886225033334,68.95234049999999,68.95234049999999,68.95234049999999,68.86886225033334,68.95234049999999,68.95234049999999,68.95234049999999,71.064979709,75.10519887499959,68.95234049999999,68.95234049999999,74.1228261669994,68.95234049999999,68.95234049999999,68.95234049999999,68.95234049999999,69.42235470899959,70.45651566699962,69.39247970866587,,71.064979709,72.1041905839993,71.03465945866652,72.1041905839993,68.95234049999999,74.1228261669994,68.95234049999999,74.1228261669994,74.16551570899992,74.82568454199918,68.95234049999999,2,1,0.624985791000654,reldom2_s003,001,2025-01-31_12h45.06.522,Aud-B-Scan_AC,2022.2.5,None,
0,0.0,None,fixation,stimulus/audwhat_stim/blank_white.png,stimulus/audwhat_stim/blank_white.png,stimulus/audwhere_stim/blank_white.png,stimulus/audwhere_stim/blank_white.png,stimulus/audwhat_stim/blank_white.png,stimulus/audwhat_stim/blank_white.png,stimulus/audwhat_stim/blank_white.png,stimulus/audwhat_stim/blank_white.png,0.0,0.0,0.0,0.0,0,0.0,0,0.0,0,0.0,0,0.0,0,0.0,0.0,0,0,0,0,0,0,0,0,0,0.0,0,0.0,0,0.0,0,0.0,8,,,,,0,5,5,5,,,,,,,,,75.10519887499959,75.10519887499959,75.10519887499959,75.10519887499959,75.10519887499959,75.10519887499959,75.10519887499959,75.10519887499959,75.0009909173333,75.10519887499959,75.10519887499959,75.10519887499959,75.0009909173333,75.10519887499959,75.10519887499959,75.10519887499959,75.10519887499959,75.10519887499959,75.10519887499959,75.10519887499959,75.10519887499959,75.10519887499959,75.10519887499959,75.10519887499959,75.10519887499959,75.10519887499959,75.10519887499959,75.05099091733331,75.10519887499959,75.10519887499959,75.10519887499959,75.05099091733331,75.10519887499959,75.10519887499959,75.10519887499959,75.10519887499959,75.10519887499959,80.29260591699949,80.29260591699949,83.25529408399962,None,0,,reldom2_s003,001,2025-01-31_12h45.06.522,Aud-B-Scan_AC,2022.2.5,None,
5,Second_Order,1.0,audwhat,stimulus/audwhat_stim/percussion mallet_high-pitch_Dtri_loud.wav,stimulus/audwhat_stim/string cello_high-pitch_Dtri_loud.wav,stimulus/audwhat_stim/string viola_low-pitch_F_loud.wav,stimulus/audwhat_stim/percussion mallet_low-pitch_F_loud.wav,stimulus/audwhat_stim/match_blank.png,stimulus/audwhat_stim/match_box.png,stimulus/audwhat_stim/match_yes.png,stimulus/audwhat_stim/match_no.png,1.0,Match,Pitch,Pitch,1,5.125,0,5.125,0,5.125,0,5.125,0,0.75,0.75,0,0,0,0,0,0,0,0,1,0.5,1,2.125,1,0.5,1,2.125,0,,,,,0,6,6,6,,,,,,,,,83.25529408399962,88.3699289999995,83.25529408399962,83.25529408399962,83.25529408399962,83.25529408399962,83.70775983399926,84.70611099999951,83.720767625666,84.713767792,85.32997470899954,86.32648283399976,85.3413732916663,,88.3699289999995,89.20127229199989,91.26495816699935,,89.20127229199989,89.20127229199989,94.3654769169998,89.20127229199989,89.20127229199989,89.20127229199989,89.20127229199989,89.67037908399925,90.70254495899917,89.63950512566613,,91.26495816699935,92.30135416699977,91.23429745866657,,89.20127229199989,94.3654769169998,89.20127229199989,94.3654769169998,94.40714916699926,,89.20127229199989,1,1,0.8895155820000582,reldom2_s003,001,2025-01-31_12h45.06.522,Aud-B-Scan_AC,2022.2.5,None,
6,Second_Order,1.0,audwhat,stimulus/audwhat_stim/percussion mallet_low-pitch_F_loud.wav,stimulus/audwhat_stim/percussion mallet_high-pitch_Dtri_loud.wav,stimulus/audwhat_stim/string viola_low-pitch_Ftri_loud.wav,stimulus/audwhat_stim/percussion mallet_low-pitch_Ftri_loud.wav,stimulus/audwhat_stim/match_blank.png,stimulus/audwhat_stim/match_box.png,stimulus/audwhat_stim/match_yes.png,stimulus/audwhat_stim/match_no.png,2.0,Match,Category,Pitch,2,5.125,0,5.125,0,5.125,0,5.125,0,0.625,0.625,0,0,0,0,0,0,0,0,1,0.5,1,2.125,1,0.5,1,2.125,0,,,,,0,7,7,7,,,,,,,,,95.18644345899975,100.30900387499969,95.18644345899975,95.18644345899975,95.18644345899975,95.18644345899975,95.63512674999947,96.63365899999917,95.64781429166602,96.6412715839997,97.26853195900003,98.25791862499955,97.27200541666595,98.27081183399969,100.30900387499969,101.02284874999987,103.1267450839996,107.15072220899947,101.02284874999987,101.02284874999987,106.17231041699961,101.02284874999987,101.02284874999987,101.02284874999987,101.02284874999987,101.48984074999953,102.564936709,101.45964133366603,,103.1267450839996,104.15915487499933,103.095958375666,,101.02284874999987,106.17231041699961,101.02284874999987,106.17231041699961,106.2142692919997,106.87304637499983,101.02284874999987,2,1,0.7052806660003625,reldom2_s003,001,2025-01-31_12h45.06.522,Aud-B-Scan_AC,2022.2.5,None,
0,0.0,None,fixation,stimulus/audwhat_stim/blank_white.png,stimulus/audwhat_stim/blank_white.png,stimulus/audwhere_stim/blank_white.png,stimulus/audwhere_stim/blank_white.png,stimulus/audwhat_stim/blank_white.png,stimulus/audwhat_stim/blank_white.png,stimulus/audwhat_stim/blank_white.png,stimulus/audwhat_stim/blank_white.png,0.0,0.0,0.0,0.0,0,0.0,0,0.0,0,0.0,0,0.0,0,0.0,0.0,0,0,0,0,0,0,0,0,0,0.0,0,0.0,0,0.0,0,0.0,10,,,,,0,8,8,8,,,,,,,,,107.15072220899947,107.15072220899947,107.15072220899947,107.15072220899947,107.15072220899947,107.15072220899947,107.15072220899947,107.15072220899947,107.04746729233295,107.15072220899947,107.15072220899947,107.15072220899947,107.04746729233295,107.15072220899947,107.15072220899947,107.15072220899947,107.15072220899947,107.15072220899947,107.15072220899947,107.15072220899947,107.15072220899947,107.15072220899947,107.15072220899947,107.15072220899947,107.15072220899947,107.15072220899947,107.15072220899947,107.09746729233296,107.15072220899947,107.15072220899947,107.15072220899947,107.09746729233296,107.15072220899947,107.15072220899947,107.15072220899947,107.15072220899947,107.15072220899947,112.37918362499931,112.37918362499931,117.38073712499954,None,0,,reldom2_s003,001,2025-01-31_12h45.06.522,Aud-B-Scan_AC,2022.2.5,None,
7,First_Order,2.0,audwhat,stimulus/audwhat_stim/dummy.wav,stimulus/audwhat_stim/dummy.wav,stimulus/audwhat_stim/percussion xylophone_high-pitch_F_loud.wav,stimulus/audwhat_stim/percussion mallet_low-pitch_D_loud.wav,stimulus/audwhat_stim/blank_white.png,stimulus/audwhat_stim/category_box.png,stimulus/audwhat_stim/category_yes.png,stimulus/audwhat_stim/category_no.png,None,Category,None,Category,1,0.0,0,5.125,0,5.125,0,5.125,0,0.0,0.625,0,0,0,0,0,0,0,0,0,0.0,0,0.0,1,0.5,1,2.125,0,,,,,0,9,9,9,,,,,,,,,117.38073712499954,117.38073712499954,117.38073712499954,117.38073712499954,117.38073712499954,117.38073712499954,117.38073712499954,117.38073712499954,117.30441400066654,117.38073712499954,117.38073712499954,117.38073712499954,117.30441400066654,117.38073712499954,117.38073712499954,117.38073712499954,119.46419116699963,123.50127012499979,117.38073712499954,117.38073712499954,122.53725683399989,117.38073712499954,117.38073712499954,117.38073712499954,117.38073712499954,117.85371716699956,118.8972430419999,117.82329645866618,118.8972430419999,119.46419116699963,120.50683983399995,119.43348520866608,,117.38073712499954,122.53725683399989,117.38073712499954,122.53725683399989,122.57932004199938,123.24214358399968,117.38073712499954,1,1,1.7201486660005685,reldom2_s003,001,2025-01-31_12h45.06.522,Aud-B-Scan_AC,2022.2.5,None,
8,First_Order,2.0,audwhat,stimulus/audwhat_stim/dummy.wav,stimulus/audwhat_stim/dummy.wav,stimulus/audwhat_stim/percussion mallet_low-pitch_D_loud.wav,stimulus/audwhat_stim/string viola_low-pitch_D_loud.wav,stimulus/audwhat_stim/blank_white.png,stimulus/audwhat_stim/pitch_box.png,stimulus/audwhat_stim/pitch_yes.png,stimulus/audwhat_stim/pitch_no.png,None,Pitch,None,Pitch,1,0.0,0,5.125,0,5.125,0,5.125,0,0.0,0.625,0,0,0,0,0,0,0,0,0,0.0,0,0.0,1,0.5,1,2.125,0,,,,,0,10,10,10,,,,,,,,,123.50127012499979,123.50127012499979,123.50127012499979,123.50127012499979,123.50127012499979,123.50127012499979,123.50127012499979,123.50127012499979,123.41730362533247,123.50127012499979,123.50127012499979,123.50127012499979,123.41730362533247,123.50127012499979,123.50127012499979,123.50127012499979,125.57604695899954,,123.50127012499979,123.50127012499979,128.6895279169994,123.50127012499979,123.50127012499979,123.50127012499979,123.50127012499979,123.97272579199944,125.0119492089998,123.94205937566609,,125.57604695899954,126.61710574999961,125.54544891666616,,123.50127012499979,128.6895279169994,123.50127012499979,128.6895279169994,128.73135379199994,129.39270079199923,123.50127012499979,2,0,0.9871452070010491,reldom2_s003,001,2025-01-31_12h45.06.522,Aud-B-Scan_AC,2022.2.5,None,
9,First_Order,2.0,audwhat,stimulus/audwhat_stim/dummy.wav,stimulus/audwhat_stim/dummy.wav,stimulus/audwhat_stim/percussion mallet_low-pitch_D_loud.wav,stimulus/audwhat_stim/percussion mallet_high-pitch_Ftri_loud.wav,stimulus/audwhat_stim/blank_white.png,stimulus/audwhat_stim/category_box.png,stimulus/audwhat_stim/category_yes.png,stimulus/audwhat_stim/category_no.png,None,Category,None,Category,1,0.0,0,5.125,0,5.125,0,5.125,0,0.0,0.625,0,0,0,0,0,0,0,0,0,0.0,0,0.0,1,0.5,1,2.125,0,,,,,0,11,11,11,,,,,,,,,129.6099962499993,129.6099962499993,129.6099962499993,129.6099962499993,129.6099962499993,129.6099962499993,129.6099962499993,129.6099962499993,129.5260341253326,129.6099962499993,129.6099962499993,129.6099962499993,129.5260341253326,129.6099962499993,129.6099962499993,129.6099962499993,131.69495629199992,,129.6099962499993,129.6099962499993,134.78261970899985,129.6099962499993,129.6099962499993,129.6099962499993,129.6099962499993,130.0834499169996,131.12913958399986,130.05271620866668,,131.69495629199992,132.74656099999993,131.66384445866632,132.69893604199933,129.6099962499993,134.78261970899985,129.6099962499993,134.78261970899985,134.8244980419995,135.49034254199978,129.6099962499993,1,1,1.114235749000727,reldom2_s003,001,2025-01-31_12h45.06.522,Aud-B-Scan_AC,2022.2.5,None,
10,First_Order,2.0,audwhat,stimulus/audwhat_stim/dummy.wav,stimulus/audwhat_stim/dummy.wav,stimulus/audwhat_stim/string cello_high-pitch_F_loud.wav,stimulus/audwhat_stim/percussion mallet_high-pitch_F_loud.wav,stimulus/audwhat_stim/blank_white.png,stimulus/audwhat_stim/category_box.png,stimulus/audwhat_stim/category_yes.png,stimulus/audwhat_stim/category_no.png,None,Category,None,Pitch,2,0.0,0,5.125,0,5.125,0,5.125,0,0.0,0.625,0,0,0,0,0,0,0,0,0,0.0,0,0.0,1,0.5,1,2.125,0,,,,,0,12,12,12,,,,,,,,,135.714381709,135.714381709,135.714381709,135.714381709,135.714381709,135.714381709,135.714381709,135.714381709,135.62367587533313,135.714381709,135.714381709,135.714381709,135.62367587533313,135.714381709,135.714381709,135.714381709,137.79759370899956,,135.714381709,135.714381709,140.88096724999923,135.714381709,135.714381709,135.714381709,135.714381709,136.18881720899935,137.23084166699937,136.1570583756659,,137.79759370899956,138.84444362499926,137.76661375066604,,135.714381709,140.88096724999923,135.714381709,140.88096724999923,140.92247270899952,141.58849458399982,135.714381709,2,1,0.9818874990005497,reldom2_s003,001,2025-01-31_12h45.06.522,Aud-B-Scan_AC,2022.2.5,None,
0,0.0,None,fixation,stimulus/audwhat_stim/blank_white.png,stimulus/audwhat_stim/blank_white.png,stimulus/audwhere_stim/blank_white.png,stimulus/audwhere_stim/blank_white.png,stimulus/audwhat_stim/blank_white.png,stimulus/audwhat_stim/blank_white.png,stimulus/audwhat_stim/blank_white.png,stimulus/audwhat_stim/blank_white.png,0.0,0.0,0.0,0.0,0,0.0,0,0.0,0,0.0,0,0.0,0,0.0,0.0,0,0,0,0,0,0,0,0,0,0.0,0,0.0,0,0.0,0,0.0,8,,,,,0,13,13,13,,,,,,,,,141.82608137499938,141.82608137499938,141.82608137499938,141.82608137499938,141.82608137499938,141.82608137499938,141.82608137499938,141.82608137499938,141.72182791733317,141.82608137499938,141.82608137499938,141.82608137499938,141.72182791733317,141.82608137499938,141.82608137499938,141.82608137499938,141.82608137499938,141.82608137499938,141.82608137499938,141.82608137499938,141.82608137499938,141.82608137499938,141.82608137499938,141.82608137499938,141.82608137499938,141.82608137499938,141.82608137499938,141.77182791733316,141.82608137499938,141.82608137499938,141.82608137499938,141.77182791733316,141.82608137499938,141.82608137499938,141.82608137499938,141.82608137499938,141.82608137499938,147.0536584169995,147.0536584169995,149.96996316699915,None,0,,reldom2_s003,001,2025-01-31_12h45.06.522,Aud-B-Scan_AC,2022.2.5,None,
11,Second_Order,2.0,audwhat,stimulus/audwhat_stim/string viola_high-pitch_Dtri_loud.wav,stimulus/audwhat_stim/string cello_low-pitch_D_loud.wav,stimulus/audwhat_stim/percussion mallet_high-pitch_Dtri_loud.wav,stimulus/audwhat_stim/percussion mallet_low-pitch_Ftri_loud.wav,stimulus/audwhat_stim/match_blank.png,stimulus/audwhat_stim/match_box.png,stimulus/audwhat_stim/match_yes.png,stimulus/audwhat_stim/match_no.png,1.0,Match,Category,Category,1,5.125,0,5.125,0,5.125,0,5.125,0,0.75,0.75,0,0,0,0,0,0,0,0,1,0.5,1,2.125,1,0.5,1,2.125,0,,,,,0,14,14,14,,,,,,,,,149.96996316699915,155.0898980839993,149.96996316699915,149.96996316699915,149.96996316699915,149.96996316699915,150.42860237499917,151.42652583399922,150.44113895866602,,152.05035883399978,153.04698304199974,152.06185437566663,,155.0898980839993,155.91789691699978,157.9884403749993,,155.91789691699978,155.91789691699978,161.09854687499956,155.91789691699978,155.91789691699978,155.91789691699978,155.91789691699978,156.38962695899954,157.42379341699962,156.35909412566642,,157.9884403749993,159.0302045419994,157.9575595416666,,155.91789691699978,161.09854687499956,155.91789691699978,161.09854687499956,161.14050124999994,,155.91789691699978,1,1,0.7918221250010902,reldom2_s003,001,2025-01-31_12h45.06.522,Aud-B-Scan_AC,2022.2.5,None,
12,Second_Order,2.0,audwhat,stimulus/audwhat_stim/string viola_low-pitch_F_loud.wav,stimulus/audwhat_stim/string viola_high-pitch_Ftri_loud.wav,stimulus/audwhat_stim/percussion mallet_low-pitch_Ftri_loud.wav,stimulus/audwhat_stim/percussion xylophone_high-pitch_Dtri_loud.wav,stimulus/audwhat_stim/match_blank.png,stimulus/audwhat_stim/match_box.png,stimulus/audwhat_stim/match_yes.png,stimulus/audwhat_stim/match_no.png,1.0,Match,Category,Category,1,5.125,0,5.125,0,5.125,0,5.125,0,0.625,0.625,0,0,0,0,0,0,0,0,1,0.5,1,2.125,1,0.5,1,2.125,0,,,,,0,15,15,15,,,,,,,,,161.92335616699984,167.0463067089995,161.92335616699984,161.92335616699984,161.92335616699984,161.92335616699984,162.3733831669997,163.3708292499996,162.38613554166594,,164.0058780419995,164.99546250000003,164.00970037566665,,167.0463067089995,167.76394933399934,169.82403583399991,,167.76394933399934,167.76394933399934,172.9337108339996,167.76394933399934,167.76394933399934,167.76394933399934,167.76394933399934,168.2330224999996,169.30860358399968,168.20278158366662,,169.82403583399991,170.86784487499972,169.7932034586659,170.86784487499972,167.76394933399934,172.9337108339996,167.76394933399934,172.9337108339996,172.97548262499913,173.63651949999985,167.76394933399934,2,0,0.7833412910013067,reldom2_s003,001,2025-01-31_12h45.06.522,Aud-B-Scan_AC,2022.2.5,None,
0,0.0,None,fixation,stimulus/audwhat_stim/blank_white.png,stimulus/audwhat_stim/blank_white.png,stimulus/audwhere_stim/blank_white.png,stimulus/audwhere_stim/blank_white.png,stimulus/audwhat_stim/blank_white.png,stimulus/audwhat_stim/blank_white.png,stimulus/audwhat_stim/blank_white.png,stimulus/audwhat_stim/blank_white.png,0.0,0.0,0.0,0.0,0,0.0,0,0.0,0,0.0,0,0.0,0,0.0,0.0,0,0,0,0,0,0,0,0,0,0.0,0,0.0,0,0.0,0,0.0,9,,,,,0,16,16,16,,,,,,,,,173.8765102089992,173.8765102089992,173.8765102089992,173.8765102089992,173.8765102089992,173.8765102089992,173.8765102089992,173.8765102089992,173.7698528333332,173.8765102089992,173.8765102089992,173.8765102089992,173.7698528333332,173.8765102089992,173.8765102089992,173.8765102089992,173.8765102089992,173.8765102089992,173.8765102089992,173.8765102089992,173.8765102089992,173.8765102089992,173.8765102089992,173.8765102089992,173.8765102089992,173.8765102089992,173.8765102089992,173.83651949999987,173.8765102089992,173.8765102089992,173.8765102089992,173.83651949999987,173.8765102089992,173.8765102089992,173.8765102089992,173.8765102089992,173.8765102089992,179.07584687500002,179.07584687500002,183.11124674999974,None,0,,reldom2_s003,001,2025-01-31_12h45.06.522,Aud-B-Scan_AC,2022.2.5,None,
13,First_Order,3.0,audwhere,stimulus/audwhere_stim/dummy.wav,stimulus/audwhere_stim/dummy.wav,stimulus/audwhere_stim/left_toward_290h.wav,stimulus/audwhere_stim/right_toward_280h.wav,stimulus/audwhere_stim/blank_white.png,stimulus/audwhere_stim/direction_box.png,stimulus/audwhere_stim/direction_yes.png,stimulus/audwhere_stim/direction_no.png,None,Direction,None,Direction,1,0.0,0,5.125,0,5.125,0,5.125,0,0.0,0.625,0,0,0,0,0,0,0,0,0,0.0,0,0.0,1,0.5,1,2.125,0,,,,,0,17,17,17,,,,,,,,,183.11124674999974,183.11124674999974,183.11124674999974,183.11124674999974,183.11124674999974,183.11124674999974,183.11124674999974,183.11124674999974,183.03466550066668,183.11124674999974,183.11124674999974,183.11124674999974,183.03466550066668,183.11124674999974,183.11124674999974,183.11124674999974,185.19793645899972,189.23810404199958,183.11124674999974,183.11124674999974,188.2740963339993,183.11124674999974,183.11124674999974,183.11124674999974,183.11124674999974,183.58593733399994,184.63084154199987,183.5549368336663,,185.19793645899972,186.24285704199974,185.16672370866607,,183.11124674999974,188.2740963339993,183.11124674999974,188.2740963339993,188.315756084,188.9800777089995,183.11124674999974,1,1,1.4103974570007267,reldom2_s003,001,2025-01-31_12h45.06.522,Aud-B-Scan_AC,2022.2.5,None,
14,First_Order,3.0,audwhere,stimulus/audwhere_stim/dummy.wav,stimulus/audwhere_stim/dummy.wav,stimulus/audwhere_stim/left_toward_270h.wav,stimulus/audwhere_stim/right_toward_290h.wav,stimulus/audwhere_stim/blank_white.png,stimulus/audwhere_stim/direction_box.png,stimulus/audwhere_stim/direction_yes.png,stimulus/audwhere_stim/direction_no.png,None,Direction,None,Direction,1,0.0,0,5.125,0,5.125,0,5.125,0,0.0,0.625,0,0,0,0,0,0,0,0,0,0.0,0,0.0,1,0.5,1,2.125,0,,,,,0,18,18,18,,,,,,,,,189.23810404199958,189.23810404199958,189.23810404199958,189.23810404199958,189.23810404199958,189.23810404199958,189.23810404199958,189.23810404199958,189.15452995833326,189.23810404199958,189.23810404199958,189.23810404199958,189.15452995833326,189.23810404199958,189.23810404199958,189.23810404199958,191.32991383399985,,189.23810404199958,189.23810404199958,194.41669820899915,189.23810404199958,189.23810404199958,189.23810404199958,189.23810404199958,189.71293912499914,190.76301512499958,189.68188229166597,190.71591491699928,191.32991383399985,192.3819926669994,191.29904525066584,192.33429233399966,189.23810404199958,194.41669820899915,189.23810404199958,194.41669820899915,194.45886866699948,195.1252289999993,189.23810404199958,1,1,0.991657457000656,reldom2_s003,001,2025-01-31_12h45.06.522,Aud-B-Scan_AC,2022.2.5,None,
15,First_Order,3.0,audwhere,stimulus/audwhere_stim/dummy.wav,stimulus/audwhere_stim/dummy.wav,stimulus/audwhere_stim/left_away_290h.wav,stimulus/audwhere_stim/left_toward_280h.wav,stimulus/audwhere_stim/blank_white.png,stimulus/audwhere_stim/direction_box.png,stimulus/audwhere_stim/direction_yes.png,stimulus/audwhere_stim/direction_no.png,None,Direction,None,Side,2,0.0,0,5.125,0,5.125,0,5.125,0,0.0,0.625,0,0,0,0,0,0,0,0,0,0.0,0,0.0,1,0.5,1,2.125,0,,,,,0,19,19,19,,,,,,,,,195.34590633399966,195.34590633399966,195.34590633399966,195.34590633399966,195.34590633399966,195.34590633399966,195.34590633399966,195.34590633399966,195.25856233333266,195.34590633399966,195.34590633399966,195.34590633399966,195.25856233333266,195.34590633399966,195.34590633399966,195.34590633399966,197.43273174999922,,195.34590633399966,195.34590633399966,200.51938224999958,195.34590633399966,195.34590633399966,195.34590633399966,195.34590633399966,195.82042,196.86380770899996,195.78943595866647,,197.43273174999922,198.4854575419995,197.40147358366656,198.43808091699975,195.34590633399966,200.51938224999958,195.34590633399966,200.51938224999958,200.560863875,201.2267723749992,195.34590633399966,2,1,0.9157223750007688,reldom2_s003,001,2025-01-31_12h45.06.522,Aud-B-Scan_AC,2022.2.5,None,
16,First_Order,3.0,audwhere,stimulus/audwhere_stim/dummy.wav,stimulus/audwhere_stim/dummy.wav,stimulus/audwhere_stim/left_toward_300h.wav,stimulus/audwhere_stim/left_away_290h.wav,stimulus/audwhere_stim/blank_white.png,stimulus/audwhere_stim/direction_box.png,stimulus/audwhere_stim/direction_yes.png,stimulus/audwhere_stim/direction_no.png,None,Direction,None,Side,2,0.0,0,5.125,0,5.125,0,5.125,0,0.0,0.625,0,0,0,0,0,0,0,0,0,0.0,0,0.0,1,0.5,1,2.125,0,,,,,0,20,20,20,,,,,,,,,201.44821166699967,201.44821166699967,201.44821166699967,201.44821166699967,201.44821166699967,201.44821166699967,201.44821166699967,201.44821166699967,201.36010570833255,201.44821166699967,201.44821166699967,201.44821166699967,201.36010570833255,201.44821166699967,201.44821166699967,201.44821166699967,203.53704874999949,,201.44821166699967,201.44821166699967,206.6171693339993,201.44821166699967,201.44821166699967,201.44821166699967,201.44821166699967,201.92277224999998,202.967319417,201.8918534586667,,203.53704874999949,204.5837539589993,203.5061809586662,,201.44821166699967,206.6171693339993,201.44821166699967,206.6171693339993,206.65914470899952,207.32603866699992,201.44821166699967,2,1,0.9641155820008862,reldom2_s003,001,2025-01-31_12h45.06.522,Aud-B-Scan_AC,2022.2.5,None,
0,0.0,None,fixation,stimulus/audwhat_stim/blank_white.png,stimulus/audwhat_stim/blank_white.png,stimulus/audwhere_stim/blank_white.png,stimulus/audwhere_stim/blank_white.png,stimulus/audwhat_stim/blank_white.png,stimulus/audwhat_stim/blank_white.png,stimulus/audwhat_stim/blank_white.png,stimulus/audwhat_stim/blank_white.png,0.0,0.0,0.0,0.0,0,0.0,0,0.0,0,0.0,0,0.0,0,0.0,0.0,0,0,0,0,0,0,0,0,0,0.0,0,0.0,0,0.0,0,0.0,10,,,,,0,21,21,21,,,,,,,,,207.56515916699936,207.56515916699936,207.56515916699936,207.56515916699936,207.56515916699936,207.56515916699936,207.56515916699936,207.56515916699936,207.45937200033327,207.56515916699936,207.56515916699936,207.56515916699936,207.45937200033327,207.56515916699936,207.56515916699936,207.56515916699936,207.56515916699936,207.56515916699936,207.56515916699936,207.56515916699936,207.56515916699936,207.56515916699936,207.56515916699936,207.56515916699936,207.56515916699936,207.56515916699936,207.56515916699936,207.50937200033326,207.56515916699936,207.56515916699936,207.56515916699936,207.50937200033326,207.56515916699936,207.56515916699936,207.56515916699936,207.56515916699936,207.56515916699936,212.7950192089993,212.7950192089993,217.72934124999938,None,0,,reldom2_s003,001,2025-01-31_12h45.06.522,Aud-B-Scan_AC,2022.2.5,None,
17,Second_Order,3.0,audwhere,stimulus/audwhere_stim/right_toward_290h.wav,stimulus/audwhere_stim/right_away_290h.wav,stimulus/audwhere_stim/right_away_280h.wav,stimulus/audwhere_stim/left_away_300h.wav,stimulus/audwhat_stim/match_blank.png,stimulus/audwhat_stim/match_box.png,stimulus/audwhat_stim/match_yes.png,stimulus/audwhat_stim/match_no.png,2.0,Match,Side,Direction,2,5.125,0,5.125,0,5.125,0,5.125,0,0.75,0.75,0,0,0,0,0,0,0,0,1,0.5,1,2.125,1,0.5,1,2.125,0,,,,,0,22,22,22,,,,,,,,,217.72934124999938,222.84593399999994,217.72934124999938,217.72934124999938,217.72934124999938,217.72934124999938,218.18591066699992,219.18294266699922,218.1977510006666,219.1910309169998,219.8057912919994,220.80338474999917,219.81780020866634,220.81140679199962,222.84593399999994,223.6727809999993,225.7501922499996,229.68729341699964,223.6727809999993,223.6727809999993,228.86371633399995,223.6727809999993,223.6727809999993,223.6727809999993,223.6727809999993,224.14569208399917,225.18590558399956,224.11464745866604,,225.7501922499996,226.79420112499974,225.71966291666584,,223.6727809999993,228.86371633399995,223.6727809999993,228.86371633399995,228.86371633399995,,223.6727809999993,2,1,0.7722355410005548,reldom2_s003,001,2025-01-31_12h45.06.522,Aud-B-Scan_AC,2022.2.5,None,
18,Second_Order,3.0,audwhere,stimulus/audwhere_stim/right_toward_270h.wav,stimulus/audwhere_stim/left_toward_270h.wav,stimulus/audwhere_stim/right_away_300h.wav,stimulus/audwhere_stim/left_away_280h.wav,stimulus/audwhat_stim/match_blank.png,stimulus/audwhat_stim/match_box.png,stimulus/audwhat_stim/match_yes.png,stimulus/audwhat_stim/match_no.png,1.0,Match,Direction,Direction,1,5.125,0,5.125,0,5.125,0,5.125,0,0.625,0.625,0,0,0,0,0,0,0,0,1,0.5,1,2.125,1,0.5,1,2.125,0,,,,,0,23,23,23,,,,,,,,,229.68729341699964,234.8070863339999,229.68729341699964,229.68729341699964,229.68729341699964,229.68729341699964,230.14495087499927,231.13180362499952,230.1581967916666,231.15418474999933,231.76661358399997,232.76449245899948,231.7788206666667,232.7718057919992,234.8070863339999,235.51961358399967,237.58758729199963,,235.51961358399967,235.51961358399967,240.6971343339992,235.51961358399967,235.51961358399967,235.51961358399967,235.51961358399967,235.98889058399982,237.02533645899985,235.95857012566583,,237.58758729199963,238.6272844999994,237.5575185006667,,235.51961358399967,240.6971343339992,235.51961358399967,240.6971343339992,240.6971343339992,241.3589614169996,235.51961358399967,1,1,0.8953707490009037,reldom2_s003,001,2025-01-31_12h45.06.522,Aud-B-Scan_AC,2022.2.5,None,
0,0.0,None,fixation,stimulus/audwhat_stim/blank_white.png,stimulus/audwhat_stim/blank_white.png,stimulus/audwhere_stim/blank_white.png,stimulus/audwhere_stim/blank_white.png,stimulus/audwhat_stim/blank_white.png,stimulus/audwhat_stim/blank_white.png,stimulus/audwhat_stim/blank_white.png,stimulus/audwhat_stim/blank_white.png,0.0,0.0,0.0,0.0,0,0.0,0,0.0,0,0.0,0,0.0,0,0.0,0.0,0,0,0,0,0,0,0,0,0,0.0,0,0.0,0,0.0,0,0.0,8,,,,,0,24,24,24,,,,,,,,,241.63878962499984,241.63878962499984,241.63878962499984,241.63878962499984,241.63878962499984,241.63878962499984,241.63878962499984,241.63878962499984,241.53377316733273,241.63878962499984,241.63878962499984,241.63878962499984,241.53377316733273,241.63878962499984,241.63878962499984,241.63878962499984,241.63878962499984,241.63878962499984,241.63878962499984,241.63878962499984,241.63878962499984,241.63878962499984,241.63878962499984,241.63878962499984,241.63878962499984,241.63878962499984,241.63878962499984,241.5837731673327,241.63878962499984,241.63878962499984,241.63878962499984,241.5837731673327,241.63878962499984,241.63878962499984,241.63878962499984,241.63878962499984,241.63878962499984,246.834512292,246.834512292,249.89809087499998,None,0,,reldom2_s003,001,2025-01-31_12h45.06.522,Aud-B-Scan_AC,2022.2.5,None,
19,First_Order,4.0,audwhere,stimulus/audwhere_stim/dummy.wav,stimulus/audwhere_stim/dummy.wav,stimulus/audwhere_stim/right_toward_280h.wav,stimulus/audwhere_stim/left_toward_280h.wav,stimulus/audwhere_stim/blank_white.png,stimulus/audwhere_stim/side_box.png,stimulus/audwhere_stim/side_yes.png,stimulus/audwhere_stim/side_no.png,None,Side,None,Direction,2,0.0,0,5.125,0,5.125,0,5.125,0,0.0,0.625,0,0,0,0,0,0,0,0,0,0.0,0,0.0,1,0.5,1,2.125,0,,,,,0,25,25,25,,,,,,,,,249.89809087499998,249.89809087499998,249.89809087499998,249.89809087499998,249.89809087499998,249.89809087499998,249.89809087499998,249.89809087499998,249.82194933366617,249.89809087499998,249.89809087499998,249.89809087499998,249.82194933366617,249.89809087499998,249.89809087499998,249.89809087499998,251.97185083399927,,249.89809087499998,249.89809087499998,255.08265620899965,249.89809087499998,249.89809087499998,249.89809087499998,249.89809087499998,250.3714549589995,251.40729241699955,250.34098350066623,,251.97185083399927,253.01251262499954,251.9412301256664,,249.89809087499998,255.08265620899965,249.89809087499998,255.08265620899965,255.1240317089996,255.78692691699962,249.89809087499998,2,1,0.9748463750011069,reldom2_s003,001,2025-01-31_12h45.06.522,Aud-B-Scan_AC,2022.2.5,None,
20,First_Order,4.0,audwhere,stimulus/audwhere_stim/dummy.wav,stimulus/audwhere_stim/dummy.wav,stimulus/audwhere_stim/left_toward_290h.wav,stimulus/audwhere_stim/right_toward_270h.wav,stimulus/audwhere_stim/blank_white.png,stimulus/audwhere_stim/side_box.png,stimulus/audwhere_stim/side_yes.png,stimulus/audwhere_stim/side_no.png,None,Side,None,Direction,2,0.0,0,5.125,0,5.125,0,5.125,0,0.0,0.625,0,0,0,0,0,0,0,0,0,0.0,0,0.0,1,0.5,1,2.125,0,,,,,0,26,26,26,,,,,,,,,256.00778545899993,256.00778545899993,256.00778545899993,256.00778545899993,256.00778545899993,256.00778545899993,256.00778545899993,256.00778545899993,255.92026025033297,256.00778545899993,256.00778545899993,256.00778545899993,255.92026025033297,256.00778545899993,256.00778545899993,256.00778545899993,258.0805853339998,,256.00778545899993,256.00778545899993,261.1923859169992,256.00778545899993,256.00778545899993,256.00778545899993,256.00778545899993,256.4809609999993,257.51647833399966,256.4502297086658,,258.0805853339998,259.12008620899996,258.04977879166586,,256.00778545899993,261.1923859169992,256.00778545899993,261.1923859169992,261.23438066699964,261.8975038339995,256.00778545899993,2,1,1.164657125001213,reldom2_s003,001,2025-01-31_12h45.06.522,Aud-B-Scan_AC,2022.2.5,None,
21,First_Order,4.0,audwhere,stimulus/audwhere_stim/dummy.wav,stimulus/audwhere_stim/dummy.wav,stimulus/audwhere_stim/left_toward_270h.wav,stimulus/audwhere_stim/left_away_300h.wav,stimulus/audwhere_stim/blank_white.png,stimulus/audwhere_stim/side_box.png,stimulus/audwhere_stim/side_yes.png,stimulus/audwhere_stim/side_no.png,None,Side,None,Side,1,0.0,0,5.125,0,5.125,0,5.125,0,0.0,0.625,0,0,0,0,0,0,0,0,0,0.0,0,0.0,1,0.5,1,2.125,0,,,,,0,27,27,27,,,,,,,,,262.1135999999997,262.1135999999997,262.1135999999997,262.1135999999997,262.1135999999997,262.1135999999997,262.1135999999997,262.1135999999997,262.03083716733283,262.1135999999997,262.1135999999997,262.1135999999997,262.03083716733283,262.1135999999997,262.1135999999997,262.1135999999997,264.1862274589994,,262.1135999999997,262.1135999999997,267.29825245899974,262.1135999999997,262.1135999999997,262.1135999999997,262.1135999999997,262.58617195899933,263.62089712499983,262.55554741666606,,264.1862274589994,265.22666649999974,264.15411591666657,,262.1135999999997,267.29825245899974,262.1135999999997,267.29825245899974,267.33980599999995,268.00166312499914,262.1135999999997,1,1,0.8302559160010787,reldom2_s003,001,2025-01-31_12h45.06.522,Aud-B-Scan_AC,2022.2.5,None,
22,First_Order,4.0,audwhere,stimulus/audwhere_stim/dummy.wav,stimulus/audwhere_stim/dummy.wav,stimulus/audwhere_stim/left_away_290h.wav,stimulus/audwhere_stim/left_toward_270h.wav,stimulus/audwhere_stim/blank_white.png,stimulus/audwhere_stim/side_box.png,stimulus/audwhere_stim/side_yes.png,stimulus/audwhere_stim/side_no.png,None,Side,None,Side,1,0.0,0,5.125,0,5.125,0,5.125,0,0.0,0.625,0,0,0,0,0,0,0,0,0,0.0,0,0.0,1,0.5,1,2.125,0,,,,,0,28,28,28,,,,,,,,,268.2195232919994,268.2195232919994,268.2195232919994,268.2195232919994,268.2195232919994,268.2195232919994,268.2195232919994,268.2195232919994,268.13499645833247,268.2195232919994,268.2195232919994,268.2195232919994,268.13499645833247,268.2195232919994,268.2195232919994,268.2195232919994,270.29623787499986,,268.2195232919994,268.2195232919994,273.4095587089996,268.2195232919994,268.2195232919994,268.2195232919994,268.2195232919994,268.69296462499915,269.7286104169998,268.66206687566614,,270.29623787499986,271.33481433399993,270.2657456666659,,268.2195232919994,273.4095587089996,268.2195232919994,273.4095587089996,273.4095587089996,274.0731328339998,268.2195232919994,1,1,1.1608190410015595,reldom2_s003,001,2025-01-31_12h45.06.522,Aud-B-Scan_AC,2022.2.5,None,
0,0.0,None,fixation,stimulus/audwhat_stim/blank_white.png,stimulus/audwhat_stim/blank_white.png,stimulus/audwhere_stim/blank_white.png,stimulus/audwhere_stim/blank_white.png,stimulus/audwhat_stim/blank_white.png,stimulus/audwhat_stim/blank_white.png,stimulus/audwhat_stim/blank_white.png,stimulus/audwhat_stim/blank_white.png,0.0,0.0,0.0,0.0,0,0.0,0,0.0,0,0.0,0,0.0,0,0.0,0.0,0,0,0,0,0,0,0,0,0,0.0,0,0.0,0,0.0,0,0.0,10,,,,,0,29,29,29,,,,,,,,,274.35933504199966,274.35933504199966,274.35933504199966,274.35933504199966,274.35933504199966,274.35933504199966,274.35933504199966,274.35933504199966,274.24775229233285,274.35933504199966,274.35933504199966,274.35933504199966,274.24775229233285,274.35933504199966,274.35933504199966,274.35933504199966,274.35933504199966,274.35933504199966,274.35933504199966,274.35933504199966,274.35933504199966,274.35933504199966,274.35933504199966,274.35933504199966,274.35933504199966,274.35933504199966,274.35933504199966,274.3144189589995,274.35933504199966,274.35933504199966,274.35933504199966,274.3144189589995,274.35933504199966,274.35933504199966,274.35933504199966,274.35933504199966,274.35933504199966,279.58488874999966,279.58488874999966,284.52098662499975,None,0,,reldom2_s003,001,2025-01-31_12h45.06.522,Aud-B-Scan_AC,2022.2.5,None,
23,Second_Order,4.0,audwhere,stimulus/audwhere_stim/right_toward_300h.wav,stimulus/audwhere_stim/left_toward_270h.wav,stimulus/audwhere_stim/left_away_300h.wav,stimulus/audwhere_stim/right_away_300h.wav,stimulus/audwhat_stim/match_blank.png,stimulus/audwhat_stim/match_box.png,stimulus/audwhat_stim/match_yes.png,stimulus/audwhat_stim/match_no.png,1.0,Match,Direction,Direction,1,5.125,0,5.125,0,5.125,0,5.125,0,0.75,0.75,0,0,0,0,0,0,0,0,1,0.5,1,2.125,1,0.5,1,2.125,0,,,,,0,30,30,30,,,,,,,,,284.52098662499975,289.6330509999998,284.52098662499975,284.52098662499975,284.52098662499975,284.52098662499975,284.98513070899935,285.9783716669999,284.98595745866646,285.9783716669999,286.60558387499987,287.5946061249997,286.60963050066607,287.6074450419992,289.6330509999998,290.46316212499914,292.53806854199956,296.4792708339992,290.46316212499914,290.46316212499914,295.65171179199933,290.46316212499914,290.46316212499914,290.46316212499914,290.46316212499914,290.9353629999996,291.97187629199925,290.90459587566625,,292.53806854199956,293.57868999999937,292.5076899166663,,290.46316212499914,295.65171179199933,290.46316212499914,295.65171179199933,295.65171179199933,,290.46316212499914,1,1,0.8355837490007616,reldom2_s003,001,2025-01-31_12h45.06.522,Aud-B-Scan_AC,2022.2.5,None,
24,Second_Order,4.0,audwhere,stimulus/audwhere_stim/right_toward_300h.wav,stimulus/audwhere_stim/left_toward_300h.wav,stimulus/audwhere_stim/left_away_290h.wav,stimulus/audwhere_stim/right_away_280h.wav,stimulus/audwhat_stim/match_blank.png,stimulus/audwhat_stim/match_box.png,stimulus/audwhat_stim/match_yes.png,stimulus/audwhat_stim/match_no.png,1.0,Match,Direction,Direction,1,5.125,0,5.125,0,5.125,0,5.125,0,0.625,0.625,0,0,0,0,0,0,0,0,1,0.5,1,2.125,1,0.5,1,2.125,0,,,,,0,31,31,31,,,,,,,,,296.4792708339992,301.59632120899914,296.4792708339992,296.4792708339992,296.4792708339992,296.4792708339992,296.9331320839992,297.9315001669993,296.9454735836664,297.93962929199915,298.5539130419993,299.552034542,298.5660830416666,299.5599036249996,301.59632120899914,302.301419292,304.371191792,,302.301419292,302.301419292,307.48036579199925,302.301419292,302.301419292,302.301419292,302.301419292,302.7699658339998,303.8051374589995,302.7395300006658,,304.371191792,305.4072234999994,304.34072400066657,,302.301419292,307.48036579199925,302.301419292,307.48036579199925,307.52224012499937,308.18614779199925,302.301419292,1,1,1.271559582000009,reldom2_s003,001,2025-01-31_12h45.06.522,Aud-B-Scan_AC,2022.2.5,None,
0,0.0,None,fixation,stimulus/audwhat_stim/blank_white.png,stimulus/audwhat_stim/blank_white.png,stimulus/audwhere_stim/blank_white.png,stimulus/audwhere_stim/blank_white.png,stimulus/audwhat_stim/blank_white.png,stimulus/audwhat_stim/blank_white.png,stimulus/audwhat_stim/blank_white.png,stimulus/audwhat_stim/blank_white.png,0.0,0.0,0.0,0.0,0,0.0,0,0.0,0,0.0,0,0.0,0,0.0,0.0,0,0,0,0,0,0,0,0,0,0.0,0,0.0,0,0.0,0,0.0,9,,,,,0,32,32,32,,,,,,,,,308.42478674999984,308.42478674999984,308.42478674999984,308.42478674999984,308.42478674999984,308.42478674999984,308.42478674999984,308.42478674999984,308.3194811253326,308.42478674999984,308.42478674999984,308.42478674999984,308.3194811253326,308.42478674999984,308.42478674999984,308.42478674999984,308.42478674999984,308.42478674999984,308.42478674999984,308.42478674999984,308.42478674999984,308.42478674999984,308.42478674999984,308.42478674999984,308.42478674999984,308.42478674999984,308.42478674999984,308.3694811253326,308.42478674999984,308.42478674999984,308.42478674999984,308.3694811253326,308.42478674999984,308.42478674999984,308.42478674999984,308.42478674999984,308.42478674999984,313.6313704589993,313.6313704589993,317.6812528749997,None,0,,reldom2_s003,001,2025-01-31_12h45.06.522,Aud-B-Scan_AC,2022.2.5,None,
25,First_Order,5.0,audwhat,stimulus/audwhat_stim/dummy.wav,stimulus/audwhat_stim/dummy.wav,stimulus/audwhat_stim/percussion xylophone_high-pitch_Ftri_loud.wav,stimulus/audwhat_stim/percussion mallet_low-pitch_F_loud.wav,stimulus/audwhat_stim/blank_white.png,stimulus/audwhat_stim/pitch_box.png,stimulus/audwhat_stim/pitch_yes.png,stimulus/audwhat_stim/pitch_no.png,None,Pitch,None,Category,2,0.0,0,5.125,0,5.125,0,5.125,0,0.0,0.625,0,0,0,0,0,0,0,0,0,0.0,0,0.0,1,0.5,1,2.125,0,,,,,0,33,33,33,,,,,,,,,317.6812528749997,317.6812528749997,317.6812528749997,317.6812528749997,317.6812528749997,317.6812528749997,317.6812528749997,317.6812528749997,317.60261645866615,317.6812528749997,317.6812528749997,317.6812528749997,317.60261645866615,317.6812528749997,317.6812528749997,317.6812528749997,319.7631792919992,323.7955273339994,317.6812528749997,317.6812528749997,322.833034667,317.6812528749997,317.6812528749997,317.6812528749997,317.6812528749997,318.15569754199987,319.19787941699997,318.124243708666,319.19787941699997,319.7631792919992,320.80570733399964,319.7323082506666,,317.6812528749997,322.833034667,317.6812528749997,322.833034667,322.87490108399925,323.5375830839994,317.6812528749997,2,1,0.7302550410004187,reldom2_s003,001,2025-01-31_12h45.06.522,Aud-B-Scan_AC,2022.2.5,None,
26,First_Order,5.0,audwhat,stimulus/audwhat_stim/dummy.wav,stimulus/audwhat_stim/dummy.wav,stimulus/audwhat_stim/percussion mallet_low-pitch_Dtri_loud.wav,stimulus/audwhat_stim/percussion xylophone_high-pitch_Ftri_loud.wav,stimulus/audwhat_stim/blank_white.png,stimulus/audwhat_stim/category_box.png,stimulus/audwhat_stim/category_yes.png,stimulus/audwhat_stim/category_no.png,None,Category,None,Category,1,0.0,0,5.125,0,5.125,0,5.125,0,0.0,0.625,0,0,0,0,0,0,0,0,0,0.0,0,0.0,1,0.5,1,2.125,0,,,,,0,34,34,34,,,,,,,,,323.7955273339994,323.7955273339994,323.7955273339994,323.7955273339994,323.7955273339994,323.7955273339994,323.7955273339994,323.7955273339994,323.7116782083332,323.7955273339994,323.7955273339994,323.7955273339994,323.7116782083332,323.7955273339994,323.7955273339994,323.7955273339994,325.88518345899956,,323.7955273339994,323.7955273339994,328.9693099999995,323.7955273339994,323.7955273339994,323.7955273339994,323.7955273339994,324.272072834,325.3169632499994,324.24075683366596,,325.88518345899956,326.9367444589998,325.8541625006658,326.8889516669997,323.7955273339994,328.9693099999995,323.7955273339994,328.9693099999995,329.0110759999998,329.67685979199996,323.7955273339994,1,1,0.8263011240005653,reldom2_s003,001,2025-01-31_12h45.06.522,Aud-B-Scan_AC,2022.2.5,None,
27,First_Order,5.0,audwhat,stimulus/audwhat_stim/dummy.wav,stimulus/audwhat_stim/dummy.wav,stimulus/audwhat_stim/string cello_low-pitch_Dtri_loud.wav,stimulus/audwhat_stim/percussion mallet_low-pitch_Dtri_loud.wav,stimulus/audwhat_stim/blank_white.png,stimulus/audwhat_stim/pitch_box.png,stimulus/audwhat_stim/pitch_yes.png,stimulus/audwhat_stim/pitch_no.png,None,Pitch,None,Pitch,1,0.0,0,5.125,0,5.125,0,5.125,0,0.0,0.625,0,0,0,0,0,0,0,0,0,0.0,0,0.0,1,0.5,1,2.125,0,,,,,0,35,35,35,,,,,,,,,329.8948904589997,329.8948904589997,329.8948904589997,329.8948904589997,329.8948904589997,329.8948904589997,329.8948904589997,329.8948904589997,329.8101931253333,329.8948904589997,329.8948904589997,329.8948904589997,329.8101931253333,329.8948904589997,329.8948904589997,329.8948904589997,331.9750112499996,336.0129894169995,329.8948904589997,329.8948904589997,335.04707908399996,329.8948904589997,329.8948904589997,329.8948904589997,329.8948904589997,330.3697480419996,331.4091032919996,330.33917783366655,,331.9750112499996,333.0194486249993,331.94439037566667,,329.8948904589997,335.04707908399996,329.8948904589997,335.04707908399996,335.0893045419998,335.753350125,329.8948904589997,1,1,0.8793994580009894,reldom2_s003,001,2025-01-31_12h45.06.522,Aud-B-Scan_AC,2022.2.5,None,
28,First_Order,5.0,audwhat,stimulus/audwhat_stim/dummy.wav,stimulus/audwhat_stim/dummy.wav,stimulus/audwhat_stim/percussion xylophone_high-pitch_Ftri_loud.wav,stimulus/audwhat_stim/percussion mallet_low-pitch_F_loud.wav,stimulus/audwhat_stim/blank_white.png,stimulus/audwhat_stim/category_box.png,stimulus/audwhat_stim/category_yes.png,stimulus/audwhat_stim/category_no.png,None,Category,None,Category,1,0.0,0,5.125,0,5.125,0,5.125,0,0.0,0.625,0,0,0,0,0,0,0,0,0,0.0,0,0.0,1,0.5,1,2.125,0,,,,,0,36,36,36,,,,,,,,,336.0129894169995,336.0129894169995,336.0129894169995,336.0129894169995,336.0129894169995,336.0129894169995,336.0129894169995,336.0129894169995,335.9282417923333,336.0129894169995,336.0129894169995,336.0129894169995,335.9282417923333,336.0129894169995,336.0129894169995,336.0129894169995,338.10834324999996,,336.0129894169995,336.0129894169995,341.20024979199934,336.0129894169995,336.0129894169995,336.0129894169995,336.0129894169995,336.48993958399933,337.5399815839992,336.4584722506663,337.5399815839992,338.10834324999996,339.16067462499996,338.0775191256664,339.1129923749995,336.0129894169995,341.20024979199934,336.0129894169995,341.20024979199934,341.24218345899953,341.9091248749992,336.0129894169995,1,1,1.0645433330009837,reldom2_s003,001,2025-01-31_12h45.06.522,Aud-B-Scan_AC,2022.2.5,None,
0,0.0,None,fixation,stimulus/audwhat_stim/blank_white.png,stimulus/audwhat_stim/blank_white.png,stimulus/audwhere_stim/blank_white.png,stimulus/audwhere_stim/blank_white.png,stimulus/audwhat_stim/blank_white.png,stimulus/audwhat_stim/blank_white.png,stimulus/audwhat_stim/blank_white.png,stimulus/audwhat_stim/blank_white.png,0.0,0.0,0.0,0.0,0,0.0,0,0.0,0,0.0,0,0.0,0,0.0,0.0,0,0,0,0,0,0,0,0,0,0.0,0,0.0,0,0.0,0,0.0,8,,,,,0,37,37,37,,,,,,,,,342.1474864169995,342.1474864169995,342.1474864169995,342.1474864169995,342.1474864169995,342.1474864169995,342.1474864169995,342.1474864169995,342.0424582083325,342.1474864169995,342.1474864169995,342.1474864169995,342.0424582083325,342.1474864169995,342.1474864169995,342.1474864169995,342.1474864169995,342.1474864169995,342.1474864169995,342.1474864169995,342.1474864169995,342.1474864169995,342.1474864169995,342.1474864169995,342.1474864169995,342.1474864169995,342.1474864169995,342.0924582083325,342.1474864169995,342.1474864169995,342.1474864169995,342.0924582083325,342.1474864169995,342.1474864169995,342.1474864169995,342.1474864169995,342.1474864169995,347.37578179199954,347.37578179199954,350.302213209,None,0,,reldom2_s003,001,2025-01-31_12h45.06.522,Aud-B-Scan_AC,2022.2.5,None,
29,Second_Order,5.0,audwhat,stimulus/audwhat_stim/string viola_low-pitch_Dtri_loud.wav,stimulus/audwhat_stim/percussion mallet_low-pitch_Dtri_loud.wav,stimulus/audwhat_stim/string viola_low-pitch_Dtri_loud.wav,stimulus/audwhat_stim/string cello_high-pitch_Ftri_loud.wav,stimulus/audwhat_stim/match_blank.png,stimulus/audwhat_stim/match_box.png,stimulus/audwhat_stim/match_yes.png,stimulus/audwhat_stim/match_no.png,2.0,Match,Pitch,Category,2,5.125,0,5.125,0,5.125,0,5.125,0,0.75,0.75,0,0,0,0,0,0,0,0,1,0.5,1,2.125,1,0.5,1,2.125,0,,,,,0,38,38,38,,,,,,,,,350.302213209,355.4185192499999,350.302213209,350.302213209,350.302213209,350.302213209,350.75716783400003,351.7561154999994,350.76979441666595,,352.37924637499964,353.37606737499937,352.39052187566654,353.38476158399953,355.4185192499999,356.25052004199915,358.32689041699996,362.26844333399913,356.25052004199915,356.25052004199915,361.4418822919997,356.25052004199915,356.25052004199915,356.25052004199915,356.25052004199915,356.72352429199964,357.76126762499916,356.6919357086665,,358.32689041699996,359.367041042,358.2964178336663,,356.25052004199915,361.4418822919997,356.25052004199915,361.4418822919997,361.4418822919997,,356.25052004199915,2,1,1.4636284160005744,reldom2_s003,001,2025-01-31_12h45.06.522,Aud-B-Scan_AC,2022.2.5,None,
30,Second_Order,5.0,audwhat,stimulus/audwhat_stim/string viola_high-pitch_Ftri_loud.wav,stimulus/audwhat_stim/percussion xylophone_high-pitch_Ftri_loud.wav,stimulus/audwhat_stim/string viola_low-pitch_D_loud.wav,stimulus/audwhat_stim/percussion mallet_low-pitch_D_loud.wav,stimulus/audwhat_stim/match_blank.png,stimulus/audwhat_stim/match_box.png,stimulus/audwhat_stim/match_yes.png,stimulus/audwhat_stim/match_no.png,1.0,Match,Pitch,Pitch,1,5.125,0,5.125,0,5.125,0,5.125,0,0.625,0.625,0,0,0,0,0,0,0,0,1,0.5,1,2.125,1,0.5,1,2.125,0,,,,,0,39,39,39,,,,,,,,,362.26844333399913,367.39151729199966,362.26844333399913,362.26844333399913,362.26844333399913,362.26844333399913,362.71841970899914,363.716172292,362.73130495866667,,364.33969558399986,365.3367383749992,364.35152687566665,365.34468033399935,367.39151729199966,368.1102970839993,370.1822277499996,374.2364187919993,368.1102970839993,368.1102970839993,373.2931519169997,368.1102970839993,368.1102970839993,368.1102970839993,368.1102970839993,368.5805104589999,369.6167813339998,368.5499642506659,,370.1822277499996,371.22029433399985,370.1505226666661,,368.1102970839993,373.2931519169997,368.1102970839993,373.2931519169997,373.2931519169997,373.95492487499996,368.1102970839993,2,0,1.303205457000331,reldom2_s003,001,2025-01-31_12h45.06.522,Aud-B-Scan_AC,2022.2.5,None,
0,0.0,None,fixation,stimulus/audwhat_stim/blank_white.png,stimulus/audwhat_stim/blank_white.png,stimulus/audwhere_stim/blank_white.png,stimulus/audwhere_stim/blank_white.png,stimulus/audwhat_stim/blank_white.png,stimulus/audwhat_stim/blank_white.png,stimulus/audwhat_stim/blank_white.png,stimulus/audwhat_stim/blank_white.png,0.0,0.0,0.0,0.0,0,0.0,0,0.0,0,0.0,0,0.0,0,0.0,0.0,0,0,0,0,0,0,0,0,0,0.0,0,0.0,0,0.0,0,0.0,9,,,,,0,40,40,40,,,,,,,,,374.2364187919993,374.2364187919993,374.2364187919993,374.2364187919993,374.2364187919993,374.2364187919993,374.2364187919993,374.2364187919993,374.1299115423327,374.2364187919993,374.2364187919993,374.2364187919993,374.1299115423327,374.2364187919993,374.2364187919993,374.2364187919993,374.2364187919993,374.2364187919993,374.2364187919993,374.2364187919993,374.2364187919993,374.2364187919993,374.2364187919993,374.2364187919993,374.2364187919993,374.2364187919993,374.2364187919993,374.19657820899937,374.2364187919993,374.2364187919993,374.2364187919993,374.19657820899937,374.2364187919993,374.2364187919993,374.2364187919993,374.2364187919993,374.2364187919993,379.4388245,379.4388245,383.48062516699974,None,0,,reldom2_s003,001,2025-01-31_12h45.06.522,Aud-B-Scan_AC,2022.2.5,None,
31,First_Order,6.0,audwhat,stimulus/audwhat_stim/dummy.wav,stimulus/audwhat_stim/dummy.wav,stimulus/audwhat_stim/string viola_low-pitch_D_loud.wav,stimulus/audwhat_stim/percussion mallet_low-pitch_D_loud.wav,stimulus/audwhat_stim/blank_white.png,stimulus/audwhat_stim/category_box.png,stimulus/audwhat_stim/category_yes.png,stimulus/audwhat_stim/category_no.png,None,Category,None,Pitch,2,0.0,0,5.125,0,5.125,0,5.125,0,0.0,0.625,0,0,0,0,0,0,0,0,0,0.0,0,0.0,1,0.5,1,2.125,0,,,,,0,41,41,41,,,,,,,,,383.48062516699974,383.48062516699974,383.48062516699974,383.48062516699974,383.48062516699974,383.48062516699974,383.48062516699974,383.48062516699974,383.4023733336659,383.48062516699974,383.48062516699974,383.48062516699974,383.4023733336659,383.48062516699974,383.48062516699974,383.48062516699974,385.566348542,389.6112951669993,383.48062516699974,383.48062516699974,388.6454731249996,383.48062516699974,383.48062516699974,383.48062516699974,383.48062516699974,383.9545431249999,384.9998182089994,383.92354712566635,,385.566348542,386.6129478749999,385.5350228756663,,383.48062516699974,388.6454731249996,383.48062516699974,388.6454731249996,388.687162917,389.35155116699934,383.48062516699974,2,1,0.9815956240008745,reldom2_s003,001,2025-01-31_12h45.06.522,Aud-B-Scan_AC,2022.2.5,None,
32,First_Order,6.0,audwhat,stimulus/audwhat_stim/dummy.wav,stimulus/audwhat_stim/dummy.wav,stimulus/audwhat_stim/percussion mallet_high-pitch_Dtri_loud.wav,stimulus/audwhat_stim/string viola_high-pitch_Dtri_loud.wav,stimulus/audwhat_stim/blank_white.png,stimulus/audwhat_stim/pitch_box.png,stimulus/audwhat_stim/pitch_yes.png,stimulus/audwhat_stim/pitch_no.png,None,Pitch,None,Pitch,1,0.0,0,5.125,0,5.125,0,5.125,0,0.0,0.625,0,0,0,0,0,0,0,0,0,0.0,0,0.0,1,0.5,1,2.125,0,,,,,0,42,42,42,,,,,,,,,389.6112951669993,389.6112951669993,389.6112951669993,389.6112951669993,389.6112951669993,389.6112951669993,389.6112951669993,389.6112951669993,389.526673542333,389.6112951669993,389.6112951669993,389.6112951669993,389.526673542333,389.6112951669993,389.6112951669993,389.6112951669993,391.69002399999954,,389.6112951669993,389.6112951669993,394.7616967089998,389.6112951669993,389.6112951669993,389.6112951669993,389.6112951669993,390.08449674999974,391.12494329199944,390.05394712566635,,391.69002399999954,392.73525220899955,391.65988837566624,,389.6112951669993,394.7616967089998,389.6112951669993,394.7616967089998,394.80352024999956,395.46790704199975,389.6112951669993,1,1,0.6574886660009724,reldom2_s003,001,2025-01-31_12h45.06.522,Aud-B-Scan_AC,2022.2.5,None,
33,First_Order,6.0,audwhat,stimulus/audwhat_stim/dummy.wav,stimulus/audwhat_stim/dummy.wav,stimulus/audwhat_stim/string cello_high-pitch_D_loud.wav,stimulus/audwhat_stim/string viola_low-pitch_F_loud.wav,stimulus/audwhat_stim/blank_white.png,stimulus/audwhat_stim/pitch_box.png,stimulus/audwhat_stim/pitch_yes.png,stimulus/audwhat_stim/pitch_no.png,None,Pitch,None,Category,2,0.0,0,5.125,0,5.125,0,5.125,0,0.0,0.625,0,0,0,0,0,0,0,0,0,0.0,0,0.0,1,0.5,1,2.125,0,,,,,0,43,43,43,,,,,,,,,395.7266025839999,395.7266025839999,395.7266025839999,395.7266025839999,395.7266025839999,395.7266025839999,395.7266025839999,395.7266025839999,395.64225112533325,395.7266025839999,395.7266025839999,395.7266025839999,395.64225112533325,395.7266025839999,395.7266025839999,395.7266025839999,397.80872029199963,401.8466959999996,395.7266025839999,395.7266025839999,400.88095966699984,395.7266025839999,395.7266025839999,395.7266025839999,395.7266025839999,396.2015329999995,397.24192429199957,396.16937616666587,,397.80872029199963,398.85071370899914,397.77791633366655,,395.7266025839999,400.88095966699984,395.7266025839999,400.88095966699984,400.92286737499944,401.5880107089997,395.7266025839999,2,1,1.2142277910015764,reldom2_s003,001,2025-01-31_12h45.06.522,Aud-B-Scan_AC,2022.2.5,None,
34,First_Order,6.0,audwhat,stimulus/audwhat_stim/dummy.wav,stimulus/audwhat_stim/dummy.wav,stimulus/audwhat_stim/percussion mallet_low-pitch_F_loud.wav,stimulus/audwhat_stim/string viola_low-pitch_F_loud.wav,stimulus/audwhat_stim/blank_white.png,stimulus/audwhat_stim/category_box.png,stimulus/audwhat_stim/category_yes.png,stimulus/audwhat_stim/category_no.png,None,Category,None,Pitch,2,0.0,0,5.125,0,5.125,0,5.125,0,0.0,0.625,0,0,0,0,0,0,0,0,0,0.0,0,0.0,1,0.5,1,2.125,0,,,,,0,44,44,44,,,,,,,,,401.8466959999996,401.8466959999996,401.8466959999996,401.8466959999996,401.8466959999996,401.8466959999996,401.8466959999996,401.8466959999996,401.7626172083329,401.8466959999996,401.8466959999996,401.8466959999996,401.7626172083329,401.8466959999996,401.8466959999996,401.8466959999996,403.9355934999994,,401.8466959999996,401.8466959999996,407.0254180419997,401.8466959999996,401.8466959999996,401.8466959999996,401.8466959999996,402.3237223749993,403.36650108399954,402.29248391666647,,403.9355934999994,404.98821758399936,403.904399041666,,401.8466959999996,407.0254180419997,401.8466959999996,407.0254180419997,407.0676659999999,407.7345295839996,401.8466959999996,2,1,0.8043256250002742,reldom2_s003,001,2025-01-31_12h45.06.522,Aud-B-Scan_AC,2022.2.5,None,
0,0.0,None,fixation,stimulus/audwhat_stim/blank_white.png,stimulus/audwhat_stim/blank_white.png,stimulus/audwhere_stim/blank_white.png,stimulus/audwhere_stim/blank_white.png,stimulus/audwhat_stim/blank_white.png,stimulus/audwhat_stim/blank_white.png,stimulus/audwhat_stim/blank_white.png,stimulus/audwhat_stim/blank_white.png,0.0,0.0,0.0,0.0,0,0.0,0,0.0,0,0.0,0,0.0,0,0.0,0.0,0,0,0,0,0,0,0,0,0,0.0,0,0.0,0,0.0,0,0.0,9,,,,,0,45,45,45,,,,,,,,,407.97404704199926,407.97404704199926,407.97404704199926,407.97404704199926,407.97404704199926,407.97404704199926,407.97404704199926,407.97404704199926,407.8678629173329,407.97404704199926,407.97404704199926,407.97404704199926,407.8678629173329,407.97404704199926,407.97404704199926,407.97404704199926,407.97404704199926,407.97404704199926,407.97404704199926,407.97404704199926,407.97404704199926,407.97404704199926,407.97404704199926,407.97404704199926,407.97404704199926,407.97404704199926,407.97404704199926,407.93452958399956,407.97404704199926,407.97404704199926,407.97404704199926,407.93452958399956,407.97404704199926,407.97404704199926,407.97404704199926,407.97404704199926,407.97404704199926,413.20093174999965,413.20093174999965,417.1056927089994,None,0,,reldom2_s003,001,2025-01-31_12h45.06.522,Aud-B-Scan_AC,2022.2.5,None,
35,Second_Order,6.0,audwhat,stimulus/audwhat_stim/string cello_low-pitch_D_loud.wav,stimulus/audwhat_stim/percussion mallet_low-pitch_D_loud.wav,stimulus/audwhat_stim/percussion mallet_low-pitch_D_loud.wav,stimulus/audwhat_stim/percussion xylophone_high-pitch_Ftri_loud.wav,stimulus/audwhat_stim/match_blank.png,stimulus/audwhat_stim/match_box.png,stimulus/audwhat_stim/match_yes.png,stimulus/audwhat_stim/match_no.png,2.0,Match,Pitch,Category,2,5.125,0,5.125,0,5.125,0,5.125,0,0.75,0.75,0,0,0,0,0,0,0,0,1,0.5,1,2.125,1,0.5,1,2.125,0,,,,,0,46,46,46,,,,,,,,,417.1056927089994,422.2222332499996,417.1056927089994,417.1056927089994,417.1056927089994,417.1056927089994,417.5616659999996,418.559740875,417.5739430006663,,419.1821576249995,420.1803556669993,419.1943290416659,420.18903662499997,422.2222332499996,423.05512279199957,425.1329929169997,429.0757479589993,423.05512279199957,423.05512279199957,428.20707562499956,423.05512279199957,423.05512279199957,423.05512279199957,423.05512279199957,423.5284811249994,424.5678621669995,423.49709991666646,,425.1329929169997,426.1802538339998,425.10262929166606,426.1802538339998,423.05512279199957,428.20707562499956,423.05512279199957,428.20707562499956,428.24872162499923,,423.05512279199957,2,1,1.0200929160009764,reldom2_s003,001,2025-01-31_12h45.06.522,Aud-B-Scan_AC,2022.2.5,None,
36,Second_Order,6.0,audwhat,stimulus/audwhat_stim/string cello_low-pitch_Dtri_loud.wav,stimulus/audwhat_stim/percussion mallet_low-pitch_Dtri_loud.wav,stimulus/audwhat_stim/string viola_high-pitch_F_loud.wav,stimulus/audwhat_stim/percussion xylophone_high-pitch_F_loud.wav,stimulus/audwhat_stim/match_blank.png,stimulus/audwhat_stim/match_box.png,stimulus/audwhat_stim/match_yes.png,stimulus/audwhat_stim/match_no.png,1.0,Match,Pitch,Pitch,1,5.125,0,5.125,0,5.125,0,5.125,0,0.625,0.625,0,0,0,0,0,0,0,0,1,0.5,1,2.125,1,0.5,1,2.125,0,,,,,0,47,47,47,,,,,,,,,429.0757479589993,434.1956178749997,429.0757479589993,429.0757479589993,429.0757479589993,429.0757479589993,429.52100874999996,430.5074064999999,429.53497633366646,,431.1558932499993,432.1449049589992,431.15964858366647,432.15786295899943,434.1956178749997,434.91214791699986,436.9872547919995,441.0515669589995,434.91214791699986,434.91214791699986,440.1068570419993,434.91214791699986,434.91214791699986,434.91214791699986,434.91214791699986,435.38343420899946,436.4206917499996,435.3529644166658,,436.9872547919995,438.0321935839993,436.9562600836664,438.0321935839993,434.91214791699986,440.1068570419993,434.91214791699986,440.1068570419993,440.1068570419993,440.7724989999997,434.91214791699986,1,1,0.8654711240005781,reldom2_s003,001,2025-01-31_12h45.06.522,Aud-B-Scan_AC,2022.2.5,None,
0,0.0,None,fixation,stimulus/audwhat_stim/blank_white.png,stimulus/audwhat_stim/blank_white.png,stimulus/audwhere_stim/blank_white.png,stimulus/audwhere_stim/blank_white.png,stimulus/audwhat_stim/blank_white.png,stimulus/audwhat_stim/blank_white.png,stimulus/audwhat_stim/blank_white.png,stimulus/audwhat_stim/blank_white.png,0.0,0.0,0.0,0.0,0,0.0,0,0.0,0,0.0,0,0.0,0,0.0,0.0,0,0,0,0,0,0,0,0,0,0.0,0,0.0,0,0.0,0,0.0,10,,,,,0,48,48,48,,,,,,,,,441.0515669589995,441.0515669589995,441.0515669589995,441.0515669589995,441.0515669589995,441.0515669589995,441.0515669589995,441.0515669589995,440.9471710833333,441.0515669589995,441.0515669589995,441.0515669589995,440.9471710833333,441.0515669589995,441.0515669589995,441.0515669589995,441.0515669589995,441.0515669589995,441.0515669589995,441.0515669589995,441.0515669589995,441.0515669589995,441.0515669589995,441.0515669589995,441.0515669589995,441.0515669589995,441.0515669589995,440.9971710833333,441.0515669589995,441.0515669589995,441.0515669589995,440.9971710833333,441.0515669589995,441.0515669589995,441.0515669589995,441.0515669589995,441.0515669589995,446.25458266699934,446.25458266699934,451.33226749999994,None,0,,reldom2_s003,001,2025-01-31_12h45.06.522,Aud-B-Scan_AC,2022.2.5,None,
37,First_Order,7.0,audwhere,stimulus/audwhere_stim/dummy.wav,stimulus/audwhere_stim/dummy.wav,stimulus/audwhere_stim/right_toward_300h.wav,stimulus/audwhere_stim/left_toward_290h.wav,stimulus/audwhere_stim/blank_white.png,stimulus/audwhere_stim/direction_box.png,stimulus/audwhere_stim/direction_yes.png,stimulus/audwhere_stim/direction_no.png,None,Direction,None,Direction,1,0.0,0,5.125,0,5.125,0,5.125,0,0.0,0.625,0,0,0,0,0,0,0,0,0,0.0,0,0.0,1,0.5,1,2.125,0,,,,,0,49,49,49,,,,,,,,,451.33226749999994,451.33226749999994,451.33226749999994,451.33226749999994,451.33226749999994,451.33226749999994,451.33226749999994,451.33226749999994,451.2537954166661,451.33226749999994,451.33226749999994,451.33226749999994,451.2537954166661,451.33226749999994,451.33226749999994,451.33226749999994,453.421500292,,451.33226749999994,451.33226749999994,456.50774812500003,451.33226749999994,451.33226749999994,451.33226749999994,451.33226749999994,451.80661633399995,452.85262387499915,451.77562020866594,,453.421500292,454.4680439169997,453.3903532086663,,451.33226749999994,456.50774812500003,451.33226749999994,456.50774812500003,456.54944058399997,457.2149032089992,451.33226749999994,1,1,1.125548374000573,reldom2_s003,001,2025-01-31_12h45.06.522,Aud-B-Scan_AC,2022.2.5,None,
38,First_Order,7.0,audwhere,stimulus/audwhere_stim/dummy.wav,stimulus/audwhere_stim/dummy.wav,stimulus/audwhere_stim/right_toward_290h.wav,stimulus/audwhere_stim/right_away_270h.wav,stimulus/audwhere_stim/blank_white.png,stimulus/audwhere_stim/side_box.png,stimulus/audwhere_stim/side_yes.png,stimulus/audwhere_stim/side_no.png,None,Side,None,Side,1,0.0,0,5.125,0,5.125,0,5.125,0,0.0,0.625,0,0,0,0,0,0,0,0,0,0.0,0,0.0,1,0.5,1,2.125,0,,,,,0,50,50,50,,,,,,,,,457.43105149999974,457.43105149999974,457.43105149999974,457.43105149999974,457.43105149999974,457.43105149999974,457.43105149999974,457.43105149999974,457.34823654233253,457.43105149999974,457.43105149999974,457.43105149999974,457.34823654233253,457.43105149999974,457.43105149999974,457.43105149999974,459.5120077499996,463.5496269589994,457.43105149999974,457.43105149999974,462.58587850000004,457.43105149999974,457.43105149999974,457.43105149999974,457.43105149999974,457.9052602499996,458.9456021249998,457.874178041666,,459.5120077499996,460.5570713749994,459.4811926256664,,457.43105149999974,462.58587850000004,457.43105149999974,462.58587850000004,462.6277122499996,463.2922310419999,457.43105149999974,1,1,0.9574689580003906,reldom2_s003,001,2025-01-31_12h45.06.522,Aud-B-Scan_AC,2022.2.5,None,
39,First_Order,7.0,audwhere,stimulus/audwhere_stim/dummy.wav,stimulus/audwhere_stim/dummy.wav,stimulus/audwhere_stim/left_away_290h.wav,stimulus/audwhere_stim/left_toward_290h.wav,stimulus/audwhere_stim/blank_white.png,stimulus/audwhere_stim/direction_box.png,stimulus/audwhere_stim/direction_yes.png,stimulus/audwhere_stim/direction_no.png,None,Direction,None,Side,2,0.0,0,5.125,0,5.125,0,5.125,0,0.0,0.625,0,0,0,0,0,0,0,0,0,0.0,0,0.0,1,0.5,1,2.125,0,,,,,0,51,51,51,,,,,,,,,463.5496269589994,463.5496269589994,463.5496269589994,463.5496269589994,463.5496269589994,463.5496269589994,463.5496269589994,463.5496269589994,463.4664242083328,463.5496269589994,463.5496269589994,463.5496269589994,463.4664242083328,463.5496269589994,463.5496269589994,463.5496269589994,465.6462494589996,,463.5496269589994,463.5496269589994,468.7359476669999,463.5496269589994,463.5496269589994,463.5496269589994,463.5496269589994,464.02531708399965,465.0774934589999,463.99423470866645,465.0302989169995,465.6462494589996,466.6988808339993,465.6145321256665,466.6503024169997,463.5496269589994,468.7359476669999,463.5496269589994,468.7359476669999,468.77823708399956,469.44654070899924,463.5496269589994,2,1,1.0325627500005794,reldom2_s003,001,2025-01-31_12h45.06.522,Aud-B-Scan_AC,2022.2.5,None,
40,First_Order,7.0,audwhere,stimulus/audwhere_stim/dummy.wav,stimulus/audwhere_stim/dummy.wav,stimulus/audwhere_stim/right_away_280h.wav,stimulus/audwhere_stim/right_toward_290h.wav,stimulus/audwhere_stim/blank_white.png,stimulus/audwhere_stim/direction_box.png,stimulus/audwhere_stim/direction_yes.png,stimulus/audwhere_stim/direction_no.png,None,Direction,None,Side,2,0.0,0,5.125,0,5.125,0,5.125,0,0.0,0.625,0,0,0,0,0,0,0,0,0,0.0,0,0.0,1,0.5,1,2.125,0,,,,,0,52,52,52,,,,,,,,,469.6638807089994,469.6638807089994,469.6638807089994,469.6638807089994,469.6638807089994,469.6638807089994,469.6638807089994,469.6638807089994,469.57987404233256,469.6638807089994,469.6638807089994,469.6638807089994,469.57987404233256,469.6638807089994,469.6638807089994,469.6638807089994,471.7590291669994,,469.6638807089994,469.6638807089994,474.8541748339994,469.6638807089994,469.6638807089994,469.6638807089994,469.6638807089994,470.1384519589992,471.1901666249996,470.10759941666606,471.1426484169997,471.7590291669994,472.8114042499992,471.72823683366664,472.7639679589993,469.6638807089994,474.8541748339994,469.6638807089994,474.8541748339994,474.8541748339994,475.51979341699916,469.6638807089994,2,1,2.8491882910011554,reldom2_s003,001,2025-01-31_12h45.06.522,Aud-B-Scan_AC,2022.2.5,None,
0,0.0,None,fixation,stimulus/audwhat_stim/blank_white.png,stimulus/audwhat_stim/blank_white.png,stimulus/audwhere_stim/blank_white.png,stimulus/audwhere_stim/blank_white.png,stimulus/audwhat_stim/blank_white.png,stimulus/audwhat_stim/blank_white.png,stimulus/audwhat_stim/blank_white.png,stimulus/audwhat_stim/blank_white.png,0.0,0.0,0.0,0.0,0,0.0,0,0.0,0,0.0,0,0.0,0,0.0,0.0,0,0,0,0,0,0,0,0,0,0.0,0,0.0,0,0.0,0,0.0,8,,,,,0,53,53,53,,,,,,,,,475.80061062499954,475.80061062499954,475.80061062499954,475.80061062499954,475.80061062499954,475.80061062499954,475.80061062499954,475.80061062499954,475.6947333753325,475.80061062499954,475.80061062499954,475.80061062499954,475.6947333753325,475.80061062499954,475.80061062499954,475.80061062499954,475.80061062499954,475.80061062499954,475.80061062499954,475.80061062499954,475.80061062499954,475.80061062499954,475.80061062499954,475.80061062499954,475.80061062499954,475.80061062499954,475.80061062499954,475.76140004199914,475.80061062499954,475.80061062499954,475.80061062499954,475.76140004199914,475.80061062499954,475.80061062499954,475.80061062499954,475.80061062499954,475.80061062499954,481.0327980839993,481.0327980839993,483.96024308399956,None,0,,reldom2_s003,001,2025-01-31_12h45.06.522,Aud-B-Scan_AC,2022.2.5,None,
41,Second_Order,7.0,audwhere,stimulus/audwhere_stim/left_toward_300h.wav,stimulus/audwhere_stim/right_toward_280h.wav,stimulus/audwhere_stim/right_toward_270h.wav,stimulus/audwhere_stim/right_away_290h.wav,stimulus/audwhat_stim/match_blank.png,stimulus/audwhat_stim/match_box.png,stimulus/audwhat_stim/match_yes.png,stimulus/audwhat_stim/match_no.png,2.0,Match,Direction,Side,2,5.125,0,5.125,0,5.125,0,5.125,0,0.75,0.75,0,0,0,0,0,0,0,0,1,0.5,1,2.125,1,0.5,1,2.125,0,,,,,0,54,54,54,,,,,,,,,483.96024308399956,489.0765820839997,483.96024308399956,483.96024308399956,483.96024308399956,483.96024308399956,484.4155467499995,485.413828834,484.428084958666,485.42178324999986,486.0362542919993,487.03435287499997,486.0483261256661,487.04243345899977,489.0765820839997,489.9085669999995,491.984741667,495.9273242089994,489.9085669999995,489.9085669999995,495.1023985839993,489.9085669999995,489.9085669999995,489.9085669999995,489.9085669999995,490.38096874999974,491.4196702089994,490.3501145836665,,491.984741667,493.0250939589996,491.95428383366584,,489.9085669999995,495.1023985839993,489.9085669999995,495.1023985839993,495.1023985839993,,489.9085669999995,2,1,1.1022151250008392,reldom2_s003,001,2025-01-31_12h45.06.522,Aud-B-Scan_AC,2022.2.5,None,
42,Second_Order,7.0,audwhere,stimulus/audwhere_stim/right_toward_290h.wav,stimulus/audwhere_stim/left_toward_270h.wav,stimulus/audwhere_stim/left_toward_290h.wav,stimulus/audwhere_stim/left_away_280h.wav,stimulus/audwhat_stim/match_blank.png,stimulus/audwhat_stim/match_box.png,stimulus/audwhat_stim/match_yes.png,stimulus/audwhat_stim/match_no.png,2.0,Match,Direction,Side,2,5.125,0,5.125,0,5.125,0,5.125,0,0.625,0.625,0,0,0,0,0,0,0,0,1,0.5,1,2.125,1,0.5,1,2.125,0,,,,,0,55,55,55,,,,,,,,,495.9273242089994,501.05019908399936,495.9273242089994,495.9273242089994,495.9273242089994,495.9273242089994,496.389057417,497.3827352919998,496.3895643336666,497.3827352919998,498.0094697499999,498.9987600839995,498.01348041666665,499.0116509589998,501.05019908399936,501.7628322089995,503.83248333399933,,501.7628322089995,501.7628322089995,506.94667262499934,501.7628322089995,501.7628322089995,501.7628322089995,501.7628322089995,502.23471133399926,503.26959087499927,502.20426691666603,,503.83248333399933,504.8727242499999,503.80160995866595,,501.7628322089995,506.94667262499934,501.7628322089995,506.94667262499934,506.94667262499934,507.6088198339994,501.7628322089995,2,1,1.1856319160006024,reldom2_s003,001,2025-01-31_12h45.06.522,Aud-B-Scan_AC,2022.2.5,None,
0,0.0,None,fixation,stimulus/audwhat_stim/blank_white.png,stimulus/audwhat_stim/blank_white.png,stimulus/audwhere_stim/blank_white.png,stimulus/audwhere_stim/blank_white.png,stimulus/audwhat_stim/blank_white.png,stimulus/audwhat_stim/blank_white.png,stimulus/audwhat_stim/blank_white.png,stimulus/audwhat_stim/blank_white.png,0.0,0.0,0.0,0.0,0,0.0,0,0.0,0,0.0,0,0.0,0,0.0,0.0,0,0,0,0,0,0,0,0,0,0.0,0,0.0,0,0.0,0,0.0,10,,,,,0,56,56,56,,,,,,,,,507.8884189999999,507.8884189999999,507.8884189999999,507.8884189999999,507.8884189999999,507.8884189999999,507.8884189999999,507.8884189999999,507.7836110003328,507.8884189999999,507.8884189999999,507.8884189999999,507.7836110003328,507.8884189999999,507.8884189999999,507.8884189999999,507.8884189999999,507.8884189999999,507.8884189999999,507.8884189999999,507.8884189999999,507.8884189999999,507.8884189999999,507.8884189999999,507.8884189999999,507.8884189999999,507.8884189999999,507.83361100033284,507.8884189999999,507.8884189999999,507.8884189999999,507.83361100033284,507.8884189999999,507.8884189999999,507.8884189999999,507.8884189999999,507.8884189999999,513.0968850419995,513.0968850419995,518.1216059589997,None,0,,reldom2_s003,001,2025-01-31_12h45.06.522,Aud-B-Scan_AC,2022.2.5,None,
43,First_Order,8.0,audwhere,stimulus/audwhere_stim/dummy.wav,stimulus/audwhere_stim/dummy.wav,stimulus/audwhere_stim/right_toward_270h.wav,stimulus/audwhere_stim/left_toward_300h.wav,stimulus/audwhere_stim/blank_white.png,stimulus/audwhere_stim/side_box.png,stimulus/audwhere_stim/side_yes.png,stimulus/audwhere_stim/side_no.png,None,Side,None,Direction,2,0.0,0,5.125,0,5.125,0,5.125,0,0.0,0.625,0,0,0,0,0,0,0,0,0,0.0,0,0.0,1,0.5,1,2.125,0,,,,,0,57,57,57,,,,,,,,,518.1216059589997,518.1216059589997,518.1216059589997,518.1216059589997,518.1216059589997,518.1216059589997,518.1216059589997,518.1216059589997,518.0433125836659,518.1216059589997,518.1216059589997,518.1216059589997,518.0433125836659,518.1216059589997,518.1216059589997,518.1216059589997,520.1982518749992,,518.1216059589997,518.1216059589997,523.3089478339998,518.1216059589997,518.1216059589997,518.1216059589997,518.1216059589997,518.5958194169998,519.6318832089992,518.5647342506666,,520.1982518749992,521.2369963339997,520.1659467916663,,518.1216059589997,523.3089478339998,518.1216059589997,523.3089478339998,523.3505917919992,524.0152427499997,518.1216059589997,2,1,1.8102889159999904,reldom2_s003,001,2025-01-31_12h45.06.522,Aud-B-Scan_AC,2022.2.5,None,
44,First_Order,8.0,audwhere,stimulus/audwhere_stim/dummy.wav,stimulus/audwhere_stim/dummy.wav,stimulus/audwhere_stim/right_toward_270h.wav,stimulus/audwhere_stim/left_toward_280h.wav,stimulus/audwhere_stim/blank_white.png,stimulus/audwhere_stim/side_box.png,stimulus/audwhere_stim/side_yes.png,stimulus/audwhere_stim/side_no.png,None,Side,None,Direction,2,0.0,0,5.125,0,5.125,0,5.125,0,0.0,0.625,0,0,0,0,0,0,0,0,0,0.0,0,0.0,1,0.5,1,2.125,0,,,,,0,58,58,58,,,,,,,,,524.2330778339992,524.2330778339992,524.2330778339992,524.2330778339992,524.2330778339992,524.2330778339992,524.2330778339992,524.2330778339992,524.1485760833331,524.2330778339992,524.2330778339992,524.2330778339992,524.1485760833331,524.2330778339992,524.2330778339992,524.2330778339992,526.3090461249994,,524.2330778339992,524.2330778339992,529.4238637919998,524.2330778339992,524.2330778339992,524.2330778339992,524.2330778339992,524.7050212499998,525.7428754589992,524.6743042086666,,526.3090461249994,527.3492147089992,526.2782165006658,,524.2330778339992,529.4238637919998,524.2330778339992,529.4238637919998,529.4238637919998,530.0883640839993,524.2330778339992,2,1,1.1529762910004138,reldom2_s003,001,2025-01-31_12h45.06.522,Aud-B-Scan_AC,2022.2.5,None,
45,First_Order,8.0,audwhere,stimulus/audwhere_stim/dummy.wav,stimulus/audwhere_stim/dummy.wav,stimulus/audwhere_stim/right_toward_270h.wav,stimulus/audwhere_stim/left_toward_290h.wav,stimulus/audwhere_stim/blank_white.png,stimulus/audwhere_stim/direction_box.png,stimulus/audwhere_stim/direction_yes.png,stimulus/audwhere_stim/direction_no.png,None,Direction,None,Direction,1,0.0,0,5.125,0,5.125,0,5.125,0,0.0,0.625,0,0,0,0,0,0,0,0,0,0.0,0,0.0,1,0.5,1,2.125,0,,,,,0,59,59,59,,,,,,,,,530.3487934169998,530.3487934169998,530.3487934169998,530.3487934169998,530.3487934169998,530.3487934169998,530.3487934169998,530.3487934169998,530.2627851253329,530.3487934169998,530.3487934169998,530.3487934169998,530.2627851253329,530.3487934169998,530.3487934169998,530.3487934169998,532.4452100419994,,530.3487934169998,530.3487934169998,535.5312635419996,530.3487934169998,530.3487934169998,530.3487934169998,530.3487934169998,530.8237629169998,531.8739073339993,530.7924630006667,531.8265965419996,532.4452100419994,533.4926765839991,532.4144803756665,,530.3487934169998,535.5312635419996,530.3487934169998,535.5312635419996,535.5730881249992,536.2409642089997,530.3487934169998,1,1,0.9641408330007835,reldom2_s003,001,2025-01-31_12h45.06.522,Aud-B-Scan_AC,2022.2.5,None,
46,First_Order,8.0,audwhere,stimulus/audwhere_stim/dummy.wav,stimulus/audwhere_stim/dummy.wav,stimulus/audwhere_stim/left_away_300h.wav,stimulus/audwhere_stim/left_toward_300h.wav,stimulus/audwhere_stim/blank_white.png,stimulus/audwhere_stim/side_box.png,stimulus/audwhere_stim/side_yes.png,stimulus/audwhere_stim/side_no.png,None,Side,None,Side,1,0.0,0,5.125,0,5.125,0,5.125,0,0.0,0.625,0,0,0,0,0,0,0,0,0,0.0,0,0.0,1,0.5,1,2.125,0,,,,,0,60,60,60,,,,,,,,,536.4588965419998,536.4588965419998,536.4588965419998,536.4588965419998,536.4588965419998,536.4588965419998,536.4588965419998,536.4588965419998,536.374297542333,536.4588965419998,536.4588965419998,536.4588965419998,536.374297542333,536.4588965419998,536.4588965419998,536.4588965419998,538.5401937919996,542.6007012919999,536.4588965419998,536.4588965419998,541.6118939169992,536.4588965419998,536.4588965419998,536.4588965419998,536.4588965419998,536.9321871249995,537.9728791669995,536.9016340416658,,538.5401937919996,539.5833082089994,538.5096309586663,,536.4588965419998,541.6118939169992,536.4588965419998,541.6118939169992,541.6543237919996,542.3206284999997,536.4588965419998,1,1,0.8571166660003655,reldom2_s003,001,2025-01-31_12h45.06.522,Aud-B-Scan_AC,2022.2.5,None,
0,0.0,None,fixation,stimulus/audwhat_stim/blank_white.png,stimulus/audwhat_stim/blank_white.png,stimulus/audwhere_stim/blank_white.png,stimulus/audwhere_stim/blank_white.png,stimulus/audwhat_stim/blank_white.png,stimulus/audwhat_stim/blank_white.png,stimulus/audwhat_stim/blank_white.png,stimulus/audwhat_stim/blank_white.png,0.0,0.0,0.0,0.0,0,0.0,0,0.0,0,0.0,0,0.0,0,0.0,0.0,0,0,0,0,0,0,0,0,0,0.0,0,0.0,0,0.0,0,0.0,9,,,,,0,61,61,61,,,,,,,,,542.6007012919999,542.6007012919999,542.6007012919999,542.6007012919999,542.6007012919999,542.6007012919999,542.6007012919999,542.6007012919999,542.4954742503334,542.6007012919999,542.6007012919999,542.6007012919999,542.4954742503334,542.6007012919999,542.6007012919999,542.6007012919999,542.6007012919999,542.6007012919999,542.6007012919999,542.6007012919999,542.6007012919999,542.6007012919999,542.6007012919999,542.6007012919999,542.6007012919999,542.6007012919999,542.6007012919999,542.5454742503333,542.6007012919999,542.6007012919999,542.6007012919999,542.5454742503333,542.6007012919999,542.6007012919999,542.6007012919999,542.6007012919999,542.6007012919999,547.8202906669994,547.8202906669994,551.7747884999999,None,0,,reldom2_s003,001,2025-01-31_12h45.06.522,Aud-B-Scan_AC,2022.2.5,None,
47,Second_Order,8.0,audwhere,stimulus/audwhere_stim/right_away_300h.wav,stimulus/audwhere_stim/right_toward_270h.wav,stimulus/audwhere_stim/left_away_280h.wav,stimulus/audwhere_stim/left_toward_270h.wav,stimulus/audwhat_stim/match_blank.png,stimulus/audwhat_stim/match_box.png,stimulus/audwhat_stim/match_yes.png,stimulus/audwhat_stim/match_no.png,1.0,Match,Side,Side,1,5.125,0,5.125,0,5.125,0,5.125,0,0.75,0.75,0,0,0,0,0,0,0,0,1,0.5,1,2.125,1,0.5,1,2.125,0,,,,,0,62,62,62,,,,,,,,,551.7747884999999,556.8955128749994,551.7747884999999,551.7747884999999,551.7747884999999,551.7747884999999,552.2217283339996,553.220391584,552.2343315416658,553.2282481249995,553.8549874169994,554.8442397919998,553.8584636256667,554.8572787499998,556.8955128749994,557.7323581669998,559.8086578749999,563.7484367089992,557.7323581669998,557.7323581669998,562.925382292,557.7323581669998,557.7323581669998,557.7323581669998,557.7323581669998,558.2054393749995,559.2433434169998,558.1741725836666,,559.8086578749999,560.8521168339994,559.7777296256666,,557.7323581669998,562.925382292,557.7323581669998,562.925382292,562.925382292,,557.7323581669998,1,1,0.9042306660003305,reldom2_s003,001,2025-01-31_12h45.06.522,Aud-B-Scan_AC,2022.2.5,None,
48,Second_Order,8.0,audwhere,stimulus/audwhere_stim/right_toward_270h.wav,stimulus/audwhere_stim/right_away_270h.wav,stimulus/audwhere_stim/left_away_280h.wav,stimulus/audwhere_stim/left_toward_290h.wav,stimulus/audwhat_stim/match_blank.png,stimulus/audwhat_stim/match_box.png,stimulus/audwhat_stim/match_yes.png,stimulus/audwhat_stim/match_no.png,1.0,Match,Side,Side,1,5.125,0,5.125,0,5.125,0,5.125,0,0.625,0.625,0,0,0,0,0,0,0,0,1,0.5,1,2.125,1,0.5,1,2.125,0,,,,,0,63,63,63,,,,,,,,,563.7484367089992,568.8613385419994,563.7484367089992,563.7484367089992,563.7484367089992,563.7484367089992,564.1973482499998,565.1841546669993,564.2113645006659,565.2054868749992,565.8329168339997,566.8215901249996,565.8378995416663,566.8347152499991,568.8613385419994,569.5736216669993,571.6433405419994,575.6977385419996,569.5736216669993,569.5736216669993,574.7556969999996,569.5736216669993,569.5736216669993,569.5736216669993,569.5736216669993,570.0439659169997,571.0792352919998,570.0136957916659,,571.6433405419994,572.6844216669997,571.6123387916662,,569.5736216669993,574.7556969999996,569.5736216669993,574.7556969999996,574.7556969999996,575.418451042,569.5736216669993,1,1,1.0211215410008663,reldom2_s003,001,2025-01-31_12h45.06.522,Aud-B-Scan_AC,2022.2.5,None,
0,0.0,None,fixation,stimulus/audwhat_stim/blank_white.png,stimulus/audwhat_stim/blank_white.png,stimulus/audwhere_stim/blank_white.png,stimulus/audwhere_stim/blank_white.png,stimulus/audwhat_stim/blank_white.png,stimulus/audwhat_stim/blank_white.png,stimulus/audwhat_stim/blank_white.png,stimulus/audwhat_stim/blank_white.png,0.0,0.0,0.0,0.0,0,0.0,0,0.0,0,0.0,0,0.0,0,0.0,0.0,0,0,0,0,0,0,0,0,0,0.0,0,0.0,0,0.0,0,0.0,16,,,,,0,64,64,64,,,,,,,,,575.6977385419996,575.6977385419996,575.6977385419996,575.6977385419996,575.6977385419996,575.6977385419996,575.6977385419996,575.6977385419996,575.593541708333,575.6977385419996,575.6977385419996,575.6977385419996,575.593541708333,575.6977385419996,575.6977385419996,575.6977385419996,575.6977385419996,575.6977385419996,575.6977385419996,575.6977385419996,575.6977385419996,575.6977385419996,575.6977385419996,575.6977385419996,575.6977385419996,575.6977385419996,575.6977385419996,575.6435417083329,575.6977385419996,575.6977385419996,575.6977385419996,575.6435417083329,575.6977385419996,575.6977385419996,575.6977385419996,575.6977385419996,575.6977385419996,580.908090125,580.908090125,591.8517752919997,None,0,,reldom2_s003,001,2025-01-31_12h45.06.522,Aud-B-Scan_AC,2022.2.5,None,
