Trial,Order,Block,Type,Stimuli_File1,Stimuli_File2,Stimuli_File3,Stimuli_File4,Cue_File1,Cue_File2,Response_File_Yes,Response_File_No,Match,Cue_Dimension,Pair1_Dimension,Pair2_Dimension,Key,Cue1_Duration,Cue1_Onset,Cue2_Duration,Cue2_Onset,ResponseYes_Duration,ResponseYes_Onset,ResponseNo_Duration,ResponseNo_Onset,ITI_Within,ITI_Between,Image1_Duration,Image1_Onset,Image2_Duration,Image2_Onset,Image3_Duration,Image3_Onset,Image4_Duration,Image4_Onset,Sound1_Duration,Sound1_Onset,Sound2_Duration,Sound2_Onset,Sound3_Duration,Sound3_Onset,Sound4_Duration,Sound4_Onset,Fixation_Duration,trials_2.thisRepN,trials_2.thisTrialN,trials_2.thisN,trials_2.thisIndex,trials.thisRepN,trials.thisTrialN,trials.thisN,trials.thisIndex,text_start.started,key_resp_start.started,key_resp_start.keys,key_resp_start.rt,text2.started,key_resp_2.started,key_resp_2.keys,key_resp_2.rt,cue_file1.started,cue_file1.stopped,image_1.started,image_1.stopped,image_2.started,image_2.stopped,sound_icon1.started,sound_icon1.stopped,sound_1.started,sound_1.stopped,sound_icon2.started,sound_icon2.stopped,sound_2.started,sound_2.stopped,image_blank_1.started,image_blank_1.stopped,key_press.started,key_press.stopped,fixation_text.started,cue_file2.started,cue_file2.stopped,image_3.started,image_3.stopped,image_4.started,image_4.stopped,sound_icon3.started,sound_icon3.stopped,sound_3.started,sound_3.stopped,sound_icon4.started,sound_icon4.stopped,sound_4.started,sound_4.stopped,response_yes.started,response_yes.stopped,response_no.started,response_no.stopped,iti_blank.started,iti_blank.stopped,fixation_text.stopped,key_press.keys,key_press.corr,key_press.rt,participant,session,date,expName,psychopyVersion,frameRate,
,,,,,,,,,,,,,,,,,,,,,,,,,,,,,,,,,,,,,,,,,,,,,,,,,,,,10.177018332999978,10.177018332999978,2,0.9593324579996079,,,,,,,,,,,,,,,,,,,,,,,,,,,,,,,,,,,,,,,,,,,,,,,,reldom2_s013,001,2025-02-14_12h16.58.001,Aud-B-Scan_AC,2022.2.5,None,
,,,,,,,,,,,,,,,,,,,,,,,,,,,,,,,,,,,,,,,,,,,,0,0,0,0,,,,,,,,,11.177386458,11.177386458,5,14.493733499999507,,,,,,,,,,,,,,,,,,,,,,,,,,,,,,,,,,,,,,,,,,,,reldom2_s013,001,2025-02-14_12h16.58.001,Aud-B-Scan_AC,2022.2.5,None,
,,,,,,,,,,,,,,,,,,,,,,,,,,,,,,,,,,,,,,,,,,,,1,0,1,0,,,,,,,,,25.68983708299993,25.68983708299993,5,1.980400500000087,,,,,,,,,,,,,,,,,,,,,,,,,,,,,,,,,,,,,,,,,,,,reldom2_s013,001,2025-02-14_12h16.58.001,Aud-B-Scan_AC,2022.2.5,None,
,,,,,,,,,,,,,,,,,,,,,,,,,,,,,,,,,,,,,,,,,,,,2,0,2,0,,,,,,,,,27.687078208000003,27.687078208000003,5,1.982667666999987,,,,,,,,,,,,,,,,,,,,,,,,,,,,,,,,,,,,,,,,,,,,reldom2_s013,001,2025-02-14_12h16.58.001,Aud-B-Scan_AC,2022.2.5,None,
,,,,,,,,,,,,,,,,,,,,,,,,,,,,,,,,,,,,,,,,,,,,3,0,3,0,,,,,,,,,29.682869624999967,29.682869624999967,5,1.9876642499998525,,,,,,,,,,,,,,,,,,,,,,,,,,,,,,,,,,,,,,,,,,,,reldom2_s013,001,2025-02-14_12h16.58.001,Aud-B-Scan_AC,2022.2.5,None,
0,0.0,None,fixation,stimulus/audwhat_stim/blank_white.png,stimulus/audwhat_stim/blank_white.png,stimulus/audwhere_stim/blank_white.png,stimulus/audwhere_stim/blank_white.png,stimulus/audwhat_stim/blank_white.png,stimulus/audwhat_stim/blank_white.png,stimulus/audwhat_stim/blank_white.png,stimulus/audwhat_stim/blank_white.png,0.0,0.0,0.0,0.0,0,0.0,0,0.0,0,0.0,0,0.0,0,0.0,0.0,0,0,0,0,0,0,0,0,0,0.0,0,0.0,0,0.0,0,0.0,16,,,,,0,0,0,0,,,,,,,,,31.889100249999956,31.889100249999956,31.889100249999956,31.889100249999956,31.889100249999956,31.889100249999956,31.889100249999956,31.889100249999956,31.794031582666655,31.889100249999956,31.889100249999956,31.889100249999956,31.794031582666655,31.889100249999956,31.889100249999956,31.889100249999956,31.889100249999956,31.889100249999956,31.889100249999956,31.889100249999956,31.889100249999956,31.889100249999956,31.889100249999956,31.889100249999956,31.889100249999956,31.889100249999956,31.889100249999956,31.844031582666652,31.889100249999956,31.889100249999956,31.889100249999956,31.844031582666652,31.889100249999956,31.889100249999956,31.889100249999956,31.889100249999956,31.889100249999956,37.09807825000007,37.09807825000007,48.10312562499985,None,0,,reldom2_s013,001,2025-02-14_12h16.58.001,Aud-B-Scan_AC,2022.2.5,None,
1,First_Order,1.0,audwhat,stimulus/audwhat_stim/dummy.wav,stimulus/audwhat_stim/dummy.wav,stimulus/audwhat_stim/string viola_low-pitch_F_loud.wav,stimulus/audwhat_stim/string cello_high-pitch_Dtri_loud.wav,stimulus/audwhat_stim/blank_white.png,stimulus/audwhat_stim/pitch_box.png,stimulus/audwhat_stim/pitch_yes.png,stimulus/audwhat_stim/pitch_no.png,None,Pitch,None,Category,2,0.0,0,5.125,0,5.125,0,5.125,0,0.0,0.625,0,0,0,0,0,0,0,0,0,0.0,0,0.0,1,0.5,1,2.125,0,,,,,0,1,1,1,,,,,,,,,48.10312562499985,48.10312562499985,48.10312562499985,48.10312562499985,48.10312562499985,48.10312562499985,48.10312562499985,48.10312562499985,48.03580170800014,48.10312562499985,48.10312562499985,48.10312562499985,48.03580170800014,48.10312562499985,48.10312562499985,48.10312562499985,50.18353966599989,,48.10312562499985,48.10312562499985,53.283798124999976,48.10312562499985,48.10312562499985,48.10312562499985,48.10312562499985,48.590553208000074,49.65091437499996,48.56282899966642,,50.18353966599989,51.24697454099987,50.155662416666715,,48.10312562499985,53.283798124999976,48.10312562499985,53.283798124999976,53.322882665999714,53.986619207999865,48.10312562499985,1,0,1.7701182079995306,reldom2_s013,001,2025-02-14_12h16.58.001,Aud-B-Scan_AC,2022.2.5,None,
2,First_Order,1.0,audwhat,stimulus/audwhat_stim/dummy.wav,stimulus/audwhat_stim/dummy.wav,stimulus/audwhat_stim/percussion xylophone_high-pitch_Ftri_loud.wav,stimulus/audwhat_stim/string viola_high-pitch_Ftri_loud.wav,stimulus/audwhat_stim/blank_white.png,stimulus/audwhat_stim/pitch_box.png,stimulus/audwhat_stim/pitch_yes.png,stimulus/audwhat_stim/pitch_no.png,None,Pitch,None,Pitch,1,0.0,0,5.125,0,5.125,0,5.125,0,0.0,0.625,0,0,0,0,0,0,0,0,0,0.0,0,0.0,1,0.5,1,2.125,0,,,,,0,2,2,2,,,,,,,,,54.19297675000007,54.19297675000007,54.19297675000007,54.19297675000007,54.19297675000007,54.19297675000007,54.19297675000007,54.19297675000007,54.1199525413332,54.19297675000007,54.19297675000007,54.19297675000007,54.1199525413332,54.19297675000007,54.19297675000007,54.19297675000007,56.279541333,,54.19297675000007,54.19297675000007,59.34745699999985,54.19297675000007,54.19297675000007,54.19297675000007,54.19297675000007,54.63705141599985,55.703201833000094,54.60921166666664,55.65746220799974,56.279541333,57.346794290999696,56.2516547496664,,54.19297675000007,59.34745699999985,54.19297675000007,59.34745699999985,59.3868736659997,60.051602,54.19297675000007,2,0,2.665917124999851,reldom2_s013,001,2025-02-14_12h16.58.001,Aud-B-Scan_AC,2022.2.5,None,
3,First_Order,1.0,audwhat,stimulus/audwhat_stim/dummy.wav,stimulus/audwhat_stim/dummy.wav,stimulus/audwhat_stim/string viola_low-pitch_Dtri_loud.wav,stimulus/audwhat_stim/percussion mallet_low-pitch_Dtri_loud.wav,stimulus/audwhat_stim/blank_white.png,stimulus/audwhat_stim/category_box.png,stimulus/audwhat_stim/category_yes.png,stimulus/audwhat_stim/category_no.png,None,Category,None,Pitch,2,0.0,0,5.125,0,5.125,0,5.125,0,0.0,0.625,0,0,0,0,0,0,0,0,0,0.0,0,0.0,1,0.5,1,2.125,0,,,,,0,3,3,3,,,,,,,,,60.297058000000106,60.297058000000106,60.297058000000106,60.297058000000106,60.297058000000106,60.297058000000106,60.297058000000106,60.297058000000106,60.22383420833342,60.297058000000106,60.297058000000106,60.297058000000106,60.22383420833342,60.297058000000106,60.297058000000106,60.297058000000106,62.39855887499971,66.40430049999986,60.297058000000106,60.297058000000106,65.44976129099996,60.297058000000106,60.297058000000106,60.297058000000106,60.297058000000106,60.74404212499985,61.77317725000012,60.71578937466644,,62.39855887499971,63.43340504099979,62.370349582666464,,60.297058000000106,65.44976129099996,60.297058000000106,65.44976129099996,65.48927916599996,66.15879612499975,60.297058000000106,2,1,0.5993313339999986,reldom2_s013,001,2025-02-14_12h16.58.001,Aud-B-Scan_AC,2022.2.5,None,
4,First_Order,1.0,audwhat,stimulus/audwhat_stim/dummy.wav,stimulus/audwhat_stim/dummy.wav,stimulus/audwhat_stim/percussion mallet_low-pitch_D_loud.wav,stimulus/audwhat_stim/percussion xylophone_high-pitch_Dtri_loud.wav,stimulus/audwhat_stim/blank_white.png,stimulus/audwhat_stim/pitch_box.png,stimulus/audwhat_stim/pitch_yes.png,stimulus/audwhat_stim/pitch_no.png,None,Pitch,None,Category,2,0.0,0,5.125,0,5.125,0,5.125,0,0.0,0.625,0,0,0,0,0,0,0,0,0,0.0,0,0.0,1,0.5,1,2.125,0,,,,,0,4,4,4,,,,,,,,,66.40430049999986,66.40430049999986,66.40430049999986,66.40430049999986,66.40430049999986,66.40430049999986,66.40430049999986,66.40430049999986,66.33129270833308,66.40430049999986,66.40430049999986,66.40430049999986,66.33129270833308,66.40430049999986,66.40430049999986,66.40430049999986,68.50511541600008,72.5315229580001,66.40430049999986,66.40430049999986,71.55665320799972,66.40430049999986,66.40430049999986,66.40430049999986,66.40430049999986,66.85163125000008,67.87947637499974,66.8234487076668,,68.50511541600008,69.53689541599988,68.47669254166637,69.53689541599988,66.40430049999986,71.55665320799972,66.40430049999986,71.55665320799972,71.5965780409997,72.26827004100005,66.40430049999986,2,1,1.640685499999563,reldom2_s013,001,2025-02-14_12h16.58.001,Aud-B-Scan_AC,2022.2.5,None,
0,0.0,None,fixation,stimulus/audwhat_stim/blank_white.png,stimulus/audwhat_stim/blank_white.png,stimulus/audwhere_stim/blank_white.png,stimulus/audwhere_stim/blank_white.png,stimulus/audwhat_stim/blank_white.png,stimulus/audwhat_stim/blank_white.png,stimulus/audwhat_stim/blank_white.png,stimulus/audwhat_stim/blank_white.png,0.0,0.0,0.0,0.0,0,0.0,0,0.0,0,0.0,0,0.0,0,0.0,0.0,0,0,0,0,0,0,0,0,0,0.0,0,0.0,0,0.0,0,0.0,8,,,,,0,5,5,5,,,,,,,,,72.5315229580001,72.5315229580001,72.5315229580001,72.5315229580001,72.5315229580001,72.5315229580001,72.5315229580001,72.5315229580001,72.44082799933324,72.5315229580001,72.5315229580001,72.5315229580001,72.44082799933324,72.5315229580001,72.5315229580001,72.5315229580001,72.5315229580001,72.5315229580001,72.5315229580001,72.5315229580001,72.5315229580001,72.5315229580001,72.5315229580001,72.5315229580001,72.5315229580001,72.5315229580001,72.5315229580001,72.49082799933325,72.5315229580001,72.5315229580001,72.5315229580001,72.49082799933325,72.5315229580001,72.5315229580001,72.5315229580001,72.5315229580001,72.5315229580001,77.74279945799981,77.74279945799981,80.67410433299983,None,0,,reldom2_s013,001,2025-02-14_12h16.58.001,Aud-B-Scan_AC,2022.2.5,None,
5,Second_Order,1.0,audwhat,stimulus/audwhat_stim/percussion mallet_high-pitch_Dtri_loud.wav,stimulus/audwhat_stim/string cello_high-pitch_Dtri_loud.wav,stimulus/audwhat_stim/string viola_low-pitch_F_loud.wav,stimulus/audwhat_stim/percussion mallet_low-pitch_F_loud.wav,stimulus/audwhat_stim/match_blank.png,stimulus/audwhat_stim/match_box.png,stimulus/audwhat_stim/match_yes.png,stimulus/audwhat_stim/match_no.png,1.0,Match,Pitch,Pitch,1,5.125,0,5.125,0,5.125,0,5.125,0,0.75,0.75,0,0,0,0,0,0,0,0,1,0.5,1,2.125,1,0.5,1,2.125,0,,,,,0,6,6,6,,,,,,,,,80.67410433299983,85.79063912499987,80.67410433299983,80.67410433299983,80.67410433299983,80.67410433299983,81.12807720799992,82.11491087500008,81.14093387466643,,82.74943499999972,83.74758920800014,82.7618448326664,,85.79063912499987,86.64105666599971,88.70054041599997,92.621941375,86.64105666599971,86.64105666599971,91.79831287499974,86.64105666599971,86.64105666599971,86.64105666599971,86.64105666599971,87.08807483300006,88.1165773329999,87.0597094166667,,88.70054041599997,89.7377866249999,88.67185058266638,,86.64105666599971,91.79831287499974,86.64105666599971,91.79831287499974,91.79831287499974,,86.64105666599971,1,1,1.4501506249998783,reldom2_s013,001,2025-02-14_12h16.58.001,Aud-B-Scan_AC,2022.2.5,None,
6,Second_Order,1.0,audwhat,stimulus/audwhat_stim/percussion mallet_low-pitch_F_loud.wav,stimulus/audwhat_stim/percussion mallet_high-pitch_Dtri_loud.wav,stimulus/audwhat_stim/string viola_low-pitch_Ftri_loud.wav,stimulus/audwhat_stim/percussion mallet_low-pitch_Ftri_loud.wav,stimulus/audwhat_stim/match_blank.png,stimulus/audwhat_stim/match_box.png,stimulus/audwhat_stim/match_yes.png,stimulus/audwhat_stim/match_no.png,2.0,Match,Category,Pitch,2,5.125,0,5.125,0,5.125,0,5.125,0,0.625,0.625,0,0,0,0,0,0,0,0,1,0.5,1,2.125,1,0.5,1,2.125,0,,,,,0,7,7,7,,,,,,,,,92.621941375,97.73359433299993,92.621941375,92.621941375,92.621941375,92.621941375,93.0727375409997,94.07130866599982,93.0863656666668,,94.70669741599977,95.69489500000009,94.70976504166653,95.70833608299972,97.73359433299993,98.46599954099975,100.51644712500001,,98.46599954099975,98.46599954099975,103.64755216599997,98.46599954099975,98.46599954099975,98.46599954099975,98.46599954099975,98.910834583,99.98069587500004,98.88288249966651,,100.51644712500001,101.54627337500006,100.48821262466642,,98.46599954099975,103.64755216599997,98.46599954099975,103.64755216599997,103.64755216599997,104.31802529100014,98.46599954099975,2,1,0.6744762499997705,reldom2_s013,001,2025-02-14_12h16.58.001,Aud-B-Scan_AC,2022.2.5,None,
0,0.0,None,fixation,stimulus/audwhat_stim/blank_white.png,stimulus/audwhat_stim/blank_white.png,stimulus/audwhere_stim/blank_white.png,stimulus/audwhere_stim/blank_white.png,stimulus/audwhat_stim/blank_white.png,stimulus/audwhat_stim/blank_white.png,stimulus/audwhat_stim/blank_white.png,stimulus/audwhat_stim/blank_white.png,0.0,0.0,0.0,0.0,0,0.0,0,0.0,0,0.0,0,0.0,0,0.0,0.0,0,0,0,0,0,0,0,0,0,0.0,0,0.0,0,0.0,0,0.0,10,,,,,0,8,8,8,,,,,,,,,104.5423985829998,104.5423985829998,104.5423985829998,104.5423985829998,104.5423985829998,104.5423985829998,104.5423985829998,104.5423985829998,104.45135862433347,104.5423985829998,104.5423985829998,104.5423985829998,104.45135862433347,104.5423985829998,104.5423985829998,104.5423985829998,104.5423985829998,104.5423985829998,104.5423985829998,104.5423985829998,104.5423985829998,104.5423985829998,104.5423985829998,104.5423985829998,104.5423985829998,104.5423985829998,104.5423985829998,104.50135862433348,104.5423985829998,104.5423985829998,104.5423985829998,104.50135862433348,104.5423985829998,104.5423985829998,104.5423985829998,104.5423985829998,104.5423985829998,109.74897662500007,109.74897662500007,114.8007775000001,None,0,,reldom2_s013,001,2025-02-14_12h16.58.001,Aud-B-Scan_AC,2022.2.5,None,
7,First_Order,2.0,audwhat,stimulus/audwhat_stim/dummy.wav,stimulus/audwhat_stim/dummy.wav,stimulus/audwhat_stim/percussion xylophone_high-pitch_F_loud.wav,stimulus/audwhat_stim/percussion mallet_low-pitch_D_loud.wav,stimulus/audwhat_stim/blank_white.png,stimulus/audwhat_stim/category_box.png,stimulus/audwhat_stim/category_yes.png,stimulus/audwhat_stim/category_no.png,None,Category,None,Category,1,0.0,0,5.125,0,5.125,0,5.125,0,0.0,0.625,0,0,0,0,0,0,0,0,0,0.0,0,0.0,1,0.5,1,2.125,0,,,,,0,9,9,9,,,,,,,,,114.8007775000001,114.8007775000001,114.8007775000001,114.8007775000001,114.8007775000001,114.8007775000001,114.8007775000001,114.8007775000001,114.71674708299989,114.8007775000001,114.8007775000001,114.8007775000001,114.71674708299989,114.8007775000001,114.8007775000001,114.8007775000001,116.89374912499989,120.9204594580001,114.8007775000001,114.8007775000001,119.95138683300002,114.8007775000001,114.8007775000001,114.8007775000001,114.8007775000001,115.2553707080001,116.3022740829997,115.2258759166664,116.25653250000005,116.89374912499989,117.94392366600005,116.8647942076666,,114.8007775000001,119.95138683300002,114.8007775000001,119.95138683300002,119.99146254100015,120.67205370800002,114.8007775000001,2,0,2.0707155420000163,reldom2_s013,001,2025-02-14_12h16.58.001,Aud-B-Scan_AC,2022.2.5,None,
8,First_Order,2.0,audwhat,stimulus/audwhat_stim/dummy.wav,stimulus/audwhat_stim/dummy.wav,stimulus/audwhat_stim/percussion mallet_low-pitch_D_loud.wav,stimulus/audwhat_stim/string viola_low-pitch_D_loud.wav,stimulus/audwhat_stim/blank_white.png,stimulus/audwhat_stim/pitch_box.png,stimulus/audwhat_stim/pitch_yes.png,stimulus/audwhat_stim/pitch_no.png,None,Pitch,None,Pitch,1,0.0,0,5.125,0,5.125,0,5.125,0,0.0,0.625,0,0,0,0,0,0,0,0,0,0.0,0,0.0,1,0.5,1,2.125,0,,,,,0,10,10,10,,,,,,,,,120.9204594580001,120.9204594580001,120.9204594580001,120.9204594580001,120.9204594580001,120.9204594580001,120.9204594580001,120.9204594580001,120.84503695833303,120.9204594580001,120.9204594580001,120.9204594580001,120.84503695833303,120.9204594580001,120.9204594580001,120.9204594580001,123.01013220799996,127.03807958300013,120.9204594580001,120.9204594580001,126.10959099999991,120.9204594580001,120.9204594580001,120.9204594580001,120.9204594580001,121.37496099999998,122.41992416599987,121.34636833266656,,123.01013220799996,124.0626498749998,122.98094987466654,,120.9204594580001,126.10959099999991,120.9204594580001,126.10959099999991,126.1499403329999,126.82849633299975,120.9204594580001,1,1,1.7151585410001644,reldom2_s013,001,2025-02-14_12h16.58.001,Aud-B-Scan_AC,2022.2.5,None,
9,First_Order,2.0,audwhat,stimulus/audwhat_stim/dummy.wav,stimulus/audwhat_stim/dummy.wav,stimulus/audwhat_stim/percussion mallet_low-pitch_D_loud.wav,stimulus/audwhat_stim/percussion mallet_high-pitch_Ftri_loud.wav,stimulus/audwhat_stim/blank_white.png,stimulus/audwhat_stim/category_box.png,stimulus/audwhat_stim/category_yes.png,stimulus/audwhat_stim/category_no.png,None,Category,None,Category,1,0.0,0,5.125,0,5.125,0,5.125,0,0.0,0.625,0,0,0,0,0,0,0,0,0,0.0,0,0.0,1,0.5,1,2.125,0,,,,,0,11,11,11,,,,,,,,,127.03807958300013,127.03807958300013,127.03807958300013,127.03807958300013,127.03807958300013,127.03807958300013,127.03807958300013,127.03807958300013,126.96182966633307,127.03807958300013,127.03807958300013,127.03807958300013,126.96182966633307,127.03807958300013,127.03807958300013,127.03807958300013,129.14462187499976,,127.03807958300013,127.03807958300013,132.21151412500012,127.03807958300013,127.03807958300013,127.03807958300013,127.03807958300013,127.49649445800014,128.54968162499972,127.46735099966669,,129.14462187499976,130.19952645800004,129.11558149966666,,127.03807958300013,132.21151412500012,127.03807958300013,132.21151412500012,132.2524022499997,132.93524475000004,127.03807958300013,1,1,1.4651017080000202,reldom2_s013,001,2025-02-14_12h16.58.001,Aud-B-Scan_AC,2022.2.5,None,
10,First_Order,2.0,audwhat,stimulus/audwhat_stim/dummy.wav,stimulus/audwhat_stim/dummy.wav,stimulus/audwhat_stim/string cello_high-pitch_F_loud.wav,stimulus/audwhat_stim/percussion mallet_high-pitch_F_loud.wav,stimulus/audwhat_stim/blank_white.png,stimulus/audwhat_stim/category_box.png,stimulus/audwhat_stim/category_yes.png,stimulus/audwhat_stim/category_no.png,None,Category,None,Pitch,2,0.0,0,5.125,0,5.125,0,5.125,0,0.0,0.625,0,0,0,0,0,0,0,0,0,0.0,0,0.0,1,0.5,1,2.125,0,,,,,0,12,12,12,,,,,,,,,133.1473403750001,133.1473403750001,133.1473403750001,133.1473403750001,133.1473403750001,133.1473403750001,133.1473403750001,133.1473403750001,133.0685780833334,133.1473403750001,133.1473403750001,133.1473403750001,133.0685780833334,133.1473403750001,133.1473403750001,133.1473403750001,135.26118108299988,139.29306150000002,133.1473403750001,133.1473403750001,138.29638041599992,133.1473403750001,133.1473403750001,133.1473403750001,133.1473403750001,133.60740987500003,134.66563645799988,133.57792529166662,,135.26118108299988,136.3237638749997,135.23158391666655,,133.1473403750001,138.29638041599992,133.1473403750001,138.29638041599992,138.33682599999975,139.02162191599973,133.1473403750001,2,1,0.7726912920002178,reldom2_s013,001,2025-02-14_12h16.58.001,Aud-B-Scan_AC,2022.2.5,None,
0,0.0,None,fixation,stimulus/audwhat_stim/blank_white.png,stimulus/audwhat_stim/blank_white.png,stimulus/audwhere_stim/blank_white.png,stimulus/audwhere_stim/blank_white.png,stimulus/audwhat_stim/blank_white.png,stimulus/audwhat_stim/blank_white.png,stimulus/audwhat_stim/blank_white.png,stimulus/audwhat_stim/blank_white.png,0.0,0.0,0.0,0.0,0,0.0,0,0.0,0,0.0,0,0.0,0,0.0,0.0,0,0,0,0,0,0,0,0,0,0.0,0,0.0,0,0.0,0,0.0,8,,,,,0,13,13,13,,,,,,,,,139.29306150000002,139.29306150000002,139.29306150000002,139.29306150000002,139.29306150000002,139.29306150000002,139.29306150000002,139.29306150000002,139.19538891633343,139.29306150000002,139.29306150000002,139.29306150000002,139.19538891633343,139.29306150000002,139.29306150000002,139.29306150000002,139.29306150000002,139.29306150000002,139.29306150000002,139.29306150000002,139.29306150000002,139.29306150000002,139.29306150000002,139.29306150000002,139.29306150000002,139.29306150000002,139.29306150000002,139.2453889163334,139.29306150000002,139.29306150000002,139.29306150000002,139.2453889163334,139.29306150000002,139.29306150000002,139.29306150000002,139.29306150000002,139.29306150000002,144.51411670800007,144.51411670800007,147.45742979099987,None,0,,reldom2_s013,001,2025-02-14_12h16.58.001,Aud-B-Scan_AC,2022.2.5,None,
11,Second_Order,2.0,audwhat,stimulus/audwhat_stim/string viola_high-pitch_Dtri_loud.wav,stimulus/audwhat_stim/string cello_low-pitch_D_loud.wav,stimulus/audwhat_stim/percussion mallet_high-pitch_Dtri_loud.wav,stimulus/audwhat_stim/percussion mallet_low-pitch_Ftri_loud.wav,stimulus/audwhat_stim/match_blank.png,stimulus/audwhat_stim/match_box.png,stimulus/audwhat_stim/match_yes.png,stimulus/audwhat_stim/match_no.png,1.0,Match,Category,Category,1,5.125,0,5.125,0,5.125,0,5.125,0,0.75,0.75,0,0,0,0,0,0,0,0,1,0.5,1,2.125,1,0.5,1,2.125,0,,,,,0,14,14,14,,,,,,,,,147.45742979099987,152.57752062500003,147.45742979099987,147.45742979099987,147.45742979099987,147.45742979099987,147.91225020799993,148.90167329099995,147.91474408266666,,149.53507062500012,150.52533566600005,149.5488237076668,,152.57752062500003,153.42896087500003,155.46954237499995,,153.42896087500003,153.42896087500003,158.61321220799982,153.42896087500003,153.42896087500003,153.42896087500003,153.42896087500003,153.88193420800008,154.92414624999992,153.8531414996667,,155.46954237499995,156.52004979100002,155.44060091666668,,153.42896087500003,158.61321220799982,153.42896087500003,158.61321220799982,158.61321220799982,,153.42896087500003,1,1,0.7889501250001558,reldom2_s013,001,2025-02-14_12h16.58.001,Aud-B-Scan_AC,2022.2.5,None,
12,Second_Order,2.0,audwhat,stimulus/audwhat_stim/string viola_low-pitch_F_loud.wav,stimulus/audwhat_stim/string viola_high-pitch_Ftri_loud.wav,stimulus/audwhat_stim/percussion mallet_low-pitch_Ftri_loud.wav,stimulus/audwhat_stim/percussion xylophone_high-pitch_Dtri_loud.wav,stimulus/audwhat_stim/match_blank.png,stimulus/audwhat_stim/match_box.png,stimulus/audwhat_stim/match_yes.png,stimulus/audwhat_stim/match_no.png,1.0,Match,Category,Category,1,5.125,0,5.125,0,5.125,0,5.125,0,0.625,0.625,0,0,0,0,0,0,0,0,1,0.5,1,2.125,1,0.5,1,2.125,0,,,,,0,15,15,15,,,,,,,,,159.41108179100002,164.53399095799978,159.41108179100002,159.41108179100002,159.41108179100002,159.41108179100002,159.85878120799998,160.8457616249998,159.87302262466645,,161.49380158299982,162.4822422909997,161.49707149966642,,164.53399095799978,165.2667309999997,167.34004779099996,,165.2667309999997,165.2667309999997,170.45872054099982,165.2667309999997,165.2667309999997,165.2667309999997,165.2667309999997,165.71742029100005,166.75306929099997,165.68733345766648,,167.34004779099996,168.3829726250001,167.31096112466665,168.3829726250001,165.2667309999997,170.45872054099982,165.2667309999997,170.45872054099982,170.45872054099982,171.12841245799973,165.2667309999997,1,1,1.1538499589996718,reldom2_s013,001,2025-02-14_12h16.58.001,Aud-B-Scan_AC,2022.2.5,None,
0,0.0,None,fixation,stimulus/audwhat_stim/blank_white.png,stimulus/audwhat_stim/blank_white.png,stimulus/audwhere_stim/blank_white.png,stimulus/audwhere_stim/blank_white.png,stimulus/audwhat_stim/blank_white.png,stimulus/audwhat_stim/blank_white.png,stimulus/audwhat_stim/blank_white.png,stimulus/audwhat_stim/blank_white.png,0.0,0.0,0.0,0.0,0,0.0,0,0.0,0,0.0,0,0.0,0,0.0,0.0,0,0,0,0,0,0,0,0,0,0.0,0,0.0,0,0.0,0,0.0,9,,,,,0,16,16,16,,,,,,,,,171.3657955829999,171.3657955829999,171.3657955829999,171.3657955829999,171.3657955829999,171.3657955829999,171.3657955829999,171.3657955829999,171.26174579133308,171.3657955829999,171.3657955829999,171.3657955829999,171.26174579133308,171.3657955829999,171.3657955829999,171.3657955829999,171.3657955829999,171.3657955829999,171.3657955829999,171.3657955829999,171.3657955829999,171.3657955829999,171.3657955829999,171.3657955829999,171.3657955829999,171.3657955829999,171.3657955829999,171.32841245799975,171.3657955829999,171.3657955829999,171.3657955829999,171.32841245799975,171.3657955829999,171.3657955829999,171.3657955829999,171.3657955829999,171.3657955829999,176.5801755829998,176.5801755829998,180.58925312500014,None,0,,reldom2_s013,001,2025-02-14_12h16.58.001,Aud-B-Scan_AC,2022.2.5,None,
13,First_Order,3.0,audwhere,stimulus/audwhere_stim/dummy.wav,stimulus/audwhere_stim/dummy.wav,stimulus/audwhere_stim/left_toward_290h.wav,stimulus/audwhere_stim/right_toward_280h.wav,stimulus/audwhere_stim/blank_white.png,stimulus/audwhere_stim/direction_box.png,stimulus/audwhere_stim/direction_yes.png,stimulus/audwhere_stim/direction_no.png,None,Direction,None,Direction,1,0.0,0,5.125,0,5.125,0,5.125,0,0.0,0.625,0,0,0,0,0,0,0,0,0,0.0,0,0.0,1,0.5,1,2.125,0,,,,,0,17,17,17,,,,,,,,,180.58925312500014,180.58925312500014,180.58925312500014,180.58925312500014,180.58925312500014,180.58925312500014,180.58925312500014,180.58925312500014,180.5205503746667,180.58925312500014,180.58925312500014,180.58925312500014,180.5205503746667,180.58925312500014,180.58925312500014,180.58925312500014,182.70475529099986,186.71667775000014,180.58925312500014,180.58925312500014,185.73800241599974,180.58925312500014,180.58925312500014,180.58925312500014,180.58925312500014,181.0479190000001,182.10672358300008,181.0186319166667,,182.70475529099986,183.76546374999998,182.67541612466655,,180.58925312500014,185.73800241599974,180.58925312500014,185.73800241599974,185.77880800000003,186.46630454099977,180.58925312500014,1,1,1.009558042000208,reldom2_s013,001,2025-02-14_12h16.58.001,Aud-B-Scan_AC,2022.2.5,None,
14,First_Order,3.0,audwhere,stimulus/audwhere_stim/dummy.wav,stimulus/audwhere_stim/dummy.wav,stimulus/audwhere_stim/left_toward_270h.wav,stimulus/audwhere_stim/right_toward_290h.wav,stimulus/audwhere_stim/blank_white.png,stimulus/audwhere_stim/direction_box.png,stimulus/audwhere_stim/direction_yes.png,stimulus/audwhere_stim/direction_no.png,None,Direction,None,Direction,1,0.0,0,5.125,0,5.125,0,5.125,0,0.0,0.625,0,0,0,0,0,0,0,0,0,0.0,0,0.0,1,0.5,1,2.125,0,,,,,0,18,18,18,,,,,,,,,186.71667775000014,186.71667775000014,186.71667775000014,186.71667775000014,186.71667775000014,186.71667775000014,186.71667775000014,186.71667775000014,186.63986754133307,186.71667775000014,186.71667775000014,186.71667775000014,186.63986754133307,186.71667775000014,186.71667775000014,186.71667775000014,188.79144333299973,192.83017054099992,186.71667775000014,186.71667775000014,191.89019208299987,186.71667775000014,186.71667775000014,186.71667775000014,186.71667775000014,187.17931550000003,188.24001045800014,187.1494466666666,,188.79144333299973,189.858632166,188.76198599966645,,186.71667775000014,191.89019208299987,186.71667775000014,191.89019208299987,191.9312179159997,192.5800958330001,186.71667775000014,1,1,0.8025815829996645,reldom2_s013,001,2025-02-14_12h16.58.001,Aud-B-Scan_AC,2022.2.5,None,
15,First_Order,3.0,audwhere,stimulus/audwhere_stim/dummy.wav,stimulus/audwhere_stim/dummy.wav,stimulus/audwhere_stim/left_away_290h.wav,stimulus/audwhere_stim/left_toward_280h.wav,stimulus/audwhere_stim/blank_white.png,stimulus/audwhere_stim/direction_box.png,stimulus/audwhere_stim/direction_yes.png,stimulus/audwhere_stim/direction_no.png,None,Direction,None,Side,2,0.0,0,5.125,0,5.125,0,5.125,0,0.0,0.625,0,0,0,0,0,0,0,0,0,0.0,0,0.0,1,0.5,1,2.125,0,,,,,0,19,19,19,,,,,,,,,192.83017054099992,192.83017054099992,192.83017054099992,192.83017054099992,192.83017054099992,192.83017054099992,192.83017054099992,192.83017054099992,192.75362641633333,192.83017054099992,192.83017054099992,192.83017054099992,192.75362641633333,192.83017054099992,192.83017054099992,192.83017054099992,194.9064172909998,198.94644262500015,192.83017054099992,192.83017054099992,198.0077568329998,192.83017054099992,192.83017054099992,192.83017054099992,192.83017054099992,193.28947641600007,194.35323979099985,193.26046833266653,,194.9064172909998,195.97250945799988,194.87655016666648,,192.83017054099992,198.0077568329998,192.83017054099992,198.0077568329998,198.04798283299988,198.735450916,192.83017054099992,2,1,1.606176208999841,reldom2_s013,001,2025-02-14_12h16.58.001,Aud-B-Scan_AC,2022.2.5,None,
16,First_Order,3.0,audwhere,stimulus/audwhere_stim/dummy.wav,stimulus/audwhere_stim/dummy.wav,stimulus/audwhere_stim/left_toward_300h.wav,stimulus/audwhere_stim/left_away_290h.wav,stimulus/audwhere_stim/blank_white.png,stimulus/audwhere_stim/direction_box.png,stimulus/audwhere_stim/direction_yes.png,stimulus/audwhere_stim/direction_no.png,None,Direction,None,Side,2,0.0,0,5.125,0,5.125,0,5.125,0,0.0,0.625,0,0,0,0,0,0,0,0,0,0.0,0,0.0,1,0.5,1,2.125,0,,,,,0,20,20,20,,,,,,,,,198.94644262500015,198.94644262500015,198.94644262500015,198.94644262500015,198.94644262500015,198.94644262500015,198.94644262500015,198.94644262500015,198.86878424933334,198.94644262500015,198.94644262500015,198.94644262500015,198.86878424933334,198.94644262500015,198.94644262500015,198.94644262500015,201.0297721249999,,198.94644262500015,198.94644262500015,204.13557575000004,198.94644262500015,198.94644262500015,198.94644262500015,198.94644262500015,199.40789620799978,200.47619908299976,199.37902324966652,,201.0297721249999,202.09840258299982,200.9998357496668,,198.94644262500015,204.13557575000004,198.94644262500015,204.13557575000004,204.1765350830001,204.82738062499993,198.94644262500015,2,1,0.9844806249998328,reldom2_s013,001,2025-02-14_12h16.58.001,Aud-B-Scan_AC,2022.2.5,None,
0,0.0,None,fixation,stimulus/audwhat_stim/blank_white.png,stimulus/audwhat_stim/blank_white.png,stimulus/audwhere_stim/blank_white.png,stimulus/audwhere_stim/blank_white.png,stimulus/audwhat_stim/blank_white.png,stimulus/audwhat_stim/blank_white.png,stimulus/audwhat_stim/blank_white.png,stimulus/audwhat_stim/blank_white.png,0.0,0.0,0.0,0.0,0,0.0,0,0.0,0,0.0,0,0.0,0,0.0,0.0,0,0,0,0,0,0,0,0,0,0.0,0,0.0,0,0.0,0,0.0,10,,,,,0,21,21,21,,,,,,,,,205.05872091599986,205.05872091599986,205.05872091599986,205.05872091599986,205.05872091599986,205.05872091599986,205.05872091599986,205.05872091599986,204.9607139583333,205.05872091599986,205.05872091599986,205.05872091599986,204.9607139583333,205.05872091599986,205.05872091599986,205.05872091599986,205.05872091599986,205.05872091599986,205.05872091599986,205.05872091599986,205.05872091599986,205.05872091599986,205.05872091599986,205.05872091599986,205.05872091599986,205.05872091599986,205.05872091599986,205.01071395833327,205.05872091599986,205.05872091599986,205.05872091599986,205.01071395833327,205.05872091599986,205.05872091599986,205.05872091599986,205.05872091599986,205.05872091599986,210.2774327080001,210.2774327080001,215.20113541599994,None,0,,reldom2_s013,001,2025-02-14_12h16.58.001,Aud-B-Scan_AC,2022.2.5,None,
17,Second_Order,3.0,audwhere,stimulus/audwhere_stim/right_toward_290h.wav,stimulus/audwhere_stim/right_away_290h.wav,stimulus/audwhere_stim/right_away_280h.wav,stimulus/audwhere_stim/left_away_300h.wav,stimulus/audwhat_stim/match_blank.png,stimulus/audwhat_stim/match_box.png,stimulus/audwhat_stim/match_yes.png,stimulus/audwhat_stim/match_no.png,2.0,Match,Side,Direction,2,5.125,0,5.125,0,5.125,0,5.125,0,0.75,0.75,0,0,0,0,0,0,0,0,1,0.5,1,2.125,1,0.5,1,2.125,0,,,,,0,22,22,22,,,,,,,,,215.20113541599994,220.31739574999983,215.20113541599994,215.20113541599994,215.20113541599994,215.20113541599994,215.65436595799974,216.64129808300004,215.66866508266665,,217.27702091599986,218.27464250000003,217.28949766666645,,220.31739574999983,221.1675090829999,223.21712558299987,227.1685111249999,221.1675090829999,221.1675090829999,226.3266887079999,221.1675090829999,221.1675090829999,221.1675090829999,221.1675090829999,221.6202945,222.67010804099982,221.5912626246666,,223.21712558299987,224.27079241599995,223.18888008266666,,221.1675090829999,226.3266887079999,221.1675090829999,226.3266887079999,226.3266887079999,,221.1675090829999,2,1,0.6947106669999812,reldom2_s013,001,2025-02-14_12h16.58.001,Aud-B-Scan_AC,2022.2.5,None,
18,Second_Order,3.0,audwhere,stimulus/audwhere_stim/right_toward_270h.wav,stimulus/audwhere_stim/left_toward_270h.wav,stimulus/audwhere_stim/right_away_300h.wav,stimulus/audwhere_stim/left_away_280h.wav,stimulus/audwhat_stim/match_blank.png,stimulus/audwhat_stim/match_box.png,stimulus/audwhat_stim/match_yes.png,stimulus/audwhat_stim/match_no.png,1.0,Match,Direction,Direction,1,5.125,0,5.125,0,5.125,0,5.125,0,0.625,0.625,0,0,0,0,0,0,0,0,1,0.5,1,2.125,1,0.5,1,2.125,0,,,,,0,23,23,23,,,,,,,,,227.1685111249999,232.29059795800003,227.1685111249999,227.1685111249999,227.1685111249999,227.1685111249999,227.62936283299996,228.61861712500013,227.63226899966665,228.61861712500013,229.254697458,230.25255720799987,229.2670392076664,,232.29059795800003,233.02451529099972,235.063847333,,233.02451529099972,233.02451529099972,238.20250975,233.02451529099972,233.02451529099972,233.02451529099972,233.02451529099972,233.47537016599972,234.51888979099976,233.4460006666666,,235.063847333,236.11341641599984,235.03465999966673,,233.02451529099972,238.20250975,233.02451529099972,238.20250975,238.20250975,238.8819397909997,233.02451529099972,1,1,0.9566787090002435,reldom2_s013,001,2025-02-14_12h16.58.001,Aud-B-Scan_AC,2022.2.5,None,
0,0.0,None,fixation,stimulus/audwhat_stim/blank_white.png,stimulus/audwhat_stim/blank_white.png,stimulus/audwhere_stim/blank_white.png,stimulus/audwhere_stim/blank_white.png,stimulus/audwhat_stim/blank_white.png,stimulus/audwhat_stim/blank_white.png,stimulus/audwhat_stim/blank_white.png,stimulus/audwhat_stim/blank_white.png,0.0,0.0,0.0,0.0,0,0.0,0,0.0,0,0.0,0,0.0,0,0.0,0.0,0,0,0,0,0,0,0,0,0,0.0,0,0.0,0,0.0,0,0.0,8,,,,,0,24,24,24,,,,,,,,,239.11116249999986,239.11116249999986,239.11116249999986,239.11116249999986,239.11116249999986,239.11116249999986,239.11116249999986,239.11116249999986,239.01527312433305,239.11116249999986,239.11116249999986,239.11116249999986,239.01527312433305,239.11116249999986,239.11116249999986,239.11116249999986,239.11116249999986,239.11116249999986,239.11116249999986,239.11116249999986,239.11116249999986,239.11116249999986,239.11116249999986,239.11116249999986,239.11116249999986,239.11116249999986,239.11116249999986,239.06527312433303,239.11116249999986,239.11116249999986,239.11116249999986,239.06527312433303,239.11116249999986,239.11116249999986,239.11116249999986,239.11116249999986,239.11116249999986,244.29954308300012,244.29954308300012,247.3789978750001,None,0,,reldom2_s013,001,2025-02-14_12h16.58.001,Aud-B-Scan_AC,2022.2.5,None,
19,First_Order,4.0,audwhere,stimulus/audwhere_stim/dummy.wav,stimulus/audwhere_stim/dummy.wav,stimulus/audwhere_stim/right_toward_280h.wav,stimulus/audwhere_stim/left_toward_280h.wav,stimulus/audwhere_stim/blank_white.png,stimulus/audwhere_stim/side_box.png,stimulus/audwhere_stim/side_yes.png,stimulus/audwhere_stim/side_no.png,None,Side,None,Direction,2,0.0,0,5.125,0,5.125,0,5.125,0,0.0,0.625,0,0,0,0,0,0,0,0,0,0.0,0,0.0,1,0.5,1,2.125,0,,,,,0,25,25,25,,,,,,,,,247.3789978750001,247.3789978750001,247.3789978750001,247.3789978750001,247.3789978750001,247.3789978750001,247.3789978750001,247.3789978750001,247.3050596666664,247.3789978750001,247.3789978750001,247.3789978750001,247.3050596666664,247.3789978750001,247.3789978750001,247.3789978750001,249.48261237499992,253.4941158749998,247.3789978750001,247.3789978750001,252.55868008300013,247.3789978750001,247.3789978750001,247.3789978750001,247.3789978750001,247.83697833299993,248.88942233299986,247.8079396666665,,249.48261237499992,250.54077874999984,249.4534064166667,,247.3789978750001,252.55868008300013,247.3789978750001,252.55868008300013,252.5989760829998,253.2850710409998,247.3789978750001,2,1,1.0490785000001779,reldom2_s013,001,2025-02-14_12h16.58.001,Aud-B-Scan_AC,2022.2.5,None,
20,First_Order,4.0,audwhere,stimulus/audwhere_stim/dummy.wav,stimulus/audwhere_stim/dummy.wav,stimulus/audwhere_stim/left_toward_290h.wav,stimulus/audwhere_stim/right_toward_270h.wav,stimulus/audwhere_stim/blank_white.png,stimulus/audwhere_stim/side_box.png,stimulus/audwhere_stim/side_yes.png,stimulus/audwhere_stim/side_no.png,None,Side,None,Direction,2,0.0,0,5.125,0,5.125,0,5.125,0,0.0,0.625,0,0,0,0,0,0,0,0,0,0.0,0,0.0,1,0.5,1,2.125,0,,,,,0,26,26,26,,,,,,,,,253.4941158749998,253.4941158749998,253.4941158749998,253.4941158749998,253.4941158749998,253.4941158749998,253.4941158749998,253.4941158749998,253.41840437433316,253.4941158749998,253.4941158749998,253.4941158749998,253.41840437433316,253.4941158749998,253.4941158749998,253.4941158749998,255.60677929099984,259.62186229100007,253.4941158749998,253.4941158749998,258.68557620799993,253.4941158749998,253.4941158749998,253.4941158749998,253.4941158749998,253.95232062500008,255.01029358300002,253.92299724966668,,255.60677929099984,256.6665955409999,255.57735524966645,,253.4941158749998,258.68557620799993,253.4941158749998,258.68557620799993,258.68557620799993,259.3713924159997,253.4941158749998,2,1,1.6842449579999084,reldom2_s013,001,2025-02-14_12h16.58.001,Aud-B-Scan_AC,2022.2.5,None,
21,First_Order,4.0,audwhere,stimulus/audwhere_stim/dummy.wav,stimulus/audwhere_stim/dummy.wav,stimulus/audwhere_stim/left_toward_270h.wav,stimulus/audwhere_stim/left_away_300h.wav,stimulus/audwhere_stim/blank_white.png,stimulus/audwhere_stim/side_box.png,stimulus/audwhere_stim/side_yes.png,stimulus/audwhere_stim/side_no.png,None,Side,None,Side,1,0.0,0,5.125,0,5.125,0,5.125,0,0.0,0.625,0,0,0,0,0,0,0,0,0,0.0,0,0.0,1,0.5,1,2.125,0,,,,,0,27,27,27,,,,,,,,,259.62186229100007,259.62186229100007,259.62186229100007,259.62186229100007,259.62186229100007,259.62186229100007,259.62186229100007,259.62186229100007,259.54482291633315,259.62186229100007,259.62186229100007,259.62186229100007,259.54482291633315,259.62186229100007,259.62186229100007,259.62186229100007,261.7384432079998,,259.62186229100007,259.62186229100007,264.7730060829999,259.62186229100007,259.62186229100007,259.62186229100007,259.62186229100007,260.0836260830001,261.1408429160001,260.05412499966656,,261.7384432079998,262.7989439160001,261.7081774576666,,259.62186229100007,264.7730060829999,259.62186229100007,264.7730060829999,264.8142174159998,265.4646066659998,259.62186229100007,1,1,0.7843057499994757,reldom2_s013,001,2025-02-14_12h16.58.001,Aud-B-Scan_AC,2022.2.5,None,
22,First_Order,4.0,audwhere,stimulus/audwhere_stim/dummy.wav,stimulus/audwhere_stim/dummy.wav,stimulus/audwhere_stim/left_away_290h.wav,stimulus/audwhere_stim/left_toward_270h.wav,stimulus/audwhere_stim/blank_white.png,stimulus/audwhere_stim/side_box.png,stimulus/audwhere_stim/side_yes.png,stimulus/audwhere_stim/side_no.png,None,Side,None,Side,1,0.0,0,5.125,0,5.125,0,5.125,0,0.0,0.625,0,0,0,0,0,0,0,0,0,0.0,0,0.0,1,0.5,1,2.125,0,,,,,0,28,28,28,,,,,,,,,265.7177274999999,265.7177274999999,265.7177274999999,265.7177274999999,265.7177274999999,265.7177274999999,265.7177274999999,265.7177274999999,265.6384527913334,265.7177274999999,265.7177274999999,265.7177274999999,265.6384527913334,265.7177274999999,265.7177274999999,265.7177274999999,267.7923986659998,271.85123795799973,265.7177274999999,265.7177274999999,270.8863234579999,265.7177274999999,265.7177274999999,265.7177274999999,265.7177274999999,266.17918166599975,267.2385184159998,266.14963974966645,,267.7923986659998,268.8574679999997,267.7625896246666,,265.7177274999999,270.8863234579999,265.7177274999999,270.8863234579999,270.9273348329998,271.57711141599975,265.7177274999999,1,1,0.9940998749998471,reldom2_s013,001,2025-02-14_12h16.58.001,Aud-B-Scan_AC,2022.2.5,None,
0,0.0,None,fixation,stimulus/audwhat_stim/blank_white.png,stimulus/audwhat_stim/blank_white.png,stimulus/audwhere_stim/blank_white.png,stimulus/audwhere_stim/blank_white.png,stimulus/audwhat_stim/blank_white.png,stimulus/audwhat_stim/blank_white.png,stimulus/audwhat_stim/blank_white.png,stimulus/audwhat_stim/blank_white.png,0.0,0.0,0.0,0.0,0,0.0,0,0.0,0,0.0,0,0.0,0,0.0,0.0,0,0,0,0,0,0,0,0,0,0.0,0,0.0,0,0.0,0,0.0,10,,,,,0,29,29,29,,,,,,,,,271.85123795799973,271.85123795799973,271.85123795799973,271.85123795799973,271.85123795799973,271.85123795799973,271.85123795799973,271.85123795799973,271.7515711243333,271.85123795799973,271.85123795799973,271.85123795799973,271.7515711243333,271.85123795799973,271.85123795799973,271.85123795799973,271.85123795799973,271.85123795799973,271.85123795799973,271.85123795799973,271.85123795799973,271.85123795799973,271.85123795799973,271.85123795799973,271.85123795799973,271.85123795799973,271.85123795799973,271.8015711243333,271.85123795799973,271.85123795799973,271.85123795799973,271.8015711243333,271.85123795799973,271.85123795799973,271.85123795799973,271.85123795799973,271.85123795799973,277.0508863330001,277.0508863330001,282.0071364579999,None,0,,reldom2_s013,001,2025-02-14_12h16.58.001,Aud-B-Scan_AC,2022.2.5,None,
23,Second_Order,4.0,audwhere,stimulus/audwhere_stim/right_toward_300h.wav,stimulus/audwhere_stim/left_toward_270h.wav,stimulus/audwhere_stim/left_away_300h.wav,stimulus/audwhere_stim/right_away_300h.wav,stimulus/audwhat_stim/match_blank.png,stimulus/audwhat_stim/match_box.png,stimulus/audwhat_stim/match_yes.png,stimulus/audwhat_stim/match_no.png,1.0,Match,Direction,Direction,1,5.125,0,5.125,0,5.125,0,5.125,0,0.75,0.75,0,0,0,0,0,0,0,0,1,0.5,1,2.125,1,0.5,1,2.125,0,,,,,0,30,30,30,,,,,,,,,282.0071364579999,287.121451041,282.0071364579999,282.0071364579999,282.0071364579999,282.0071364579999,282.4599995829999,283.4587960829999,282.4732394166665,,284.08113912499994,285.07918808299974,284.09375495766676,,287.121451041,287.97223062500007,290.030836208,,287.97223062500007,287.97223062500007,293.1506516659997,287.97223062500007,287.97223062500007,287.97223062500007,287.97223062500007,288.42869999999994,289.47912766599984,288.40028679166676,,290.030836208,291.0866286659998,290.0012889996667,,287.97223062500007,293.1506516659997,287.97223062500007,293.1506516659997,293.1506516659997,,287.97223062500007,1,1,0.8320254999998724,reldom2_s013,001,2025-02-14_12h16.58.001,Aud-B-Scan_AC,2022.2.5,None,
24,Second_Order,4.0,audwhere,stimulus/audwhere_stim/right_toward_300h.wav,stimulus/audwhere_stim/left_toward_300h.wav,stimulus/audwhere_stim/left_away_290h.wav,stimulus/audwhere_stim/right_away_280h.wav,stimulus/audwhat_stim/match_blank.png,stimulus/audwhat_stim/match_box.png,stimulus/audwhat_stim/match_yes.png,stimulus/audwhat_stim/match_no.png,1.0,Match,Direction,Direction,1,5.125,0,5.125,0,5.125,0,5.125,0,0.625,0.625,0,0,0,0,0,0,0,0,1,0.5,1,2.125,1,0.5,1,2.125,0,,,,,0,31,31,31,,,,,,,,,293.9556027079998,299.07826995799996,293.9556027079998,293.9556027079998,293.9556027079998,293.9556027079998,294.402823375,295.38958112499995,294.41723637466635,,296.03764249999995,297.0266470829997,296.0416751246664,,299.07826995799996,299.79559945799974,301.88572562499985,,299.79559945799974,299.79559945799974,304.9859272079998,299.79559945799974,299.79559945799974,299.79559945799974,299.79559945799974,300.2475278329998,301.29287720799994,300.21901016666675,301.24732562500003,301.88572562499985,302.93544358300005,301.8570062496667,,299.79559945799974,304.9859272079998,299.79559945799974,304.9859272079998,304.9859272079998,305.66580183299993,299.79559945799974,1,1,0.9873256249998121,reldom2_s013,001,2025-02-14_12h16.58.001,Aud-B-Scan_AC,2022.2.5,None,
0,0.0,None,fixation,stimulus/audwhat_stim/blank_white.png,stimulus/audwhat_stim/blank_white.png,stimulus/audwhere_stim/blank_white.png,stimulus/audwhere_stim/blank_white.png,stimulus/audwhat_stim/blank_white.png,stimulus/audwhat_stim/blank_white.png,stimulus/audwhat_stim/blank_white.png,stimulus/audwhat_stim/blank_white.png,0.0,0.0,0.0,0.0,0,0.0,0,0.0,0,0.0,0,0.0,0,0.0,0.0,0,0,0,0,0,0,0,0,0,0.0,0,0.0,0,0.0,0,0.0,9,,,,,0,32,32,32,,,,,,,,,305.89608729099973,305.89608729099973,305.89608729099973,305.89608729099973,305.89608729099973,305.89608729099973,305.89608729099973,305.89608729099973,305.79913516633326,305.89608729099973,305.89608729099973,305.89608729099973,305.79913516633326,305.89608729099973,305.89608729099973,305.89608729099973,305.89608729099973,305.89608729099973,305.89608729099973,305.89608729099973,305.89608729099973,305.89608729099973,305.89608729099973,305.89608729099973,305.89608729099973,305.89608729099973,305.89608729099973,305.84913516633327,305.89608729099973,305.89608729099973,305.89608729099973,305.84913516633327,305.89608729099973,305.89608729099973,305.89608729099973,305.89608729099973,305.89608729099973,311.09576874999993,311.09576874999993,315.12243308300003,None,0,,reldom2_s013,001,2025-02-14_12h16.58.001,Aud-B-Scan_AC,2022.2.5,None,
25,First_Order,5.0,audwhat,stimulus/audwhat_stim/dummy.wav,stimulus/audwhat_stim/dummy.wav,stimulus/audwhat_stim/percussion xylophone_high-pitch_Ftri_loud.wav,stimulus/audwhat_stim/percussion mallet_low-pitch_F_loud.wav,stimulus/audwhat_stim/blank_white.png,stimulus/audwhat_stim/pitch_box.png,stimulus/audwhat_stim/pitch_yes.png,stimulus/audwhat_stim/pitch_no.png,None,Pitch,None,Category,2,0.0,0,5.125,0,5.125,0,5.125,0,0.0,0.625,0,0,0,0,0,0,0,0,0,0.0,0,0.0,1,0.5,1,2.125,0,,,,,0,33,33,33,,,,,,,,,315.12243308300003,315.12243308300003,315.12243308300003,315.12243308300003,315.12243308300003,315.12243308300003,315.12243308300003,315.12243308300003,315.05296716666646,315.12243308300003,315.12243308300003,315.12243308300003,315.05296716666646,315.12243308300003,315.12243308300003,315.12243308300003,317.19626125000013,,315.12243308300003,315.12243308300003,320.27875191600015,315.12243308300003,315.12243308300003,315.12243308300003,315.12243308300003,315.5831348749998,316.6434201249999,315.55336570766644,316.59742341599986,317.19626125000013,318.25474966599995,317.1666753326665,,315.12243308300003,320.27875191600015,315.12243308300003,320.27875191600015,320.319771166,321.00505516600015,315.12243308300003,1,0,2.0786192499999743,reldom2_s013,001,2025-02-14_12h16.58.001,Aud-B-Scan_AC,2022.2.5,None,
26,First_Order,5.0,audwhat,stimulus/audwhat_stim/dummy.wav,stimulus/audwhat_stim/dummy.wav,stimulus/audwhat_stim/percussion mallet_low-pitch_Dtri_loud.wav,stimulus/audwhat_stim/percussion xylophone_high-pitch_Ftri_loud.wav,stimulus/audwhat_stim/blank_white.png,stimulus/audwhat_stim/category_box.png,stimulus/audwhat_stim/category_yes.png,stimulus/audwhat_stim/category_no.png,None,Category,None,Category,1,0.0,0,5.125,0,5.125,0,5.125,0,0.0,0.625,0,0,0,0,0,0,0,0,0,0.0,0,0.0,1,0.5,1,2.125,0,,,,,0,34,34,34,,,,,,,,,321.2166230409998,321.2166230409998,321.2166230409998,321.2166230409998,321.2166230409998,321.2166230409998,321.2166230409998,321.2166230409998,321.1383884993335,321.2166230409998,321.2166230409998,321.2166230409998,321.1383884993335,321.2166230409998,321.2166230409998,321.2166230409998,323.3020497499997,,321.2166230409998,321.2166230409998,326.4033747499998,321.2166230409998,321.2166230409998,321.2166230409998,321.2166230409998,321.6814224159998,322.74770183300006,321.65078962466646,,323.3020497499997,324.36764779099985,323.27217537466663,324.32167091600013,321.2166230409998,326.4033747499998,321.2166230409998,326.4033747499998,326.445157958,327.09591979100014,321.2166230409998,1,1,0.7432724999998754,reldom2_s013,001,2025-02-14_12h16.58.001,Aud-B-Scan_AC,2022.2.5,None,
27,First_Order,5.0,audwhat,stimulus/audwhat_stim/dummy.wav,stimulus/audwhat_stim/dummy.wav,stimulus/audwhat_stim/string cello_low-pitch_Dtri_loud.wav,stimulus/audwhat_stim/percussion mallet_low-pitch_Dtri_loud.wav,stimulus/audwhat_stim/blank_white.png,stimulus/audwhat_stim/pitch_box.png,stimulus/audwhat_stim/pitch_yes.png,stimulus/audwhat_stim/pitch_no.png,None,Pitch,None,Pitch,1,0.0,0,5.125,0,5.125,0,5.125,0,0.0,0.625,0,0,0,0,0,0,0,0,0,0.0,0,0.0,1,0.5,1,2.125,0,,,,,0,35,35,35,,,,,,,,,327.309646791,327.309646791,327.309646791,327.309646791,327.309646791,327.309646791,327.309646791,327.309646791,327.22925312433347,327.309646791,327.309646791,327.309646791,327.22925312433347,327.309646791,327.309646791,327.309646791,329.39151816599997,333.4356035410001,327.309646791,327.309646791,332.49112225,327.309646791,327.309646791,327.309646791,327.309646791,327.7730701249998,328.8359645830001,327.7431746246664,,329.39151816599997,330.4588964999998,329.3617401666668,,327.309646791,332.49112225,327.309646791,332.49112225,332.5322522910001,333.18318087499983,327.309646791,1,1,0.9913517499999216,reldom2_s013,001,2025-02-14_12h16.58.001,Aud-B-Scan_AC,2022.2.5,None,
28,First_Order,5.0,audwhat,stimulus/audwhat_stim/dummy.wav,stimulus/audwhat_stim/dummy.wav,stimulus/audwhat_stim/percussion xylophone_high-pitch_Ftri_loud.wav,stimulus/audwhat_stim/percussion mallet_low-pitch_F_loud.wav,stimulus/audwhat_stim/blank_white.png,stimulus/audwhat_stim/category_box.png,stimulus/audwhat_stim/category_yes.png,stimulus/audwhat_stim/category_no.png,None,Category,None,Category,1,0.0,0,5.125,0,5.125,0,5.125,0,0.0,0.625,0,0,0,0,0,0,0,0,0,0.0,0,0.0,1,0.5,1,2.125,0,,,,,0,36,36,36,,,,,,,,,333.4356035410001,333.4356035410001,333.4356035410001,333.4356035410001,333.4356035410001,333.4356035410001,333.4356035410001,333.4356035410001,333.35706833333336,333.4356035410001,333.4356035410001,333.4356035410001,333.35706833333336,333.4356035410001,333.4356035410001,333.4356035410001,335.5255310829998,,333.4356035410001,333.4356035410001,338.6294337909999,333.4356035410001,333.4356035410001,333.4356035410001,333.4356035410001,333.90233254099985,334.96854274999987,333.87235245766647,334.9225420409998,335.5255310829998,336.5942585829998,335.4958038326665,,333.4356035410001,338.6294337909999,333.4356035410001,338.6294337909999,338.6294337909999,339.2836781249998,333.4356035410001,1,1,0.6392195409998749,reldom2_s013,001,2025-02-14_12h16.58.001,Aud-B-Scan_AC,2022.2.5,None,
0,0.0,None,fixation,stimulus/audwhat_stim/blank_white.png,stimulus/audwhat_stim/blank_white.png,stimulus/audwhere_stim/blank_white.png,stimulus/audwhere_stim/blank_white.png,stimulus/audwhat_stim/blank_white.png,stimulus/audwhat_stim/blank_white.png,stimulus/audwhat_stim/blank_white.png,stimulus/audwhat_stim/blank_white.png,0.0,0.0,0.0,0.0,0,0.0,0,0.0,0,0.0,0,0.0,0,0.0,0.0,0,0,0,0,0,0,0,0,0,0.0,0,0.0,0,0.0,0,0.0,8,,,,,0,37,37,37,,,,,,,,,339.5559613749997,339.5559613749997,339.5559613749997,339.5559613749997,339.5559613749997,339.5559613749997,339.5559613749997,339.5559613749997,339.4577839993332,339.5559613749997,339.5559613749997,339.5559613749997,339.4577839993332,339.5559613749997,339.5559613749997,339.5559613749997,339.5559613749997,339.5559613749997,339.5559613749997,339.5559613749997,339.5559613749997,339.5559613749997,339.5559613749997,339.5559613749997,339.5559613749997,339.5559613749997,339.5559613749997,339.5077839993332,339.5559613749997,339.5559613749997,339.5559613749997,339.5077839993332,339.5559613749997,339.5559613749997,339.5559613749997,339.5559613749997,339.5559613749997,344.7832949579997,344.7832949579997,347.701604375,None,0,,reldom2_s013,001,2025-02-14_12h16.58.001,Aud-B-Scan_AC,2022.2.5,None,
29,Second_Order,5.0,audwhat,stimulus/audwhat_stim/string viola_low-pitch_Dtri_loud.wav,stimulus/audwhat_stim/percussion mallet_low-pitch_Dtri_loud.wav,stimulus/audwhat_stim/string viola_low-pitch_Dtri_loud.wav,stimulus/audwhat_stim/string cello_high-pitch_Ftri_loud.wav,stimulus/audwhat_stim/match_blank.png,stimulus/audwhat_stim/match_box.png,stimulus/audwhat_stim/match_yes.png,stimulus/audwhat_stim/match_no.png,2.0,Match,Pitch,Category,2,5.125,0,5.125,0,5.125,0,5.125,0,0.75,0.75,0,0,0,0,0,0,0,0,1,0.5,1,2.125,1,0.5,1,2.125,0,,,,,0,38,38,38,,,,,,,,,347.701604375,352.82328237499996,347.701604375,347.701604375,347.701604375,347.701604375,348.158132,349.1470945830001,348.16189454166647,,349.7826811249997,350.78107324999974,349.79521537466667,,352.82328237499996,353.673607833,355.7348028749998,359.6600841659997,353.673607833,353.673607833,358.8577176660001,353.673607833,353.673607833,353.673607833,353.673607833,354.1312722079997,355.18362416599984,354.10201337466674,,355.7348028749998,356.7900196249998,355.7050009166667,,353.673607833,358.8577176660001,353.673607833,358.8577176660001,358.8577176660001,,353.673607833,2,1,1.7189337499994508,reldom2_s013,001,2025-02-14_12h16.58.001,Aud-B-Scan_AC,2022.2.5,None,
30,Second_Order,5.0,audwhat,stimulus/audwhat_stim/string viola_high-pitch_Ftri_loud.wav,stimulus/audwhat_stim/percussion xylophone_high-pitch_Ftri_loud.wav,stimulus/audwhat_stim/string viola_low-pitch_D_loud.wav,stimulus/audwhat_stim/percussion mallet_low-pitch_D_loud.wav,stimulus/audwhat_stim/match_blank.png,stimulus/audwhat_stim/match_box.png,stimulus/audwhat_stim/match_yes.png,stimulus/audwhat_stim/match_no.png,1.0,Match,Pitch,Pitch,1,5.125,0,5.125,0,5.125,0,5.125,0,0.625,0.625,0,0,0,0,0,0,0,0,1,0.5,1,2.125,1,0.5,1,2.125,0,,,,,0,39,39,39,,,,,,,,,359.6600841659997,364.7842572499999,359.6600841659997,359.6600841659997,359.6600841659997,359.6600841659997,360.1188817500001,361.1079223329998,360.12213833266674,,361.7437755410001,362.7419016660001,361.75625974966647,362.7457253749999,364.7842572499999,365.5138629160001,367.5585872500001,371.61914887500006,365.5138629160001,365.5138629160001,370.6656849159999,365.5138629160001,365.5138629160001,365.5138629160001,365.5138629160001,365.9670443750001,367.0123652909997,365.9386399166667,,367.5585872500001,368.6136510000001,367.52966924966654,,365.5138629160001,370.6656849159999,365.5138629160001,370.6656849159999,370.705949833,371.38868754099985,365.5138629160001,1,1,0.536376042000029,reldom2_s013,001,2025-02-14_12h16.58.001,Aud-B-Scan_AC,2022.2.5,None,
0,0.0,None,fixation,stimulus/audwhat_stim/blank_white.png,stimulus/audwhat_stim/blank_white.png,stimulus/audwhere_stim/blank_white.png,stimulus/audwhere_stim/blank_white.png,stimulus/audwhat_stim/blank_white.png,stimulus/audwhat_stim/blank_white.png,stimulus/audwhat_stim/blank_white.png,stimulus/audwhat_stim/blank_white.png,0.0,0.0,0.0,0.0,0,0.0,0,0.0,0,0.0,0,0.0,0,0.0,0.0,0,0,0,0,0,0,0,0,0,0.0,0,0.0,0,0.0,0,0.0,9,,,,,0,40,40,40,,,,,,,,,371.61914887500006,371.61914887500006,371.61914887500006,371.61914887500006,371.61914887500006,371.61914887500006,371.61914887500006,371.61914887500006,371.5220208743332,371.61914887500006,371.61914887500006,371.61914887500006,371.5220208743332,371.61914887500006,371.61914887500006,371.61914887500006,371.61914887500006,371.61914887500006,371.61914887500006,371.61914887500006,371.61914887500006,371.61914887500006,371.61914887500006,371.61914887500006,371.61914887500006,371.61914887500006,371.61914887500006,371.5720208743332,371.61914887500006,371.61914887500006,371.61914887500006,371.5720208743332,371.61914887500006,371.61914887500006,371.61914887500006,371.61914887500006,371.61914887500006,376.82681975000014,376.82681975000014,380.8659042909999,None,0,,reldom2_s013,001,2025-02-14_12h16.58.001,Aud-B-Scan_AC,2022.2.5,None,
31,First_Order,6.0,audwhat,stimulus/audwhat_stim/dummy.wav,stimulus/audwhat_stim/dummy.wav,stimulus/audwhat_stim/string viola_low-pitch_D_loud.wav,stimulus/audwhat_stim/percussion mallet_low-pitch_D_loud.wav,stimulus/audwhat_stim/blank_white.png,stimulus/audwhat_stim/category_box.png,stimulus/audwhat_stim/category_yes.png,stimulus/audwhat_stim/category_no.png,None,Category,None,Pitch,2,0.0,0,5.125,0,5.125,0,5.125,0,0.0,0.625,0,0,0,0,0,0,0,0,0,0.0,0,0.0,1,0.5,1,2.125,0,,,,,0,41,41,41,,,,,,,,,380.8659042909999,380.8659042909999,380.8659042909999,380.8659042909999,380.8659042909999,380.8659042909999,380.8659042909999,380.8659042909999,380.7968584166666,380.8659042909999,380.8659042909999,380.8659042909999,380.7968584166666,380.8659042909999,380.8659042909999,380.8659042909999,382.94667033299993,,380.8659042909999,380.8659042909999,386.052004958,380.8659042909999,380.8659042909999,380.8659042909999,380.8659042909999,381.32740991599985,382.3921232079997,381.2977112916667,,382.94667033299993,384.0134683749998,382.91676220766635,,380.8659042909999,386.052004958,380.8659042909999,386.052004958,386.09253475000014,386.74559154100007,380.8659042909999,2,1,1.6549599170002693,reldom2_s013,001,2025-02-14_12h16.58.001,Aud-B-Scan_AC,2022.2.5,None,
32,First_Order,6.0,audwhat,stimulus/audwhat_stim/dummy.wav,stimulus/audwhat_stim/dummy.wav,stimulus/audwhat_stim/percussion mallet_high-pitch_Dtri_loud.wav,stimulus/audwhat_stim/string viola_high-pitch_Dtri_loud.wav,stimulus/audwhat_stim/blank_white.png,stimulus/audwhat_stim/pitch_box.png,stimulus/audwhat_stim/pitch_yes.png,stimulus/audwhat_stim/pitch_no.png,None,Pitch,None,Pitch,1,0.0,0,5.125,0,5.125,0,5.125,0,0.0,0.625,0,0,0,0,0,0,0,0,0,0.0,0,0.0,1,0.5,1,2.125,0,,,,,0,42,42,42,,,,,,,,,386.9573235409998,386.9573235409998,386.9573235409998,386.9573235409998,386.9573235409998,386.9573235409998,386.9573235409998,386.9573235409998,386.8789248743334,386.9573235409998,386.9573235409998,386.9573235409998,386.8789248743334,386.9573235409998,386.9573235409998,386.9573235409998,389.0403081659997,393.07809258299994,386.9573235409998,386.9573235409998,392.1337683329998,386.9573235409998,386.9573235409998,386.9573235409998,386.9573235409998,387.41873908299976,388.48507408299974,387.38896420766673,,389.0403081659997,390.10382541599984,389.0104602496665,,386.9573235409998,392.1337683329998,386.9573235409998,392.1337683329998,392.1745432079997,392.823766083,386.9573235409998,1,1,0.6492136659999233,reldom2_s013,001,2025-02-14_12h16.58.001,Aud-B-Scan_AC,2022.2.5,None,
33,First_Order,6.0,audwhat,stimulus/audwhat_stim/dummy.wav,stimulus/audwhat_stim/dummy.wav,stimulus/audwhat_stim/string cello_high-pitch_D_loud.wav,stimulus/audwhat_stim/string viola_low-pitch_F_loud.wav,stimulus/audwhat_stim/blank_white.png,stimulus/audwhat_stim/pitch_box.png,stimulus/audwhat_stim/pitch_yes.png,stimulus/audwhat_stim/pitch_no.png,None,Pitch,None,Category,2,0.0,0,5.125,0,5.125,0,5.125,0,0.0,0.625,0,0,0,0,0,0,0,0,0,0.0,0,0.0,1,0.5,1,2.125,0,,,,,0,43,43,43,,,,,,,,,393.07809258299994,393.07809258299994,393.07809258299994,393.07809258299994,393.07809258299994,393.07809258299994,393.07809258299994,393.07809258299994,392.99771774933345,393.07809258299994,393.07809258299994,393.07809258299994,392.99771774933345,393.07809258299994,393.07809258299994,393.07809258299994,395.1598205,399.20528883299994,393.07809258299994,393.07809258299994,398.25842058299986,393.07809258299994,393.07809258299994,393.07809258299994,393.07809258299994,393.5418186659999,394.60846145799997,393.5119647076665,,395.1598205,396.22787445799986,395.1298862496667,,393.07809258299994,398.25842058299986,393.07809258299994,398.25842058299986,398.29958633299975,398.95235595799977,393.07809258299994,2,1,0.8711481670002286,reldom2_s013,001,2025-02-14_12h16.58.001,Aud-B-Scan_AC,2022.2.5,None,
34,First_Order,6.0,audwhat,stimulus/audwhat_stim/dummy.wav,stimulus/audwhat_stim/dummy.wav,stimulus/audwhat_stim/percussion mallet_low-pitch_F_loud.wav,stimulus/audwhat_stim/string viola_low-pitch_F_loud.wav,stimulus/audwhat_stim/blank_white.png,stimulus/audwhat_stim/category_box.png,stimulus/audwhat_stim/category_yes.png,stimulus/audwhat_stim/category_no.png,None,Category,None,Pitch,2,0.0,0,5.125,0,5.125,0,5.125,0,0.0,0.625,0,0,0,0,0,0,0,0,0,0.0,0,0.0,1,0.5,1,2.125,0,,,,,0,44,44,44,,,,,,,,,399.20528883299994,399.20528883299994,399.20528883299994,399.20528883299994,399.20528883299994,399.20528883299994,399.20528883299994,399.20528883299994,399.1262531243334,399.20528883299994,399.20528883299994,399.20528883299994,399.1262531243334,399.20528883299994,399.20528883299994,399.20528883299994,401.2930874159997,,399.20528883299994,399.20528883299994,404.3622301659998,399.20528883299994,399.20528883299994,399.20528883299994,399.20528883299994,399.66818354099996,400.7363849999997,399.6384489996665,,401.2930874159997,402.36641366599997,401.2628215416664,,399.20528883299994,404.3622301659998,399.20528883299994,404.3622301659998,404.4032509579997,405.057430458,399.20528883299994,2,1,0.815810749999855,reldom2_s013,001,2025-02-14_12h16.58.001,Aud-B-Scan_AC,2022.2.5,None,
0,0.0,None,fixation,stimulus/audwhat_stim/blank_white.png,stimulus/audwhat_stim/blank_white.png,stimulus/audwhere_stim/blank_white.png,stimulus/audwhere_stim/blank_white.png,stimulus/audwhat_stim/blank_white.png,stimulus/audwhat_stim/blank_white.png,stimulus/audwhat_stim/blank_white.png,stimulus/audwhat_stim/blank_white.png,0.0,0.0,0.0,0.0,0,0.0,0,0.0,0,0.0,0,0.0,0,0.0,0.0,0,0,0,0,0,0,0,0,0,0.0,0,0.0,0,0.0,0,0.0,9,,,,,0,45,45,45,,,,,,,,,405.3312529579998,405.3312529579998,405.3312529579998,405.3312529579998,405.3312529579998,405.3312529579998,405.3312529579998,405.3312529579998,405.23173895833327,405.3312529579998,405.3312529579998,405.3312529579998,405.23173895833327,405.3312529579998,405.3312529579998,405.3312529579998,405.3312529579998,405.3312529579998,405.3312529579998,405.3312529579998,405.3312529579998,405.3312529579998,405.3312529579998,405.3312529579998,405.3312529579998,405.3312529579998,405.3312529579998,405.2817389583333,405.3312529579998,405.3312529579998,405.3312529579998,405.2817389583333,405.3312529579998,405.3312529579998,405.3312529579998,405.3312529579998,405.3312529579998,410.56031024999993,410.56031024999993,414.49161312499973,None,0,,reldom2_s013,001,2025-02-14_12h16.58.001,Aud-B-Scan_AC,2022.2.5,None,
35,Second_Order,6.0,audwhat,stimulus/audwhat_stim/string cello_low-pitch_D_loud.wav,stimulus/audwhat_stim/percussion mallet_low-pitch_D_loud.wav,stimulus/audwhat_stim/percussion mallet_low-pitch_D_loud.wav,stimulus/audwhat_stim/percussion xylophone_high-pitch_Ftri_loud.wav,stimulus/audwhat_stim/match_blank.png,stimulus/audwhat_stim/match_box.png,stimulus/audwhat_stim/match_yes.png,stimulus/audwhat_stim/match_no.png,2.0,Match,Pitch,Category,2,5.125,0,5.125,0,5.125,0,5.125,0,0.75,0.75,0,0,0,0,0,0,0,0,1,0.5,1,2.125,1,0.5,1,2.125,0,,,,,0,46,46,46,,,,,,,,,414.49161312499973,419.6117362079999,414.49161312499973,414.49161312499973,414.49161312499973,414.49161312499973,414.9625551250001,415.952783791,414.96278137466675,,416.57098804099996,417.5686350410001,416.58306183266654,,419.6117362079999,420.4607995000001,422.5258946660001,426.4595735409998,420.4607995000001,420.4607995000001,425.60981808299994,420.4607995000001,420.4607995000001,420.4607995000001,420.4607995000001,420.917924458,421.974988208,420.8883163746666,,422.5258946660001,423.585136958,422.4968059166665,423.5394634579998,420.4607995000001,425.60981808299994,420.4607995000001,425.60981808299994,425.65068891600004,,420.4607995000001,2,1,1.1642198750000716,reldom2_s013,001,2025-02-14_12h16.58.001,Aud-B-Scan_AC,2022.2.5,None,
36,Second_Order,6.0,audwhat,stimulus/audwhat_stim/string cello_low-pitch_Dtri_loud.wav,stimulus/audwhat_stim/percussion mallet_low-pitch_Dtri_loud.wav,stimulus/audwhat_stim/string viola_high-pitch_F_loud.wav,stimulus/audwhat_stim/percussion xylophone_high-pitch_F_loud.wav,stimulus/audwhat_stim/match_blank.png,stimulus/audwhat_stim/match_box.png,stimulus/audwhat_stim/match_yes.png,stimulus/audwhat_stim/match_no.png,1.0,Match,Pitch,Pitch,1,5.125,0,5.125,0,5.125,0,5.125,0,0.625,0.625,0,0,0,0,0,0,0,0,1,0.5,1,2.125,1,0.5,1,2.125,0,,,,,0,47,47,47,,,,,,,,,426.4595735409998,431.57222108299993,426.4595735409998,426.4595735409998,426.4595735409998,426.4595735409998,426.91099462500006,427.90927437499977,426.92374679166664,,428.54404016599983,429.53340258299977,428.5479829996664,,431.57222108299993,432.3045790000001,434.35025270799997,438.4148215,432.3045790000001,432.3045790000001,437.4614815,432.3045790000001,432.3045790000001,432.3045790000001,432.3045790000001,432.758781,433.8062298330001,432.7297854996666,,434.35025270799997,435.4043067909997,434.32174874966654,435.3587420829999,432.3045790000001,437.4614815,432.3045790000001,437.4614815,437.4614815,438.144779791,432.3045790000001,1,1,0.5407392079996498,reldom2_s013,001,2025-02-14_12h16.58.001,Aud-B-Scan_AC,2022.2.5,None,
0,0.0,None,fixation,stimulus/audwhat_stim/blank_white.png,stimulus/audwhat_stim/blank_white.png,stimulus/audwhere_stim/blank_white.png,stimulus/audwhere_stim/blank_white.png,stimulus/audwhat_stim/blank_white.png,stimulus/audwhat_stim/blank_white.png,stimulus/audwhat_stim/blank_white.png,stimulus/audwhat_stim/blank_white.png,0.0,0.0,0.0,0.0,0,0.0,0,0.0,0,0.0,0,0.0,0,0.0,0.0,0,0,0,0,0,0,0,0,0,0.0,0,0.0,0,0.0,0,0.0,10,,,,,0,48,48,48,,,,,,,,,438.4148215,438.4148215,438.4148215,438.4148215,438.4148215,438.4148215,438.4148215,438.4148215,438.3184805413331,438.4148215,438.4148215,438.4148215,438.3184805413331,438.4148215,438.4148215,438.4148215,438.4148215,438.4148215,438.4148215,438.4148215,438.4148215,438.4148215,438.4148215,438.4148215,438.4148215,438.4148215,438.4148215,438.3684805413331,438.4148215,438.4148215,438.4148215,438.3684805413331,438.4148215,438.4148215,438.4148215,438.4148215,438.4148215,443.6324562499999,443.6324562499999,448.6775937909997,None,0,,reldom2_s013,001,2025-02-14_12h16.58.001,Aud-B-Scan_AC,2022.2.5,None,
37,First_Order,7.0,audwhere,stimulus/audwhere_stim/dummy.wav,stimulus/audwhere_stim/dummy.wav,stimulus/audwhere_stim/right_toward_300h.wav,stimulus/audwhere_stim/left_toward_290h.wav,stimulus/audwhere_stim/blank_white.png,stimulus/audwhere_stim/direction_box.png,stimulus/audwhere_stim/direction_yes.png,stimulus/audwhere_stim/direction_no.png,None,Direction,None,Direction,1,0.0,0,5.125,0,5.125,0,5.125,0,0.0,0.625,0,0,0,0,0,0,0,0,0,0.0,0,0.0,1,0.5,1,2.125,0,,,,,0,49,49,49,,,,,,,,,448.6775937909997,448.6775937909997,448.6775937909997,448.6775937909997,448.6775937909997,448.6775937909997,448.6775937909997,448.6775937909997,448.6085886246666,448.6775937909997,448.6775937909997,448.6775937909997,448.6085886246666,448.6775937909997,448.6775937909997,448.6775937909997,450.765074166,,448.6775937909997,448.6775937909997,453.82947775,448.6775937909997,448.6775937909997,448.6775937909997,448.6775937909997,449.14180179100003,450.20931008299976,449.1116261666664,,450.765074166,451.8331034160001,450.7357926666666,,448.6775937909997,453.82947775,448.6775937909997,453.82947775,453.870440875,454.52243025000007,448.6775937909997,1,1,1.2428049579998515,reldom2_s013,001,2025-02-14_12h16.58.001,Aud-B-Scan_AC,2022.2.5,None,
38,First_Order,7.0,audwhere,stimulus/audwhere_stim/dummy.wav,stimulus/audwhere_stim/dummy.wav,stimulus/audwhere_stim/right_toward_290h.wav,stimulus/audwhere_stim/right_away_270h.wav,stimulus/audwhere_stim/blank_white.png,stimulus/audwhere_stim/side_box.png,stimulus/audwhere_stim/side_yes.png,stimulus/audwhere_stim/side_no.png,None,Side,None,Side,1,0.0,0,5.125,0,5.125,0,5.125,0,0.0,0.625,0,0,0,0,0,0,0,0,0,0.0,0,0.0,1,0.5,1,2.125,0,,,,,0,50,50,50,,,,,,,,,454.7739581249998,454.7739581249998,454.7739581249998,454.7739581249998,454.7739581249998,454.7739581249998,454.7739581249998,454.7739581249998,454.6959334583331,454.7739581249998,454.7739581249998,454.7739581249998,454.6959334583331,454.7739581249998,454.7739581249998,454.7739581249998,456.8538102499997,460.89914387499994,454.7739581249998,454.7739581249998,459.9536370410001,454.7739581249998,454.7739581249998,454.7739581249998,454.7739581249998,455.23562758299977,456.29929462500013,455.2059054166664,,456.8538102499997,457.9226349999999,456.8243022076665,,454.7739581249998,459.9536370410001,454.7739581249998,459.9536370410001,459.9948723749999,460.64607654099973,454.7739581249998,1,1,0.7410384999998314,reldom2_s013,001,2025-02-14_12h16.58.001,Aud-B-Scan_AC,2022.2.5,None,
39,First_Order,7.0,audwhere,stimulus/audwhere_stim/dummy.wav,stimulus/audwhere_stim/dummy.wav,stimulus/audwhere_stim/left_away_290h.wav,stimulus/audwhere_stim/left_toward_290h.wav,stimulus/audwhere_stim/blank_white.png,stimulus/audwhere_stim/direction_box.png,stimulus/audwhere_stim/direction_yes.png,stimulus/audwhere_stim/direction_no.png,None,Direction,None,Side,2,0.0,0,5.125,0,5.125,0,5.125,0,0.0,0.625,0,0,0,0,0,0,0,0,0,0.0,0,0.0,1,0.5,1,2.125,0,,,,,0,51,51,51,,,,,,,,,460.89914387499994,460.89914387499994,460.89914387499994,460.89914387499994,460.89914387499994,460.89914387499994,460.89914387499994,460.89914387499994,460.81989420833327,460.89914387499994,460.89914387499994,460.89914387499994,460.81989420833327,460.89914387499994,460.89914387499994,460.89914387499994,462.99198562499987,,460.89914387499994,460.89914387499994,466.0611226249998,460.89914387499994,460.89914387499994,460.89914387499994,460.89914387499994,461.36431300000004,462.4345172499998,461.33470924966673,,462.99198562499987,464.06515008299993,462.9618846666665,,460.89914387499994,466.0611226249998,460.89914387499994,466.0611226249998,466.10199624999996,466.755758666,460.89914387499994,2,1,1.0441900829996484,reldom2_s013,001,2025-02-14_12h16.58.001,Aud-B-Scan_AC,2022.2.5,None,
40,First_Order,7.0,audwhere,stimulus/audwhere_stim/dummy.wav,stimulus/audwhere_stim/dummy.wav,stimulus/audwhere_stim/right_away_280h.wav,stimulus/audwhere_stim/right_toward_290h.wav,stimulus/audwhere_stim/blank_white.png,stimulus/audwhere_stim/direction_box.png,stimulus/audwhere_stim/direction_yes.png,stimulus/audwhere_stim/direction_no.png,None,Direction,None,Side,2,0.0,0,5.125,0,5.125,0,5.125,0,0.0,0.625,0,0,0,0,0,0,0,0,0,0.0,0,0.0,1,0.5,1,2.125,0,,,,,0,52,52,52,,,,,,,,,467.00841620799974,467.00841620799974,467.00841620799974,467.00841620799974,467.00841620799974,467.00841620799974,467.00841620799974,467.00841620799974,466.92982066633306,467.00841620799974,467.00841620799974,467.00841620799974,466.92982066633306,467.00841620799974,467.00841620799974,467.00841620799974,469.1021706659999,,467.00841620799974,467.00841620799974,472.1738805,467.00841620799974,467.00841620799974,467.00841620799974,467.00841620799974,467.47334658299997,468.5448470829997,467.4433503746666,,469.1021706659999,470.1754324999997,469.0723357076665,,467.00841620799974,472.1738805,467.00841620799974,472.1738805,472.21512737500007,472.86739608300013,467.00841620799974,2,1,1.023924000000079,reldom2_s013,001,2025-02-14_12h16.58.001,Aud-B-Scan_AC,2022.2.5,None,
0,0.0,None,fixation,stimulus/audwhat_stim/blank_white.png,stimulus/audwhat_stim/blank_white.png,stimulus/audwhere_stim/blank_white.png,stimulus/audwhere_stim/blank_white.png,stimulus/audwhat_stim/blank_white.png,stimulus/audwhat_stim/blank_white.png,stimulus/audwhat_stim/blank_white.png,stimulus/audwhat_stim/blank_white.png,0.0,0.0,0.0,0.0,0,0.0,0,0.0,0,0.0,0,0.0,0,0.0,0.0,0,0,0,0,0,0,0,0,0,0.0,0,0.0,0,0.0,0,0.0,8,,,,,0,53,53,53,,,,,,,,,473.14050016600004,473.14050016600004,473.14050016600004,473.14050016600004,473.14050016600004,473.14050016600004,473.14050016600004,473.14050016600004,473.04148649933325,473.14050016600004,473.14050016600004,473.14050016600004,473.04148649933325,473.14050016600004,473.14050016600004,473.14050016600004,473.14050016600004,473.14050016600004,473.14050016600004,473.14050016600004,473.14050016600004,473.14050016600004,473.14050016600004,473.14050016600004,473.14050016600004,473.14050016600004,473.14050016600004,473.09148649933326,473.14050016600004,473.14050016600004,473.14050016600004,473.09148649933326,473.14050016600004,473.14050016600004,473.14050016600004,473.14050016600004,473.14050016600004,478.37266950000003,478.37266950000003,481.2926361249997,None,0,,reldom2_s013,001,2025-02-14_12h16.58.001,Aud-B-Scan_AC,2022.2.5,None,
41,Second_Order,7.0,audwhere,stimulus/audwhere_stim/left_toward_300h.wav,stimulus/audwhere_stim/right_toward_280h.wav,stimulus/audwhere_stim/right_toward_270h.wav,stimulus/audwhere_stim/right_away_290h.wav,stimulus/audwhat_stim/match_blank.png,stimulus/audwhat_stim/match_box.png,stimulus/audwhat_stim/match_yes.png,stimulus/audwhat_stim/match_no.png,2.0,Match,Direction,Side,2,5.125,0,5.125,0,5.125,0,5.125,0,0.75,0.75,0,0,0,0,0,0,0,0,1,0.5,1,2.125,1,0.5,1,2.125,0,,,,,0,54,54,54,,,,,,,,,481.2926361249997,486.41497200000003,481.2926361249997,481.2926361249997,481.2926361249997,481.2926361249997,481.7499236660001,482.7395025410001,481.75214633266637,,483.3748908329999,484.3732297910001,483.3871775416667,,486.41497200000003,487.2635660410001,489.325703041,493.2550397499999,487.2635660410001,487.2635660410001,492.41121866599997,487.2635660410001,487.2635660410001,487.2635660410001,487.2635660410001,487.7231932909999,488.77585254099995,487.6935284576664,,489.325703041,490.38677074999987,489.2961262076667,,487.2635660410001,492.41121866599997,487.2635660410001,492.41121866599997,492.4513861249998,,487.2635660410001,2,1,2.3295020420000583,reldom2_s013,001,2025-02-14_12h16.58.001,Aud-B-Scan_AC,2022.2.5,None,
42,Second_Order,7.0,audwhere,stimulus/audwhere_stim/right_toward_290h.wav,stimulus/audwhere_stim/left_toward_270h.wav,stimulus/audwhere_stim/left_toward_290h.wav,stimulus/audwhere_stim/left_away_280h.wav,stimulus/audwhat_stim/match_blank.png,stimulus/audwhat_stim/match_box.png,stimulus/audwhat_stim/match_yes.png,stimulus/audwhat_stim/match_no.png,2.0,Match,Direction,Side,2,5.125,0,5.125,0,5.125,0,5.125,0,0.625,0.625,0,0,0,0,0,0,0,0,1,0.5,1,2.125,1,0.5,1,2.125,0,,,,,0,55,55,55,,,,,,,,,493.2550397499999,498.37644091599986,493.2550397499999,493.2550397499999,493.2550397499999,493.2550397499999,493.715389166,494.7140008329998,493.72805445766676,,495.3371326659999,496.3340670829998,495.3484217916664,,498.37644091599986,499.1056884579998,501.1571222909997,,499.1056884579998,499.1056884579998,504.27173704100005,499.1056884579998,499.1056884579998,499.1056884579998,499.1056884579998,499.5586613749997,500.61007795800015,499.5303131666667,,501.1571222909997,502.215017,501.1284962076668,,499.1056884579998,504.27173704100005,499.1056884579998,504.27173704100005,504.27173704100005,504.957321333,499.1056884579998,2,1,0.940001458000097,reldom2_s013,001,2025-02-14_12h16.58.001,Aud-B-Scan_AC,2022.2.5,None,
0,0.0,None,fixation,stimulus/audwhat_stim/blank_white.png,stimulus/audwhat_stim/blank_white.png,stimulus/audwhere_stim/blank_white.png,stimulus/audwhere_stim/blank_white.png,stimulus/audwhat_stim/blank_white.png,stimulus/audwhat_stim/blank_white.png,stimulus/audwhat_stim/blank_white.png,stimulus/audwhat_stim/blank_white.png,0.0,0.0,0.0,0.0,0,0.0,0,0.0,0,0.0,0,0.0,0,0.0,0.0,0,0,0,0,0,0,0,0,0,0.0,0,0.0,0,0.0,0,0.0,10,,,,,0,56,56,56,,,,,,,,,505.18641741600004,505.18641741600004,505.18641741600004,505.18641741600004,505.18641741600004,505.18641741600004,505.18641741600004,505.18641741600004,505.0906546663333,505.18641741600004,505.18641741600004,505.18641741600004,505.0906546663333,505.18641741600004,505.18641741600004,505.18641741600004,505.18641741600004,505.18641741600004,505.18641741600004,505.18641741600004,505.18641741600004,505.18641741600004,505.18641741600004,505.18641741600004,505.18641741600004,505.18641741600004,505.18641741600004,505.1406546663333,505.18641741600004,505.18641741600004,505.18641741600004,505.1406546663333,505.18641741600004,505.18641741600004,505.18641741600004,505.18641741600004,505.18641741600004,510.416790708,510.416790708,515.4199570830001,None,0,,reldom2_s013,001,2025-02-14_12h16.58.001,Aud-B-Scan_AC,2022.2.5,None,
43,First_Order,8.0,audwhere,stimulus/audwhere_stim/dummy.wav,stimulus/audwhere_stim/dummy.wav,stimulus/audwhere_stim/right_toward_270h.wav,stimulus/audwhere_stim/left_toward_300h.wav,stimulus/audwhere_stim/blank_white.png,stimulus/audwhere_stim/side_box.png,stimulus/audwhere_stim/side_yes.png,stimulus/audwhere_stim/side_no.png,None,Side,None,Direction,2,0.0,0,5.125,0,5.125,0,5.125,0,0.0,0.625,0,0,0,0,0,0,0,0,0,0.0,0,0.0,1,0.5,1,2.125,0,,,,,0,57,57,57,,,,,,,,,515.4199570830001,515.4199570830001,515.4199570830001,515.4199570830001,515.4199570830001,515.4199570830001,515.4199570830001,515.4199570830001,515.3483200416664,515.4199570830001,515.4199570830001,515.4199570830001,515.3483200416664,515.4199570830001,515.4199570830001,515.4199570830001,517.4971729999997,521.536633916,515.4199570830001,515.4199570830001,520.5946712079999,515.4199570830001,515.4199570830001,515.4199570830001,515.4199570830001,515.8832649999999,516.9441543749999,515.8534363326664,,517.4971729999997,518.5660281659998,517.4673670826667,,515.4199570830001,520.5946712079999,515.4199570830001,520.5946712079999,520.6355865830001,521.3241150829999,515.4199570830001,2,1,0.851918625000053,reldom2_s013,001,2025-02-14_12h16.58.001,Aud-B-Scan_AC,2022.2.5,None,
44,First_Order,8.0,audwhere,stimulus/audwhere_stim/dummy.wav,stimulus/audwhere_stim/dummy.wav,stimulus/audwhere_stim/right_toward_270h.wav,stimulus/audwhere_stim/left_toward_280h.wav,stimulus/audwhere_stim/blank_white.png,stimulus/audwhere_stim/side_box.png,stimulus/audwhere_stim/side_yes.png,stimulus/audwhere_stim/side_no.png,None,Side,None,Direction,2,0.0,0,5.125,0,5.125,0,5.125,0,0.0,0.625,0,0,0,0,0,0,0,0,0,0.0,0,0.0,1,0.5,1,2.125,0,,,,,0,58,58,58,,,,,,,,,521.536633916,521.536633916,521.536633916,521.536633916,521.536633916,521.536633916,521.536633916,521.536633916,521.4574484163332,521.536633916,521.536633916,521.536633916,521.4574484163332,521.536633916,521.536633916,521.536633916,523.6172186660001,527.6597656250001,521.536633916,521.536633916,526.7140506659998,521.536633916,521.536633916,521.536633916,521.536633916,521.9987207499998,523.0624324159999,521.9689521666667,,523.6172186660001,524.6847819159998,523.5874461666665,,521.536633916,526.7140506659998,521.536633916,526.7140506659998,526.7548495410001,527.407039791,521.536633916,2,1,0.7013361659996917,reldom2_s013,001,2025-02-14_12h16.58.001,Aud-B-Scan_AC,2022.2.5,None,
45,First_Order,8.0,audwhere,stimulus/audwhere_stim/dummy.wav,stimulus/audwhere_stim/dummy.wav,stimulus/audwhere_stim/right_toward_270h.wav,stimulus/audwhere_stim/left_toward_290h.wav,stimulus/audwhere_stim/blank_white.png,stimulus/audwhere_stim/direction_box.png,stimulus/audwhere_stim/direction_yes.png,stimulus/audwhere_stim/direction_no.png,None,Direction,None,Direction,1,0.0,0,5.125,0,5.125,0,5.125,0,0.0,0.625,0,0,0,0,0,0,0,0,0,0.0,0,0.0,1,0.5,1,2.125,0,,,,,0,59,59,59,,,,,,,,,527.6597656250001,527.6597656250001,527.6597656250001,527.6597656250001,527.6597656250001,527.6597656250001,527.6597656250001,527.6597656250001,527.5810982083332,527.6597656250001,527.6597656250001,527.6597656250001,527.5810982083332,527.6597656250001,527.6597656250001,527.6597656250001,529.7540692499997,,527.6597656250001,527.6597656250001,532.8240339579997,527.6597656250001,527.6597656250001,527.6597656250001,527.6597656250001,528.1257648749997,529.1953546659997,528.0953582076665,,529.7540692499997,530.8271312910001,529.7237794576665,,527.6597656250001,532.8240339579997,527.6597656250001,532.8240339579997,532.8649999579998,533.517606291,527.6597656250001,1,1,0.7868534169997474,reldom2_s013,001,2025-02-14_12h16.58.001,Aud-B-Scan_AC,2022.2.5,None,
46,First_Order,8.0,audwhere,stimulus/audwhere_stim/dummy.wav,stimulus/audwhere_stim/dummy.wav,stimulus/audwhere_stim/left_away_300h.wav,stimulus/audwhere_stim/left_toward_300h.wav,stimulus/audwhere_stim/blank_white.png,stimulus/audwhere_stim/side_box.png,stimulus/audwhere_stim/side_yes.png,stimulus/audwhere_stim/side_no.png,None,Side,None,Side,1,0.0,0,5.125,0,5.125,0,5.125,0,0.0,0.625,0,0,0,0,0,0,0,0,0,0.0,0,0.0,1,0.5,1,2.125,0,,,,,0,60,60,60,,,,,,,,,533.772102416,533.772102416,533.772102416,533.772102416,533.772102416,533.772102416,533.772102416,533.772102416,533.6914526663332,533.772102416,533.772102416,533.772102416,533.6914526663332,533.772102416,533.772102416,533.772102416,535.8567335409998,,533.772102416,533.772102416,538.96242175,533.772102416,533.772102416,533.772102416,533.772102416,534.2341524160001,535.2999701660001,534.2046152076666,,535.8567335409998,536.9258197079998,535.8263061666664,,533.772102416,538.96242175,533.772102416,538.96242175,538.96242175,539.6127058329998,533.772102416,1,1,1.2615347500000098,reldom2_s013,001,2025-02-14_12h16.58.001,Aud-B-Scan_AC,2022.2.5,None,
0,0.0,None,fixation,stimulus/audwhat_stim/blank_white.png,stimulus/audwhat_stim/blank_white.png,stimulus/audwhere_stim/blank_white.png,stimulus/audwhere_stim/blank_white.png,stimulus/audwhat_stim/blank_white.png,stimulus/audwhat_stim/blank_white.png,stimulus/audwhat_stim/blank_white.png,stimulus/audwhat_stim/blank_white.png,0.0,0.0,0.0,0.0,0,0.0,0,0.0,0,0.0,0,0.0,0,0.0,0.0,0,0,0,0,0,0,0,0,0,0.0,0,0.0,0,0.0,0,0.0,9,,,,,0,61,61,61,,,,,,,,,539.8881471659997,539.8881471659997,539.8881471659997,539.8881471659997,539.8881471659997,539.8881471659997,539.8881471659997,539.8881471659997,539.7868514993335,539.8881471659997,539.8881471659997,539.8881471659997,539.7868514993335,539.8881471659997,539.8881471659997,539.8881471659997,539.8881471659997,539.8881471659997,539.8881471659997,539.8881471659997,539.8881471659997,539.8881471659997,539.8881471659997,539.8881471659997,539.8881471659997,539.8881471659997,539.8881471659997,539.8368514993334,539.8881471659997,539.8881471659997,539.8881471659997,539.8368514993334,539.8881471659997,539.8881471659997,539.8881471659997,539.8881471659997,539.8881471659997,545.11508925,545.11508925,549.0470755000001,None,0,,reldom2_s013,001,2025-02-14_12h16.58.001,Aud-B-Scan_AC,2022.2.5,None,
47,Second_Order,8.0,audwhere,stimulus/audwhere_stim/right_away_300h.wav,stimulus/audwhere_stim/right_toward_270h.wav,stimulus/audwhere_stim/left_away_280h.wav,stimulus/audwhere_stim/left_toward_270h.wav,stimulus/audwhat_stim/match_blank.png,stimulus/audwhat_stim/match_box.png,stimulus/audwhat_stim/match_yes.png,stimulus/audwhat_stim/match_no.png,1.0,Match,Side,Side,1,5.125,0,5.125,0,5.125,0,5.125,0,0.75,0.75,0,0,0,0,0,0,0,0,1,0.5,1,2.125,1,0.5,1,2.125,0,,,,,0,62,62,62,,,,,,,,,549.0470755000001,554.1680329579999,549.0470755000001,549.0470755000001,549.0470755000001,549.0470755000001,549.4931206249998,550.479522958,549.5065504166666,,551.131211166,552.1297115409998,551.1437470416665,,554.1680329579999,555.0196925,557.0881804579999,,555.0196925,555.0196925,560.1777687079998,555.0196925,555.0196925,555.0196925,555.0196925,555.4777938749999,556.5340450409999,555.4481807496666,,557.0881804579999,558.154466208,557.0581824576664,,555.0196925,560.1777687079998,555.0196925,560.1777687079998,560.1777687079998,,555.0196925,1,1,0.7218194170000061,reldom2_s013,001,2025-02-14_12h16.58.001,Aud-B-Scan_AC,2022.2.5,None,
48,Second_Order,8.0,audwhere,stimulus/audwhere_stim/right_toward_270h.wav,stimulus/audwhere_stim/right_away_270h.wav,stimulus/audwhere_stim/left_away_280h.wav,stimulus/audwhere_stim/left_toward_290h.wav,stimulus/audwhat_stim/match_blank.png,stimulus/audwhat_stim/match_box.png,stimulus/audwhat_stim/match_yes.png,stimulus/audwhat_stim/match_no.png,1.0,Match,Side,Side,1,5.125,0,5.125,0,5.125,0,5.125,0,0.625,0.625,0,0,0,0,0,0,0,0,1,0.5,1,2.125,1,0.5,1,2.125,0,,,,,0,63,63,63,,,,,,,,,560.9878672079999,566.1120633329997,560.9878672079999,560.9878672079999,560.9878672079999,560.9878672079999,561.438495375,562.4367903329999,561.4511177496668,,563.071710791,564.0607824999997,563.0751726246665,,566.1120633329997,566.845109375,568.8994295829998,,566.845109375,566.845109375,572.0193304159998,566.845109375,566.845109375,566.845109375,566.845109375,567.2988211659999,568.3499917499998,567.2699525416667,,568.8994295829998,569.9579010829998,568.8699799166664,,566.845109375,572.0193304159998,566.845109375,572.0193304159998,572.0193304159998,572.7063316660001,566.845109375,1,1,0.8943007499997293,reldom2_s013,001,2025-02-14_12h16.58.001,Aud-B-Scan_AC,2022.2.5,None,
0,0.0,None,fixation,stimulus/audwhat_stim/blank_white.png,stimulus/audwhat_stim/blank_white.png,stimulus/audwhere_stim/blank_white.png,stimulus/audwhere_stim/blank_white.png,stimulus/audwhat_stim/blank_white.png,stimulus/audwhat_stim/blank_white.png,stimulus/audwhat_stim/blank_white.png,stimulus/audwhat_stim/blank_white.png,0.0,0.0,0.0,0.0,0,0.0,0,0.0,0,0.0,0,0.0,0,0.0,0.0,0,0,0,0,0,0,0,0,0,0.0,0,0.0,0,0.0,0,0.0,16,,,,,0,64,64,64,,,,,,,,,572.937402,572.937402,572.937402,572.937402,572.937402,572.937402,572.937402,572.937402,572.8396649993334,572.937402,572.937402,572.937402,572.8396649993334,572.937402,572.937402,572.937402,572.937402,572.937402,572.937402,572.937402,572.937402,572.937402,572.937402,572.937402,572.937402,572.937402,572.937402,572.8896649993334,572.937402,572.937402,572.937402,572.8896649993334,572.937402,572.937402,572.937402,572.937402,572.937402,578.168804333,578.168804333,589.0900057499998,None,0,,reldom2_s013,001,2025-02-14_12h16.58.001,Aud-B-Scan_AC,2022.2.5,None,
