Trial,Order,Block,Type,Stimuli_File1,Stimuli_File2,Stimuli_File3,Stimuli_File4,Cue_File1,Cue_File2,Response_File_Yes,Response_File_No,Match,Cue_Dimension,Pair1_Dimension,Pair2_Dimension,Key,Cue1_Duration,Cue1_Onset,Cue2_Duration,Cue2_Onset,ResponseYes_Duration,ResponseYes_Onset,ResponseNo_Duration,ResponseNo_Onset,ITI_Within,ITI_Between,Image1_Duration,Image1_Onset,Image2_Duration,Image2_Onset,Image3_Duration,Image3_Onset,Image4_Duration,Image4_Onset,Sound1_Duration,Sound1_Onset,Sound2_Duration,Sound2_Onset,Sound3_Duration,Sound3_Onset,Sound4_Duration,Sound4_Onset,Fixation_Duration,trials_2.thisRepN,trials_2.thisTrialN,trials_2.thisN,trials_2.thisIndex,trials.thisRepN,trials.thisTrialN,trials.thisN,trials.thisIndex,text_start.started,key_resp_start.started,key_resp_start.keys,key_resp_start.rt,text2.started,key_resp_2.started,key_resp_2.keys,key_resp_2.rt,cue_file1.started,cue_file1.stopped,image_1.started,image_1.stopped,image_2.started,image_2.stopped,sound_icon1.started,sound_icon1.stopped,sound_1.started,sound_1.stopped,sound_icon2.started,sound_icon2.stopped,sound_2.started,sound_2.stopped,image_blank_1.started,image_blank_1.stopped,key_press.started,key_press.stopped,fixation_text.started,cue_file2.started,cue_file2.stopped,image_3.started,image_3.stopped,image_4.started,image_4.stopped,sound_icon3.started,sound_icon3.stopped,sound_3.started,sound_3.stopped,sound_icon4.started,sound_icon4.stopped,sound_4.started,sound_4.stopped,response_yes.started,response_yes.stopped,response_no.started,response_no.stopped,iti_blank.started,iti_blank.stopped,fixation_text.stopped,key_press.keys,key_press.corr,key_press.rt,participant,session,date,expName,psychopyVersion,frameRate,
,,,,,,,,,,,,,,,,,,,,,,,,,,,,,,,,,,,,,,,,,,,,,,,,,,,,9.704781042000377,9.704781042000377,2,1.2598209169996153,,,,,,,,,,,,,,,,,,,,,,,,,,,,,,,,,,,,,,,,,,,,,,,,reldom2_s013,001,2025-02-14_12h04.36.055,Where-B-Scan_AC,2022.2.5,None,
,,,,,,,,,,,,,,,,,,,,,,,,,,,,,,,,,,,,,,,,,,,,0,0,0,0,,,,,,,,,11.005837417000293,11.005837417000293,5,17.433549041999413,,,,,,,,,,,,,,,,,,,,,,,,,,,,,,,,,,,,,,,,,,,,reldom2_s013,001,2025-02-14_12h04.36.055,Where-B-Scan_AC,2022.2.5,None,
,,,,,,,,,,,,,,,,,,,,,,,,,,,,,,,,,,,,,,,,,,,,1,0,1,0,,,,,,,,,28.456630083000164,28.456630083000164,5,1.9845295830000396,,,,,,,,,,,,,,,,,,,,,,,,,,,,,,,,,,,,,,,,,,,,reldom2_s013,001,2025-02-14_12h04.36.055,Where-B-Scan_AC,2022.2.5,None,
,,,,,,,,,,,,,,,,,,,,,,,,,,,,,,,,,,,,,,,,,,,,2,0,2,0,,,,,,,,,30.458693917000346,30.458693917000346,5,1.9825153739993766,,,,,,,,,,,,,,,,,,,,,,,,,,,,,,,,,,,,,,,,,,,,reldom2_s013,001,2025-02-14_12h04.36.055,Where-B-Scan_AC,2022.2.5,None,
,,,,,,,,,,,,,,,,,,,,,,,,,,,,,,,,,,,,,,,,,,,,3,0,3,0,,,,,,,,,32.452405333000115,32.452405333000115,5,1.987605457999507,,,,,,,,,,,,,,,,,,,,,,,,,,,,,,,,,,,,,,,,,,,,reldom2_s013,001,2025-02-14_12h04.36.055,Where-B-Scan_AC,2022.2.5,None,
0,0.0,None,fixation,stimulus/audwhere_stim/blank_white.png,stimulus/audwhere_stim/blank_white.png,stimulus/viswhere_stim/blank_white.png,stimulus/viswhere_stim/blank_white.png,stimulus/audwhere_stim/blank_white.png,stimulus/audwhere_stim/blank_white.png,stimulus/audwhere_stim/blank_white.png,stimulus/audwhere_stim/blank_white.png,0.0,0.0,0.0,0.0,0,0.0,0,0.0,0,0.0,0,0.0,0,0.0,0.0,0,0.0,0,0.0,0,0.0,0,0.0,0,0.0,0,0.0,0,0.0,0,0.0,16,,,,,0,0,0,0,,,,,,,,,34.65972645800002,34.65972645800002,34.65972645800002,34.65972645800002,34.65972645800002,34.65972645800002,34.65972645800002,34.65972645800002,34.5646523746667,34.65972645800002,34.65972645800002,34.65972645800002,34.5646523746667,34.65972645800002,34.65972645800002,34.65972645800002,34.65972645800002,34.65972645800002,34.65972645800002,34.65972645800002,34.65972645800002,34.65972645800002,34.65972645800002,34.65972645800002,34.65972645800002,34.65972645800002,34.65972645800002,34.6146523746667,34.65972645800002,34.65972645800002,34.65972645800002,34.6146523746667,34.65972645800002,34.65972645800002,34.65972645800002,34.65972645800002,34.65972645800002,39.87747608300015,39.87747608300015,50.86802450000005,None,0,,reldom2_s013,001,2025-02-14_12h04.36.055,Where-B-Scan_AC,2022.2.5,None,
1,First_Order,1.0,audwhere,stimulus/audwhere_stim/dummy.wav,stimulus/audwhere_stim/dummy.wav,stimulus/audwhere_stim/right_away_290h.wav,stimulus/audwhere_stim/right_toward_300h.wav,stimulus/audwhere_stim/blank_white.png,stimulus/audwhere_stim/direction_box.png,stimulus/audwhere_stim/direction_yes.png,stimulus/audwhere_stim/direction_no.png,None,Direction,None,Side,2,0.0,0,5.125,0,5.125,0,5.125,0,0.0,0.625,0,0.0,0,0.0,0,0.0,0,0.0,0,0.0,0,0.0,1,0.5,1,2.125,0,,,,,0,1,1,1,,,,,,,,,50.86802450000005,50.86802450000005,50.86802450000005,50.86802450000005,50.86802450000005,50.86802450000005,50.86802450000005,50.86802450000005,50.7996577920002,50.86802450000005,50.86802450000005,50.86802450000005,50.7996577920002,50.86802450000005,50.86802450000005,50.86802450000005,52.945862583000235,56.98754120800004,50.86802450000005,50.86802450000005,56.044360375,50.86802450000005,50.86802450000005,50.86802450000005,50.86802450000005,51.354843625000285,52.41429554200022,51.327090708666915,,52.945862583000235,54.0094747080002,52.91823724966686,,50.86802450000005,56.044360375,50.86802450000005,56.044360375,56.08336904200041,56.745667208000214,50.86802450000005,2,1,1.1635891659998379,reldom2_s013,001,2025-02-14_12h04.36.055,Where-B-Scan_AC,2022.2.5,None,
2,First_Order,1.0,audwhere,stimulus/audwhere_stim/dummy.wav,stimulus/audwhere_stim/dummy.wav,stimulus/audwhere_stim/left_toward_290h.wav,stimulus/audwhere_stim/right_toward_280h.wav,stimulus/audwhere_stim/blank_white.png,stimulus/audwhere_stim/side_box.png,stimulus/audwhere_stim/side_yes.png,stimulus/audwhere_stim/side_no.png,None,Side,None,Direction,2,0.0,0,5.125,0,5.125,0,5.125,0,0.0,0.625,0,0.0,0,0.0,0,0.0,0,0.0,0,0.0,0,0.0,1,0.5,1,2.125,0,,,,,0,2,2,2,,,,,,,,,56.98754120800004,56.98754120800004,56.98754120800004,56.98754120800004,56.98754120800004,56.98754120800004,56.98754120800004,56.98754120800004,56.91757125033349,56.98754120800004,56.98754120800004,56.98754120800004,56.91757125033349,56.98754120800004,56.98754120800004,56.98754120800004,59.06338504200039,63.105712917000346,56.98754120800004,56.98754120800004,62.162778000000344,56.98754120800004,56.98754120800004,56.98754120800004,56.98754120800004,57.47299179200036,58.534269167000275,57.44548299966688,,59.06338504200039,60.13251866700011,59.03540695866674,,56.98754120800004,62.162778000000344,56.98754120800004,62.162778000000344,62.20174612500023,62.862596833000225,56.98754120800004,2,1,1.8307188329999917,reldom2_s013,001,2025-02-14_12h04.36.055,Where-B-Scan_AC,2022.2.5,None,
3,First_Order,1.0,audwhere,stimulus/audwhere_stim/dummy.wav,stimulus/audwhere_stim/dummy.wav,stimulus/audwhere_stim/right_toward_280h.wav,stimulus/audwhere_stim/right_away_300h.wav,stimulus/audwhere_stim/blank_white.png,stimulus/audwhere_stim/direction_box.png,stimulus/audwhere_stim/direction_yes.png,stimulus/audwhere_stim/direction_no.png,None,Direction,None,Side,2,0.0,0,5.125,0,5.125,0,5.125,0,0.0,0.625,0,0.0,0,0.0,0,0.0,0,0.0,0,0.0,0,0.0,1,0.5,1,2.125,0,,,,,0,3,3,3,,,,,,,,,63.105712917000346,63.105712917000346,63.105712917000346,63.105712917000346,63.105712917000346,63.105712917000346,63.105712917000346,63.105712917000346,63.03444100033369,63.105712917000346,63.105712917000346,63.105712917000346,63.03444100033369,63.105712917000346,63.105712917000346,63.105712917000346,65.19687599999997,69.21316704200035,63.105712917000346,63.105712917000346,68.26971508300039,63.105712917000346,63.105712917000346,63.105712917000346,63.105712917000346,63.59486250000009,64.66315058300006,63.56640974966673,,65.19687599999997,66.26716845800001,65.16913079166694,,63.105712917000346,68.26971508300039,63.105712917000346,68.26971508300039,68.30890200000022,68.97335487500004,63.105712917000346,2,1,1.2314405409997562,reldom2_s013,001,2025-02-14_12h04.36.055,Where-B-Scan_AC,2022.2.5,None,
4,First_Order,1.0,audwhere,stimulus/audwhere_stim/dummy.wav,stimulus/audwhere_stim/dummy.wav,stimulus/audwhere_stim/left_toward_270h.wav,stimulus/audwhere_stim/right_toward_300h.wav,stimulus/audwhere_stim/blank_white.png,stimulus/audwhere_stim/direction_box.png,stimulus/audwhere_stim/direction_yes.png,stimulus/audwhere_stim/direction_no.png,None,Direction,None,Direction,1,0.0,0,5.125,0,5.125,0,5.125,0,0.0,0.625,0,0.0,0,0.0,0,0.0,0,0.0,0,0.0,0,0.0,1,0.5,1,2.125,0,,,,,0,4,4,4,,,,,,,,,69.21316704200035,69.21316704200035,69.21316704200035,69.21316704200035,69.21316704200035,69.21316704200035,69.21316704200035,69.21316704200035,69.14555012533367,69.21316704200035,69.21316704200035,69.21316704200035,69.14555012533367,69.21316704200035,69.21316704200035,69.21316704200035,71.31013525000026,,69.21316704200035,69.21316704200035,74.39104175000011,69.21316704200035,69.21316704200035,69.21316704200035,69.21316704200035,69.70342287500034,70.77490408300037,69.67534612466694,,71.31013525000026,72.33821087500019,71.28166062466677,,69.21316704200035,74.39104175000011,69.21316704200035,74.39104175000011,74.43015429200022,75.09672483300028,69.21316704200035,1,1,1.5020094159995097,reldom2_s013,001,2025-02-14_12h04.36.055,Where-B-Scan_AC,2022.2.5,None,
0,0.0,None,fixation,stimulus/audwhere_stim/blank_white.png,stimulus/audwhere_stim/blank_white.png,stimulus/viswhere_stim/blank_white.png,stimulus/viswhere_stim/blank_white.png,stimulus/audwhere_stim/blank_white.png,stimulus/audwhere_stim/blank_white.png,stimulus/audwhere_stim/blank_white.png,stimulus/audwhere_stim/blank_white.png,0.0,0.0,0.0,0.0,0,0.0,0,0.0,0,0.0,0,0.0,0,0.0,0.0,0,0.0,0,0.0,0,0.0,0,0.0,0,0.0,0,0.0,0,0.0,0,0.0,10,,,,,0,5,5,5,,,,,,,,,75.31812512500028,75.31812512500028,75.31812512500028,75.31812512500028,75.31812512500028,75.31812512500028,75.31812512500028,75.31812512500028,75.2300581663336,75.31812512500028,75.31812512500028,75.31812512500028,75.2300581663336,75.31812512500028,75.31812512500028,75.31812512500028,75.31812512500028,75.31812512500028,75.31812512500028,75.31812512500028,75.31812512500028,75.31812512500028,75.31812512500028,75.31812512500028,75.31812512500028,75.31812512500028,75.31812512500028,75.28005816633362,75.31812512500028,75.31812512500028,75.31812512500028,75.28005816633362,75.31812512500028,75.31812512500028,75.31812512500028,75.31812512500028,75.31812512500028,80.55426008300037,80.55426008300037,85.48065908300032,None,0,,reldom2_s013,001,2025-02-14_12h04.36.055,Where-B-Scan_AC,2022.2.5,None,
5,Second_Order,1.0,audwhere,stimulus/audwhere_stim/right_toward_300h.wav,stimulus/audwhere_stim/left_toward_280h.wav,stimulus/audwhere_stim/right_toward_280h.wav,stimulus/audwhere_stim/right_away_280h.wav,stimulus/audwhere_stim/match_blank.png,stimulus/audwhere_stim/match_box.png,stimulus/audwhere_stim/match_yes.png,stimulus/audwhere_stim/match_no.png,2.0,Match,Direction,Side,2,5.125,0,5.125,0,5.125,0,5.125,0,0.75,0.75,0,0.0,0,0.0,0,0.0,0,0.0,1,0.5,1,2.125,1,0.5,1,2.125,0,,,,,0,6,6,6,,,,,,,,,85.48065908300032,90.60119883300013,85.48065908300032,85.48065908300032,85.48065908300032,85.48065908300032,85.93756691700037,86.93677495800011,85.9504985836668,,87.55822450000005,88.55641945800016,87.57081879166687,,90.60119883300013,91.46254550000003,93.50076050000007,,91.46254550000003,91.46254550000003,96.61335454200025,91.46254550000003,91.46254550000003,91.46254550000003,91.46254550000003,91.90628104200005,92.97541033300013,91.87845841666673,,93.50076050000007,94.57005441700039,93.47305637466685,,91.46254550000003,96.61335454200025,91.46254550000003,96.61335454200025,96.65245287500011,,91.46254550000003,2,1,1.091806082999483,reldom2_s013,001,2025-02-14_12h04.36.055,Where-B-Scan_AC,2022.2.5,None,
6,Second_Order,1.0,audwhere,stimulus/audwhere_stim/right_toward_270h.wav,stimulus/audwhere_stim/right_away_290h.wav,stimulus/audwhere_stim/left_toward_300h.wav,stimulus/audwhere_stim/left_away_290h.wav,stimulus/audwhere_stim/match_blank.png,stimulus/audwhere_stim/match_box.png,stimulus/audwhere_stim/match_yes.png,stimulus/audwhere_stim/match_no.png,1.0,Match,Side,Side,1,5.125,0,5.125,0,5.125,0,5.125,0,0.625,0.625,0,0.0,0,0.0,0,0.0,0,0.0,1,0.5,1,2.125,1,0.5,1,2.125,0,,,,,0,7,7,7,,,,,,,,,97.42617862500038,102.54356325000026,97.42617862500038,97.42617862500038,97.42617862500038,97.42617862500038,97.88205554200022,98.88015129200039,97.89482524966685,,99.503192958,100.50082837500031,99.51542037466676,100.50431966700035,102.54356325000026,103.27329891700037,105.31949704200042,,103.27329891700037,103.27329891700037,108.4321986670002,103.27329891700037,103.27329891700037,103.27329891700037,103.27329891700037,103.71565483300037,104.78488258300013,103.68809187466674,,105.31949704200042,106.39095395800041,105.29127312466677,,103.27329891700037,108.4321986670002,103.27329891700037,108.4321986670002,108.4321986670002,109.09791512500033,103.27329891700037,1,1,0.9190457079994303,reldom2_s013,001,2025-02-14_12h04.36.055,Where-B-Scan_AC,2022.2.5,None,
0,0.0,None,fixation,stimulus/audwhere_stim/blank_white.png,stimulus/audwhere_stim/blank_white.png,stimulus/viswhere_stim/blank_white.png,stimulus/viswhere_stim/blank_white.png,stimulus/audwhere_stim/blank_white.png,stimulus/audwhere_stim/blank_white.png,stimulus/audwhere_stim/blank_white.png,stimulus/audwhere_stim/blank_white.png,0.0,0.0,0.0,0.0,0,0.0,0,0.0,0,0.0,0,0.0,0,0.0,0.0,0,0.0,0,0.0,0,0.0,0,0.0,0,0.0,0,0.0,0,0.0,0,0.0,9,,,,,0,8,8,8,,,,,,,,,109.35775658300008,109.35775658300008,109.35775658300008,109.35775658300008,109.35775658300008,109.35775658300008,109.35775658300008,109.35775658300008,109.27019820833368,109.35775658300008,109.35775658300008,109.35775658300008,109.27019820833368,109.35775658300008,109.35775658300008,109.35775658300008,109.35775658300008,109.35775658300008,109.35775658300008,109.35775658300008,109.35775658300008,109.35775658300008,109.35775658300008,109.35775658300008,109.35775658300008,109.35775658300008,109.35775658300008,109.3201982083337,109.35775658300008,109.35775658300008,109.35775658300008,109.3201982083337,109.35775658300008,109.35775658300008,109.35775658300008,109.35775658300008,109.35775658300008,114.54668837500003,114.54668837500003,118.60150962500029,None,0,,reldom2_s013,001,2025-02-14_12h04.36.055,Where-B-Scan_AC,2022.2.5,None,
7,First_Order,2.0,audwhere,stimulus/audwhere_stim/dummy.wav,stimulus/audwhere_stim/dummy.wav,stimulus/audwhere_stim/left_toward_270h.wav,stimulus/audwhere_stim/right_toward_270h.wav,stimulus/audwhere_stim/blank_white.png,stimulus/audwhere_stim/direction_box.png,stimulus/audwhere_stim/direction_yes.png,stimulus/audwhere_stim/direction_no.png,None,Direction,None,Direction,1,0.0,0,5.125,0,5.125,0,5.125,0,0.0,0.625,0,0.0,0,0.0,0,0.0,0,0.0,0,0.0,0,0.0,1,0.5,1,2.125,0,,,,,0,9,9,9,,,,,,,,,118.60150962500029,118.60150962500029,118.60150962500029,118.60150962500029,118.60150962500029,118.60150962500029,118.60150962500029,118.60150962500029,118.52102316700021,118.60150962500029,118.60150962500029,118.60150962500029,118.52102316700021,118.60150962500029,118.60150962500029,118.60150962500029,120.67214270800014,,118.60150962500029,118.60150962500029,123.78123545800008,118.60150962500029,118.60150962500029,118.60150962500029,118.60150962500029,119.05179695800007,120.0850391670001,119.02339724966693,,120.67214270800014,121.70833141700041,120.64365495866674,,118.60150962500029,123.78123545800008,118.60150962500029,123.78123545800008,123.82128950000015,124.49208241700035,118.60150962500029,1,1,1.1814586249997774,reldom2_s013,001,2025-02-14_12h04.36.055,Where-B-Scan_AC,2022.2.5,None,
8,First_Order,2.0,audwhere,stimulus/audwhere_stim/dummy.wav,stimulus/audwhere_stim/dummy.wav,stimulus/audwhere_stim/left_toward_280h.wav,stimulus/audwhere_stim/right_toward_290h.wav,stimulus/audwhere_stim/blank_white.png,stimulus/audwhere_stim/side_box.png,stimulus/audwhere_stim/side_yes.png,stimulus/audwhere_stim/side_no.png,None,Side,None,Direction,2,0.0,0,5.125,0,5.125,0,5.125,0,0.0,0.625,0,0.0,0,0.0,0,0.0,0,0.0,0,0.0,0,0.0,1,0.5,1,2.125,0,,,,,0,10,10,10,,,,,,,,,124.69740825000008,124.69740825000008,124.69740825000008,124.69740825000008,124.69740825000008,124.69740825000008,124.69740825000008,124.69740825000008,124.62541575033367,124.69740825000008,124.69740825000008,124.69740825000008,124.62541575033367,124.69740825000008,124.69740825000008,124.69740825000008,126.80868304200021,,124.69740825000008,124.69740825000008,129.86811191700008,124.69740825000008,124.69740825000008,124.69740825000008,124.69740825000008,125.1456604580003,126.17849245800016,125.11773258366681,,126.80868304200021,127.8442599580003,126.78016112466709,,124.69740825000008,129.86811191700008,124.69740825000008,129.86811191700008,129.90761979200033,130.58090475000017,124.69740825000008,1,0,1.2693586249993132,reldom2_s013,001,2025-02-14_12h04.36.055,Where-B-Scan_AC,2022.2.5,None,
9,First_Order,2.0,audwhere,stimulus/audwhere_stim/dummy.wav,stimulus/audwhere_stim/dummy.wav,stimulus/audwhere_stim/left_away_270h.wav,stimulus/audwhere_stim/left_toward_290h.wav,stimulus/audwhere_stim/blank_white.png,stimulus/audwhere_stim/side_box.png,stimulus/audwhere_stim/side_yes.png,stimulus/audwhere_stim/side_no.png,None,Side,None,Side,1,0.0,0,5.125,0,5.125,0,5.125,0,0.0,0.625,0,0.0,0,0.0,0,0.0,0,0.0,0,0.0,0,0.0,1,0.5,1,2.125,0,,,,,0,11,11,11,,,,,,,,,130.78781687500032,130.78781687500032,130.78781687500032,130.78781687500032,130.78781687500032,130.78781687500032,130.78781687500032,130.78781687500032,130.71423808333353,130.78781687500032,130.78781687500032,130.78781687500032,130.71423808333353,130.78781687500032,130.78781687500032,130.78781687500032,132.86124220800002,,130.78781687500032,130.78781687500032,135.97293737500013,130.78781687500032,130.78781687500032,130.78781687500032,130.78781687500032,131.23914487500042,132.27492195800005,131.21072320866668,,132.86124220800002,133.90058954200003,132.83283974966687,,130.78781687500032,135.97293737500013,130.78781687500032,135.97293737500013,136.01203687500038,136.6862056670002,130.78781687500032,1,1,1.0060272909995547,reldom2_s013,001,2025-02-14_12h04.36.055,Where-B-Scan_AC,2022.2.5,None,
10,First_Order,2.0,audwhere,stimulus/audwhere_stim/dummy.wav,stimulus/audwhere_stim/dummy.wav,stimulus/audwhere_stim/right_away_290h.wav,stimulus/audwhere_stim/right_toward_290h.wav,stimulus/audwhere_stim/blank_white.png,stimulus/audwhere_stim/side_box.png,stimulus/audwhere_stim/side_yes.png,stimulus/audwhere_stim/side_no.png,None,Side,None,Side,1,0.0,0,5.125,0,5.125,0,5.125,0,0.0,0.625,0,0.0,0,0.0,0,0.0,0,0.0,0,0.0,0,0.0,1,0.5,1,2.125,0,,,,,0,12,12,12,,,,,,,,,136.8920017080004,136.8920017080004,136.8920017080004,136.8920017080004,136.8920017080004,136.8920017080004,136.8920017080004,136.8920017080004,136.81953900033355,136.8920017080004,136.8920017080004,136.8920017080004,136.81953900033355,136.8920017080004,136.8920017080004,136.8920017080004,138.96812608300024,,136.8920017080004,136.8920017080004,142.04052658299997,136.8920017080004,136.8920017080004,136.8920017080004,136.8920017080004,137.34248083300008,138.38082462500006,137.31389004166684,,138.96812608300024,140.00837204200025,138.93965920866665,,136.8920017080004,142.04052658299997,136.8920017080004,142.04052658299997,142.11962250000033,142.793635042,136.8920017080004,2,0,1.8106952489997639,reldom2_s013,001,2025-02-14_12h04.36.055,Where-B-Scan_AC,2022.2.5,None,
0,0.0,None,fixation,stimulus/audwhere_stim/blank_white.png,stimulus/audwhere_stim/blank_white.png,stimulus/viswhere_stim/blank_white.png,stimulus/viswhere_stim/blank_white.png,stimulus/audwhere_stim/blank_white.png,stimulus/audwhere_stim/blank_white.png,stimulus/audwhere_stim/blank_white.png,stimulus/audwhere_stim/blank_white.png,0.0,0.0,0.0,0.0,0,0.0,0,0.0,0,0.0,0,0.0,0,0.0,0.0,0,0.0,0,0.0,0,0.0,0,0.0,0,0.0,0,0.0,0,0.0,0,0.0,9,,,,,0,13,13,13,,,,,,,,,143.0203791250001,143.0203791250001,143.0203791250001,143.0203791250001,143.0203791250001,143.0203791250001,143.0203791250001,143.0203791250001,142.92696837533336,143.0203791250001,143.0203791250001,143.0203791250001,142.92696837533336,143.0203791250001,143.0203791250001,143.0203791250001,143.0203791250001,143.0203791250001,143.0203791250001,143.0203791250001,143.0203791250001,143.0203791250001,143.0203791250001,143.0203791250001,143.0203791250001,143.0203791250001,143.0203791250001,142.97696837533334,143.0203791250001,143.0203791250001,143.0203791250001,142.97696837533334,143.0203791250001,143.0203791250001,143.0203791250001,143.0203791250001,143.0203791250001,148.20689687499998,148.20689687499998,152.1901237080001,None,0,,reldom2_s013,001,2025-02-14_12h04.36.055,Where-B-Scan_AC,2022.2.5,None,
11,Second_Order,2.0,audwhere,stimulus/audwhere_stim/left_toward_280h.wav,stimulus/audwhere_stim/left_away_290h.wav,stimulus/audwhere_stim/left_away_290h.wav,stimulus/audwhere_stim/right_away_280h.wav,stimulus/audwhere_stim/match_blank.png,stimulus/audwhere_stim/match_box.png,stimulus/audwhere_stim/match_yes.png,stimulus/audwhere_stim/match_no.png,2.0,Match,Side,Direction,2,5.125,0,5.125,0,5.125,0,5.125,0,0.75,0.75,0,0.0,0,0.0,0,0.0,0,0.0,1,0.5,1,2.125,1,0.5,1,2.125,0,,,,,0,14,14,14,,,,,,,,,152.1901237080001,157.3032121250003,152.1901237080001,152.1901237080001,152.1901237080001,152.1901237080001,152.6416795,153.6403867500003,152.6547232086671,,154.2752099170002,155.26373387500007,154.27833116666696,,157.3032121250003,158.14959779200035,160.21053283300034,164.14291816700006,158.14959779200035,158.14959779200035,163.32074108300003,158.14959779200035,158.14959779200035,158.14959779200035,158.14959779200035,158.597575625,159.62746941700016,158.5694427496667,,160.21053283300034,161.25009070800024,160.182153958667,,158.14959779200035,163.32074108300003,158.14959779200035,163.32074108300003,163.32074108300003,,158.14959779200035,2,1,1.6981167499998264,reldom2_s013,001,2025-02-14_12h04.36.055,Where-B-Scan_AC,2022.2.5,None,
12,Second_Order,2.0,audwhere,stimulus/audwhere_stim/left_away_270h.wav,stimulus/audwhere_stim/left_toward_280h.wav,stimulus/audwhere_stim/right_away_280h.wav,stimulus/audwhere_stim/right_toward_300h.wav,stimulus/audwhere_stim/match_blank.png,stimulus/audwhere_stim/match_box.png,stimulus/audwhere_stim/match_yes.png,stimulus/audwhere_stim/match_no.png,1.0,Match,Side,Side,1,5.125,0,5.125,0,5.125,0,5.125,0,0.625,0.625,0,0.0,0,0.0,0,0.0,0,0.0,1,0.5,1,2.125,1,0.5,1,2.125,0,,,,,0,15,15,15,,,,,,,,,164.14291816700006,169.26407166700028,164.14291816700006,164.14291816700006,164.14291816700006,164.14291816700006,164.60270016700042,165.60114795800018,164.61596304166667,,166.22391404200016,167.22172954200005,166.23633483366692,,169.26407166700028,169.993828958,172.04256141700034,,169.993828958,169.993828958,175.17952487499997,169.993828958,169.993828958,169.993828958,169.993828958,170.4390440420002,171.50773033300038,170.41105283366667,,172.04256141700034,173.0750043750004,172.0143055416668,,169.993828958,175.17952487499997,169.993828958,175.17952487499997,175.17952487499997,175.84655287500027,169.993828958,2,0,1.6991674159994545,reldom2_s013,001,2025-02-14_12h04.36.055,Where-B-Scan_AC,2022.2.5,None,
0,0.0,None,fixation,stimulus/audwhere_stim/blank_white.png,stimulus/audwhere_stim/blank_white.png,stimulus/viswhere_stim/blank_white.png,stimulus/viswhere_stim/blank_white.png,stimulus/audwhere_stim/blank_white.png,stimulus/audwhere_stim/blank_white.png,stimulus/audwhere_stim/blank_white.png,stimulus/audwhere_stim/blank_white.png,0.0,0.0,0.0,0.0,0,0.0,0,0.0,0,0.0,0,0.0,0,0.0,0.0,0,0.0,0,0.0,0,0.0,0,0.0,0,0.0,0,0.0,0,0.0,0,0.0,8,,,,,0,16,16,16,,,,,,,,,176.07056004200012,176.07056004200012,176.07056004200012,176.07056004200012,176.07056004200012,176.07056004200012,176.07056004200012,176.07056004200012,175.97988620833362,176.07056004200012,176.07056004200012,176.07056004200012,175.97988620833362,176.07056004200012,176.07056004200012,176.07056004200012,176.07056004200012,176.07056004200012,176.07056004200012,176.07056004200012,176.07056004200012,176.07056004200012,176.07056004200012,176.07056004200012,176.07056004200012,176.07056004200012,176.07056004200012,176.0298862083336,176.07056004200012,176.07056004200012,176.07056004200012,176.0298862083336,176.07056004200012,176.07056004200012,176.07056004200012,176.07056004200012,176.07056004200012,181.25898458300026,181.25898458300026,184.27550416700024,None,0,,reldom2_s013,001,2025-02-14_12h04.36.055,Where-B-Scan_AC,2022.2.5,None,
13,First_Order,3.0,viswhere,stimulus/viswhere_stim/blank_white.png,stimulus/viswhere_stim/blank_white.png,stimulus/viswhere_stim/150-deg_dot-left_seagreen.png,stimulus/viswhere_stim/150-deg_dot-right_royalblue.png,stimulus/viswhere_stim/blank_white.png,stimulus/viswhere_stim/line_box.png,stimulus/viswhere_stim/line_yes.png,stimulus/viswhere_stim/line_no.png,None,Line,None,Line,1,0.0,0,5.125,0,5.125,0,5.125,0,0.0,0.625,0,0.0,0,0.0,1,0.5,1,2.125,0,0.0,0,0.0,0,0.0,0,0.0,0,,,,,0,17,17,17,,,,,,,,,184.27550416700024,184.27550416700024,184.27550416700024,184.27550416700024,184.27550416700024,184.27550416700024,184.27550416700024,184.27550416700024,184.24285370800035,184.27550416700024,184.27550416700024,184.27550416700024,184.24285370800035,184.27550416700024,184.27550416700024,184.27550416700024,186.3782385000004,190.34015770800033,184.27550416700024,184.27550416700024,189.40996187500014,184.75550850000036,185.7682919580002,186.3782385000004,187.3975730000002,184.27550416700024,184.27550416700024,184.25952037466703,184.27550416700024,184.27550416700024,184.27550416700024,184.25952037466703,184.27550416700024,184.27550416700024,189.40996187500014,184.27550416700024,189.40996187500014,189.49374725000007,190.12623687500036,184.27550416700024,1,1,2.2208062079998854,reldom2_s013,001,2025-02-14_12h04.36.055,Where-B-Scan_AC,2022.2.5,None,
14,First_Order,3.0,viswhere,stimulus/viswhere_stim/blank_white.png,stimulus/viswhere_stim/blank_white.png,stimulus/viswhere_stim/90-deg_dot-right_cyan.png,stimulus/viswhere_stim/90-deg_dot-left_turquoise.png,stimulus/viswhere_stim/blank_white.png,stimulus/viswhere_stim/line_box.png,stimulus/viswhere_stim/line_yes.png,stimulus/viswhere_stim/line_no.png,None,Line,None,Line,1,0.0,0,5.125,0,5.125,0,5.125,0,0.0,0.625,0,0.0,0,0.0,1,0.5,1,2.125,0,0.0,0,0.0,0,0.0,0,0.0,0,,,,,0,18,18,18,,,,,,,,,190.34015770800033,190.34015770800033,190.34015770800033,190.34015770800033,190.34015770800033,190.34015770800033,190.34015770800033,190.34015770800033,190.32073616633338,190.34015770800033,190.34015770800033,190.34015770800033,190.32073616633338,190.34015770800033,190.34015770800033,190.34015770800033,192.4488437920004,196.39776258300026,190.34015770800033,190.34015770800033,195.47849920800036,190.81642545800014,191.8218081670002,192.4488437920004,193.46083983300014,190.34015770800033,190.34015770800033,190.33740283300006,190.34015770800033,190.34015770800033,190.34015770800033,190.33740283300006,190.34015770800033,190.34015770800033,195.47849920800036,190.34015770800033,195.47849920800036,195.560301042,196.18131066700016,190.34015770800033,1,1,1.0198638329993628,reldom2_s013,001,2025-02-14_12h04.36.055,Where-B-Scan_AC,2022.2.5,None,
15,First_Order,3.0,viswhere,stimulus/viswhere_stim/blank_white.png,stimulus/viswhere_stim/blank_white.png,stimulus/viswhere_stim/60-deg_dot-right_salmon.png,stimulus/viswhere_stim/150-deg_dot-right_turquoise.png,stimulus/viswhere_stim/blank_white.png,stimulus/viswhere_stim/dot_box.png,stimulus/viswhere_stim/dot_yes.png,stimulus/viswhere_stim/dot_no.png,None,Dot,None,Dot,1,0.0,0,5.125,0,5.125,0,5.125,0,0.0,0.625,0,0.0,0,0.0,1,0.5,1,2.125,0,0.0,0,0.0,0,0.0,0,0.0,0,,,,,0,19,19,19,,,,,,,,,196.39776258300026,196.39776258300026,196.39776258300026,196.39776258300026,196.39776258300026,196.39776258300026,196.39776258300026,196.39776258300026,196.37760329133366,196.39776258300026,196.39776258300026,196.39776258300026,196.37760329133366,196.39776258300026,196.39776258300026,196.39776258300026,198.5127472500003,202.45581300000003,196.39776258300026,196.39776258300026,201.52638008300028,196.87569250000024,197.88442700000041,198.5127472500003,199.52519395800027,196.39776258300026,196.39776258300026,196.37760329133366,196.39776258300026,196.39776258300026,196.39776258300026,196.37760329133366,196.39776258300026,196.39776258300026,201.52638008300028,196.39776258300026,201.52638008300028,201.61381700000038,202.23941054200031,196.39776258300026,1,1,1.0735389989995383,reldom2_s013,001,2025-02-14_12h04.36.055,Where-B-Scan_AC,2022.2.5,None,
16,First_Order,3.0,viswhere,stimulus/viswhere_stim/blank_white.png,stimulus/viswhere_stim/blank_white.png,stimulus/viswhere_stim/120-deg_dot-left_peru.png,stimulus/viswhere_stim/120-deg_dot-right_royalblue.png,stimulus/viswhere_stim/blank_white.png,stimulus/viswhere_stim/dot_box.png,stimulus/viswhere_stim/dot_yes.png,stimulus/viswhere_stim/dot_no.png,None,Dot,None,Line,2,0.0,0,5.125,0,5.125,0,5.125,0,0.0,0.625,0,0.0,0,0.0,1,0.5,1,2.125,0,0.0,0,0.0,0,0.0,0,0.0,0,,,,,0,20,20,20,,,,,,,,,202.45581300000003,202.45581300000003,202.45581300000003,202.45581300000003,202.45581300000003,202.45581300000003,202.45581300000003,202.45581300000003,202.4353275003335,202.45581300000003,202.45581300000003,202.45581300000003,202.4353275003335,202.45581300000003,202.45581300000003,202.45581300000003,204.55529441700037,208.5970432920003,202.45581300000003,202.45581300000003,207.58644516700042,202.92929225000034,203.93123804200013,204.55529441700037,205.56368483300002,202.45581300000003,202.45581300000003,202.4353275003335,202.45581300000003,202.45581300000003,202.45581300000003,202.4353275003335,202.45581300000003,202.45581300000003,207.58644516700042,202.45581300000003,207.58644516700042,207.6979510420001,208.32559475000016,202.45581300000003,2,1,0.7949807489994782,reldom2_s013,001,2025-02-14_12h04.36.055,Where-B-Scan_AC,2022.2.5,None,
0,0.0,None,fixation,stimulus/audwhere_stim/blank_white.png,stimulus/audwhere_stim/blank_white.png,stimulus/viswhere_stim/blank_white.png,stimulus/viswhere_stim/blank_white.png,stimulus/audwhere_stim/blank_white.png,stimulus/audwhere_stim/blank_white.png,stimulus/audwhere_stim/blank_white.png,stimulus/audwhere_stim/blank_white.png,0.0,0.0,0.0,0.0,0,0.0,0,0.0,0,0.0,0,0.0,0,0.0,0.0,0,0.0,0,0.0,0,0.0,0,0.0,0,0.0,0,0.0,0,0.0,0,0.0,10,,,,,0,21,21,21,,,,,,,,,208.5970432920003,208.5970432920003,208.5970432920003,208.5970432920003,208.5970432920003,208.5970432920003,208.5970432920003,208.5970432920003,208.50262079133367,208.5970432920003,208.5970432920003,208.5970432920003,208.50262079133367,208.5970432920003,208.5970432920003,208.5970432920003,208.5970432920003,208.5970432920003,208.5970432920003,208.5970432920003,208.5970432920003,208.5970432920003,208.5970432920003,208.5970432920003,208.5970432920003,208.5970432920003,208.5970432920003,208.55262079133368,208.5970432920003,208.5970432920003,208.5970432920003,208.55262079133368,208.5970432920003,208.5970432920003,208.5970432920003,208.5970432920003,208.5970432920003,213.78443937500015,213.78443937500015,218.71858725000038,None,0,,reldom2_s013,001,2025-02-14_12h04.36.055,Where-B-Scan_AC,2022.2.5,None,
17,Second_Order,3.0,viswhere,stimulus/viswhere_stim/90-deg_dot-left_lightsseagreen.png,stimulus/viswhere_stim/90-deg_dot-right_lightsseagreen.png,stimulus/viswhere_stim/120-deg_dot-right_cyan.png,stimulus/viswhere_stim/60-deg_dot-right_royalblue.png,stimulus/audwhere_stim/match_blank.png,stimulus/audwhere_stim/match_box.png,stimulus/audwhere_stim/match_yes.png,stimulus/audwhere_stim/match_no.png,2.0,Match,Line,Dot,2,5.125,0,5.125,0,5.125,0,5.125,0,0.75,0.75,1,0.5,1,2.125,1,0.5,1,2.125,0,0.0,0,0.0,0,0.0,0,0.0,0,,,,,0,22,22,22,,,,,,,,,218.71858725000038,223.84031333300027,219.1951027500004,220.19402537500036,220.8162762080001,221.8142108330003,218.71858725000038,218.71858725000038,218.73308866633366,218.71858725000038,218.71858725000038,218.71858725000038,218.73308866633366,218.71858725000038,223.84031333300027,224.6363545830004,226.71043104199998,230.5997580000003,224.6363545830004,224.6363545830004,229.77384962500037,225.09405191700034,226.1026387500001,226.71043104199998,227.72085295800025,224.6363545830004,224.6363545830004,224.62460104200028,224.6363545830004,224.6363545830004,224.6363545830004,224.62460104200028,224.6363545830004,224.6363545830004,229.77384962500037,224.6363545830004,229.77384962500037,229.82904987500024,230.5997580000003,224.6363545830004,2,1,1.9673121659998287,reldom2_s013,001,2025-02-14_12h04.36.055,Where-B-Scan_AC,2022.2.5,None,
18,Second_Order,3.0,viswhere,stimulus/viswhere_stim/90-deg_dot-left_lightsseagreen.png,stimulus/viswhere_stim/60-deg_dot-left_mediumslateblue.png,stimulus/viswhere_stim/60-deg_dot-right_lightsseagreen.png,stimulus/viswhere_stim/30-deg_dot-right_goldenrod.png,stimulus/audwhere_stim/match_blank.png,stimulus/audwhere_stim/match_box.png,stimulus/audwhere_stim/match_yes.png,stimulus/audwhere_stim/match_no.png,1.0,Match,Dot,Dot,1,5.125,0,5.125,0,5.125,0,5.125,0,0.625,0.625,1,0.5,1,2.125,1,0.5,1,2.125,0,0.0,0,0.0,0,0.0,0,0.0,0,,,,,0,23,23,23,,,,,,,,,230.5997580000003,235.7183787920003,231.08555337500002,232.0751139580002,232.71062054200002,233.70835341700013,230.5997580000003,230.5997580000003,230.6137310420002,230.5997580000003,230.5997580000003,230.5997580000003,230.6137310420002,230.5997580000003,235.7183787920003,236.3888621670003,238.47113308300004,242.4994450420004,236.3888621670003,236.3888621670003,241.51250333300004,236.84573454200017,237.86561037500041,238.47113308300004,239.48060891700015,236.3888621670003,236.3888621670003,236.36495891633336,236.3888621670003,236.3888621670003,236.3888621670003,236.36495891633336,236.3888621670003,236.3888621670003,241.51250333300004,236.3888621670003,241.51250333300004,241.57979133300023,242.2073880830003,236.3888621670003,1,1,0.8959466249998513,reldom2_s013,001,2025-02-14_12h04.36.055,Where-B-Scan_AC,2022.2.5,None,
0,0.0,None,fixation,stimulus/audwhere_stim/blank_white.png,stimulus/audwhere_stim/blank_white.png,stimulus/viswhere_stim/blank_white.png,stimulus/viswhere_stim/blank_white.png,stimulus/audwhere_stim/blank_white.png,stimulus/audwhere_stim/blank_white.png,stimulus/audwhere_stim/blank_white.png,stimulus/audwhere_stim/blank_white.png,0.0,0.0,0.0,0.0,0,0.0,0,0.0,0,0.0,0,0.0,0,0.0,0.0,0,0.0,0,0.0,0,0.0,0,0.0,0,0.0,0,0.0,0,0.0,0,0.0,9,,,,,0,24,24,24,,,,,,,,,242.4994450420004,242.4994450420004,242.4994450420004,242.4994450420004,242.4994450420004,242.4994450420004,242.4994450420004,242.4994450420004,242.40425325033343,242.4994450420004,242.4994450420004,242.4994450420004,242.40425325033343,242.4994450420004,242.4994450420004,242.4994450420004,242.4994450420004,242.4994450420004,242.4994450420004,242.4994450420004,242.4994450420004,242.4994450420004,242.4994450420004,242.4994450420004,242.4994450420004,242.4994450420004,242.4994450420004,242.45425325033344,242.4994450420004,242.4994450420004,242.4994450420004,242.45425325033344,242.4994450420004,242.4994450420004,242.4994450420004,242.4994450420004,242.4994450420004,247.72441350000008,247.72441350000008,251.69563833300026,None,0,,reldom2_s013,001,2025-02-14_12h04.36.055,Where-B-Scan_AC,2022.2.5,None,
19,First_Order,4.0,viswhere,stimulus/viswhere_stim/blank_white.png,stimulus/viswhere_stim/blank_white.png,stimulus/viswhere_stim/90-deg_dot-left_seagreen.png,stimulus/viswhere_stim/150-deg_dot-left_lightsseagreen.png,stimulus/viswhere_stim/blank_white.png,stimulus/viswhere_stim/dot_box.png,stimulus/viswhere_stim/dot_yes.png,stimulus/viswhere_stim/dot_no.png,None,Dot,None,Dot,1,0.0,0,5.125,0,5.125,0,5.125,0,0.0,0.625,0,0.0,0,0.0,1,0.5,1,2.125,0,0.0,0,0.0,0,0.0,0,0.0,0,,,,,0,25,25,25,,,,,,,,,251.69563833300026,251.69563833300026,251.69563833300026,251.69563833300026,251.69563833300026,251.69563833300026,251.69563833300026,251.69563833300026,251.66378508300014,251.69563833300026,251.69563833300026,251.69563833300026,251.66378508300014,251.69563833300026,251.69563833300026,251.69563833300026,253.79135320800015,257.7512501670003,251.69563833300026,251.69563833300026,256.818402292,252.1722285830001,253.18287550000014,253.79135320800015,254.8101985420003,251.69563833300026,251.69563833300026,251.68045174966682,251.69563833300026,251.69563833300026,251.69563833300026,251.68045174966682,251.69563833300026,251.69563833300026,256.818402292,251.69563833300026,256.818402292,256.9152685420004,257.5364170830003,251.69563833300026,1,1,1.0965253329995903,reldom2_s013,001,2025-02-14_12h04.36.055,Where-B-Scan_AC,2022.2.5,None,
20,First_Order,4.0,viswhere,stimulus/viswhere_stim/blank_white.png,stimulus/viswhere_stim/blank_white.png,stimulus/viswhere_stim/30-deg_dot-left_peru.png,stimulus/viswhere_stim/30-deg_dot-right_salmon.png,stimulus/viswhere_stim/blank_white.png,stimulus/viswhere_stim/dot_box.png,stimulus/viswhere_stim/dot_yes.png,stimulus/viswhere_stim/dot_no.png,None,Dot,None,Line,2,0.0,0,5.125,0,5.125,0,5.125,0,0.0,0.625,0,0.0,0,0.0,1,0.5,1,2.125,0,0.0,0,0.0,0,0.0,0,0.0,0,,,,,0,26,26,26,,,,,,,,,257.7512501670003,257.7512501670003,257.7512501670003,257.7512501670003,257.7512501670003,257.7512501670003,257.7512501670003,257.7512501670003,257.7319932913336,257.7512501670003,257.7512501670003,257.7512501670003,257.7319932913336,257.7512501670003,257.7512501670003,257.7512501670003,259.8574315830001,263.813433625,257.7512501670003,257.7512501670003,262.8790175830004,258.22602895800037,259.2329563330004,259.8574315830001,260.8684222080001,257.7512501670003,257.7512501670003,257.7319932913336,257.7512501670003,257.7512501670003,257.7512501670003,257.7319932913336,257.7512501670003,257.7512501670003,262.8790175830004,257.7512501670003,262.8790175830004,262.97751429200025,263.5996922080003,257.7512501670003,2,1,0.6401482909996048,reldom2_s013,001,2025-02-14_12h04.36.055,Where-B-Scan_AC,2022.2.5,None,
21,First_Order,4.0,viswhere,stimulus/viswhere_stim/blank_white.png,stimulus/viswhere_stim/blank_white.png,stimulus/viswhere_stim/60-deg_dot-left_lightsseagreen.png,stimulus/viswhere_stim/30-deg_dot-left_slateblue.png,stimulus/viswhere_stim/blank_white.png,stimulus/viswhere_stim/line_box.png,stimulus/viswhere_stim/line_yes.png,stimulus/viswhere_stim/line_no.png,None,Line,None,Dot,2,0.0,0,5.125,0,5.125,0,5.125,0,0.0,0.625,0,0.0,0,0.0,1,0.5,1,2.125,0,0.0,0,0.0,0,0.0,0,0.0,0,,,,,0,27,27,27,,,,,,,,,263.813433625,263.813433625,263.813433625,263.813433625,263.813433625,263.813433625,263.813433625,263.813433625,263.7937105003337,263.813433625,263.813433625,263.813433625,263.7937105003337,263.813433625,263.813433625,263.813433625,265.9248526250003,269.8708650000003,263.813433625,263.813433625,268.93459625000014,264.288885125,265.29833045800024,265.9248526250003,266.93753404200015,263.813433625,263.813433625,263.81037716700035,263.813433625,263.813433625,263.813433625,263.81037716700035,263.813433625,263.813433625,268.93459625000014,263.813433625,268.93459625000014,269.0433185420002,269.66741500000035,263.813433625,2,1,1.1374417909996737,reldom2_s013,001,2025-02-14_12h04.36.055,Where-B-Scan_AC,2022.2.5,None,
22,First_Order,4.0,viswhere,stimulus/viswhere_stim/blank_white.png,stimulus/viswhere_stim/blank_white.png,stimulus/viswhere_stim/120-deg_dot-right_peru.png,stimulus/viswhere_stim/150-deg_dot-right_peru.png,stimulus/viswhere_stim/blank_white.png,stimulus/viswhere_stim/line_box.png,stimulus/viswhere_stim/line_yes.png,stimulus/viswhere_stim/line_no.png,None,Line,None,Dot,2,0.0,0,5.125,0,5.125,0,5.125,0,0.0,0.625,0,0.0,0,0.0,1,0.5,1,2.125,0,0.0,0,0.0,0,0.0,0,0.0,0,,,,,0,28,28,28,,,,,,,,,269.8708650000003,269.8708650000003,269.8708650000003,269.8708650000003,269.8708650000003,269.8708650000003,269.8708650000003,269.8708650000003,269.8510047083335,269.8708650000003,269.8708650000003,269.8708650000003,269.8510047083335,269.8708650000003,269.8708650000003,269.8708650000003,271.97269891700034,276.0108129580003,269.8708650000003,269.8708650000003,275.006609,270.34827383300035,271.3625702500003,271.97269891700034,272.97641895800007,269.8708650000003,269.8708650000003,269.86767137500016,269.8708650000003,269.8708650000003,269.8708650000003,269.86767137500016,269.8708650000003,269.8708650000003,275.006609,269.8708650000003,275.006609,275.0937287920001,275.721458125,269.8708650000003,2,1,1.4878477909996946,reldom2_s013,001,2025-02-14_12h04.36.055,Where-B-Scan_AC,2022.2.5,None,
0,0.0,None,fixation,stimulus/audwhere_stim/blank_white.png,stimulus/audwhere_stim/blank_white.png,stimulus/viswhere_stim/blank_white.png,stimulus/viswhere_stim/blank_white.png,stimulus/audwhere_stim/blank_white.png,stimulus/audwhere_stim/blank_white.png,stimulus/audwhere_stim/blank_white.png,stimulus/audwhere_stim/blank_white.png,0.0,0.0,0.0,0.0,0,0.0,0,0.0,0,0.0,0,0.0,0,0.0,0.0,0,0.0,0,0.0,0,0.0,0,0.0,0,0.0,0,0.0,0,0.0,0,0.0,10,,,,,0,29,29,29,,,,,,,,,276.0108129580003,276.0108129580003,276.0108129580003,276.0108129580003,276.0108129580003,276.0108129580003,276.0108129580003,276.0108129580003,275.9152010003334,276.0108129580003,276.0108129580003,276.0108129580003,275.9152010003334,276.0108129580003,276.0108129580003,276.0108129580003,276.0108129580003,276.0108129580003,276.0108129580003,276.0108129580003,276.0108129580003,276.0108129580003,276.0108129580003,276.0108129580003,276.0108129580003,276.0108129580003,276.0108129580003,275.9652010003334,276.0108129580003,276.0108129580003,276.0108129580003,275.9652010003334,276.0108129580003,276.0108129580003,276.0108129580003,276.0108129580003,276.0108129580003,281.2375476670004,281.2375476670004,286.1536210830004,None,0,,reldom2_s013,001,2025-02-14_12h04.36.055,Where-B-Scan_AC,2022.2.5,None,
23,Second_Order,4.0,viswhere,stimulus/viswhere_stim/60-deg_dot-right_peru.png,stimulus/viswhere_stim/60-deg_dot-left_royalblue.png,stimulus/viswhere_stim/90-deg_dot-left_slateblue.png,stimulus/viswhere_stim/90-deg_dot-right_royalblue.png,stimulus/audwhere_stim/match_blank.png,stimulus/audwhere_stim/match_box.png,stimulus/audwhere_stim/match_yes.png,stimulus/audwhere_stim/match_no.png,1.0,Match,Line,Line,1,5.125,0,5.125,0,5.125,0,5.125,0,0.75,0.75,1,0.5,1,2.125,1,0.5,1,2.125,0,0.0,0,0.0,0,0.0,0,0.0,0,,,,,0,30,30,30,,,,,,,,,286.1536210830004,291.2749817500003,286.63442683300036,287.6331293750004,288.2555782500003,289.25351479200026,286.1536210830004,286.1536210830004,286.1688691253336,286.1536210830004,286.1536210830004,286.1536210830004,286.1688691253336,286.1536210830004,291.2749817500003,292.0704010420004,294.154950958,298.0329450000004,292.0704010420004,292.0704010420004,297.2045425420001,292.5133097500002,293.5250288330003,294.154950958,295.17441429200017,292.0704010420004,292.0704010420004,292.05950775,292.0704010420004,292.0704010420004,292.0704010420004,292.05950775,292.0704010420004,292.0704010420004,297.2045425420001,292.0704010420004,297.2045425420001,297.2585264170002,298.0329450000004,292.0704010420004,1,1,1.623311332999947,reldom2_s013,001,2025-02-14_12h04.36.055,Where-B-Scan_AC,2022.2.5,None,
24,Second_Order,4.0,viswhere,stimulus/viswhere_stim/120-deg_dot-left_peru.png,stimulus/viswhere_stim/120-deg_dot-right_peru.png,stimulus/viswhere_stim/30-deg_dot-right_peru.png,stimulus/viswhere_stim/30-deg_dot-left_lightsseagreen.png,stimulus/audwhere_stim/match_blank.png,stimulus/audwhere_stim/match_box.png,stimulus/audwhere_stim/match_yes.png,stimulus/audwhere_stim/match_no.png,1.0,Match,Line,Line,1,5.125,0,5.125,0,5.125,0,5.125,0,0.625,0.625,1,0.5,1,2.125,1,0.5,1,2.125,0,0.0,0,0.0,0,0.0,0,0.0,0,,,,,0,31,31,31,,,,,,,,,298.0329450000004,303.15700320800033,298.510214333,299.4975545420002,300.1452209170002,301.13451791700027,298.0329450000004,298.0329450000004,298.04697020800023,298.0329450000004,298.0329450000004,298.0329450000004,298.04697020800023,298.0329450000004,303.15700320800033,303.8281222080004,305.9157450830003,309.94456708300004,303.8281222080004,303.8281222080004,308.96486900000036,304.2850130420002,305.291360875,305.9157450830003,306.92867620800007,303.8281222080004,303.8281222080004,303.8035069583334,303.8281222080004,303.8281222080004,303.8281222080004,303.8035069583334,303.8281222080004,303.8281222080004,308.96486900000036,303.8281222080004,308.96486900000036,309.01891616700004,309.6401326670002,303.8281222080004,1,1,0.8967974579995825,reldom2_s013,001,2025-02-14_12h04.36.055,Where-B-Scan_AC,2022.2.5,None,
0,0.0,None,fixation,stimulus/audwhere_stim/blank_white.png,stimulus/audwhere_stim/blank_white.png,stimulus/viswhere_stim/blank_white.png,stimulus/viswhere_stim/blank_white.png,stimulus/audwhere_stim/blank_white.png,stimulus/audwhere_stim/blank_white.png,stimulus/audwhere_stim/blank_white.png,stimulus/audwhere_stim/blank_white.png,0.0,0.0,0.0,0.0,0,0.0,0,0.0,0,0.0,0,0.0,0,0.0,0.0,0,0.0,0,0.0,0,0.0,0,0.0,0,0.0,0,0.0,0,0.0,0,0.0,9,,,,,0,32,32,32,,,,,,,,,309.94456708300004,309.94456708300004,309.94456708300004,309.94456708300004,309.94456708300004,309.94456708300004,309.94456708300004,309.94456708300004,309.85007329133333,309.94456708300004,309.94456708300004,309.94456708300004,309.85007329133333,309.94456708300004,309.94456708300004,309.94456708300004,309.94456708300004,309.94456708300004,309.94456708300004,309.94456708300004,309.94456708300004,309.94456708300004,309.94456708300004,309.94456708300004,309.94456708300004,309.94456708300004,309.94456708300004,309.90007329133334,309.94456708300004,309.94456708300004,309.94456708300004,309.90007329133334,309.94456708300004,309.94456708300004,309.94456708300004,309.94456708300004,309.94456708300004,315.14300037500016,315.14300037500016,319.1814047500002,None,0,,reldom2_s013,001,2025-02-14_12h04.36.055,Where-B-Scan_AC,2022.2.5,None,
25,First_Order,5.0,audwhere,stimulus/audwhere_stim/dummy.wav,stimulus/audwhere_stim/dummy.wav,stimulus/audwhere_stim/right_toward_280h.wav,stimulus/audwhere_stim/right_away_290h.wav,stimulus/audwhere_stim/blank_white.png,stimulus/audwhere_stim/side_box.png,stimulus/audwhere_stim/side_yes.png,stimulus/audwhere_stim/side_no.png,None,Side,None,Side,1,0.0,0,5.125,0,5.125,0,5.125,0,0.0,0.625,0,0.0,0,0.0,0,0.0,0,0.0,0,0.0,0,0.0,1,0.5,1,2.125,0,,,,,0,33,33,33,,,,,,,,,319.1814047500002,319.1814047500002,319.1814047500002,319.1814047500002,319.1814047500002,319.1814047500002,319.1814047500002,319.1814047500002,319.11486999966667,319.1814047500002,319.1814047500002,319.1814047500002,319.11486999966667,319.1814047500002,319.1814047500002,319.1814047500002,321.278759625,,319.1814047500002,319.1814047500002,324.35409425000034,319.1814047500002,319.1814047500002,319.1814047500002,319.1814047500002,319.63598808300003,320.68664204200013,319.60624983366665,,321.278759625,322.3305491670003,321.24952058366694,,319.1814047500002,324.35409425000034,319.1814047500002,324.35409425000034,324.3942086670004,325.07895391700004,319.1814047500002,1,1,1.0975377909994677,reldom2_s013,001,2025-02-14_12h04.36.055,Where-B-Scan_AC,2022.2.5,None,
26,First_Order,5.0,audwhere,stimulus/audwhere_stim/dummy.wav,stimulus/audwhere_stim/dummy.wav,stimulus/audwhere_stim/right_toward_300h.wav,stimulus/audwhere_stim/left_toward_270h.wav,stimulus/audwhere_stim/blank_white.png,stimulus/audwhere_stim/direction_box.png,stimulus/audwhere_stim/direction_yes.png,stimulus/audwhere_stim/direction_no.png,None,Direction,None,Direction,1,0.0,0,5.125,0,5.125,0,5.125,0,0.0,0.625,0,0.0,0,0.0,0,0.0,0,0.0,0,0.0,0,0.0,1,0.5,1,2.125,0,,,,,0,34,34,34,,,,,,,,,325.28797625000016,325.28797625000016,325.28797625000016,325.28797625000016,325.28797625000016,325.28797625000016,325.28797625000016,325.28797625000016,325.21228725033336,325.28797625000016,325.28797625000016,325.28797625000016,325.21228725033336,325.28797625000016,325.28797625000016,325.28797625000016,327.40595420800037,331.41491620800025,325.28797625000016,325.28797625000016,330.43929704200036,325.28797625000016,325.28797625000016,325.28797625000016,325.28797625000016,325.74909400000024,326.8074743750003,325.7193461246668,,327.40595420800037,328.46579554200025,327.3761492916667,,325.28797625000016,330.43929704200036,325.28797625000016,330.43929704200036,330.481302917,331.1660024580001,325.28797625000016,2,0,2.1534883739996076,reldom2_s013,001,2025-02-14_12h04.36.055,Where-B-Scan_AC,2022.2.5,None,
27,First_Order,5.0,audwhere,stimulus/audwhere_stim/dummy.wav,stimulus/audwhere_stim/dummy.wav,stimulus/audwhere_stim/left_toward_290h.wav,stimulus/audwhere_stim/left_away_300h.wav,stimulus/audwhere_stim/blank_white.png,stimulus/audwhere_stim/direction_box.png,stimulus/audwhere_stim/direction_yes.png,stimulus/audwhere_stim/direction_no.png,None,Direction,None,Side,2,0.0,0,5.125,0,5.125,0,5.125,0,0.0,0.625,0,0.0,0,0.0,0,0.0,0,0.0,0,0.0,0,0.0,1,0.5,1,2.125,0,,,,,0,35,35,35,,,,,,,,,331.41491620800025,331.41491620800025,331.41491620800025,331.41491620800025,331.41491620800025,331.41491620800025,331.41491620800025,331.41491620800025,331.3395852083337,331.41491620800025,331.41491620800025,331.41491620800025,331.3395852083337,331.41491620800025,331.41491620800025,331.41491620800025,333.490366083,,331.41491620800025,331.41491620800025,336.57248229200013,331.41491620800025,331.41491620800025,331.41491620800025,331.41491620800025,331.87594450000006,332.93989658300006,331.84627791666685,,333.490366083,334.5487857080002,333.46069495866664,,331.41491620800025,336.57248229200013,331.41491620800025,336.57248229200013,336.6133947080002,337.3007590000002,331.41491620800025,2,1,1.4010858749998079,reldom2_s013,001,2025-02-14_12h04.36.055,Where-B-Scan_AC,2022.2.5,None,
28,First_Order,5.0,audwhere,stimulus/audwhere_stim/dummy.wav,stimulus/audwhere_stim/dummy.wav,stimulus/audwhere_stim/right_away_300h.wav,stimulus/audwhere_stim/right_toward_290h.wav,stimulus/audwhere_stim/blank_white.png,stimulus/audwhere_stim/direction_box.png,stimulus/audwhere_stim/direction_yes.png,stimulus/audwhere_stim/direction_no.png,None,Direction,None,Side,2,0.0,0,5.125,0,5.125,0,5.125,0,0.0,0.625,0,0.0,0,0.0,0,0.0,0,0.0,0,0.0,0,0.0,1,0.5,1,2.125,0,,,,,0,36,36,36,,,,,,,,,337.51165804200036,337.51165804200036,337.51165804200036,337.51165804200036,337.51165804200036,337.51165804200036,337.51165804200036,337.51165804200036,337.4340923333335,337.51165804200036,337.51165804200036,337.51165804200036,337.4340923333335,337.51165804200036,337.51165804200036,337.51165804200036,339.583252292,,337.51165804200036,337.51165804200036,342.6788472080002,337.51165804200036,337.51165804200036,337.51165804200036,337.51165804200036,337.9707816250002,339.03082629200026,337.94117133366694,,339.583252292,340.64642866700024,339.5536531246669,,337.51165804200036,342.6788472080002,337.51165804200036,342.6788472080002,342.71988545800014,343.40505545800033,337.51165804200036,2,1,1.154543707999892,reldom2_s013,001,2025-02-14_12h04.36.055,Where-B-Scan_AC,2022.2.5,None,
0,0.0,None,fixation,stimulus/audwhere_stim/blank_white.png,stimulus/audwhere_stim/blank_white.png,stimulus/viswhere_stim/blank_white.png,stimulus/viswhere_stim/blank_white.png,stimulus/audwhere_stim/blank_white.png,stimulus/audwhere_stim/blank_white.png,stimulus/audwhere_stim/blank_white.png,stimulus/audwhere_stim/blank_white.png,0.0,0.0,0.0,0.0,0,0.0,0,0.0,0,0.0,0,0.0,0,0.0,0.0,0,0.0,0,0.0,0,0.0,0,0.0,0,0.0,0,0.0,0,0.0,0,0.0,10,,,,,0,37,37,37,,,,,,,,,343.6354160000001,343.6354160000001,343.6354160000001,343.6354160000001,343.6354160000001,343.6354160000001,343.6354160000001,343.6354160000001,343.53838879133366,343.6354160000001,343.6354160000001,343.6354160000001,343.53838879133366,343.6354160000001,343.6354160000001,343.6354160000001,343.6354160000001,343.6354160000001,343.6354160000001,343.6354160000001,343.6354160000001,343.6354160000001,343.6354160000001,343.6354160000001,343.6354160000001,343.6354160000001,343.6354160000001,343.58838879133367,343.6354160000001,343.6354160000001,343.6354160000001,343.58838879133367,343.6354160000001,343.6354160000001,343.6354160000001,343.6354160000001,343.6354160000001,348.82359420800003,348.82359420800003,353.7750264580004,None,0,,reldom2_s013,001,2025-02-14_12h04.36.055,Where-B-Scan_AC,2022.2.5,None,
29,Second_Order,5.0,audwhere,stimulus/audwhere_stim/right_toward_270h.wav,stimulus/audwhere_stim/right_away_280h.wav,stimulus/audwhere_stim/left_away_270h.wav,stimulus/audwhere_stim/right_away_300h.wav,stimulus/audwhere_stim/match_blank.png,stimulus/audwhere_stim/match_box.png,stimulus/audwhere_stim/match_yes.png,stimulus/audwhere_stim/match_no.png,2.0,Match,Side,Direction,2,5.125,0,5.125,0,5.125,0,5.125,0,0.75,0.75,0,0.0,0,0.0,0,0.0,0,0.0,1,0.5,1,2.125,1,0.5,1,2.125,0,,,,,0,38,38,38,,,,,,,,,353.7750264580004,358.8980370830004,353.7750264580004,353.7750264580004,353.7750264580004,353.7750264580004,354.2222069170002,355.20980016700014,354.2365077916668,,355.8574486250004,356.8458853750003,355.8609661666667,,358.8980370830004,359.74956795800017,361.7895500000004,,359.74956795800017,359.74956795800017,364.93233754200037,359.74956795800017,359.74956795800017,359.74956795800017,359.74956795800017,360.200488083,361.24550850000014,360.1714626666669,361.20020004200023,361.7895500000004,362.8379943330001,361.7604410836668,,359.74956795800017,364.93233754200037,359.74956795800017,364.93233754200037,364.93233754200037,,359.74956795800017,1,0,1.1207142909997856,reldom2_s013,001,2025-02-14_12h04.36.055,Where-B-Scan_AC,2022.2.5,None,
30,Second_Order,5.0,audwhere,stimulus/audwhere_stim/right_away_300h.wav,stimulus/audwhere_stim/right_toward_300h.wav,stimulus/audwhere_stim/left_toward_290h.wav,stimulus/audwhere_stim/left_away_270h.wav,stimulus/audwhere_stim/match_blank.png,stimulus/audwhere_stim/match_box.png,stimulus/audwhere_stim/match_yes.png,stimulus/audwhere_stim/match_no.png,1.0,Match,Side,Side,1,5.125,0,5.125,0,5.125,0,5.125,0,0.625,0.625,0,0.0,0,0.0,0,0.0,0,0.0,1,0.5,1,2.125,1,0.5,1,2.125,0,,,,,0,39,39,39,,,,,,,,,365.72704175000035,370.84650691700017,365.72704175000035,365.72704175000035,365.72704175000035,365.72704175000035,366.1832641670003,367.17011408300004,366.19763433366666,,367.8064585000002,368.80408404200034,367.81846616666667,,370.84650691700017,371.57692912500033,373.6484942920001,377.6710832920003,371.57692912500033,371.57692912500033,376.7278431670002,371.57692912500033,371.57692912500033,371.57692912500033,371.57692912500033,372.02366825000036,373.061543625,371.99581662466676,,373.6484942920001,374.69301462500016,373.6195204996668,,371.57692912500033,376.7278431670002,371.57692912500033,376.7278431670002,376.76749583300034,377.44365912500007,371.57692912500033,1,1,1.1965033739993487,reldom2_s013,001,2025-02-14_12h04.36.055,Where-B-Scan_AC,2022.2.5,None,
0,0.0,None,fixation,stimulus/audwhere_stim/blank_white.png,stimulus/audwhere_stim/blank_white.png,stimulus/viswhere_stim/blank_white.png,stimulus/viswhere_stim/blank_white.png,stimulus/audwhere_stim/blank_white.png,stimulus/audwhere_stim/blank_white.png,stimulus/audwhere_stim/blank_white.png,stimulus/audwhere_stim/blank_white.png,0.0,0.0,0.0,0.0,0,0.0,0,0.0,0,0.0,0,0.0,0,0.0,0.0,0,0.0,0,0.0,0,0.0,0,0.0,0,0.0,0,0.0,0,0.0,0,0.0,8,,,,,0,40,40,40,,,,,,,,,377.6710832920003,377.6710832920003,377.6710832920003,377.6710832920003,377.6710832920003,377.6710832920003,377.6710832920003,377.6710832920003,377.5769924583334,377.6710832920003,377.6710832920003,377.6710832920003,377.5769924583334,377.6710832920003,377.6710832920003,377.6710832920003,377.6710832920003,377.6710832920003,377.6710832920003,377.6710832920003,377.6710832920003,377.6710832920003,377.6710832920003,377.6710832920003,377.6710832920003,377.6710832920003,377.6710832920003,377.6269924583334,377.6710832920003,377.6710832920003,377.6710832920003,377.6269924583334,377.6710832920003,377.6710832920003,377.6710832920003,377.6710832920003,377.6710832920003,382.8766269580001,382.8766269580001,385.9288652920004,None,0,,reldom2_s013,001,2025-02-14_12h04.36.055,Where-B-Scan_AC,2022.2.5,None,
31,First_Order,6.0,audwhere,stimulus/audwhere_stim/dummy.wav,stimulus/audwhere_stim/dummy.wav,stimulus/audwhere_stim/left_toward_270h.wav,stimulus/audwhere_stim/right_toward_280h.wav,stimulus/audwhere_stim/blank_white.png,stimulus/audwhere_stim/side_box.png,stimulus/audwhere_stim/side_yes.png,stimulus/audwhere_stim/side_no.png,None,Side,None,Direction,2,0.0,0,5.125,0,5.125,0,5.125,0,0.0,0.625,0,0.0,0,0.0,0,0.0,0,0.0,0,0.0,0,0.0,1,0.5,1,2.125,0,,,,,0,41,41,41,,,,,,,,,385.9288652920004,385.9288652920004,385.9288652920004,385.9288652920004,385.9288652920004,385.9288652920004,385.9288652920004,385.9288652920004,385.8619182496669,385.9288652920004,385.9288652920004,385.9288652920004,385.8619182496669,385.9288652920004,385.9288652920004,385.9288652920004,388.02971375000016,,385.9288652920004,385.9288652920004,391.08611075,385.9288652920004,385.9288652920004,385.9288652920004,385.9288652920004,386.3854650420003,387.4384422920002,386.35636670866666,,388.02971375000016,389.08166895800014,388.00045199966667,,385.9288652920004,391.08611075,385.9288652920004,391.08611075,391.126662958,391.8088065000002,385.9288652920004,1,0,2.277179874999547,reldom2_s013,001,2025-02-14_12h04.36.055,Where-B-Scan_AC,2022.2.5,None,
32,First_Order,6.0,audwhere,stimulus/audwhere_stim/dummy.wav,stimulus/audwhere_stim/dummy.wav,stimulus/audwhere_stim/right_toward_280h.wav,stimulus/audwhere_stim/left_toward_290h.wav,stimulus/audwhere_stim/blank_white.png,stimulus/audwhere_stim/direction_box.png,stimulus/audwhere_stim/direction_yes.png,stimulus/audwhere_stim/direction_no.png,None,Direction,None,Direction,1,0.0,0,5.125,0,5.125,0,5.125,0,0.0,0.625,0,0.0,0,0.0,0,0.0,0,0.0,0,0.0,0,0.0,1,0.5,1,2.125,0,,,,,0,42,42,42,,,,,,,,,392.01944733300024,392.01944733300024,392.01944733300024,392.01944733300024,392.01944733300024,392.01944733300024,392.01944733300024,392.01944733300024,391.9421398333335,392.01944733300024,392.01944733300024,392.01944733300024,391.9421398333335,392.01944733300024,392.01944733300024,392.01944733300024,394.090817667,,392.01944733300024,392.01944733300024,397.1731392500001,392.01944733300024,392.01944733300024,392.01944733300024,392.01944733300024,392.48146275,393.5406267080002,392.45044237466686,,394.090817667,395.151279833,394.0611051666667,,392.01944733300024,397.1731392500001,392.01944733300024,397.1731392500001,397.213876667,397.9005281670002,392.01944733300024,1,1,1.9535892079993573,reldom2_s013,001,2025-02-14_12h04.36.055,Where-B-Scan_AC,2022.2.5,None,
33,First_Order,6.0,audwhere,stimulus/audwhere_stim/dummy.wav,stimulus/audwhere_stim/dummy.wav,stimulus/audwhere_stim/left_toward_270h.wav,stimulus/audwhere_stim/left_away_300h.wav,stimulus/audwhere_stim/blank_white.png,stimulus/audwhere_stim/side_box.png,stimulus/audwhere_stim/side_yes.png,stimulus/audwhere_stim/side_no.png,None,Side,None,Side,1,0.0,0,5.125,0,5.125,0,5.125,0,0.0,0.625,0,0.0,0,0.0,0,0.0,0,0.0,0,0.0,0,0.0,1,0.5,1,2.125,0,,,,,0,43,43,43,,,,,,,,,398.10992487500016,398.10992487500016,398.10992487500016,398.10992487500016,398.10992487500016,398.10992487500016,398.10992487500016,398.10992487500016,398.0338615003335,398.10992487500016,398.10992487500016,398.10992487500016,398.0338615003335,398.10992487500016,398.10992487500016,398.10992487500016,400.2171547920002,404.2280793750001,398.10992487500016,398.10992487500016,403.29300570800024,398.10992487500016,398.10992487500016,398.10992487500016,398.10992487500016,398.569814167,399.6230787080003,398.5410848746667,,400.2171547920002,401.27506762500025,400.1881374996667,,398.10992487500016,403.29300570800024,398.10992487500016,403.29300570800024,403.33370300000024,404.01875637500007,398.10992487500016,1,1,1.4891278329996567,reldom2_s013,001,2025-02-14_12h04.36.055,Where-B-Scan_AC,2022.2.5,None,
34,First_Order,6.0,audwhere,stimulus/audwhere_stim/dummy.wav,stimulus/audwhere_stim/dummy.wav,stimulus/audwhere_stim/right_toward_300h.wav,stimulus/audwhere_stim/left_toward_290h.wav,stimulus/audwhere_stim/blank_white.png,stimulus/audwhere_stim/side_box.png,stimulus/audwhere_stim/side_yes.png,stimulus/audwhere_stim/side_no.png,None,Side,None,Direction,2,0.0,0,5.125,0,5.125,0,5.125,0,0.0,0.625,0,0.0,0,0.0,0,0.0,0,0.0,0,0.0,0,0.0,1,0.5,1,2.125,0,,,,,0,44,44,44,,,,,,,,,404.2280793750001,404.2280793750001,404.2280793750001,404.2280793750001,404.2280793750001,404.2280793750001,404.2280793750001,404.2280793750001,404.1520897083334,404.2280793750001,404.2280793750001,404.2280793750001,404.1520897083334,404.2280793750001,404.2280793750001,404.2280793750001,406.3402033330003,410.3666169170001,404.2280793750001,404.2280793750001,409.4116471670004,404.2280793750001,404.2280793750001,404.2280793750001,404.2280793750001,404.6879436670001,405.7443174170003,404.6583038746669,,406.3402033330003,407.39557383300007,406.3106299586668,,404.2280793750001,409.4116471670004,404.2280793750001,409.4116471670004,409.45188350000035,410.1369583750002,404.2280793750001,2,1,1.119503416999578,reldom2_s013,001,2025-02-14_12h04.36.055,Where-B-Scan_AC,2022.2.5,None,
0,0.0,None,fixation,stimulus/audwhere_stim/blank_white.png,stimulus/audwhere_stim/blank_white.png,stimulus/viswhere_stim/blank_white.png,stimulus/viswhere_stim/blank_white.png,stimulus/audwhere_stim/blank_white.png,stimulus/audwhere_stim/blank_white.png,stimulus/audwhere_stim/blank_white.png,stimulus/audwhere_stim/blank_white.png,0.0,0.0,0.0,0.0,0,0.0,0,0.0,0,0.0,0,0.0,0,0.0,0.0,0,0.0,0,0.0,0,0.0,0,0.0,0,0.0,0,0.0,0,0.0,0,0.0,8,,,,,0,45,45,45,,,,,,,,,410.3666169170001,410.3666169170001,410.3666169170001,410.3666169170001,410.3666169170001,410.3666169170001,410.3666169170001,410.3666169170001,410.2702917083335,410.3666169170001,410.3666169170001,410.3666169170001,410.2702917083335,410.3666169170001,410.3666169170001,410.3666169170001,410.3666169170001,410.3666169170001,410.3666169170001,410.3666169170001,410.3666169170001,410.3666169170001,410.3666169170001,410.3666169170001,410.3666169170001,410.3666169170001,410.3666169170001,410.3202917083335,410.3666169170001,410.3666169170001,410.3666169170001,410.3202917083335,410.3666169170001,410.3666169170001,410.3666169170001,410.3666169170001,410.3666169170001,415.58912483300037,415.58912483300037,418.52968175000024,None,0,,reldom2_s013,001,2025-02-14_12h04.36.055,Where-B-Scan_AC,2022.2.5,None,
35,Second_Order,6.0,audwhere,stimulus/audwhere_stim/left_toward_280h.wav,stimulus/audwhere_stim/right_toward_270h.wav,stimulus/audwhere_stim/left_away_300h.wav,stimulus/audwhere_stim/right_away_280h.wav,stimulus/audwhere_stim/match_blank.png,stimulus/audwhere_stim/match_box.png,stimulus/audwhere_stim/match_yes.png,stimulus/audwhere_stim/match_no.png,1.0,Match,Direction,Direction,1,5.125,0,5.125,0,5.125,0,5.125,0,0.75,0.75,0,0.0,0,0.0,0,0.0,0,0.0,1,0.5,1,2.125,1,0.5,1,2.125,0,,,,,0,46,46,46,,,,,,,,,418.52968175000024,423.65139983300014,418.52968175000024,418.52968175000024,418.52968175000024,418.52968175000024,418.98683229200014,419.97550279200004,418.9894479996667,419.97550279200004,420.611693542,421.6091539580002,420.62381849966664,,423.65139983300014,424.50240016700036,426.544211333,,424.50240016700036,424.50240016700036,429.6884589580004,424.50240016700036,424.50240016700036,424.50240016700036,424.50240016700036,424.95467891700036,425.9988145420002,424.9265953336669,,426.544211333,427.5927003750003,426.51528583366667,,424.50240016700036,429.6884589580004,424.50240016700036,429.6884589580004,429.6884589580004,,424.50240016700036,1,1,1.3189558739995846,reldom2_s013,001,2025-02-14_12h04.36.055,Where-B-Scan_AC,2022.2.5,None,
36,Second_Order,6.0,audwhere,stimulus/audwhere_stim/left_toward_300h.wav,stimulus/audwhere_stim/right_toward_280h.wav,stimulus/audwhere_stim/left_away_300h.wav,stimulus/audwhere_stim/right_away_300h.wav,stimulus/audwhere_stim/match_blank.png,stimulus/audwhere_stim/match_box.png,stimulus/audwhere_stim/match_yes.png,stimulus/audwhere_stim/match_no.png,1.0,Match,Direction,Direction,1,5.125,0,5.125,0,5.125,0,5.125,0,0.625,0.625,0,0.0,0,0.0,0,0.0,0,0.0,1,0.5,1,2.125,1,0.5,1,2.125,0,,,,,0,47,47,47,,,,,,,,,430.4835092080002,435.5965959170003,430.4835092080002,430.4835092080002,430.4835092080002,430.4835092080002,430.93269654200003,431.91985437500034,430.947413624667,,432.56806270800007,433.5574880000004,432.5709836246667,,435.5965959170003,436.32686066700035,438.4018080830001,442.428142667,436.32686066700035,436.32686066700035,441.4829984580001,436.32686066700035,436.32686066700035,436.32686066700035,436.32686066700035,436.7781966250004,437.815662,436.7495416246668,,438.4018080830001,439.44795887500004,438.3732867086667,,436.32686066700035,441.4829984580001,436.32686066700035,441.4829984580001,441.5231704170001,442.20067633300005,436.32686066700035,1,1,0.9385187919997406,reldom2_s013,001,2025-02-14_12h04.36.055,Where-B-Scan_AC,2022.2.5,None,
0,0.0,None,fixation,stimulus/audwhere_stim/blank_white.png,stimulus/audwhere_stim/blank_white.png,stimulus/viswhere_stim/blank_white.png,stimulus/viswhere_stim/blank_white.png,stimulus/audwhere_stim/blank_white.png,stimulus/audwhere_stim/blank_white.png,stimulus/audwhere_stim/blank_white.png,stimulus/audwhere_stim/blank_white.png,0.0,0.0,0.0,0.0,0,0.0,0,0.0,0,0.0,0,0.0,0,0.0,0.0,0,0.0,0,0.0,0,0.0,0,0.0,0,0.0,0,0.0,0,0.0,0,0.0,10,,,,,0,48,48,48,,,,,,,,,442.428142667,442.428142667,442.428142667,442.428142667,442.428142667,442.428142667,442.428142667,442.428142667,442.3340096663334,442.428142667,442.428142667,442.428142667,442.3340096663334,442.428142667,442.428142667,442.428142667,442.428142667,442.428142667,442.428142667,442.428142667,442.428142667,442.428142667,442.428142667,442.428142667,442.428142667,442.428142667,442.428142667,442.3840096663334,442.428142667,442.428142667,442.428142667,442.3840096663334,442.428142667,442.428142667,442.428142667,442.428142667,442.428142667,447.6380940830004,447.6380940830004,452.6409141250001,None,0,,reldom2_s013,001,2025-02-14_12h04.36.055,Where-B-Scan_AC,2022.2.5,None,
37,First_Order,7.0,viswhere,stimulus/viswhere_stim/blank_white.png,stimulus/viswhere_stim/blank_white.png,stimulus/viswhere_stim/150-deg_dot-left_turquoise.png,stimulus/viswhere_stim/120-deg_dot-left_mediumslateblue.png,stimulus/viswhere_stim/blank_white.png,stimulus/viswhere_stim/line_box.png,stimulus/viswhere_stim/line_yes.png,stimulus/viswhere_stim/line_no.png,None,Line,None,Dot,2,0.0,0,5.125,0,5.125,0,5.125,0,0.0,0.625,0,0.0,0,0.0,1,0.5,1,2.125,0,0.0,0,0.0,0,0.0,0,0.0,0,,,,,0,49,49,49,,,,,,,,,452.6409141250001,452.6409141250001,452.6409141250001,452.6409141250001,452.6409141250001,452.6409141250001,452.6409141250001,452.6409141250001,452.6229875836667,452.6409141250001,452.6409141250001,452.6409141250001,452.6229875836667,452.6409141250001,452.6409141250001,452.6409141250001,454.7451637920003,458.7073760830003,452.6409141250001,452.6409141250001,457.7662182080003,453.12014216700027,454.1329460420002,454.7451637920003,455.75982087500006,452.6409141250001,452.6409141250001,452.6229875836667,452.6409141250001,452.6409141250001,452.6409141250001,452.6229875836667,452.6409141250001,452.6409141250001,457.7662182080003,452.6409141250001,457.7662182080003,457.86295291700026,458.49376862500003,452.6409141250001,2,1,1.402355291999811,reldom2_s013,001,2025-02-14_12h04.36.055,Where-B-Scan_AC,2022.2.5,None,
38,First_Order,7.0,viswhere,stimulus/viswhere_stim/blank_white.png,stimulus/viswhere_stim/blank_white.png,stimulus/viswhere_stim/120-deg_dot-left_mediumslateblue.png,stimulus/viswhere_stim/120-deg_dot-right_seagreen.png,stimulus/viswhere_stim/blank_white.png,stimulus/viswhere_stim/dot_box.png,stimulus/viswhere_stim/dot_yes.png,stimulus/viswhere_stim/dot_no.png,None,Dot,None,Line,2,0.0,0,5.125,0,5.125,0,5.125,0,0.0,0.625,0,0.0,0,0.0,1,0.5,1,2.125,0,0.0,0,0.0,0,0.0,0,0.0,0,,,,,0,50,50,50,,,,,,,,,458.7073760830003,458.7073760830003,458.7073760830003,458.7073760830003,458.7073760830003,458.7073760830003,458.7073760830003,458.7073760830003,458.6873838333334,458.7073760830003,458.7073760830003,458.7073760830003,458.6873838333334,458.7073760830003,458.7073760830003,458.7073760830003,460.81283458300004,464.76800837500014,458.7073760830003,458.7073760830003,463.8322897920002,459.18336554200005,460.1880282920001,460.81283458300004,461.823568542,458.7073760830003,458.7073760830003,458.70405050000005,458.7073760830003,458.7073760830003,458.7073760830003,458.70405050000005,458.7073760830003,458.7073760830003,463.8322897920002,458.7073760830003,463.8322897920002,463.9268937080001,464.55110737500036,458.7073760830003,2,1,0.8352077489994372,reldom2_s013,001,2025-02-14_12h04.36.055,Where-B-Scan_AC,2022.2.5,None,
39,First_Order,7.0,viswhere,stimulus/viswhere_stim/blank_white.png,stimulus/viswhere_stim/blank_white.png,stimulus/viswhere_stim/60-deg_dot-right_salmon.png,stimulus/viswhere_stim/60-deg_dot-left_peru.png,stimulus/viswhere_stim/blank_white.png,stimulus/viswhere_stim/line_box.png,stimulus/viswhere_stim/line_yes.png,stimulus/viswhere_stim/line_no.png,None,Line,None,Line,1,0.0,0,5.125,0,5.125,0,5.125,0,0.0,0.625,0,0.0,0,0.0,1,0.5,1,2.125,0,0.0,0,0.0,0,0.0,0,0.0,0,,,,,0,51,51,51,,,,,,,,,464.76800837500014,464.76800837500014,464.76800837500014,464.76800837500014,464.76800837500014,464.76800837500014,464.76800837500014,464.76800837500014,464.7483270413334,464.76800837500014,464.76800837500014,464.76800837500014,464.7483270413334,464.76800837500014,464.76800837500014,464.76800837500014,466.8784297080001,470.8251857080004,464.76800837500014,464.76800837500014,469.8891318330002,465.24368941700004,466.2510252920001,466.8784297080001,467.8908150420002,464.76800837500014,464.76800837500014,464.7483270413334,464.76800837500014,464.76800837500014,464.76800837500014,464.7483270413334,464.76800837500014,464.76800837500014,469.8891318330002,464.76800837500014,469.8891318330002,470.0005166250003,470.63866662500004,464.76800837500014,1,1,0.9420704999997724,reldom2_s013,001,2025-02-14_12h04.36.055,Where-B-Scan_AC,2022.2.5,None,
40,First_Order,7.0,viswhere,stimulus/viswhere_stim/blank_white.png,stimulus/viswhere_stim/blank_white.png,stimulus/viswhere_stim/60-deg_dot-right_slateblue.png,stimulus/viswhere_stim/90-deg_dot-right_royalblue.png,stimulus/viswhere_stim/blank_white.png,stimulus/viswhere_stim/dot_box.png,stimulus/viswhere_stim/dot_yes.png,stimulus/viswhere_stim/dot_no.png,None,Dot,None,Dot,1,0.0,0,5.125,0,5.125,0,5.125,0,0.0,0.625,0,0.0,0,0.0,1,0.5,1,2.125,0,0.0,0,0.0,0,0.0,0,0.0,0,,,,,0,52,52,52,,,,,,,,,470.8251857080004,470.8251857080004,470.8251857080004,470.8251857080004,470.8251857080004,470.8251857080004,470.8251857080004,470.8251857080004,470.8054342913336,470.8251857080004,470.8251857080004,470.8251857080004,470.8054342913336,470.8251857080004,470.8251857080004,470.8251857080004,472.92429329200013,476.9615173750003,470.8251857080004,470.8251857080004,475.95505100000037,471.3019743330001,472.3142887080003,472.92429329200013,473.93834325000034,470.8251857080004,470.8251857080004,470.8054342913336,470.8251857080004,470.8251857080004,470.8251857080004,470.8054342913336,470.8251857080004,470.8251857080004,475.95505100000037,470.8251857080004,475.95505100000037,476.05342500000006,476.68245370800014,470.8251857080004,1,1,0.7953386659996795,reldom2_s013,001,2025-02-14_12h04.36.055,Where-B-Scan_AC,2022.2.5,None,
0,0.0,None,fixation,stimulus/audwhere_stim/blank_white.png,stimulus/audwhere_stim/blank_white.png,stimulus/viswhere_stim/blank_white.png,stimulus/viswhere_stim/blank_white.png,stimulus/audwhere_stim/blank_white.png,stimulus/audwhere_stim/blank_white.png,stimulus/audwhere_stim/blank_white.png,stimulus/audwhere_stim/blank_white.png,0.0,0.0,0.0,0.0,0,0.0,0,0.0,0,0.0,0,0.0,0,0.0,0.0,0,0.0,0,0.0,0,0.0,0,0.0,0,0.0,0,0.0,0,0.0,0,0.0,8,,,,,0,53,53,53,,,,,,,,,476.9615173750003,476.9615173750003,476.9615173750003,476.9615173750003,476.9615173750003,476.9615173750003,476.9615173750003,476.9615173750003,476.8659930003335,476.9615173750003,476.9615173750003,476.9615173750003,476.8659930003335,476.9615173750003,476.9615173750003,476.9615173750003,476.9615173750003,476.9615173750003,476.9615173750003,476.9615173750003,476.9615173750003,476.9615173750003,476.9615173750003,476.9615173750003,476.9615173750003,476.9615173750003,476.9615173750003,476.9159930003335,476.9615173750003,476.9615173750003,476.9615173750003,476.9159930003335,476.9615173750003,476.9615173750003,476.9615173750003,476.9615173750003,476.9615173750003,482.1597743750003,482.1597743750003,485.0965497500001,None,0,,reldom2_s013,001,2025-02-14_12h04.36.055,Where-B-Scan_AC,2022.2.5,None,
41,Second_Order,7.0,viswhere,stimulus/viswhere_stim/60-deg_dot-right_seagreen.png,stimulus/viswhere_stim/30-deg_dot-right_mediumslateblue.png,stimulus/viswhere_stim/60-deg_dot-left_mediumslateblue.png,stimulus/viswhere_stim/150-deg_dot-left_salmon.png,stimulus/audwhere_stim/match_blank.png,stimulus/audwhere_stim/match_box.png,stimulus/audwhere_stim/match_yes.png,stimulus/audwhere_stim/match_no.png,1.0,Match,Dot,Dot,1,5.125,0,5.125,0,5.125,0,5.125,0,0.75,0.75,1,0.5,1,2.125,1,0.5,1,2.125,0,0.0,0,0.0,0,0.0,0,0.0,0,,,,,0,54,54,54,,,,,,,,,485.0965497500001,490.2178395830001,485.5774432500002,486.5756945000003,487.1982230000003,488.196358875,485.0965497500001,485.0965497500001,485.1114072913334,485.0965497500001,485.0965497500001,485.0965497500001,485.1114072913334,485.0965497500001,490.2178395830001,491.01385641700017,493.08910812500017,496.9792899170002,491.01385641700017,491.01385641700017,496.1496701670003,491.45775195800024,492.4760324580002,493.08910812500017,494.09382325000024,491.01385641700017,491.01385641700017,491.0028838330002,491.01385641700017,491.01385641700017,491.01385641700017,491.0028838330002,491.01385641700017,491.01385641700017,496.1496701670003,491.01385641700017,496.1496701670003,496.2047565830003,496.9792899170002,491.01385641700017,1,1,0.7401339999996708,reldom2_s013,001,2025-02-14_12h04.36.055,Where-B-Scan_AC,2022.2.5,None,
42,Second_Order,7.0,viswhere,stimulus/viswhere_stim/90-deg_dot-right_goldenrod.png,stimulus/viswhere_stim/120-deg_dot-right_mediumslateblue.png,stimulus/viswhere_stim/60-deg_dot-right_peru.png,stimulus/viswhere_stim/60-deg_dot-left_mediumslateblue.png,stimulus/audwhere_stim/match_blank.png,stimulus/audwhere_stim/match_box.png,stimulus/audwhere_stim/match_yes.png,stimulus/audwhere_stim/match_no.png,2.0,Match,Dot,Line,2,5.125,0,5.125,0,5.125,0,5.125,0,0.625,0.625,1,0.5,1,2.125,1,0.5,1,2.125,0,0.0,0,0.0,0,0.0,0,0.0,0,,,,,0,55,55,55,,,,,,,,,496.9792899170002,502.10012462500026,497.4550277500002,498.4535329580003,499.0880002500003,500.076973833,496.9792899170002,496.9792899170002,496.992729375,496.9792899170002,496.9792899170002,496.9792899170002,496.992729375,496.9792899170002,502.10012462500026,502.76946650000036,504.844405583,508.8891131250002,502.76946650000036,502.76946650000036,507.89587041699997,503.2286548330003,504.23555270800034,504.844405583,505.85903375,502.76946650000036,502.76946650000036,502.7465817913335,502.76946650000036,502.76946650000036,502.76946650000036,502.7465817913335,502.76946650000036,502.76946650000036,507.89587041699997,502.76946650000036,507.89587041699997,507.96520470800033,508.60956087500017,502.76946650000036,2,1,0.6379600409995874,reldom2_s013,001,2025-02-14_12h04.36.055,Where-B-Scan_AC,2022.2.5,None,
0,0.0,None,fixation,stimulus/audwhere_stim/blank_white.png,stimulus/audwhere_stim/blank_white.png,stimulus/viswhere_stim/blank_white.png,stimulus/viswhere_stim/blank_white.png,stimulus/audwhere_stim/blank_white.png,stimulus/audwhere_stim/blank_white.png,stimulus/audwhere_stim/blank_white.png,stimulus/audwhere_stim/blank_white.png,0.0,0.0,0.0,0.0,0,0.0,0,0.0,0,0.0,0,0.0,0,0.0,0.0,0,0.0,0,0.0,0,0.0,0,0.0,0,0.0,0,0.0,0,0.0,0,0.0,8,,,,,0,56,56,56,,,,,,,,,508.8891131250002,508.8891131250002,508.8891131250002,508.8891131250002,508.8891131250002,508.8891131250002,508.8891131250002,508.8891131250002,508.7931263333333,508.8891131250002,508.8891131250002,508.8891131250002,508.7931263333333,508.8891131250002,508.8891131250002,508.8891131250002,508.8891131250002,508.8891131250002,508.8891131250002,508.8891131250002,508.8891131250002,508.8891131250002,508.8891131250002,508.8891131250002,508.8891131250002,508.8891131250002,508.8891131250002,508.8431263333333,508.8891131250002,508.8891131250002,508.8891131250002,508.8431263333333,508.8891131250002,508.8891131250002,508.8891131250002,508.8891131250002,508.8891131250002,514.120003167,514.120003167,517.0757821250004,None,0,,reldom2_s013,001,2025-02-14_12h04.36.055,Where-B-Scan_AC,2022.2.5,None,
43,First_Order,8.0,viswhere,stimulus/viswhere_stim/blank_white.png,stimulus/viswhere_stim/blank_white.png,stimulus/viswhere_stim/120-deg_dot-left_lightsseagreen.png,stimulus/viswhere_stim/120-deg_dot-right_royalblue.png,stimulus/viswhere_stim/blank_white.png,stimulus/viswhere_stim/line_box.png,stimulus/viswhere_stim/line_yes.png,stimulus/viswhere_stim/line_no.png,None,Line,None,Line,1,0.0,0,5.125,0,5.125,0,5.125,0,0.0,0.625,0,0.0,0,0.0,1,0.5,1,2.125,0,0.0,0,0.0,0,0.0,0,0.0,0,,,,,0,57,57,57,,,,,,,,,517.0757821250004,517.0757821250004,517.0757821250004,517.0757821250004,517.0757821250004,517.0757821250004,517.0757821250004,517.0757821250004,517.0594561246668,517.0757821250004,517.0757821250004,517.0757821250004,517.0594561246668,517.0757821250004,517.0757821250004,517.0757821250004,519.1840025000001,523.145519917,517.0757821250004,517.0757821250004,522.2100357500003,517.5511189580002,518.5588243750003,519.1840025000001,520.195870083,517.0757821250004,517.0757821250004,517.0594561246668,517.0757821250004,517.0757821250004,517.0757821250004,517.0594561246668,517.0757821250004,517.0757821250004,522.2100357500003,517.0757821250004,522.2100357500003,522.2935937920001,522.916590583,517.0757821250004,1,1,0.977503916999467,reldom2_s013,001,2025-02-14_12h04.36.055,Where-B-Scan_AC,2022.2.5,None,
44,First_Order,8.0,viswhere,stimulus/viswhere_stim/blank_white.png,stimulus/viswhere_stim/blank_white.png,stimulus/viswhere_stim/60-deg_dot-right_peru.png,stimulus/viswhere_stim/90-deg_dot-right_turquoise.png,stimulus/viswhere_stim/blank_white.png,stimulus/viswhere_stim/dot_box.png,stimulus/viswhere_stim/dot_yes.png,stimulus/viswhere_stim/dot_no.png,None,Dot,None,Dot,1,0.0,0,5.125,0,5.125,0,5.125,0,0.0,0.625,0,0.0,0,0.0,1,0.5,1,2.125,0,0.0,0,0.0,0,0.0,0,0.0,0,,,,,0,58,58,58,,,,,,,,,523.145519917,523.145519917,523.145519917,523.145519917,523.145519917,523.145519917,523.145519917,523.145519917,523.1261963333335,523.145519917,523.145519917,523.145519917,523.1261963333335,523.145519917,523.145519917,523.145519917,525.2581532500003,529.203741542,523.145519917,523.145519917,528.2715899580003,523.6212418750001,524.6308442500003,525.2581532500003,526.272045875,523.145519917,523.145519917,523.1261963333335,523.145519917,523.145519917,523.145519917,523.1261963333335,523.145519917,523.145519917,528.2715899580003,523.145519917,528.2715899580003,528.3718238330002,529.003647125,523.145519917,1,1,0.6129692489998888,reldom2_s013,001,2025-02-14_12h04.36.055,Where-B-Scan_AC,2022.2.5,None,
45,First_Order,8.0,viswhere,stimulus/viswhere_stim/blank_white.png,stimulus/viswhere_stim/blank_white.png,stimulus/viswhere_stim/150-deg_dot-right_lightsseagreen.png,stimulus/viswhere_stim/150-deg_dot-left_royalblue.png,stimulus/viswhere_stim/blank_white.png,stimulus/viswhere_stim/dot_box.png,stimulus/viswhere_stim/dot_yes.png,stimulus/viswhere_stim/dot_no.png,None,Dot,None,Line,2,0.0,0,5.125,0,5.125,0,5.125,0,0.0,0.625,0,0.0,0,0.0,1,0.5,1,2.125,0,0.0,0,0.0,0,0.0,0,0.0,0,,,,,0,59,59,59,,,,,,,,,529.203741542,529.203741542,529.203741542,529.203741542,529.203741542,529.203741542,529.203741542,529.203741542,529.1832303333334,529.203741542,529.203741542,529.203741542,529.1832303333334,529.203741542,529.203741542,529.203741542,531.319385583,535.2683254580002,529.203741542,529.203741542,534.3413981670001,529.684531333,530.6871542920003,531.319385583,532.3226841250003,529.203741542,529.203741542,529.1998970000001,529.203741542,529.203741542,529.203741542,529.1998970000001,529.203741542,529.203741542,534.3413981670001,529.203741542,534.3413981670001,534.423943667,535.0537157500003,529.203741542,2,1,1.1119563749994086,reldom2_s013,001,2025-02-14_12h04.36.055,Where-B-Scan_AC,2022.2.5,None,
46,First_Order,8.0,viswhere,stimulus/viswhere_stim/blank_white.png,stimulus/viswhere_stim/blank_white.png,stimulus/viswhere_stim/30-deg_dot-left_salmon.png,stimulus/viswhere_stim/150-deg_dot-left_turquoise.png,stimulus/viswhere_stim/blank_white.png,stimulus/viswhere_stim/line_box.png,stimulus/viswhere_stim/line_yes.png,stimulus/viswhere_stim/line_no.png,None,Line,None,Dot,2,0.0,0,5.125,0,5.125,0,5.125,0,0.0,0.625,0,0.0,0,0.0,1,0.5,1,2.125,0,0.0,0,0.0,0,0.0,0,0.0,0,,,,,0,60,60,60,,,,,,,,,535.2683254580002,535.2683254580002,535.2683254580002,535.2683254580002,535.2683254580002,535.2683254580002,535.2683254580002,535.2683254580002,535.2475800833334,535.2683254580002,535.2683254580002,535.2683254580002,535.2475800833334,535.2683254580002,535.2683254580002,535.2683254580002,537.378197167,541.4110068330001,535.2683254580002,535.2683254580002,540.3997448330001,535.7486059170001,536.766918583,537.378197167,538.3802922080004,535.2683254580002,535.2683254580002,535.2642467500001,535.2683254580002,535.2683254580002,535.2683254580002,535.2642467500001,535.2683254580002,535.2683254580002,540.3997448330001,535.2683254580002,540.3997448330001,540.5164997500001,541.1480485830002,535.2683254580002,2,1,1.3839401239997642,reldom2_s013,001,2025-02-14_12h04.36.055,Where-B-Scan_AC,2022.2.5,None,
0,0.0,None,fixation,stimulus/audwhere_stim/blank_white.png,stimulus/audwhere_stim/blank_white.png,stimulus/viswhere_stim/blank_white.png,stimulus/viswhere_stim/blank_white.png,stimulus/audwhere_stim/blank_white.png,stimulus/audwhere_stim/blank_white.png,stimulus/audwhere_stim/blank_white.png,stimulus/audwhere_stim/blank_white.png,0.0,0.0,0.0,0.0,0,0.0,0,0.0,0,0.0,0,0.0,0,0.0,0.0,0,0.0,0,0.0,0,0.0,0,0.0,0,0.0,0,0.0,0,0.0,0,0.0,9,,,,,0,61,61,61,,,,,,,,,541.4110068330001,541.4110068330001,541.4110068330001,541.4110068330001,541.4110068330001,541.4110068330001,541.4110068330001,541.4110068330001,541.3148236663336,541.4110068330001,541.4110068330001,541.4110068330001,541.3148236663336,541.4110068330001,541.4110068330001,541.4110068330001,541.4110068330001,541.4110068330001,541.4110068330001,541.4110068330001,541.4110068330001,541.4110068330001,541.4110068330001,541.4110068330001,541.4110068330001,541.4110068330001,541.4110068330001,541.3648236663336,541.4110068330001,541.4110068330001,541.4110068330001,541.3648236663336,541.4110068330001,541.4110068330001,541.4110068330001,541.4110068330001,541.4110068330001,546.6221891670002,546.6221891670002,550.5446538750002,None,0,,reldom2_s013,001,2025-02-14_12h04.36.055,Where-B-Scan_AC,2022.2.5,None,
47,Second_Order,8.0,viswhere,stimulus/viswhere_stim/90-deg_dot-left_lightsseagreen.png,stimulus/viswhere_stim/120-deg_dot-left_royalblue.png,stimulus/viswhere_stim/30-deg_dot-right_mediumslateblue.png,stimulus/viswhere_stim/60-deg_dot-right_lightsseagreen.png,stimulus/audwhere_stim/match_blank.png,stimulus/audwhere_stim/match_box.png,stimulus/audwhere_stim/match_yes.png,stimulus/audwhere_stim/match_no.png,1.0,Match,Dot,Dot,1,5.125,0,5.125,0,5.125,0,5.125,0,0.75,0.75,1,0.5,1,2.125,1,0.5,1,2.125,0,0.0,0,0.0,0,0.0,0,0.0,0,,,,,0,62,62,62,,,,,,,,,550.5446538750002,555.6576060420002,551.02485475,552.0155708330003,552.6496694580001,553.6478457500002,550.5446538750002,550.5446538750002,550.5585380413337,550.5446538750002,550.5446538750002,550.5446538750002,550.5585380413337,550.5446538750002,555.6576060420002,556.4521175,558.5376344170004,562.417173667,556.4521175,556.4521175,561.5820625000001,556.895904167,557.9077358330001,558.5376344170004,559.5561652920001,556.4521175,556.4521175,556.4248527503337,556.4521175,556.4521175,556.4521175,556.4248527503337,556.4521175,556.4521175,561.5820625000001,556.4521175,561.5820625000001,561.6510740830004,,556.4521175,1,1,0.6367683329995089,reldom2_s013,001,2025-02-14_12h04.36.055,Where-B-Scan_AC,2022.2.5,None,
48,Second_Order,8.0,viswhere,stimulus/viswhere_stim/60-deg_dot-left_seagreen.png,stimulus/viswhere_stim/90-deg_dot-left_peru.png,stimulus/viswhere_stim/30-deg_dot-right_turquoise.png,stimulus/viswhere_stim/30-deg_dot-left_lightsseagreen.png,stimulus/audwhere_stim/match_blank.png,stimulus/audwhere_stim/match_box.png,stimulus/audwhere_stim/match_yes.png,stimulus/audwhere_stim/match_no.png,2.0,Match,Dot,Line,2,5.125,0,5.125,0,5.125,0,5.125,0,0.625,0.625,1,0.5,1,2.125,1,0.5,1,2.125,0,0.0,0,0.0,0,0.0,0,0.0,0,,,,,0,63,63,63,,,,,,,,,562.417173667,567.5342641250004,562.9024528330001,563.8919645000001,564.5270285000001,565.5249075420002,562.417173667,562.417173667,562.4306925420003,562.417173667,562.417173667,562.417173667,562.4306925420003,562.417173667,567.5342641250004,568.2047485420003,570.28160475,574.31695825,568.2047485420003,568.2047485420003,573.359165542,568.665800667,569.6741342920004,570.28160475,571.3001435420001,568.2047485420003,568.2047485420003,568.1813451663334,568.2047485420003,568.2047485420003,568.2047485420003,568.1813451663334,568.2047485420003,568.2047485420003,573.359165542,568.2047485420003,573.359165542,573.4032131670001,574.037570042,568.2047485420003,2,1,0.8542023329996482,reldom2_s013,001,2025-02-14_12h04.36.055,Where-B-Scan_AC,2022.2.5,None,
0,0.0,None,fixation,stimulus/audwhere_stim/blank_white.png,stimulus/audwhere_stim/blank_white.png,stimulus/viswhere_stim/blank_white.png,stimulus/viswhere_stim/blank_white.png,stimulus/audwhere_stim/blank_white.png,stimulus/audwhere_stim/blank_white.png,stimulus/audwhere_stim/blank_white.png,stimulus/audwhere_stim/blank_white.png,0.0,0.0,0.0,0.0,0,0.0,0,0.0,0,0.0,0,0.0,0,0.0,0.0,0,0.0,0,0.0,0,0.0,0,0.0,0,0.0,0,0.0,0,0.0,0,0.0,16,,,,,0,64,64,64,,,,,,,,,574.31695825,574.31695825,574.31695825,574.31695825,574.31695825,574.31695825,574.31695825,574.31695825,574.2210018333334,574.31695825,574.31695825,574.31695825,574.2210018333334,574.31695825,574.31695825,574.31695825,574.31695825,574.31695825,574.31695825,574.31695825,574.31695825,574.31695825,574.31695825,574.31695825,574.31695825,574.31695825,574.31695825,574.2710018333333,574.31695825,574.31695825,574.31695825,574.2710018333333,574.31695825,574.31695825,574.31695825,574.31695825,574.31695825,579.5095222920004,579.5095222920004,590.488895292,None,0,,reldom2_s013,001,2025-02-14_12h04.36.055,Where-B-Scan_AC,2022.2.5,None,
