Trial,Order,Block,Type,Stimuli_File1,Stimuli_File2,Stimuli_File3,Stimuli_File4,Cue_File1,Cue_File2,Response_File_Yes,Response_File_No,Match,Cue_Dimension,Pair1_Dimension,Pair2_Dimension,Key,Cue1_Duration,Cue1_Onset,Cue2_Duration,Cue2_Onset,ResponseYes_Duration,ResponseYes_Onset,ResponseNo_Duration,ResponseNo_Onset,ITI_Within,ITI_Between,Image1_Duration,Image1_Onset,Image2_Duration,Image2_Onset,Image3_Duration,Image3_Onset,Image4_Duration,Image4_Onset,Sound1_Duration,Sound1_Onset,Sound2_Duration,Sound2_Onset,Sound3_Duration,Sound3_Onset,Sound4_Duration,Sound4_Onset,Fixation_Duration,trials_2.thisRepN,trials_2.thisTrialN,trials_2.thisN,trials_2.thisIndex,trials.thisRepN,trials.thisTrialN,trials.thisN,trials.thisIndex,text_start.started,key_resp_start.started,key_resp_start.keys,key_resp_start.rt,text2.started,key_resp_2.started,key_resp_2.keys,key_resp_2.rt,cue_file1.started,cue_file1.stopped,image_1.started,image_1.stopped,image_2.started,image_2.stopped,sound_icon1.started,sound_icon1.stopped,sound_1.started,sound_1.stopped,sound_icon2.started,sound_icon2.stopped,sound_2.started,sound_2.stopped,image_blank_1.started,image_blank_1.stopped,key_press.started,key_press.stopped,fixation_text.started,cue_file2.started,cue_file2.stopped,image_3.started,image_3.stopped,image_4.started,image_4.stopped,sound_icon3.started,sound_icon3.stopped,sound_3.started,sound_3.stopped,sound_icon4.started,sound_icon4.stopped,sound_4.started,sound_4.stopped,response_yes.started,response_yes.stopped,response_no.started,response_no.stopped,iti_blank.started,iti_blank.stopped,fixation_text.stopped,key_press.keys,key_press.corr,key_press.rt,participant,session,date,expName,psychopyVersion,frameRate,
,,,,,,,,,,,,,,,,,,,,,,,,,,,,,,,,,,,,,,,,,,,,,,,,,,,,6.955936625000049,6.955936625000049,2,0.9560277909999968,,,,,,,,,,,,,,,,,,,,,,,,,,,,,,,,,,,,,,,,,,,,,,,,reldom2_s013,001,2025-02-14_12h28.07.058,Vis-B-Scan_AC,2022.2.5,None,
,,,,,,,,,,,,,,,,,,,,,,,,,,,,,,,,,,,,,,,,,,,,0,0,0,0,,,,,,,,,7.946786125000017,7.946786125000017,5,14.895205875000102,,,,,,,,,,,,,,,,,,,,,,,,,,,,,,,,,,,,,,,,,,,,reldom2_s013,001,2025-02-14_12h28.07.058,Vis-B-Scan_AC,2022.2.5,None,
,,,,,,,,,,,,,,,,,,,,,,,,,,,,,,,,,,,,,,,,,,,,1,0,1,0,,,,,,,,,22.854946665999705,22.854946665999705,5,1.9902470840002024,,,,,,,,,,,,,,,,,,,,,,,,,,,,,,,,,,,,,,,,,,,,reldom2_s013,001,2025-02-14_12h28.07.058,Vis-B-Scan_AC,2022.2.5,None,
,,,,,,,,,,,,,,,,,,,,,,,,,,,,,,,,,,,,,,,,,,,,2,0,2,0,,,,,,,,,24.8622369159998,24.8622369159998,5,1.981876999999713,,,,,,,,,,,,,,,,,,,,,,,,,,,,,,,,,,,,,,,,,,,,reldom2_s013,001,2025-02-14_12h28.07.058,Vis-B-Scan_AC,2022.2.5,None,
,,,,,,,,,,,,,,,,,,,,,,,,,,,,,,,,,,,,,,,,,,,,3,0,3,0,,,,,,,,,26.85584683299976,26.85584683299976,5,1.985720209000192,,,,,,,,,,,,,,,,,,,,,,,,,,,,,,,,,,,,,,,,,,,,reldom2_s013,001,2025-02-14_12h28.07.058,Vis-B-Scan_AC,2022.2.5,None,
0,0.0,None,fixation,stimulus/viswhere_stim/blank_white.png,stimulus/viswhere_stim/blank_white.png,stimulus/viswhat_stim/blank_white.png,stimulus/viswhat_stim/blank_white.png,stimulus/viswhere_stim/blank_white.png,stimulus/viswhere_stim/blank_white.png,stimulus/viswhere_stim/blank_white.png,stimulus/viswhere_stim/blank_white.png,0.0,0.0,0.0,0.0,0,0.0,0,0.0,0,0.0,0,0.0,0,0.0,0.0,0,0.0,0,0.0,0,0.0,0,0.0,0,0,0,0,0,0,0,0,16,,,,,0,0,0,0,,,,,,,,,29.065079499999683,29.065079499999683,29.065079499999683,29.065079499999683,29.065079499999683,29.065079499999683,29.065079499999683,29.065079499999683,28.969054582666438,29.065079499999683,29.065079499999683,29.065079499999683,28.969054582666438,29.065079499999683,29.065079499999683,29.065079499999683,29.065079499999683,29.065079499999683,29.065079499999683,29.065079499999683,29.065079499999683,29.065079499999683,29.065079499999683,29.065079499999683,29.065079499999683,29.065079499999683,29.065079499999683,29.019054582666435,29.065079499999683,29.065079499999683,29.065079499999683,29.019054582666435,29.065079499999683,29.065079499999683,29.065079499999683,29.065079499999683,29.065079499999683,34.283654957999715,34.283654957999715,45.22809837499972,None,0,,reldom2_s013,001,2025-02-14_12h28.07.058,Vis-B-Scan_AC,2022.2.5,None,
1,First_Order,1.0,viswhere,stimulus/viswhere_stim/blank_white.png,stimulus/viswhere_stim/blank_white.png,stimulus/viswhere_stim/150-deg_dot-left_royalblue.png,stimulus/viswhere_stim/150-deg_dot-right_peru.png,stimulus/viswhere_stim/blank_white.png,stimulus/viswhere_stim/dot_box.png,stimulus/viswhere_stim/dot_yes.png,stimulus/viswhere_stim/dot_no.png,None,Dot,None,Line,2,0.0,0,5.125,0,5.125,0,5.125,0,0.0,0.625,0,0.0,0,0.0,1,0.5,1,2.125,0,0,0,0,0,0,0,0,0,,,,,0,1,1,1,,,,,,,,,45.22809837499972,45.22809837499972,45.22809837499972,45.22809837499972,45.22809837499972,45.22809837499972,45.22809837499972,45.22809837499972,45.21197412499978,45.22809837499972,45.22809837499972,45.22809837499972,45.21197412499978,45.22809837499972,45.22809837499972,45.22809837499972,47.3277996249999,51.28620962500008,45.22809837499972,45.22809837499972,50.36772891600003,45.71533412500003,46.72825483299994,47.3277996249999,48.33020587500005,45.22809837499972,45.22809837499972,45.21197412499978,45.22809837499972,45.22809837499972,45.22809837499972,45.21197412499978,45.22809837499972,45.22809837499972,50.36772891600003,45.22809837499972,50.36772891600003,50.44803779099993,51.07289708300004,45.22809837499972,2,1,0.93092816699982,reldom2_s013,001,2025-02-14_12h28.07.058,Vis-B-Scan_AC,2022.2.5,None,
2,First_Order,1.0,viswhere,stimulus/viswhere_stim/blank_white.png,stimulus/viswhere_stim/blank_white.png,stimulus/viswhere_stim/30-deg_dot-left_salmon.png,stimulus/viswhere_stim/30-deg_dot-right_seagreen.png,stimulus/viswhere_stim/blank_white.png,stimulus/viswhere_stim/dot_box.png,stimulus/viswhere_stim/dot_yes.png,stimulus/viswhere_stim/dot_no.png,None,Dot,None,Line,2,0.0,0,5.125,0,5.125,0,5.125,0,0.0,0.625,0,0.0,0,0.0,1,0.5,1,2.125,0,0,0,0,0,0,0,0,0,,,,,0,2,2,2,,,,,,,,,51.28620962500008,51.28620962500008,51.28620962500008,51.28620962500008,51.28620962500008,51.28620962500008,51.28620962500008,51.28620962500008,51.26955104133307,51.28620962500008,51.28620962500008,51.28620962500008,51.26955104133307,51.28620962500008,51.28620962500008,51.28620962500008,53.385087374999785,57.350649041,51.28620962500008,51.28620962500008,56.41064554099967,51.773744124999666,52.7841092499998,53.385087374999785,54.40257137499975,51.28620962500008,51.28620962500008,51.26955104133307,51.28620962500008,51.28620962500008,51.28620962500008,51.26955104133307,51.28620962500008,51.28620962500008,56.41064554099967,51.28620962500008,56.41064554099967,56.504974416000096,57.1298951660001,51.28620962500008,2,1,0.6903334160001577,reldom2_s013,001,2025-02-14_12h28.07.058,Vis-B-Scan_AC,2022.2.5,None,
3,First_Order,1.0,viswhere,stimulus/viswhere_stim/blank_white.png,stimulus/viswhere_stim/blank_white.png,stimulus/viswhere_stim/120-deg_dot-left_goldenrod.png,stimulus/viswhere_stim/30-deg_dot-left_slateblue.png,stimulus/viswhere_stim/blank_white.png,stimulus/viswhere_stim/dot_box.png,stimulus/viswhere_stim/dot_yes.png,stimulus/viswhere_stim/dot_no.png,None,Dot,None,Dot,1,0.0,0,5.125,0,5.125,0,5.125,0,0.0,0.625,0,0.0,0,0.0,1,0.5,1,2.125,0,0,0,0,0,0,0,0,0,,,,,0,3,3,3,,,,,,,,,57.350649041,57.350649041,57.350649041,57.350649041,57.350649041,57.350649041,57.350649041,57.350649041,57.33334449933303,57.350649041,57.350649041,57.350649041,57.33334449933303,57.350649041,57.350649041,57.350649041,59.455501957999786,63.41527058299971,57.350649041,57.350649041,62.47466949999989,57.837624415999926,58.8541956250001,59.455501957999786,60.46005954099974,57.350649041,57.350649041,57.33334449933303,57.350649041,57.350649041,57.350649041,57.33334449933303,57.350649041,57.350649041,62.47466949999989,57.350649041,62.47466949999989,62.5692201249999,63.19402066599969,57.350649041,1,1,0.8643968339997627,reldom2_s013,001,2025-02-14_12h28.07.058,Vis-B-Scan_AC,2022.2.5,None,
4,First_Order,1.0,viswhere,stimulus/viswhere_stim/blank_white.png,stimulus/viswhere_stim/blank_white.png,stimulus/viswhere_stim/150-deg_dot-right_royalblue.png,stimulus/viswhere_stim/30-deg_dot-right_salmon.png,stimulus/viswhere_stim/blank_white.png,stimulus/viswhere_stim/line_box.png,stimulus/viswhere_stim/line_yes.png,stimulus/viswhere_stim/line_no.png,None,Line,None,Dot,2,0.0,0,5.125,0,5.125,0,5.125,0,0.0,0.625,0,0.0,0,0.0,1,0.5,1,2.125,0,0,0,0,0,0,0,0,0,,,,,0,4,4,4,,,,,,,,,63.41527058299971,63.41527058299971,63.41527058299971,63.41527058299971,63.41527058299971,63.41527058299971,63.41527058299971,63.41527058299971,63.39761749933344,63.41527058299971,63.41527058299971,63.41527058299971,63.39761749933344,63.41527058299971,63.41527058299971,63.41527058299971,65.52990408300002,69.55091104099984,63.41527058299971,63.41527058299971,68.54749533299992,63.8917735,64.90337724999972,65.52990408300002,66.54414395799995,63.41527058299971,63.41527058299971,63.39761749933344,63.41527058299971,63.41527058299971,63.41527058299971,63.39761749933344,63.41527058299971,63.41527058299971,68.54749533299992,63.41527058299971,68.54749533299992,68.65997433299981,69.29155141599995,63.41527058299971,2,1,0.9347280419997333,reldom2_s013,001,2025-02-14_12h28.07.058,Vis-B-Scan_AC,2022.2.5,None,
0,0.0,None,fixation,stimulus/viswhere_stim/blank_white.png,stimulus/viswhere_stim/blank_white.png,stimulus/viswhat_stim/blank_white.png,stimulus/viswhat_stim/blank_white.png,stimulus/viswhere_stim/blank_white.png,stimulus/viswhere_stim/blank_white.png,stimulus/viswhere_stim/blank_white.png,stimulus/viswhere_stim/blank_white.png,0.0,0.0,0.0,0.0,0,0.0,0,0.0,0,0.0,0,0.0,0,0.0,0.0,0,0.0,0,0.0,0,0.0,0,0.0,0,0,0,0,0,0,0,0,9,,,,,0,5,5,5,,,,,,,,,69.55091104099984,69.55091104099984,69.55091104099984,69.55091104099984,69.55091104099984,69.55091104099984,69.55091104099984,69.55091104099984,69.45827958333332,69.55091104099984,69.55091104099984,69.55091104099984,69.45827958333332,69.55091104099984,69.55091104099984,69.55091104099984,69.55091104099984,69.55091104099984,69.55091104099984,69.55091104099984,69.55091104099984,69.55091104099984,69.55091104099984,69.55091104099984,69.55091104099984,69.55091104099984,69.55091104099984,69.50827958333332,69.55091104099984,69.55091104099984,69.55091104099984,69.50827958333332,69.55091104099984,69.55091104099984,69.55091104099984,69.55091104099984,69.55091104099984,74.76456299999973,74.76456299999973,78.69281458299974,None,0,,reldom2_s013,001,2025-02-14_12h28.07.058,Vis-B-Scan_AC,2022.2.5,None,
5,Second_Order,1.0,viswhere,stimulus/viswhere_stim/90-deg_dot-left_mediumslateblue.png,stimulus/viswhere_stim/30-deg_dot-left_slateblue.png,stimulus/viswhere_stim/90-deg_dot-left_royalblue.png,stimulus/viswhere_stim/90-deg_dot-right_goldenrod.png,stimulus/viswhere_stim/match_blank.png,stimulus/viswhere_stim/match_box.png,stimulus/viswhere_stim/match_yes.png,stimulus/viswhere_stim/match_no.png,2.0,Match,Dot,Line,2,5.125,0,5.125,0,5.125,0,5.125,0,0.75,0.75,1,0.5,1,2.125,1,0.5,1,2.125,0,0,0,0,0,0,0,0,0,,,,,0,6,6,6,,,,,,,,,78.69281458299974,83.8168220409998,79.17237687499983,80.17053074999967,80.79282866599988,81.79144404099998,78.69281458299974,78.69281458299974,78.69214662466662,78.69281458299974,78.69281458299974,78.69281458299974,78.69214662466662,78.69281458299974,83.8168220409998,84.61155708299975,86.69343012499985,90.57719087499981,84.61155708299975,84.61155708299975,89.73731341599978,85.05575958300005,86.06465520799975,86.69343012499985,87.70966929099995,84.61155708299975,84.61155708299975,84.58412304133302,84.61155708299975,84.61155708299975,84.61155708299975,84.58412304133302,84.61155708299975,84.61155708299975,89.73731341599978,84.61155708299975,89.73731341599978,89.80585737499996,90.57719087499981,84.61155708299975,2,1,0.5631212500002221,reldom2_s013,001,2025-02-14_12h28.07.058,Vis-B-Scan_AC,2022.2.5,None,
6,Second_Order,1.0,viswhere,stimulus/viswhere_stim/30-deg_dot-right_turquoise.png,stimulus/viswhere_stim/30-deg_dot-left_goldenrod.png,stimulus/viswhere_stim/60-deg_dot-left_salmon.png,stimulus/viswhere_stim/60-deg_dot-right_slateblue.png,stimulus/viswhere_stim/match_blank.png,stimulus/viswhere_stim/match_box.png,stimulus/viswhere_stim/match_yes.png,stimulus/viswhere_stim/match_no.png,1.0,Match,Line,Line,1,5.125,0,5.125,0,5.125,0,5.125,0,0.625,0.625,1,0.5,1,2.125,1,0.5,1,2.125,0,0,0,0,0,0,0,0,0,,,,,0,7,7,7,,,,,,,,,90.57719087499981,95.69489754100005,91.06223187499972,92.0521907909997,92.68761616599977,93.6849104160001,90.57719087499981,90.57719087499981,90.59137924999986,90.57719087499981,90.57719087499981,90.57719087499981,90.59137924999986,90.57719087499981,95.69489754100005,96.36190266599988,98.44141254099986,102.48014375000002,96.36190266599988,96.36190266599988,101.48860366600002,96.81711079099978,97.81916754099984,98.44141254099986,99.45371512499969,96.36190266599988,96.36190266599988,96.34120437433333,96.36190266599988,96.36190266599988,96.36190266599988,96.34120437433333,96.36190266599988,96.36190266599988,101.48860366600002,96.36190266599988,101.48860366600002,101.55630849999989,102.20412729100008,96.36190266599988,1,1,0.7850190409999414,reldom2_s013,001,2025-02-14_12h28.07.058,Vis-B-Scan_AC,2022.2.5,None,
0,0.0,None,fixation,stimulus/viswhere_stim/blank_white.png,stimulus/viswhere_stim/blank_white.png,stimulus/viswhat_stim/blank_white.png,stimulus/viswhat_stim/blank_white.png,stimulus/viswhere_stim/blank_white.png,stimulus/viswhere_stim/blank_white.png,stimulus/viswhere_stim/blank_white.png,stimulus/viswhere_stim/blank_white.png,0.0,0.0,0.0,0.0,0,0.0,0,0.0,0,0.0,0,0.0,0,0.0,0.0,0,0.0,0,0.0,0,0.0,0,0.0,0,0,0,0,0,0,0,0,9,,,,,0,8,8,8,,,,,,,,,102.48014375000002,102.48014375000002,102.48014375000002,102.48014375000002,102.48014375000002,102.48014375000002,102.48014375000002,102.48014375000002,102.38404345833335,102.48014375000002,102.48014375000002,102.48014375000002,102.38404345833335,102.48014375000002,102.48014375000002,102.48014375000002,102.48014375000002,102.48014375000002,102.48014375000002,102.48014375000002,102.48014375000002,102.48014375000002,102.48014375000002,102.48014375000002,102.48014375000002,102.48014375000002,102.48014375000002,102.43404345833335,102.48014375000002,102.48014375000002,102.48014375000002,102.43404345833335,102.48014375000002,102.48014375000002,102.48014375000002,102.48014375000002,102.48014375000002,107.69176420799977,107.69176420799977,111.68824674999996,None,0,,reldom2_s013,001,2025-02-14_12h28.07.058,Vis-B-Scan_AC,2022.2.5,None,
7,First_Order,2.0,viswhere,stimulus/viswhere_stim/blank_white.png,stimulus/viswhere_stim/blank_white.png,stimulus/viswhere_stim/60-deg_dot-right_peru.png,stimulus/viswhere_stim/120-deg_dot-right_goldenrod.png,stimulus/viswhere_stim/blank_white.png,stimulus/viswhere_stim/line_box.png,stimulus/viswhere_stim/line_yes.png,stimulus/viswhere_stim/line_no.png,None,Line,None,Dot,2,0.0,0,5.125,0,5.125,0,5.125,0,0.0,0.625,0,0.0,0,0.0,1,0.5,1,2.125,0,0,0,0,0,0,0,0,0,,,,,0,9,9,9,,,,,,,,,111.68824674999996,111.68824674999996,111.68824674999996,111.68824674999996,111.68824674999996,111.68824674999996,111.68824674999996,111.68824674999996,111.67189320766663,111.68824674999996,111.68824674999996,111.68824674999996,111.67189320766663,111.68824674999996,111.68824674999996,111.68824674999996,113.79791537499977,117.75905954099971,111.68824674999996,111.68824674999996,116.82418212499988,112.16449645800003,113.17217845799996,113.79791537499977,114.81018266599995,111.68824674999996,111.68824674999996,111.67189320766663,111.68824674999996,111.68824674999996,111.68824674999996,111.67189320766663,111.68824674999996,111.68824674999996,116.82418212499988,111.68824674999996,116.82418212499988,116.90705854099997,117.5562340409997,111.68824674999996,2,1,0.9940438329999779,reldom2_s013,001,2025-02-14_12h28.07.058,Vis-B-Scan_AC,2022.2.5,None,
8,First_Order,2.0,viswhere,stimulus/viswhere_stim/blank_white.png,stimulus/viswhere_stim/blank_white.png,stimulus/viswhere_stim/90-deg_dot-left_turquoise.png,stimulus/viswhere_stim/90-deg_dot-right_peru.png,stimulus/viswhere_stim/blank_white.png,stimulus/viswhere_stim/line_box.png,stimulus/viswhere_stim/line_yes.png,stimulus/viswhere_stim/line_no.png,None,Line,None,Line,1,0.0,0,5.125,0,5.125,0,5.125,0,0.0,0.625,0,0.0,0,0.0,1,0.5,1,2.125,0,0,0,0,0,0,0,0,0,,,,,0,10,10,10,,,,,,,,,117.75905954099971,117.75905954099971,117.75905954099971,117.75905954099971,117.75905954099971,117.75905954099971,117.75905954099971,117.75905954099971,117.73986849933301,117.75905954099971,117.75905954099971,117.75905954099971,117.73986849933301,117.75905954099971,117.75905954099971,117.75905954099971,119.8636987079999,123.82382595799982,117.75905954099971,117.75905954099971,122.891285875,118.23560158300006,119.25370329099997,119.8636987079999,120.88324104100002,117.75905954099971,117.75905954099971,117.73986849933301,117.75905954099971,117.75905954099971,117.75905954099971,117.73986849933301,117.75905954099971,117.75905954099971,122.891285875,117.75905954099971,122.891285875,122.98801370799993,123.6228268750001,117.75905954099971,1,1,0.6243637080001463,reldom2_s013,001,2025-02-14_12h28.07.058,Vis-B-Scan_AC,2022.2.5,None,
9,First_Order,2.0,viswhere,stimulus/viswhere_stim/blank_white.png,stimulus/viswhere_stim/blank_white.png,stimulus/viswhere_stim/60-deg_dot-right_seagreen.png,stimulus/viswhere_stim/120-deg_dot-right_salmon.png,stimulus/viswhere_stim/blank_white.png,stimulus/viswhere_stim/dot_box.png,stimulus/viswhere_stim/dot_yes.png,stimulus/viswhere_stim/dot_no.png,None,Dot,None,Dot,1,0.0,0,5.125,0,5.125,0,5.125,0,0.0,0.625,0,0.0,0,0.0,1,0.5,1,2.125,0,0,0,0,0,0,0,0,0,,,,,0,11,11,11,,,,,,,,,123.82382595799982,123.82382595799982,123.82382595799982,123.82382595799982,123.82382595799982,123.82382595799982,123.82382595799982,123.82382595799982,123.80379883333337,123.82382595799982,123.82382595799982,123.82382595799982,123.80379883333337,123.82382595799982,123.82382595799982,123.82382595799982,125.93310274999976,129.88167183299993,123.82382595799982,123.82382595799982,128.95350849999977,124.29940979100002,125.30787312499979,125.93310274999976,126.94741595799997,123.82382595799982,123.82382595799982,123.82046550000004,123.82382595799982,123.82382595799982,123.82382595799982,123.82046550000004,123.82382595799982,123.82382595799982,128.95350849999977,123.82382595799982,128.95350849999977,129.04954066599976,129.68105420799975,123.82382595799982,1,1,0.6704154579997521,reldom2_s013,001,2025-02-14_12h28.07.058,Vis-B-Scan_AC,2022.2.5,None,
10,First_Order,2.0,viswhere,stimulus/viswhere_stim/blank_white.png,stimulus/viswhere_stim/blank_white.png,stimulus/viswhere_stim/120-deg_dot-right_cyan.png,stimulus/viswhere_stim/120-deg_dot-left_turquoise.png,stimulus/viswhere_stim/blank_white.png,stimulus/viswhere_stim/line_box.png,stimulus/viswhere_stim/line_yes.png,stimulus/viswhere_stim/line_no.png,None,Line,None,Line,1,0.0,0,5.125,0,5.125,0,5.125,0,0.0,0.625,0,0.0,0,0.0,1,0.5,1,2.125,0,0,0,0,0,0,0,0,0,,,,,0,12,12,12,,,,,,,,,129.88167183299993,129.88167183299993,129.88167183299993,129.88167183299993,129.88167183299993,129.88167183299993,129.88167183299993,129.88167183299993,129.86108599933308,129.88167183299993,129.88167183299993,129.88167183299993,129.86108599933308,129.88167183299993,129.88167183299993,129.88167183299993,131.98323287499989,136.02788570799976,129.88167183299993,129.88167183299993,135.0051546249997,130.3605105409997,131.37416929099982,131.98323287499989,133.0019071659999,129.88167183299993,129.88167183299993,129.87775266599976,129.88167183299993,129.88167183299993,129.88167183299993,129.87775266599976,129.88167183299993,129.88167183299993,135.0051546249997,129.88167183299993,135.0051546249997,135.10030504099996,135.74812170799987,129.88167183299993,1,1,0.6488276249997398,reldom2_s013,001,2025-02-14_12h28.07.058,Vis-B-Scan_AC,2022.2.5,None,
0,0.0,None,fixation,stimulus/viswhere_stim/blank_white.png,stimulus/viswhere_stim/blank_white.png,stimulus/viswhat_stim/blank_white.png,stimulus/viswhat_stim/blank_white.png,stimulus/viswhere_stim/blank_white.png,stimulus/viswhere_stim/blank_white.png,stimulus/viswhere_stim/blank_white.png,stimulus/viswhere_stim/blank_white.png,0.0,0.0,0.0,0.0,0,0.0,0,0.0,0,0.0,0,0.0,0,0.0,0.0,0,0.0,0,0.0,0,0.0,0,0.0,0,0,0,0,0,0,0,0,8,,,,,0,13,13,13,,,,,,,,,136.02788570799976,136.02788570799976,136.02788570799976,136.02788570799976,136.02788570799976,136.02788570799976,136.02788570799976,136.02788570799976,135.93187308333322,136.02788570799976,136.02788570799976,136.02788570799976,135.93187308333322,136.02788570799976,136.02788570799976,136.02788570799976,136.02788570799976,136.02788570799976,136.02788570799976,136.02788570799976,136.02788570799976,136.02788570799976,136.02788570799976,136.02788570799976,136.02788570799976,136.02788570799976,136.02788570799976,135.98187308333323,136.02788570799976,136.02788570799976,136.02788570799976,135.98187308333323,136.02788570799976,136.02788570799976,136.02788570799976,136.02788570799976,136.02788570799976,141.25691445799976,141.25691445799976,144.14279179100004,None,0,,reldom2_s013,001,2025-02-14_12h28.07.058,Vis-B-Scan_AC,2022.2.5,None,
11,Second_Order,2.0,viswhere,stimulus/viswhere_stim/120-deg_dot-left_slateblue.png,stimulus/viswhere_stim/60-deg_dot-left_seagreen.png,stimulus/viswhere_stim/90-deg_dot-right_seagreen.png,stimulus/viswhere_stim/30-deg_dot-right_mediumslateblue.png,stimulus/viswhere_stim/match_blank.png,stimulus/viswhere_stim/match_box.png,stimulus/viswhere_stim/match_yes.png,stimulus/viswhere_stim/match_no.png,1.0,Match,Dot,Dot,1,5.125,0,5.125,0,5.125,0,5.125,0,0.75,0.75,1,0.5,1,2.125,1,0.5,1,2.125,0,0,0,0,0,0,0,0,0,,,,,0,14,14,14,,,,,,,,,144.14279179100004,149.26353841599985,144.6237797079998,145.62175041599994,146.24567070800003,147.2420257079998,144.14279179100004,144.14279179100004,144.14139524966674,144.14279179100004,144.14279179100004,144.14279179100004,144.14139524966674,144.14279179100004,149.26353841599985,150.0594558749999,152.13146804100006,156.03150041599974,150.0594558749999,150.0594558749999,155.18899645800002,150.52119912499984,151.5394981659997,152.13146804100006,153.1334408329999,150.0594558749999,150.0594558749999,150.04918312499996,150.0594558749999,150.0594558749999,150.0594558749999,150.04918312499996,150.0594558749999,150.0594558749999,155.18899645800002,150.0594558749999,155.18899645800002,155.25727404100007,156.03150041599974,150.0594558749999,1,1,1.2143267920000653,reldom2_s013,001,2025-02-14_12h28.07.058,Vis-B-Scan_AC,2022.2.5,None,
12,Second_Order,2.0,viswhere,stimulus/viswhere_stim/90-deg_dot-right_cyan.png,stimulus/viswhere_stim/90-deg_dot-left_salmon.png,stimulus/viswhere_stim/30-deg_dot-left_goldenrod.png,stimulus/viswhere_stim/60-deg_dot-left_turquoise.png,stimulus/viswhere_stim/match_blank.png,stimulus/viswhere_stim/match_box.png,stimulus/viswhere_stim/match_yes.png,stimulus/viswhere_stim/match_no.png,2.0,Match,Line,Dot,2,5.125,0,5.125,0,5.125,0,5.125,0,0.625,0.625,1,0.5,1,2.125,1,0.5,1,2.125,0,0,0,0,0,0,0,0,0,,,,,0,15,15,15,,,,,,,,,156.03150041599974,161.14561462499978,156.51707358299973,157.51621350000005,158.13904104099993,159.13643554100008,156.03150041599974,156.03150041599974,156.04486720799997,156.03150041599974,156.03150041599974,156.03150041599974,156.04486720799997,156.03150041599974,161.14561462499978,161.81562991600003,163.89738637499977,167.93762483299997,161.81562991600003,161.81562991600003,166.94193562500004,162.27611750000005,163.2888196660001,163.89738637499977,164.91519012499975,161.81562991600003,161.81562991600003,161.7923781663331,161.81562991600003,161.81562991600003,161.81562991600003,161.7923781663331,161.81562991600003,161.81562991600003,166.94193562500004,161.81562991600003,166.94193562500004,167.0110368329997,167.6552201659997,161.81562991600003,2,1,1.0052896249999321,reldom2_s013,001,2025-02-14_12h28.07.058,Vis-B-Scan_AC,2022.2.5,None,
0,0.0,None,fixation,stimulus/viswhere_stim/blank_white.png,stimulus/viswhere_stim/blank_white.png,stimulus/viswhat_stim/blank_white.png,stimulus/viswhat_stim/blank_white.png,stimulus/viswhere_stim/blank_white.png,stimulus/viswhere_stim/blank_white.png,stimulus/viswhere_stim/blank_white.png,stimulus/viswhere_stim/blank_white.png,0.0,0.0,0.0,0.0,0,0.0,0,0.0,0,0.0,0,0.0,0,0.0,0.0,0,0.0,0,0.0,0,0.0,0,0.0,0,0,0,0,0,0,0,0,10,,,,,0,16,16,16,,,,,,,,,167.93762483299997,167.93762483299997,167.93762483299997,167.93762483299997,167.93762483299997,167.93762483299997,167.93762483299997,167.93762483299997,167.83875383333302,167.93762483299997,167.93762483299997,167.93762483299997,167.83875383333302,167.93762483299997,167.93762483299997,167.93762483299997,167.93762483299997,167.93762483299997,167.93762483299997,167.93762483299997,167.93762483299997,167.93762483299997,167.93762483299997,167.93762483299997,167.93762483299997,167.93762483299997,167.93762483299997,167.88875383333303,167.93762483299997,167.93762483299997,167.93762483299997,167.88875383333303,167.93762483299997,167.93762483299997,167.93762483299997,167.93762483299997,167.93762483299997,173.16296791600007,173.16296791600007,178.19455479099997,None,0,,reldom2_s013,001,2025-02-14_12h28.07.058,Vis-B-Scan_AC,2022.2.5,None,
13,First_Order,3.0,viswhat,stimulus/viswhat_stim/blank_white.png,stimulus/viswhat_stim/blank_white.png,stimulus/viswhat_stim/land_animal-moose.png,stimulus/viswhat_stim/water_animal-whale (1).png,stimulus/viswhat_stim/blank_white.png,stimulus/viswhat_stim/type_box.png,stimulus/viswhat_stim/type_yes.png,stimulus/viswhat_stim/type_no.png,None,Type,None,Type,1,0.0,0,5.125,0,5.125,0,5.125,0,0.0,0.625,0,0.0,0,0.0,1,0.5,1,2.125,0,0,0,0,0,0,0,0,0,,,,,0,17,17,17,,,,,,,,,178.19455479099997,178.19455479099997,178.19455479099997,178.19455479099997,178.19455479099997,178.19455479099997,178.19455479099997,178.19455479099997,178.0920628326664,178.19455479099997,178.19455479099997,178.19455479099997,178.0920628326664,178.19455479099997,178.19455479099997,178.19455479099997,180.30114366599992,,178.19455479099997,178.19455479099997,183.39734016600005,178.6638267909998,179.71813249999968,180.30114366599992,181.35459879099972,178.19455479099997,178.19455479099997,178.14206283266637,178.19455479099997,178.19455479099997,178.19455479099997,178.14206283266637,178.19455479099997,178.19455479099997,183.39734016600005,178.19455479099997,183.39734016600005,183.39734016600005,184.22870658300008,178.19455479099997,1,1,1.1948195830000259,reldom2_s013,001,2025-02-14_12h28.07.058,Vis-B-Scan_AC,2022.2.5,None,
14,First_Order,3.0,viswhat,stimulus/viswhat_stim/blank_white.png,stimulus/viswhat_stim/blank_white.png,stimulus/viswhat_stim/land_vehicle-trolley.png,stimulus/viswhat_stim/water_vehicle-jetski.png,stimulus/viswhat_stim/blank_white.png,stimulus/viswhat_stim/location_box.png,stimulus/viswhat_stim/location_yes.png,stimulus/viswhat_stim/location_no.png,None,Location,None,Type,2,0.0,0,5.125,0,5.125,0,5.125,0,0.0,0.625,0,0.0,0,0.0,1,0.5,1,2.125,0,0,0,0,0,0,0,0,0,,,,,0,18,18,18,,,,,,,,,184.22870658300008,184.22870658300008,184.22870658300008,184.22870658300008,184.22870658300008,184.22870658300008,184.22870658300008,184.22870658300008,184.19633483266642,184.22870658300008,184.22870658300008,184.22870658300008,184.19633483266642,184.22870658300008,184.22870658300008,184.22870658300008,186.33957929100006,190.2948124159998,184.22870658300008,184.22870658300008,189.3772308749999,184.70699295799977,185.73823700000003,186.33957929100006,187.37094016599985,184.22870658300008,184.22870658300008,184.21300149933307,184.22870658300008,184.22870658300008,184.22870658300008,184.21300149933307,184.22870658300008,184.22870658300008,189.3772308749999,184.22870658300008,189.3772308749999,189.4545862079999,190.0932507079997,184.22870658300008,2,1,1.165954542000236,reldom2_s013,001,2025-02-14_12h28.07.058,Vis-B-Scan_AC,2022.2.5,None,
15,First_Order,3.0,viswhat,stimulus/viswhat_stim/blank_white.png,stimulus/viswhat_stim/blank_white.png,stimulus/viswhat_stim/land_animal-ostrich.png,stimulus/viswhat_stim/land_vehicle-train.png,stimulus/viswhat_stim/blank_white.png,stimulus/viswhat_stim/location_box.png,stimulus/viswhat_stim/location_yes.png,stimulus/viswhat_stim/location_no.png,None,Location,None,Location,1,0.0,0,5.125,0,5.125,0,5.125,0,0.0,0.625,0,0.0,0,0.0,1,0.5,1,2.125,0,0,0,0,0,0,0,0,0,,,,,0,19,19,19,,,,,,,,,190.2948124159998,190.2948124159998,190.2948124159998,190.2948124159998,190.2948124159998,190.2948124159998,190.2948124159998,190.2948124159998,190.26983470800008,190.2948124159998,190.2948124159998,190.2948124159998,190.26983470800008,190.2948124159998,190.2948124159998,190.2948124159998,192.40618095799982,196.70345687500003,190.2948124159998,190.2948124159998,195.4233434580001,190.7774885409999,191.7878752910001,192.40618095799982,193.4232297499998,190.2948124159998,190.2948124159998,190.28650137466673,190.2948124159998,190.2948124159998,190.2948124159998,190.28650137466673,190.2948124159998,190.2948124159998,195.4233434580001,190.2948124159998,195.4233434580001,195.50955508299967,196.13440312500006,190.2948124159998,1,1,0.7352186670000265,reldom2_s013,001,2025-02-14_12h28.07.058,Vis-B-Scan_AC,2022.2.5,None,
16,First_Order,3.0,viswhat,stimulus/viswhat_stim/blank_white.png,stimulus/viswhat_stim/blank_white.png,stimulus/viswhat_stim/water_animal-lobster.png,stimulus/viswhat_stim/land_animal-moose.png,stimulus/viswhat_stim/blank_white.png,stimulus/viswhat_stim/location_box.png,stimulus/viswhat_stim/location_yes.png,stimulus/viswhat_stim/location_no.png,None,Location,None,Type,2,0.0,0,5.125,0,5.125,0,5.125,0,0.0,0.625,0,0.0,0,0.0,1,0.5,1,2.125,0,0,0,0,0,0,0,0,0,,,,,0,20,20,20,,,,,,,,,196.70345687500003,196.70345687500003,196.70345687500003,196.70345687500003,196.70345687500003,196.70345687500003,196.70345687500003,196.70345687500003,196.33850341633328,196.70345687500003,196.70345687500003,196.70345687500003,196.33850341633328,196.70345687500003,196.70345687500003,196.70345687500003,198.67371699999967,,196.70345687500003,196.70345687500003,202.07205737499999,197.06303179099996,198.31581366599994,198.67371699999967,199.92846545799966,196.70345687500003,196.70345687500003,196.52183674966662,196.70345687500003,196.70345687500003,196.70345687500003,196.52183674966662,196.70345687500003,196.70345687500003,202.07205737499999,196.70345687500003,202.07205737499999,201.8988657499999,,196.70345687500003,2,1,1.4686014999997496,reldom2_s013,001,2025-02-14_12h28.07.058,Vis-B-Scan_AC,2022.2.5,None,
0,0.0,None,fixation,stimulus/viswhere_stim/blank_white.png,stimulus/viswhere_stim/blank_white.png,stimulus/viswhat_stim/blank_white.png,stimulus/viswhat_stim/blank_white.png,stimulus/viswhere_stim/blank_white.png,stimulus/viswhere_stim/blank_white.png,stimulus/viswhere_stim/blank_white.png,stimulus/viswhere_stim/blank_white.png,0.0,0.0,0.0,0.0,0,0.0,0,0.0,0,0.0,0,0.0,0,0.0,0.0,0,0.0,0,0.0,0,0.0,0,0.0,0,0,0,0,0,0,0,0,8,,,,,0,21,21,21,,,,,,,,,202.745109083,202.745109083,202.745109083,202.745109083,202.745109083,202.745109083,202.745109083,202.745109083,202.64523308299968,202.745109083,202.745109083,202.745109083,202.64523308299968,202.745109083,202.745109083,202.745109083,202.745109083,202.745109083,202.745109083,202.745109083,202.745109083,202.745109083,202.745109083,202.745109083,202.745109083,202.745109083,202.745109083,202.6952330829997,202.745109083,202.745109083,202.745109083,202.6952330829997,202.745109083,202.745109083,202.745109083,202.745109083,202.745109083,207.92988533299967,207.92988533299967,210.90419199999997,None,0,,reldom2_s013,001,2025-02-14_12h28.07.058,Vis-B-Scan_AC,2022.2.5,None,
17,Second_Order,3.0,viswhat,stimulus/viswhat_stim/land_animal-giraffe.png,stimulus/viswhat_stim/water_animal-stingray.png,stimulus/viswhat_stim/water_animal-squid.png,stimulus/viswhat_stim/water_vehicle-yacht.png,stimulus/viswhere_stim/match_blank.png,stimulus/viswhere_stim/match_box.png,stimulus/viswhere_stim/match_yes.png,stimulus/viswhere_stim/match_no.png,2.0,Match,Type,Location,2,5.125,0,5.125,0,5.125,0,5.125,0,0.75,0.75,1,0.5,1,2.125,1,0.5,1,2.125,0,0,0,0,0,0,0,0,0,,,,,0,22,22,22,,,,,,,,,210.90419199999997,216.02236295800003,211.359250083,212.34616808300007,212.9822405,213.9794636659999,210.90419199999997,210.90419199999997,210.90561604099994,210.90419199999997,210.90419199999997,210.90419199999997,210.90561604099994,210.90419199999997,216.02236295800003,216.8577029160001,218.92636304100006,222.84870187499973,216.8577029160001,216.8577029160001,222.01591387500002,217.3064844579999,218.35999866599968,218.92636304100006,219.94664808299967,216.8577029160001,216.8577029160001,216.82289137466668,216.8577029160001,216.8577029160001,216.8577029160001,216.82289137466668,216.8577029160001,216.8577029160001,222.01591387500002,216.8577029160001,222.01591387500002,222.04758129099991,,216.8577029160001,2,1,0.6810948749998715,reldom2_s013,001,2025-02-14_12h28.07.058,Vis-B-Scan_AC,2022.2.5,None,
18,Second_Order,3.0,viswhat,stimulus/viswhat_stim/water_animal-whale (1).png,stimulus/viswhat_stim/land_animal-tiger.png,stimulus/viswhat_stim/water_animal-orka.png,stimulus/viswhat_stim/water_vehicle-cargoboat.png,stimulus/viswhere_stim/match_blank.png,stimulus/viswhere_stim/match_box.png,stimulus/viswhere_stim/match_yes.png,stimulus/viswhere_stim/match_no.png,2.0,Match,Type,Location,2,5.125,0,5.125,0,5.125,0,5.125,0,0.625,0.625,1,0.5,1,2.125,1,0.5,1,2.125,0,0,0,0,0,0,0,0,0,,,,,0,23,23,23,,,,,,,,,222.84870187499973,227.96628125000007,223.304868833,224.3036273749999,224.93810587500002,225.92742162500008,222.84870187499973,222.84870187499973,222.8531119579999,222.84870187499973,222.84870187499973,222.84870187499973,222.8531119579999,222.84870187499973,227.96628125000007,228.73872458300002,230.77977174999978,,228.73872458300002,228.73872458300002,233.9470675409998,229.1329959159998,230.18715083300003,230.77977174999978,231.83808399999998,228.73872458300002,228.73872458300002,228.6801107079997,228.73872458300002,228.73872458300002,228.73872458300002,228.6801107079997,228.73872458300002,228.73872458300002,233.9470675409998,228.73872458300002,233.9470675409998,233.88571512499993,234.82745154099985,228.73872458300002,2,1,0.9723497919999318,reldom2_s013,001,2025-02-14_12h28.07.058,Vis-B-Scan_AC,2022.2.5,None,
0,0.0,None,fixation,stimulus/viswhere_stim/blank_white.png,stimulus/viswhere_stim/blank_white.png,stimulus/viswhat_stim/blank_white.png,stimulus/viswhat_stim/blank_white.png,stimulus/viswhere_stim/blank_white.png,stimulus/viswhere_stim/blank_white.png,stimulus/viswhere_stim/blank_white.png,stimulus/viswhere_stim/blank_white.png,0.0,0.0,0.0,0.0,0,0.0,0,0.0,0,0.0,0,0.0,0,0.0,0.0,0,0.0,0,0.0,0,0.0,0,0.0,0,0,0,0,0,0,0,0,9,,,,,0,24,24,24,,,,,,,,,234.82745154099985,234.82745154099985,234.82745154099985,234.82745154099985,234.82745154099985,234.82745154099985,234.82745154099985,234.82745154099985,234.73462945833302,234.82745154099985,234.82745154099985,234.82745154099985,234.73462945833302,234.82745154099985,234.82745154099985,234.82745154099985,234.82745154099985,234.82745154099985,234.82745154099985,234.82745154099985,234.82745154099985,234.82745154099985,234.82745154099985,234.82745154099985,234.82745154099985,234.82745154099985,234.82745154099985,234.78462945833303,234.82745154099985,234.82745154099985,234.82745154099985,234.78462945833303,234.82745154099985,234.82745154099985,234.82745154099985,234.82745154099985,234.82745154099985,240.0108409999998,240.0108409999998,244.03515641600006,None,0,,reldom2_s013,001,2025-02-14_12h28.07.058,Vis-B-Scan_AC,2022.2.5,None,
19,First_Order,4.0,viswhat,stimulus/viswhat_stim/blank_white.png,stimulus/viswhat_stim/blank_white.png,stimulus/viswhat_stim/water_animal-dolphin.png,stimulus/viswhat_stim/water_vehicle-canoe.png,stimulus/viswhat_stim/blank_white.png,stimulus/viswhat_stim/type_box.png,stimulus/viswhat_stim/type_yes.png,stimulus/viswhat_stim/type_no.png,None,Type,None,Location,2,0.0,0,5.125,0,5.125,0,5.125,0,0.0,0.625,0,0.0,0,0.0,1,0.5,1,2.125,0,0,0,0,0,0,0,0,0,,,,,0,25,25,25,,,,,,,,,244.03515641600006,244.03515641600006,244.03515641600006,244.03515641600006,244.03515641600006,244.03515641600006,244.03515641600006,244.03515641600006,243.99629629166674,244.03515641600006,244.03515641600006,244.03515641600006,243.99629629166674,244.03515641600006,244.03515641600006,244.03515641600006,246.1473854159999,,244.03515641600006,244.03515641600006,249.1695464999998,244.49818770799993,245.51139654100007,246.1473854159999,247.1699382500001,244.03515641600006,244.03515641600006,244.0129629583334,244.03515641600006,244.03515641600006,244.03515641600006,244.0129629583334,244.03515641600006,244.03515641600006,249.1695464999998,244.03515641600006,249.1695464999998,249.23983366599987,249.8934401659999,244.03515641600006,2,1,0.7326015419998839,reldom2_s013,001,2025-02-14_12h28.07.058,Vis-B-Scan_AC,2022.2.5,None,
20,First_Order,4.0,viswhat,stimulus/viswhat_stim/blank_white.png,stimulus/viswhat_stim/blank_white.png,stimulus/viswhat_stim/land_animal-elephant.png,stimulus/viswhat_stim/land_vehicle-pickuptruck.png,stimulus/viswhat_stim/blank_white.png,stimulus/viswhat_stim/type_box.png,stimulus/viswhat_stim/type_yes.png,stimulus/viswhat_stim/type_no.png,None,Type,None,Location,2,0.0,0,5.125,0,5.125,0,5.125,0,0.0,0.625,0,0.0,0,0.0,1,0.5,1,2.125,0,0,0,0,0,0,0,0,0,,,,,0,26,26,26,,,,,,,,,250.1713871249999,250.1713871249999,250.1713871249999,250.1713871249999,250.1713871249999,250.1713871249999,250.1713871249999,250.1713871249999,250.0637432499999,250.1713871249999,250.1713871249999,250.1713871249999,250.0637432499999,250.1713871249999,250.1713871249999,250.1713871249999,252.25098737500002,,250.1713871249999,250.1713871249999,255.33356812500006,250.64407437499995,251.71750433299985,252.25098737500002,253.3227615410001,250.1713871249999,250.1713871249999,250.11374324999989,250.1713871249999,250.1713871249999,250.1713871249999,250.11374324999989,250.1713871249999,250.1713871249999,255.33356812500006,250.1713871249999,255.33356812500006,255.3876305409999,256.4237355,250.1713871249999,2,1,0.6864164169996911,reldom2_s013,001,2025-02-14_12h28.07.058,Vis-B-Scan_AC,2022.2.5,None,
21,First_Order,4.0,viswhat,stimulus/viswhat_stim/blank_white.png,stimulus/viswhat_stim/blank_white.png,stimulus/viswhat_stim/water_vehicle-cruiseship.png,stimulus/viswhat_stim/land_vehicle-oldcar.png,stimulus/viswhat_stim/blank_white.png,stimulus/viswhat_stim/type_box.png,stimulus/viswhat_stim/type_yes.png,stimulus/viswhat_stim/type_no.png,None,Type,None,Type,1,0.0,0,5.125,0,5.125,0,5.125,0,0.0,0.625,0,0.0,0,0.0,1,0.5,1,2.125,0,0,0,0,0,0,0,0,0,,,,,0,27,27,27,,,,,,,,,256.4237355,256.4237355,256.4237355,256.4237355,256.4237355,256.4237355,256.4237355,256.4237355,256.19945183266657,256.4237355,256.4237355,256.4237355,256.19945183266657,256.4237355,256.4237355,256.4237355,258.4990765829998,,256.4237355,256.4237355,261.725984791,256.8857389579998,258.0381535829997,258.4990765829998,259.6556274999998,256.4237355,256.4237355,256.31611849933324,256.4237355,256.4237355,256.4237355,256.31611849933324,256.4237355,256.4237355,261.725984791,256.4237355,261.725984791,261.6163705409999,,256.4237355,1,1,0.5951828329998534,reldom2_s013,001,2025-02-14_12h28.07.058,Vis-B-Scan_AC,2022.2.5,None,
22,First_Order,4.0,viswhat,stimulus/viswhat_stim/blank_white.png,stimulus/viswhat_stim/blank_white.png,stimulus/viswhat_stim/water_vehicle-pirateship.png,stimulus/viswhat_stim/water_animal-orka.png,stimulus/viswhat_stim/blank_white.png,stimulus/viswhat_stim/location_box.png,stimulus/viswhat_stim/location_yes.png,stimulus/viswhat_stim/location_no.png,None,Location,None,Location,1,0.0,0,5.125,0,5.125,0,5.125,0,0.0,0.625,0,0.0,0,0.0,1,0.5,1,2.125,0,0,0,0,0,0,0,0,0,,,,,0,28,28,28,,,,,,,,,262.5624910409997,262.5624910409997,262.5624910409997,262.5624910409997,262.5624910409997,262.5624910409997,262.5624910409997,262.5624910409997,262.43154091666634,262.5624910409997,262.5624910409997,262.5624910409997,262.43154091666634,262.5624910409997,262.5624910409997,262.5624910409997,264.64899183299985,268.70093229099984,262.5624910409997,262.5624910409997,267.7454230829999,263.0336568749999,264.111989041,264.64899183299985,265.73073187499995,262.5624910409997,262.5624910409997,262.498207583333,262.5624910409997,262.5624910409997,262.5624910409997,262.498207583333,262.5624910409997,262.5624910409997,267.7454230829999,262.5624910409997,267.7454230829999,267.7454230829999,268.42465029100003,262.5624910409997,1,1,1.0231871669998327,reldom2_s013,001,2025-02-14_12h28.07.058,Vis-B-Scan_AC,2022.2.5,None,
0,0.0,None,fixation,stimulus/viswhere_stim/blank_white.png,stimulus/viswhere_stim/blank_white.png,stimulus/viswhat_stim/blank_white.png,stimulus/viswhat_stim/blank_white.png,stimulus/viswhere_stim/blank_white.png,stimulus/viswhere_stim/blank_white.png,stimulus/viswhere_stim/blank_white.png,stimulus/viswhere_stim/blank_white.png,0.0,0.0,0.0,0.0,0,0.0,0,0.0,0,0.0,0,0.0,0,0.0,0.0,0,0.0,0,0.0,0,0.0,0,0.0,0,0,0,0,0,0,0,0,10,,,,,0,29,29,29,,,,,,,,,268.70093229099984,268.70093229099984,268.70093229099984,268.70093229099984,268.70093229099984,268.70093229099984,268.70093229099984,268.70093229099984,268.6079836243334,268.70093229099984,268.70093229099984,268.70093229099984,268.6079836243334,268.70093229099984,268.70093229099984,268.70093229099984,268.70093229099984,268.70093229099984,268.70093229099984,268.70093229099984,268.70093229099984,268.70093229099984,268.70093229099984,268.70093229099984,268.70093229099984,268.70093229099984,268.70093229099984,268.6579836243333,268.70093229099984,268.70093229099984,268.70093229099984,268.6579836243333,268.70093229099984,268.70093229099984,268.70093229099984,268.70093229099984,268.70093229099984,273.88787383299996,273.88787383299996,278.8299053749997,None,0,,reldom2_s013,001,2025-02-14_12h28.07.058,Vis-B-Scan_AC,2022.2.5,None,
23,Second_Order,4.0,viswhat,stimulus/viswhat_stim/land_vehicle-pickuptruck.png,stimulus/viswhat_stim/land_animal-lion.png,stimulus/viswhat_stim/water_animal-jellyfish.png,stimulus/viswhat_stim/water_vehicle-cabincruiser.png,stimulus/viswhere_stim/match_blank.png,stimulus/viswhere_stim/match_box.png,stimulus/viswhere_stim/match_yes.png,stimulus/viswhere_stim/match_no.png,1.0,Match,Location,Location,1,5.125,0,5.125,0,5.125,0,5.125,0,0.75,0.75,1,0.5,1,2.125,1,0.5,1,2.125,0,0,0,0,0,0,0,0,0,,,,,0,30,30,30,,,,,,,,,278.8299053749997,283.9459207499999,279.29743395800006,280.2860524580001,280.922911916,281.92001308299996,278.8299053749997,278.8299053749997,278.8449401249999,278.8299053749997,278.8299053749997,278.8299053749997,278.8449401249999,278.8299053749997,283.9459207499999,284.78602058299975,286.8615569159997,,284.78602058299975,284.78602058299975,289.9360389579997,285.2255892909998,286.26340220799966,286.8615569159997,287.90404583300005,284.78602058299975,284.78602058299975,284.74591083266665,284.78602058299975,284.78602058299975,284.78602058299975,284.74591083266665,284.78602058299975,284.78602058299975,289.9360389579997,284.78602058299975,289.9360389579997,289.9704994579997,,284.78602058299975,1,1,0.7054802500001642,reldom2_s013,001,2025-02-14_12h28.07.058,Vis-B-Scan_AC,2022.2.5,None,
24,Second_Order,4.0,viswhat,stimulus/viswhat_stim/water_vehicle-pirateship.png,stimulus/viswhat_stim/land_vehicle-oldcar.png,stimulus/viswhat_stim/land_animal-zebra.png,stimulus/viswhat_stim/water_animal-seahorse.png,stimulus/viswhere_stim/match_blank.png,stimulus/viswhere_stim/match_box.png,stimulus/viswhere_stim/match_yes.png,stimulus/viswhere_stim/match_no.png,1.0,Match,Type,Type,1,5.125,0,5.125,0,5.125,0,5.125,0,0.625,0.625,1,0.5,1,2.125,1,0.5,1,2.125,0,0,0,0,0,0,0,0,0,,,,,0,31,31,31,,,,,,,,,290.757668708,295.873252458,291.2250342499997,292.21425524999995,292.845282708,293.8347812909997,290.757668708,290.757668708,290.77233766666666,290.757668708,290.757668708,290.757668708,290.77233766666666,290.757668708,295.873252458,296.55715220799993,298.6223485830001,302.66646570800003,296.55715220799993,296.55715220799993,301.6917949579997,297.0186645829999,298.03977029099997,298.6223485830001,299.64982166599975,296.55715220799993,296.55715220799993,296.5372264579999,296.55715220799993,296.55715220799993,296.55715220799993,296.5372264579999,296.55715220799993,296.55715220799993,301.6917949579997,296.55715220799993,301.6917949579997,301.7474300409999,302.38129654099976,296.55715220799993,1,1,0.53109137499996,reldom2_s013,001,2025-02-14_12h28.07.058,Vis-B-Scan_AC,2022.2.5,None,
0,0.0,None,fixation,stimulus/viswhere_stim/blank_white.png,stimulus/viswhere_stim/blank_white.png,stimulus/viswhat_stim/blank_white.png,stimulus/viswhat_stim/blank_white.png,stimulus/viswhere_stim/blank_white.png,stimulus/viswhere_stim/blank_white.png,stimulus/viswhere_stim/blank_white.png,stimulus/viswhere_stim/blank_white.png,0.0,0.0,0.0,0.0,0,0.0,0,0.0,0,0.0,0,0.0,0,0.0,0.0,0,0.0,0,0.0,0,0.0,0,0.0,0,0,0,0,0,0,0,0,9,,,,,0,32,32,32,,,,,,,,,302.66646570800003,302.66646570800003,302.66646570800003,302.66646570800003,302.66646570800003,302.66646570800003,302.66646570800003,302.66646570800003,302.575063541,302.66646570800003,302.66646570800003,302.66646570800003,302.575063541,302.66646570800003,302.66646570800003,302.66646570800003,302.66646570800003,302.66646570800003,302.66646570800003,302.66646570800003,302.66646570800003,302.66646570800003,302.66646570800003,302.66646570800003,302.66646570800003,302.66646570800003,302.66646570800003,302.62506354100003,302.66646570800003,302.66646570800003,302.66646570800003,302.62506354100003,302.66646570800003,302.66646570800003,302.66646570800003,302.66646570800003,302.66646570800003,307.86610574999986,307.86610574999986,311.8741423749998,None,0,,reldom2_s013,001,2025-02-14_12h28.07.058,Vis-B-Scan_AC,2022.2.5,None,
25,First_Order,5.0,viswhere,stimulus/viswhere_stim/blank_white.png,stimulus/viswhere_stim/blank_white.png,stimulus/viswhere_stim/90-deg_dot-right_seagreen.png,stimulus/viswhere_stim/150-deg_dot-right_turquoise.png,stimulus/viswhere_stim/blank_white.png,stimulus/viswhere_stim/line_box.png,stimulus/viswhere_stim/line_yes.png,stimulus/viswhere_stim/line_no.png,None,Line,None,Dot,2,0.0,0,5.125,0,5.125,0,5.125,0,0.0,0.625,0,0.0,0,0.0,1,0.5,1,2.125,0,0,0,0,0,0,0,0,0,,,,,0,33,33,33,,,,,,,,,311.8741423749998,311.8741423749998,311.8741423749998,311.8741423749998,311.8741423749998,311.8741423749998,311.8741423749998,311.8741423749998,311.85599945766637,311.8741423749998,311.8741423749998,311.8741423749998,311.85599945766637,311.8741423749998,311.8741423749998,311.8741423749998,313.9878892910001,317.940106,311.8741423749998,311.8741423749998,317.0134472079999,312.3546415410001,313.37460787500004,313.9878892910001,314.99464229099976,311.8741423749998,311.8741423749998,311.85599945766637,311.8741423749998,311.8741423749998,311.8741423749998,311.85599945766637,311.8741423749998,311.8741423749998,317.0134472079999,311.8741423749998,317.0134472079999,317.0974953750001,317.7230608750001,311.8741423749998,2,1,0.7962453330001154,reldom2_s013,001,2025-02-14_12h28.07.058,Vis-B-Scan_AC,2022.2.5,None,
26,First_Order,5.0,viswhere,stimulus/viswhere_stim/blank_white.png,stimulus/viswhere_stim/blank_white.png,stimulus/viswhere_stim/150-deg_dot-left_seagreen.png,stimulus/viswhere_stim/150-deg_dot-right_seagreen.png,stimulus/viswhere_stim/blank_white.png,stimulus/viswhere_stim/dot_box.png,stimulus/viswhere_stim/dot_yes.png,stimulus/viswhere_stim/dot_no.png,None,Dot,None,Line,2,0.0,0,5.125,0,5.125,0,5.125,0,0.0,0.625,0,0.0,0,0.0,1,0.5,1,2.125,0,0,0,0,0,0,0,0,0,,,,,0,34,34,34,,,,,,,,,317.940106,317.940106,317.940106,317.940106,317.940106,317.940106,317.940106,317.940106,317.9188180833333,317.940106,317.940106,317.940106,317.9188180833333,317.940106,317.940106,317.940106,320.04372537499967,323.997183083,317.940106,317.940106,323.0717637079997,318.4221365829999,319.4283325409997,320.04372537499967,321.0535152079997,317.940106,317.940106,317.93548474999994,317.940106,317.940106,317.940106,317.93548474999994,317.940106,317.940106,323.0717637079997,317.940106,323.0717637079997,323.16952141599995,323.79633479099994,317.940106,2,1,1.3187270829998852,reldom2_s013,001,2025-02-14_12h28.07.058,Vis-B-Scan_AC,2022.2.5,None,
27,First_Order,5.0,viswhere,stimulus/viswhere_stim/blank_white.png,stimulus/viswhere_stim/blank_white.png,stimulus/viswhere_stim/90-deg_dot-left_turquoise.png,stimulus/viswhere_stim/90-deg_dot-right_seagreen.png,stimulus/viswhere_stim/blank_white.png,stimulus/viswhere_stim/line_box.png,stimulus/viswhere_stim/line_yes.png,stimulus/viswhere_stim/line_no.png,None,Line,None,Line,1,0.0,0,5.125,0,5.125,0,5.125,0,0.0,0.625,0,0.0,0,0.0,1,0.5,1,2.125,0,0,0,0,0,0,0,0,0,,,,,0,35,35,35,,,,,,,,,323.997183083,323.997183083,323.997183083,323.997183083,323.997183083,323.997183083,323.997183083,323.997183083,323.9766747083334,323.997183083,323.997183083,323.997183083,323.9766747083334,323.997183083,323.997183083,323.997183083,326.11233758299977,330.0545453750001,323.997183083,323.997183083,329.12029295799994,324.47869149999997,325.48159291599995,326.11233758299977,327.1182705000001,323.997183083,323.997183083,323.99334137500006,323.997183083,323.997183083,323.997183083,323.99334137500006,323.997183083,323.997183083,329.12029295799994,323.997183083,329.12029295799994,329.22486737500003,329.85412833300006,323.997183083,1,1,0.44225150000011126,reldom2_s013,001,2025-02-14_12h28.07.058,Vis-B-Scan_AC,2022.2.5,None,
28,First_Order,5.0,viswhere,stimulus/viswhere_stim/blank_white.png,stimulus/viswhere_stim/blank_white.png,stimulus/viswhere_stim/120-deg_dot-right_mediumslateblue.png,stimulus/viswhere_stim/90-deg_dot-right_lightsseagreen.png,stimulus/viswhere_stim/blank_white.png,stimulus/viswhere_stim/dot_box.png,stimulus/viswhere_stim/dot_yes.png,stimulus/viswhere_stim/dot_no.png,None,Dot,None,Dot,1,0.0,0,5.125,0,5.125,0,5.125,0,0.0,0.625,0,0.0,0,0.0,1,0.5,1,2.125,0,0,0,0,0,0,0,0,0,,,,,0,36,36,36,,,,,,,,,330.0545453750001,330.0545453750001,330.0545453750001,330.0545453750001,330.0545453750001,330.0545453750001,330.0545453750001,330.0545453750001,330.0345465413332,330.0545453750001,330.0545453750001,330.0545453750001,330.0345465413332,330.0545453750001,330.0545453750001,330.0545453750001,332.15668874999983,336.207579333,330.0545453750001,330.0545453750001,335.1882834160001,330.53276370799995,331.54668112499985,332.15668874999983,333.17748441599997,330.0545453750001,330.0545453750001,330.05121320799987,330.0545453750001,330.0545453750001,330.0545453750001,330.05121320799987,330.0545453750001,330.0545453750001,335.1882834160001,330.0545453750001,335.1882834160001,335.2758988749997,335.90132512499986,330.0545453750001,1,1,1.2669629170000007,reldom2_s013,001,2025-02-14_12h28.07.058,Vis-B-Scan_AC,2022.2.5,None,
0,0.0,None,fixation,stimulus/viswhere_stim/blank_white.png,stimulus/viswhere_stim/blank_white.png,stimulus/viswhat_stim/blank_white.png,stimulus/viswhat_stim/blank_white.png,stimulus/viswhere_stim/blank_white.png,stimulus/viswhere_stim/blank_white.png,stimulus/viswhere_stim/blank_white.png,stimulus/viswhere_stim/blank_white.png,0.0,0.0,0.0,0.0,0,0.0,0,0.0,0,0.0,0,0.0,0,0.0,0.0,0,0.0,0,0.0,0,0.0,0,0.0,0,0,0,0,0,0,0,0,10,,,,,0,37,37,37,,,,,,,,,336.207579333,336.207579333,336.207579333,336.207579333,336.207579333,336.207579333,336.207579333,336.207579333,336.11082679133307,336.207579333,336.207579333,336.207579333,336.11082679133307,336.207579333,336.207579333,336.207579333,336.207579333,336.207579333,336.207579333,336.207579333,336.207579333,336.207579333,336.207579333,336.207579333,336.207579333,336.207579333,336.207579333,336.1608267913331,336.207579333,336.207579333,336.207579333,336.1608267913331,336.207579333,336.207579333,336.207579333,336.207579333,336.207579333,341.391240208,341.391240208,346.33680049999975,None,0,,reldom2_s013,001,2025-02-14_12h28.07.058,Vis-B-Scan_AC,2022.2.5,None,
29,Second_Order,5.0,viswhere,stimulus/viswhere_stim/30-deg_dot-right_peru.png,stimulus/viswhere_stim/120-deg_dot-right_royalblue.png,stimulus/viswhere_stim/120-deg_dot-left_lightsseagreen.png,stimulus/viswhere_stim/90-deg_dot-left_seagreen.png,stimulus/viswhere_stim/match_blank.png,stimulus/viswhere_stim/match_box.png,stimulus/viswhere_stim/match_yes.png,stimulus/viswhere_stim/match_no.png,1.0,Match,Dot,Dot,1,5.125,0,5.125,0,5.125,0,5.125,0,0.75,0.75,1,0.5,1,2.125,1,0.5,1,2.125,0,0,0,0,0,0,0,0,0,,,,,0,38,38,38,,,,,,,,,346.33680049999975,351.45167570800004,346.823850625,347.82270612499997,348.445288375,349.4424039579999,346.33680049999975,346.33680049999975,346.35165762433337,346.33680049999975,346.33680049999975,346.33680049999975,346.35165762433337,346.33680049999975,351.45167570800004,352.2447710829997,354.32417666599986,358.212190833,352.2447710829997,352.2447710829997,357.3683609159998,352.69099612499986,353.710084416,354.32417666599986,355.330266125,352.2447710829997,352.2447710829997,352.21885691633315,352.2447710829997,352.2447710829997,352.2447710829997,352.21885691633315,352.2447710829997,352.2447710829997,357.3683609159998,352.2447710829997,357.3683609159998,357.4379036659998,358.212190833,352.2447710829997,1,1,0.8335192499998811,reldom2_s013,001,2025-02-14_12h28.07.058,Vis-B-Scan_AC,2022.2.5,None,
30,Second_Order,5.0,viswhere,stimulus/viswhere_stim/60-deg_dot-right_seagreen.png,stimulus/viswhere_stim/60-deg_dot-left_slateblue.png,stimulus/viswhere_stim/120-deg_dot-left_seagreen.png,stimulus/viswhere_stim/30-deg_dot-left_cyan.png,stimulus/viswhere_stim/match_blank.png,stimulus/viswhere_stim/match_box.png,stimulus/viswhere_stim/match_yes.png,stimulus/viswhere_stim/match_no.png,2.0,Match,Line,Dot,2,5.125,0,5.125,0,5.125,0,5.125,0,0.625,0.625,1,0.5,1,2.125,1,0.5,1,2.125,0,0,0,0,0,0,0,0,0,,,,,0,39,39,39,,,,,,,,,358.212190833,363.32965716599983,358.6971494159998,359.68672154099977,360.3221858329998,361.32026633299984,358.212190833,358.212190833,358.22530899999975,358.212190833,358.212190833,358.212190833,358.22530899999975,358.212190833,363.32965716599983,363.99945824999986,366.0711342499999,370.10971516599966,363.99945824999986,363.99945824999986,369.1255514999998,364.4626304159997,365.478367875,366.0711342499999,367.07534591600006,363.99945824999986,363.99945824999986,363.97628716633335,363.99945824999986,363.99945824999986,363.99945824999986,363.97628716633335,363.99945824999986,363.99945824999986,369.1255514999998,363.99945824999986,369.1255514999998,369.1947393749997,369.81590854099977,363.99945824999986,2,1,0.7348416669997277,reldom2_s013,001,2025-02-14_12h28.07.058,Vis-B-Scan_AC,2022.2.5,None,
0,0.0,None,fixation,stimulus/viswhere_stim/blank_white.png,stimulus/viswhere_stim/blank_white.png,stimulus/viswhat_stim/blank_white.png,stimulus/viswhat_stim/blank_white.png,stimulus/viswhere_stim/blank_white.png,stimulus/viswhere_stim/blank_white.png,stimulus/viswhere_stim/blank_white.png,stimulus/viswhere_stim/blank_white.png,0.0,0.0,0.0,0.0,0,0.0,0,0.0,0,0.0,0,0.0,0,0.0,0.0,0,0.0,0,0.0,0,0.0,0,0.0,0,0,0,0,0,0,0,0,9,,,,,0,40,40,40,,,,,,,,,370.10971516599966,370.10971516599966,370.10971516599966,370.10971516599966,370.10971516599966,370.10971516599966,370.10971516599966,370.10971516599966,370.00964304133305,370.10971516599966,370.10971516599966,370.10971516599966,370.00964304133305,370.10971516599966,370.10971516599966,370.10971516599966,370.10971516599966,370.10971516599966,370.10971516599966,370.10971516599966,370.10971516599966,370.10971516599966,370.10971516599966,370.10971516599966,370.10971516599966,370.10971516599966,370.10971516599966,370.05964304133306,370.10971516599966,370.10971516599966,370.10971516599966,370.05964304133306,370.10971516599966,370.10971516599966,370.10971516599966,370.10971516599966,370.10971516599966,375.3308162909998,375.3308162909998,379.30075741599967,None,0,,reldom2_s013,001,2025-02-14_12h28.07.058,Vis-B-Scan_AC,2022.2.5,None,
31,First_Order,6.0,viswhere,stimulus/viswhere_stim/blank_white.png,stimulus/viswhere_stim/blank_white.png,stimulus/viswhere_stim/120-deg_dot-left_royalblue.png,stimulus/viswhere_stim/30-deg_dot-left_goldenrod.png,stimulus/viswhere_stim/blank_white.png,stimulus/viswhere_stim/dot_box.png,stimulus/viswhere_stim/dot_yes.png,stimulus/viswhere_stim/dot_no.png,None,Dot,None,Dot,1,0.0,0,5.125,0,5.125,0,5.125,0,0.0,0.625,0,0.0,0,0.0,1,0.5,1,2.125,0,0,0,0,0,0,0,0,0,,,,,0,41,41,41,,,,,,,,,379.30075741599967,379.30075741599967,379.30075741599967,379.30075741599967,379.30075741599967,379.30075741599967,379.30075741599967,379.30075741599967,379.2814404576667,379.30075741599967,379.30075741599967,379.30075741599967,379.2814404576667,379.30075741599967,379.30075741599967,379.30075741599967,381.3970307909999,385.3661884999997,379.30075741599967,379.30075741599967,384.43416045799995,379.7769095829999,380.78623345799997,381.3970307909999,382.4132804159999,379.30075741599967,379.30075741599967,379.2814404576667,379.30075741599967,379.30075741599967,379.30075741599967,379.2814404576667,379.30075741599967,379.30075741599967,384.43416045799995,379.30075741599967,384.43416045799995,384.5167920829999,385.1476793329998,379.30075741599967,1,1,0.7775537079996866,reldom2_s013,001,2025-02-14_12h28.07.058,Vis-B-Scan_AC,2022.2.5,None,
32,First_Order,6.0,viswhere,stimulus/viswhere_stim/blank_white.png,stimulus/viswhere_stim/blank_white.png,stimulus/viswhere_stim/150-deg_dot-left_salmon.png,stimulus/viswhere_stim/150-deg_dot-right_salmon.png,stimulus/viswhere_stim/blank_white.png,stimulus/viswhere_stim/dot_box.png,stimulus/viswhere_stim/dot_yes.png,stimulus/viswhere_stim/dot_no.png,None,Dot,None,Line,2,0.0,0,5.125,0,5.125,0,5.125,0,0.0,0.625,0,0.0,0,0.0,1,0.5,1,2.125,0,0,0,0,0,0,0,0,0,,,,,0,42,42,42,,,,,,,,,385.3661884999997,385.3661884999997,385.3661884999997,385.3661884999997,385.3661884999997,385.3661884999997,385.3661884999997,385.3661884999997,385.34539704133323,385.3661884999997,385.3661884999997,385.3661884999997,385.34539704133323,385.3661884999997,385.3661884999997,385.3661884999997,387.480780458,391.4238113329998,385.3661884999997,385.3661884999997,390.49009045799994,385.84648625,386.86676229099976,387.480780458,388.48640937499977,385.3661884999997,385.3661884999997,385.3620637079999,385.3661884999997,385.3661884999997,385.3661884999997,385.3620637079999,385.3661884999997,385.3661884999997,390.49009045799994,385.3661884999997,390.49009045799994,390.59182662500007,391.22161637499994,385.3661884999997,2,1,0.8118185419998554,reldom2_s013,001,2025-02-14_12h28.07.058,Vis-B-Scan_AC,2022.2.5,None,
33,First_Order,6.0,viswhere,stimulus/viswhere_stim/blank_white.png,stimulus/viswhere_stim/blank_white.png,stimulus/viswhere_stim/150-deg_dot-left_cyan.png,stimulus/viswhere_stim/150-deg_dot-right_seagreen.png,stimulus/viswhere_stim/blank_white.png,stimulus/viswhere_stim/line_box.png,stimulus/viswhere_stim/line_yes.png,stimulus/viswhere_stim/line_no.png,None,Line,None,Line,1,0.0,0,5.125,0,5.125,0,5.125,0,0.0,0.625,0,0.0,0,0.0,1,0.5,1,2.125,0,0,0,0,0,0,0,0,0,,,,,0,43,43,43,,,,,,,,,391.4238113329998,391.4238113329998,391.4238113329998,391.4238113329998,391.4238113329998,391.4238113329998,391.4238113329998,391.4238113329998,391.4023266663333,391.4238113329998,391.4238113329998,391.4238113329998,391.4023266663333,391.4238113329998,391.4238113329998,391.4238113329998,393.5298399579997,397.48706458299966,391.4238113329998,391.4238113329998,396.5530507909998,391.9091747079997,392.9154410000001,393.5298399579997,394.5419757079999,391.4238113329998,391.4238113329998,391.41899333299995,391.4238113329998,391.4238113329998,391.4238113329998,391.41899333299995,391.4238113329998,391.4238113329998,396.5530507909998,391.4238113329998,396.5530507909998,396.65092104099995,397.2858888749997,391.4238113329998,1,1,0.8915255829997477,reldom2_s013,001,2025-02-14_12h28.07.058,Vis-B-Scan_AC,2022.2.5,None,
34,First_Order,6.0,viswhere,stimulus/viswhere_stim/blank_white.png,stimulus/viswhere_stim/blank_white.png,stimulus/viswhere_stim/150-deg_dot-right_cyan.png,stimulus/viswhere_stim/120-deg_dot-right_cyan.png,stimulus/viswhere_stim/blank_white.png,stimulus/viswhere_stim/line_box.png,stimulus/viswhere_stim/line_yes.png,stimulus/viswhere_stim/line_no.png,None,Line,None,Dot,2,0.0,0,5.125,0,5.125,0,5.125,0,0.0,0.625,0,0.0,0,0.0,1,0.5,1,2.125,0,0,0,0,0,0,0,0,0,,,,,0,44,44,44,,,,,,,,,397.48706458299966,397.48706458299966,397.48706458299966,397.48706458299966,397.48706458299966,397.48706458299966,397.48706458299966,397.48706458299966,397.46627354133335,397.48706458299966,397.48706458299966,397.48706458299966,397.46627354133335,397.48706458299966,397.48706458299966,397.48706458299966,399.599276166,403.6217114159999,397.48706458299966,397.48706458299966,402.6232728330001,397.9664765409998,398.985949333,399.599276166,400.6033734580001,397.48706458299966,397.48706458299966,397.482940208,397.48706458299966,397.48706458299966,397.48706458299966,397.482940208,397.48706458299966,397.48706458299966,402.6232728330001,397.48706458299966,402.6232728330001,402.7061557500001,403.3300627079998,397.48706458299966,2,1,0.9387889999998151,reldom2_s013,001,2025-02-14_12h28.07.058,Vis-B-Scan_AC,2022.2.5,None,
0,0.0,None,fixation,stimulus/viswhere_stim/blank_white.png,stimulus/viswhere_stim/blank_white.png,stimulus/viswhat_stim/blank_white.png,stimulus/viswhat_stim/blank_white.png,stimulus/viswhere_stim/blank_white.png,stimulus/viswhere_stim/blank_white.png,stimulus/viswhere_stim/blank_white.png,stimulus/viswhere_stim/blank_white.png,0.0,0.0,0.0,0.0,0,0.0,0,0.0,0,0.0,0,0.0,0,0.0,0.0,0,0.0,0,0.0,0,0.0,0,0.0,0,0,0,0,0,0,0,0,8,,,,,0,45,45,45,,,,,,,,,403.6217114159999,403.6217114159999,403.6217114159999,403.6217114159999,403.6217114159999,403.6217114159999,403.6217114159999,403.6217114159999,403.5238237083334,403.6217114159999,403.6217114159999,403.6217114159999,403.5238237083334,403.6217114159999,403.6217114159999,403.6217114159999,403.6217114159999,403.6217114159999,403.6217114159999,403.6217114159999,403.6217114159999,403.6217114159999,403.6217114159999,403.6217114159999,403.6217114159999,403.6217114159999,403.6217114159999,403.5738237083334,403.6217114159999,403.6217114159999,403.6217114159999,403.5738237083334,403.6217114159999,403.6217114159999,403.6217114159999,403.6217114159999,403.6217114159999,408.81726420799987,408.81726420799987,411.77535337499967,None,0,,reldom2_s013,001,2025-02-14_12h28.07.058,Vis-B-Scan_AC,2022.2.5,None,
35,Second_Order,6.0,viswhere,stimulus/viswhere_stim/60-deg_dot-right_cyan.png,stimulus/viswhere_stim/60-deg_dot-left_goldenrod.png,stimulus/viswhere_stim/150-deg_dot-left_salmon.png,stimulus/viswhere_stim/150-deg_dot-right_goldenrod.png,stimulus/viswhere_stim/match_blank.png,stimulus/viswhere_stim/match_box.png,stimulus/viswhere_stim/match_yes.png,stimulus/viswhere_stim/match_no.png,1.0,Match,Line,Line,1,5.125,0,5.125,0,5.125,0,5.125,0,0.75,0.75,1,0.5,1,2.125,1,0.5,1,2.125,0,0,0,0,0,0,0,0,0,,,,,0,46,46,46,,,,,,,,,411.77535337499967,416.89861245799966,412.25812099999985,413.2571196250001,413.87953549999975,414.8775814579999,411.77535337499967,411.77535337499967,411.7897488333334,411.77535337499967,411.77535337499967,411.77535337499967,411.7897488333334,411.77535337499967,416.89861245799966,417.69531804100006,419.77468337499977,423.666098875,417.69531804100006,417.69531804100006,422.830477041,418.14527870799975,419.15727512500007,419.77468337499977,420.7910744579999,417.69531804100006,417.69531804100006,417.6835050409998,417.69531804100006,417.69531804100006,417.69531804100006,417.6835050409998,417.69531804100006,417.69531804100006,422.830477041,417.69531804100006,422.830477041,422.88784933299985,423.666098875,417.69531804100006,1,1,0.7382078749997163,reldom2_s013,001,2025-02-14_12h28.07.058,Vis-B-Scan_AC,2022.2.5,None,
36,Second_Order,6.0,viswhere,stimulus/viswhere_stim/120-deg_dot-right_slateblue.png,stimulus/viswhere_stim/120-deg_dot-left_royalblue.png,stimulus/viswhere_stim/150-deg_dot-right_royalblue.png,stimulus/viswhere_stim/150-deg_dot-left_salmon.png,stimulus/viswhere_stim/match_blank.png,stimulus/viswhere_stim/match_box.png,stimulus/viswhere_stim/match_yes.png,stimulus/viswhere_stim/match_no.png,1.0,Match,Line,Line,1,5.125,0,5.125,0,5.125,0,5.125,0,0.625,0.625,1,0.5,1,2.125,1,0.5,1,2.125,0,0,0,0,0,0,0,0,0,,,,,0,47,47,47,,,,,,,,,423.666098875,428.7807011249997,424.152393416,425.15079879099994,425.7736314579997,426.7712925830001,423.666098875,423.666098875,423.67999345799973,423.666098875,423.666098875,423.666098875,423.67999345799973,423.666098875,428.7807011249997,429.45226941600004,431.52832091599976,435.5618207909997,429.45226941600004,429.45226941600004,434.57874624999977,429.90099624999993,430.9101841659999,431.52832091599976,432.54260104099967,429.45226941600004,429.45226941600004,429.4275590833331,429.45226941600004,429.45226941600004,429.45226941600004,429.4275590833331,429.45226941600004,429.45226941600004,434.57874624999977,429.45226941600004,434.57874624999977,434.6496283749998,435.281209666,429.45226941600004,1,1,0.8511740829999326,reldom2_s013,001,2025-02-14_12h28.07.058,Vis-B-Scan_AC,2022.2.5,None,
0,0.0,None,fixation,stimulus/viswhere_stim/blank_white.png,stimulus/viswhere_stim/blank_white.png,stimulus/viswhat_stim/blank_white.png,stimulus/viswhat_stim/blank_white.png,stimulus/viswhere_stim/blank_white.png,stimulus/viswhere_stim/blank_white.png,stimulus/viswhere_stim/blank_white.png,stimulus/viswhere_stim/blank_white.png,0.0,0.0,0.0,0.0,0,0.0,0,0.0,0,0.0,0,0.0,0,0.0,0.0,0,0.0,0,0.0,0,0.0,0,0.0,0,0,0,0,0,0,0,0,10,,,,,0,48,48,48,,,,,,,,,435.5618207909997,435.5618207909997,435.5618207909997,435.5618207909997,435.5618207909997,435.5618207909997,435.5618207909997,435.5618207909997,435.4616229993333,435.5618207909997,435.5618207909997,435.5618207909997,435.4616229993333,435.5618207909997,435.5618207909997,435.5618207909997,435.5618207909997,435.5618207909997,435.5618207909997,435.5618207909997,435.5618207909997,435.5618207909997,435.5618207909997,435.5618207909997,435.5618207909997,435.5618207909997,435.5618207909997,435.5116229993333,435.5618207909997,435.5618207909997,435.5618207909997,435.5116229993333,435.5618207909997,435.5618207909997,435.5618207909997,435.5618207909997,435.5618207909997,440.7905382499998,440.7905382499998,445.84780991599973,None,0,,reldom2_s013,001,2025-02-14_12h28.07.058,Vis-B-Scan_AC,2022.2.5,None,
37,First_Order,7.0,viswhat,stimulus/viswhat_stim/blank_white.png,stimulus/viswhat_stim/blank_white.png,stimulus/viswhat_stim/water_vehicle-sailboat.png,stimulus/viswhat_stim/land_vehicle-bus.png,stimulus/viswhat_stim/blank_white.png,stimulus/viswhat_stim/location_box.png,stimulus/viswhat_stim/location_yes.png,stimulus/viswhat_stim/location_no.png,None,Location,None,Type,2,0.0,0,5.125,0,5.125,0,5.125,0,0.0,0.625,0,0.0,0,0.0,1,0.5,1,2.125,0,0,0,0,0,0,0,0,0,,,,,0,49,49,49,,,,,,,,,445.84780991599973,445.84780991599973,445.84780991599973,445.84780991599973,445.84780991599973,445.84780991599973,445.84780991599973,445.84780991599973,445.75929233266663,445.84780991599973,445.84780991599973,445.84780991599973,445.75929233266663,445.84780991599973,445.84780991599973,445.84780991599973,447.9221819999998,,445.84780991599973,445.84780991599973,451.0055412500001,446.32643983299977,447.39175591599997,447.9221819999998,448.9886070829998,445.84780991599973,445.84780991599973,445.80929233266664,445.84780991599973,445.84780991599973,445.84780991599973,445.80929233266664,445.84780991599973,445.84780991599973,451.0055412500001,445.84780991599973,451.0055412500001,451.0532562909998,451.7181021659999,445.84780991599973,2,1,1.0345544589999918,reldom2_s013,001,2025-02-14_12h28.07.058,Vis-B-Scan_AC,2022.2.5,None,
38,First_Order,7.0,viswhat,stimulus/viswhat_stim/blank_white.png,stimulus/viswhat_stim/blank_white.png,stimulus/viswhat_stim/land_vehicle-tank.png,stimulus/viswhat_stim/land_animal-elephant.png,stimulus/viswhat_stim/blank_white.png,stimulus/viswhat_stim/type_box.png,stimulus/viswhat_stim/type_yes.png,stimulus/viswhat_stim/type_no.png,None,Type,None,Location,2,0.0,0,5.125,0,5.125,0,5.125,0,0.0,0.625,0,0.0,0,0.0,1,0.5,1,2.125,0,0,0,0,0,0,0,0,0,,,,,0,50,50,50,,,,,,,,,451.96996687499995,451.96996687499995,451.96996687499995,451.96996687499995,451.96996687499995,451.96996687499995,451.96996687499995,451.96996687499995,451.86810216599986,451.96996687499995,451.96996687499995,451.96996687499995,451.86810216599986,451.96996687499995,451.96996687499995,451.96996687499995,454.0442122909999,,451.96996687499995,451.96996687499995,457.16325633299994,452.430128041,453.52642179099985,454.0442122909999,455.0884985829998,451.96996687499995,451.96996687499995,451.91810216599987,451.96996687499995,451.96996687499995,451.96996687499995,451.91810216599987,451.96996687499995,451.96996687499995,457.16325633299994,451.96996687499995,457.16325633299994,457.16325633299994,457.83949783299977,451.96996687499995,2,1,0.6198661250000441,reldom2_s013,001,2025-02-14_12h28.07.058,Vis-B-Scan_AC,2022.2.5,None,
39,First_Order,7.0,viswhat,stimulus/viswhat_stim/blank_white.png,stimulus/viswhat_stim/blank_white.png,stimulus/viswhat_stim/land_animal-ostrich.png,stimulus/viswhat_stim/water_animal-whale.png,stimulus/viswhat_stim/blank_white.png,stimulus/viswhat_stim/location_box.png,stimulus/viswhat_stim/location_yes.png,stimulus/viswhat_stim/location_no.png,None,Location,None,Type,2,0.0,0,5.125,0,5.125,0,5.125,0,0.0,0.625,0,0.0,0,0.0,1,0.5,1,2.125,0,0,0,0,0,0,0,0,0,,,,,0,51,51,51,,,,,,,,,458.0387707499999,458.0387707499999,458.0387707499999,458.0387707499999,458.0387707499999,458.0387707499999,458.0387707499999,458.0387707499999,458.0061644996664,458.0387707499999,458.0387707499999,458.0387707499999,458.0061644996664,458.0387707499999,458.0387707499999,458.0387707499999,460.131931291,464.11877241599996,458.0387707499999,458.0387707499999,463.18044604099987,458.50618529099984,459.5264077500001,460.131931291,461.1619019579998,458.0387707499999,458.0387707499999,458.0228311663331,458.0387707499999,458.0387707499999,458.0387707499999,458.0228311663331,458.0387707499999,458.0387707499999,463.18044604099987,458.0387707499999,463.18044604099987,463.24632670799974,463.8801188749999,458.0387707499999,2,1,0.6922317499997916,reldom2_s013,001,2025-02-14_12h28.07.058,Vis-B-Scan_AC,2022.2.5,None,
40,First_Order,7.0,viswhat,stimulus/viswhat_stim/blank_white.png,stimulus/viswhat_stim/blank_white.png,stimulus/viswhat_stim/land_vehicle-truck.png,stimulus/viswhat_stim/land_animal-fox.png,stimulus/viswhat_stim/blank_white.png,stimulus/viswhat_stim/location_box.png,stimulus/viswhat_stim/location_yes.png,stimulus/viswhat_stim/location_no.png,None,Location,None,Location,1,0.0,0,5.125,0,5.125,0,5.125,0,0.0,0.625,0,0.0,0,0.0,1,0.5,1,2.125,0,0,0,0,0,0,0,0,0,,,,,0,52,52,52,,,,,,,,,464.11877241599996,464.11877241599996,464.11877241599996,464.11877241599996,464.11877241599996,464.11877241599996,464.11877241599996,464.11877241599996,464.0880648329999,464.11877241599996,464.11877241599996,464.11877241599996,464.0880648329999,464.11877241599996,464.11877241599996,464.11877241599996,466.2226878329998,470.25654158299994,464.11877241599996,464.11877241599996,469.25046029099985,464.60770112499995,465.6158608329997,466.2226878329998,467.23650762499983,464.11877241599996,464.11877241599996,464.1047314996666,464.11877241599996,464.11877241599996,464.11877241599996,464.1047314996666,464.11877241599996,464.11877241599996,469.25046029099985,464.11877241599996,469.25046029099985,469.34075537499984,469.9801379579999,464.11877241599996,1,1,0.7701533750000635,reldom2_s013,001,2025-02-14_12h28.07.058,Vis-B-Scan_AC,2022.2.5,None,
0,0.0,None,fixation,stimulus/viswhere_stim/blank_white.png,stimulus/viswhere_stim/blank_white.png,stimulus/viswhat_stim/blank_white.png,stimulus/viswhat_stim/blank_white.png,stimulus/viswhere_stim/blank_white.png,stimulus/viswhere_stim/blank_white.png,stimulus/viswhere_stim/blank_white.png,stimulus/viswhere_stim/blank_white.png,0.0,0.0,0.0,0.0,0,0.0,0,0.0,0,0.0,0,0.0,0,0.0,0.0,0,0.0,0,0.0,0,0.0,0,0.0,0,0,0,0,0,0,0,0,8,,,,,0,53,53,53,,,,,,,,,470.25654158299994,470.25654158299994,470.25654158299994,470.25654158299994,470.25654158299994,470.25654158299994,470.25654158299994,470.25654158299994,470.151462124333,470.25654158299994,470.25654158299994,470.25654158299994,470.151462124333,470.25654158299994,470.25654158299994,470.25654158299994,470.25654158299994,470.25654158299994,470.25654158299994,470.25654158299994,470.25654158299994,470.25654158299994,470.25654158299994,470.25654158299994,470.25654158299994,470.25654158299994,470.25654158299994,470.2181287909997,470.25654158299994,470.25654158299994,470.25654158299994,470.2181287909997,470.25654158299994,470.25654158299994,470.25654158299994,470.25654158299994,470.25654158299994,475.4583159159997,475.4583159159997,478.37411129099974,None,0,,reldom2_s013,001,2025-02-14_12h28.07.058,Vis-B-Scan_AC,2022.2.5,None,
41,Second_Order,7.0,viswhat,stimulus/viswhat_stim/water_animal-whale (1).png,stimulus/viswhat_stim/water_vehicle-canoe(1).png,stimulus/viswhat_stim/land_animal-tiger.png,stimulus/viswhat_stim/land_vehicle-train.png,stimulus/viswhere_stim/match_blank.png,stimulus/viswhere_stim/match_box.png,stimulus/viswhere_stim/match_yes.png,stimulus/viswhere_stim/match_no.png,1.0,Match,Location,Location,1,5.125,0,5.125,0,5.125,0,5.125,0,0.75,0.75,1,0.5,1,2.125,1,0.5,1,2.125,0,0,0,0,0,0,0,0,0,,,,,0,54,54,54,,,,,,,,,478.37411129099974,483.4899922909999,478.84648479099997,479.8441469159998,480.46569574999967,481.45157362500004,478.37411129099974,478.37411129099974,478.3794223333331,478.37411129099974,478.37411129099974,478.37411129099974,478.3794223333331,478.37411129099974,483.4899922909999,484.31365479099986,486.3945719159997,,484.31365479099986,484.31365479099986,489.45230683299997,484.74953070799984,485.7907915410001,486.3945719159997,487.43977137499996,484.31365479099986,484.31365479099986,484.2905817496667,484.31365479099986,484.31365479099986,484.31365479099986,484.2905817496667,484.31365479099986,484.31365479099986,489.45230683299997,484.31365479099986,489.45230683299997,489.5082076660001,,484.31365479099986,1,1,0.8769666670000333,reldom2_s013,001,2025-02-14_12h28.07.058,Vis-B-Scan_AC,2022.2.5,None,
42,Second_Order,7.0,viswhat,stimulus/viswhat_stim/land_vehicle-buldozer.png,stimulus/viswhat_stim/water_vehicle-jetski.png,stimulus/viswhat_stim/water_animal-whale.png,stimulus/viswhat_stim/land_animal-fox.png,stimulus/viswhere_stim/match_blank.png,stimulus/viswhere_stim/match_box.png,stimulus/viswhere_stim/match_yes.png,stimulus/viswhere_stim/match_no.png,1.0,Match,Type,Type,1,5.125,0,5.125,0,5.125,0,5.125,0,0.625,0.625,1,0.5,1,2.125,1,0.5,1,2.125,0,0,0,0,0,0,0,0,0,,,,,0,55,55,55,,,,,,,,,490.28915795800003,495.41368520800006,490.75484337499984,491.74230766599976,492.3771903749998,493.37500545800003,490.28915795800003,490.28915795800003,490.2887243333333,490.28915795800003,490.28915795800003,490.28915795800003,490.2887243333333,490.28915795800003,495.41368520800006,496.10578183300004,498.1778721659998,502.21176316599986,496.10578183300004,496.10578183300004,501.2532972079998,496.55041941599984,497.5757229159999,498.1778721659998,499.2049703329999,496.10578183300004,496.10578183300004,496.0814656249998,496.10578183300004,496.10578183300004,496.10578183300004,496.0814656249998,496.10578183300004,496.10578183300004,501.2532972079998,496.10578183300004,501.2532972079998,501.29489920800006,501.9343140410001,496.10578183300004,1,1,0.46137579200012624,reldom2_s013,001,2025-02-14_12h28.07.058,Vis-B-Scan_AC,2022.2.5,None,
0,0.0,None,fixation,stimulus/viswhere_stim/blank_white.png,stimulus/viswhere_stim/blank_white.png,stimulus/viswhat_stim/blank_white.png,stimulus/viswhat_stim/blank_white.png,stimulus/viswhere_stim/blank_white.png,stimulus/viswhere_stim/blank_white.png,stimulus/viswhere_stim/blank_white.png,stimulus/viswhere_stim/blank_white.png,0.0,0.0,0.0,0.0,0,0.0,0,0.0,0,0.0,0,0.0,0,0.0,0.0,0,0.0,0,0.0,0,0.0,0,0.0,0,0,0,0,0,0,0,0,9,,,,,0,56,56,56,,,,,,,,,502.21176316599986,502.21176316599986,502.21176316599986,502.21176316599986,502.21176316599986,502.21176316599986,502.21176316599986,502.21176316599986,502.1157344159997,502.21176316599986,502.21176316599986,502.21176316599986,502.1157344159997,502.21176316599986,502.21176316599986,502.21176316599986,502.21176316599986,502.21176316599986,502.21176316599986,502.21176316599986,502.21176316599986,502.21176316599986,502.21176316599986,502.21176316599986,502.21176316599986,502.21176316599986,502.21176316599986,502.16573441599974,502.21176316599986,502.21176316599986,502.21176316599986,502.16573441599974,502.21176316599986,502.21176316599986,502.21176316599986,502.21176316599986,502.21176316599986,507.42905075,507.42905075,511.4260313330001,None,0,,reldom2_s013,001,2025-02-14_12h28.07.058,Vis-B-Scan_AC,2022.2.5,None,
43,First_Order,8.0,viswhat,stimulus/viswhat_stim/blank_white.png,stimulus/viswhat_stim/blank_white.png,stimulus/viswhat_stim/land_animal-fox.png,stimulus/viswhat_stim/land_vehicle-motorcycle.png,stimulus/viswhat_stim/blank_white.png,stimulus/viswhat_stim/type_box.png,stimulus/viswhat_stim/type_yes.png,stimulus/viswhat_stim/type_no.png,None,Type,None,Location,2,0.0,0,5.125,0,5.125,0,5.125,0,0.0,0.625,0,0.0,0,0.0,1,0.5,1,2.125,0,0,0,0,0,0,0,0,0,,,,,0,57,57,57,,,,,,,,,511.4260313330001,511.4260313330001,511.4260313330001,511.4260313330001,511.4260313330001,511.4260313330001,511.4260313330001,511.4260313330001,511.3833589996667,511.4260313330001,511.4260313330001,511.4260313330001,511.3833589996667,511.4260313330001,511.4260313330001,511.4260313330001,513.5179788749997,517.5068109159997,511.4260313330001,511.4260313330001,516.5788983749999,511.91037579099975,512.9404869159998,513.5179788749997,514.5504418329997,511.4260313330001,511.4260313330001,511.4000256663334,511.4260313330001,511.4260313330001,511.4260313330001,511.4000256663334,511.4260313330001,511.4260313330001,516.5788983749999,511.4260313330001,516.5788983749999,516.6284030829997,517.2724001249999,511.4260313330001,2,1,1.1747544579998248,reldom2_s013,001,2025-02-14_12h28.07.058,Vis-B-Scan_AC,2022.2.5,None,
44,First_Order,8.0,viswhat,stimulus/viswhat_stim/blank_white.png,stimulus/viswhat_stim/blank_white.png,stimulus/viswhat_stim/land_animal-pig.png,stimulus/viswhat_stim/land_vehicle-firetruck.png,stimulus/viswhat_stim/blank_white.png,stimulus/viswhat_stim/location_box.png,stimulus/viswhat_stim/location_yes.png,stimulus/viswhat_stim/location_no.png,None,Location,None,Location,1,0.0,0,5.125,0,5.125,0,5.125,0,0.0,0.625,0,0.0,0,0.0,1,0.5,1,2.125,0,0,0,0,0,0,0,0,0,,,,,0,58,58,58,,,,,,,,,517.5068109159997,517.5068109159997,517.5068109159997,517.5068109159997,517.5068109159997,517.5068109159997,517.5068109159997,517.5068109159997,517.4702704160001,517.5068109159997,517.5068109159997,517.5068109159997,517.4702704160001,517.5068109159997,517.5068109159997,517.5068109159997,519.6182899159999,523.6249590409998,517.5068109159997,517.5068109159997,522.649071583,517.9754924159997,518.985340916,519.6182899159999,520.634495583,517.5068109159997,517.5068109159997,517.4869370826667,517.5068109159997,517.5068109159997,517.5068109159997,517.4869370826667,517.5068109159997,517.5068109159997,522.649071583,517.5068109159997,522.649071583,522.720151125,523.363093333,517.5068109159997,1,1,0.7798319160001483,reldom2_s013,001,2025-02-14_12h28.07.058,Vis-B-Scan_AC,2022.2.5,None,
45,First_Order,8.0,viswhat,stimulus/viswhat_stim/blank_white.png,stimulus/viswhat_stim/blank_white.png,stimulus/viswhat_stim/land_vehicle-trolley.png,stimulus/viswhat_stim/water_vehicle-sailboat.png,stimulus/viswhat_stim/blank_white.png,stimulus/viswhat_stim/type_box.png,stimulus/viswhat_stim/type_yes.png,stimulus/viswhat_stim/type_no.png,None,Type,None,Type,1,0.0,0,5.125,0,5.125,0,5.125,0,0.0,0.625,0,0.0,0,0.0,1,0.5,1,2.125,0,0,0,0,0,0,0,0,0,,,,,0,59,59,59,,,,,,,,,523.6249590409998,523.6249590409998,523.6249590409998,523.6249590409998,523.6249590409998,523.6249590409998,523.6249590409998,523.6249590409998,523.5345399993333,523.6249590409998,523.6249590409998,523.6249590409998,523.5345399993333,523.6249590409998,523.6249590409998,523.6249590409998,525.7096132910001,,523.6249590409998,523.6249590409998,528.8192722079998,524.1097515409997,525.1761872909997,525.7096132910001,526.7849403329997,523.6249590409998,523.6249590409998,523.5845399993333,523.6249590409998,523.6249590409998,523.6249590409998,523.5845399993333,523.6249590409998,523.6249590409998,528.8192722079998,523.6249590409998,528.8192722079998,528.8192722079998,529.507723708,523.6249590409998,1,1,0.6956772079997791,reldom2_s013,001,2025-02-14_12h28.07.058,Vis-B-Scan_AC,2022.2.5,None,
46,First_Order,8.0,viswhat,stimulus/viswhat_stim/blank_white.png,stimulus/viswhat_stim/blank_white.png,stimulus/viswhat_stim/water_vehicle-canoe(1).png,stimulus/viswhat_stim/land_vehicle-truck.png,stimulus/viswhat_stim/blank_white.png,stimulus/viswhat_stim/type_box.png,stimulus/viswhat_stim/type_yes.png,stimulus/viswhat_stim/type_no.png,None,Type,None,Type,1,0.0,0,5.125,0,5.125,0,5.125,0,0.0,0.625,0,0.0,0,0.0,1,0.5,1,2.125,0,0,0,0,0,0,0,0,0,,,,,0,60,60,60,,,,,,,,,529.6767194579998,529.6767194579998,529.6767194579998,529.6767194579998,529.6767194579998,529.6767194579998,529.6767194579998,529.6767194579998,529.6410570413333,529.6767194579998,529.6767194579998,529.6767194579998,529.6410570413333,529.6767194579998,529.6767194579998,529.6767194579998,531.7749336249999,535.8106952499998,529.6767194579998,529.6767194579998,534.8225785,530.1572269579997,531.1624177499998,531.7749336249999,532.7843035830001,529.6767194579998,529.6767194579998,529.6577237079999,529.6767194579998,529.6767194579998,529.6767194579998,529.6577237079999,529.6767194579998,529.6767194579998,534.8225785,529.6767194579998,534.8225785,534.9061239580001,535.5409259579997,529.6767194579998,1,1,1.329831333999664,reldom2_s013,001,2025-02-14_12h28.07.058,Vis-B-Scan_AC,2022.2.5,None,
0,0.0,None,fixation,stimulus/viswhere_stim/blank_white.png,stimulus/viswhere_stim/blank_white.png,stimulus/viswhat_stim/blank_white.png,stimulus/viswhat_stim/blank_white.png,stimulus/viswhere_stim/blank_white.png,stimulus/viswhere_stim/blank_white.png,stimulus/viswhere_stim/blank_white.png,stimulus/viswhere_stim/blank_white.png,0.0,0.0,0.0,0.0,0,0.0,0,0.0,0,0.0,0,0.0,0,0.0,0.0,0,0.0,0,0.0,0,0.0,0,0.0,0,0,0,0,0,0,0,0,9,,,,,0,61,61,61,,,,,,,,,535.8106952499998,535.8106952499998,535.8106952499998,535.8106952499998,535.8106952499998,535.8106952499998,535.8106952499998,535.8106952499998,535.7075589163331,535.8106952499998,535.8106952499998,535.8106952499998,535.7075589163331,535.8106952499998,535.8106952499998,535.8106952499998,535.8106952499998,535.8106952499998,535.8106952499998,535.8106952499998,535.8106952499998,535.8106952499998,535.8106952499998,535.8106952499998,535.8106952499998,535.8106952499998,535.8106952499998,535.7575589163331,535.8106952499998,535.8106952499998,535.8106952499998,535.7575589163331,535.8106952499998,535.8106952499998,535.8106952499998,535.8106952499998,535.8106952499998,541.0042804159998,541.0042804159998,544.936822916,None,0,,reldom2_s013,001,2025-02-14_12h28.07.058,Vis-B-Scan_AC,2022.2.5,None,
47,Second_Order,8.0,viswhat,stimulus/viswhat_stim/water_animal-seaturtle.png,stimulus/viswhat_stim/water_vehicle-kayak.png,stimulus/viswhat_stim/water_vehicle-motorboatraft.png,stimulus/viswhat_stim/land_vehicle-tank.png,stimulus/viswhere_stim/match_blank.png,stimulus/viswhere_stim/match_box.png,stimulus/viswhere_stim/match_yes.png,stimulus/viswhere_stim/match_no.png,2.0,Match,Location,Type,2,5.125,0,5.125,0,5.125,0,5.125,0,0.75,0.75,1,0.5,1,2.125,1,0.5,1,2.125,0,0,0,0,0,0,0,0,0,,,,,0,62,62,62,,,,,,,,,544.936822916,550.0607514579997,545.3987460409999,546.3846451249997,547.0322260829998,548.021820291,544.936822916,544.936822916,544.9392587083331,544.936822916,544.936822916,544.936822916,544.9392587083331,544.936822916,550.0607514579997,550.859993,552.938699583,556.832283916,550.859993,550.859993,555.9889216249999,551.3155150409998,552.322134,552.938699583,553.9516294999999,550.859993,550.859993,550.8447059999996,550.859993,550.859993,550.859993,550.8447059999996,550.859993,550.859993,555.9889216249999,550.859993,555.9889216249999,556.0549595409998,556.832283916,550.859993,2,1,1.5294114579996858,reldom2_s013,001,2025-02-14_12h28.07.058,Vis-B-Scan_AC,2022.2.5,None,
48,Second_Order,8.0,viswhat,stimulus/viswhat_stim/land_vehicle-rv.png,stimulus/viswhat_stim/water_vehicle-cargoboat.png,stimulus/viswhat_stim/water_animal-squid.png,stimulus/viswhat_stim/land_animal-dog.png,stimulus/viswhere_stim/match_blank.png,stimulus/viswhere_stim/match_box.png,stimulus/viswhere_stim/match_yes.png,stimulus/viswhere_stim/match_no.png,1.0,Match,Type,Type,1,5.125,0,5.125,0,5.125,0,5.125,0,0.625,0.625,1,0.5,1,2.125,1,0.5,1,2.125,0,0,0,0,0,0,0,0,0,,,,,0,63,63,63,,,,,,,,,556.832283916,561.954642916,557.3083778329997,558.29489375,558.9309645829999,559.929089583,556.832283916,556.832283916,556.8376376659996,556.832283916,556.832283916,556.832283916,556.8376376659996,556.832283916,561.954642916,562.651983791,564.7351065409998,568.7593502499999,562.651983791,562.651983791,567.7912912080001,563.0897477079998,564.1142844999999,564.7351065409998,565.768261958,562.651983791,562.651983791,562.6184713329997,562.651983791,562.651983791,562.651983791,562.6184713329997,562.651983791,562.651983791,567.7912912080001,562.651983791,567.7912912080001,567.8423546659997,568.476599958,562.651983791,1,1,0.5504733749999104,reldom2_s013,001,2025-02-14_12h28.07.058,Vis-B-Scan_AC,2022.2.5,None,
0,0.0,None,fixation,stimulus/viswhere_stim/blank_white.png,stimulus/viswhere_stim/blank_white.png,stimulus/viswhat_stim/blank_white.png,stimulus/viswhat_stim/blank_white.png,stimulus/viswhere_stim/blank_white.png,stimulus/viswhere_stim/blank_white.png,stimulus/viswhere_stim/blank_white.png,stimulus/viswhere_stim/blank_white.png,0.0,0.0,0.0,0.0,0,0.0,0,0.0,0,0.0,0,0.0,0,0.0,0.0,0,0.0,0,0.0,0,0.0,0,0.0,0,0,0,0,0,0,0,0,16,,,,,0,64,64,64,,,,,,,,,568.7593502499999,568.7593502499999,568.7593502499999,568.7593502499999,568.7593502499999,568.7593502499999,568.7593502499999,568.7593502499999,568.6688896246663,568.7593502499999,568.7593502499999,568.7593502499999,568.6688896246663,568.7593502499999,568.7593502499999,568.7593502499999,568.7593502499999,568.7593502499999,568.7593502499999,568.7593502499999,568.7593502499999,568.7593502499999,568.7593502499999,568.7593502499999,568.7593502499999,568.7593502499999,568.7593502499999,568.7188896246663,568.7593502499999,568.7593502499999,568.7593502499999,568.7188896246663,568.7593502499999,568.7593502499999,568.7593502499999,568.7593502499999,568.7593502499999,573.9815425829997,573.9815425829997,584.9043617079997,None,0,,reldom2_s013,001,2025-02-14_12h28.07.058,Vis-B-Scan_AC,2022.2.5,None,
