Trial,Order,Block,Type,Stimuli_File1,Stimuli_File2,Stimuli_File3,Stimuli_File4,Cue_File1,Cue_File2,Response_File_Yes,Response_File_No,Match,Cue_Dimension,Pair1_Dimension,Pair2_Dimension,Key,Cue1_Duration,Cue1_Onset,Cue2_Duration,Cue2_Onset,ResponseYes_Duration,ResponseYes_Onset,ResponseNo_Duration,ResponseNo_Onset,ITI_Within,ITI_Between,Image1_Duration,Image1_Onset,Image2_Duration,Image2_Onset,Image3_Duration,Image3_Onset,Image4_Duration,Image4_Onset,Sound1_Duration,Sound1_Onset,Sound2_Duration,Sound2_Onset,Sound3_Duration,Sound3_Onset,Sound4_Duration,Sound4_Onset,Fixation_Duration,trials_2.thisRepN,trials_2.thisTrialN,trials_2.thisN,trials_2.thisIndex,trials.thisRepN,trials.thisTrialN,trials.thisN,trials.thisIndex,text_start.started,key_resp_start.started,key_resp_start.keys,key_resp_start.rt,text2.started,key_resp_2.started,key_resp_2.keys,key_resp_2.rt,cue_file1.started,cue_file1.stopped,image_1.started,image_1.stopped,image_2.started,image_2.stopped,sound_icon1.started,sound_icon1.stopped,sound_1.started,sound_1.stopped,sound_icon2.started,sound_icon2.stopped,sound_2.started,sound_2.stopped,image_blank_1.started,image_blank_1.stopped,key_press.started,key_press.stopped,fixation_text.started,cue_file2.started,cue_file2.stopped,image_3.started,image_3.stopped,image_4.started,image_4.stopped,sound_icon3.started,sound_icon3.stopped,sound_3.started,sound_3.stopped,sound_icon4.started,sound_icon4.stopped,sound_4.started,sound_4.stopped,response_yes.started,response_yes.stopped,response_no.started,response_no.stopped,iti_blank.started,iti_blank.stopped,fixation_text.stopped,key_press.keys,key_press.corr,key_press.rt,participant,session,date,expName,psychopyVersion,frameRate,
,,,,,,,,,,,,,,,,,,,,,,,,,,,,,,,,,,,,,,,,,,,,,,,,,,,,7.305370875000335,7.305370875000335,2,3.9400075830008063,,,,,,,,,,,,,,,,,,,,,,,,,,,,,,,,,,,,,,,,,,,,,,,,reldom2_s013,001,2025-02-14_12h39.46.271,What-B-Scan_AC,2022.2.5,None,
,,,,,,,,,,,,,,,,,,,,,,,,,,,,,,,,,,,,,,,,,,,,0,0,0,0,,,,,,,,,11.279563582999799,11.279563582999799,5,15.03724500000044,,,,,,,,,,,,,,,,,,,,,,,,,,,,,,,,,,,,,,,,,,,,reldom2_s013,001,2025-02-14_12h39.46.271,What-B-Scan_AC,2022.2.5,None,
,,,,,,,,,,,,,,,,,,,,,,,,,,,,,,,,,,,,,,,,,,,,1,0,1,0,,,,,,,,,26.335715000000164,26.335715000000164,5,1.9815795829999843,,,,,,,,,,,,,,,,,,,,,,,,,,,,,,,,,,,,,,,,,,,,reldom2_s013,001,2025-02-14_12h39.46.271,What-B-Scan_AC,2022.2.5,None,
,,,,,,,,,,,,,,,,,,,,,,,,,,,,,,,,,,,,,,,,,,,,2,0,2,0,,,,,,,,,28.333011916000032,28.333011916000032,5,1.983699166000406,,,,,,,,,,,,,,,,,,,,,,,,,,,,,,,,,,,,,,,,,,,,reldom2_s013,001,2025-02-14_12h39.46.271,What-B-Scan_AC,2022.2.5,None,
,,,,,,,,,,,,,,,,,,,,,,,,,,,,,,,,,,,,,,,,,,,,3,0,3,0,,,,,,,,,30.32832608300032,30.32832608300032,5,1.9890427079999426,,,,,,,,,,,,,,,,,,,,,,,,,,,,,,,,,,,,,,,,,,,,reldom2_s013,001,2025-02-14_12h39.46.271,What-B-Scan_AC,2022.2.5,None,
0,0.0,None,fixation,stimulus/viswhat_stim/blank_white.png,stimulus/viswhat_stim/blank_white.png,stimulus/audwhat_stim/blank_white.png,stimulus/audwhat_stim/blank_white.png,stimulus/viswhat_stim/blank_white.png,stimulus/viswhat_stim/blank_white.png,stimulus/viswhat_stim/blank_white.png,stimulus/viswhat_stim/blank_white.png,0.0,0.0,0.0,0.0,0,0.0,0,0.0,0,0.0,0,0.0,0,0.0,0.0,0,0.0,0,0.0,0,0.0,0,0.0,0,0.0,0,0.0,0,0.0,0,0.0,16,,,,,0,0,0,0,,,,,,,,,32.53729708300034,32.53729708300034,32.53729708300034,32.53729708300034,32.53729708300034,32.53729708300034,32.53729708300034,32.53729708300034,32.43981191666705,32.53729708300034,32.53729708300034,32.53729708300034,32.43981191666705,32.53729708300034,32.53729708300034,32.53729708300034,32.53729708300034,32.53729708300034,32.53729708300034,32.53729708300034,32.53729708300034,32.53729708300034,32.53729708300034,32.53729708300034,32.53729708300034,32.53729708300034,32.53729708300034,32.489811916667044,32.53729708300034,32.53729708300034,32.53729708300034,32.489811916667044,32.53729708300034,32.53729708300034,32.53729708300034,32.53729708300034,32.53729708300034,37.72054349999962,37.72054349999962,48.99054474999957,None,0,,reldom2_s013,001,2025-02-14_12h39.46.271,What-B-Scan_AC,2022.2.5,None,
1,First_Order,1.0,viswhat,stimulus/viswhat_stim/blank_white.png,stimulus/viswhat_stim/blank_white.png,stimulus/viswhat_stim/water_vehicle-pirateship.png,stimulus/viswhat_stim/water_animal-lobster.png,stimulus/viswhat_stim/blank_white.png,stimulus/viswhat_stim/location_box.png,stimulus/viswhat_stim/location_yes.png,stimulus/viswhat_stim/location_no.png,None,Location,None,Location,1,0.0,0,5.125,0,5.125,0,5.125,0,0.0,0.625,0,0.0,0,0.0,1,0.5,1,2.125,0,0.0,0,0.0,0,0.0,0,0.0,0,,,,,0,1,1,1,,,,,,,,,48.99054474999957,48.99054474999957,48.99054474999957,48.99054474999957,48.99054474999957,48.99054474999957,48.99054474999957,48.99054474999957,48.70674650000037,48.99054474999957,48.99054474999957,48.99054474999957,48.70674650000037,48.99054474999957,48.99054474999957,48.99054474999957,51.01413450000018,,48.99054474999957,48.99054474999957,54.34435058300005,49.423514291000174,50.580078082999535,51.01413450000018,52.17050683300022,48.99054474999957,48.99054474999957,48.85674650000037,48.99054474999957,48.99054474999957,48.99054474999957,48.85674650000037,48.99054474999957,48.99054474999957,54.34435058300005,48.99054474999957,54.34435058300005,54.20371254099973,,48.99054474999957,1,1,1.214608333999422,reldom2_s013,001,2025-02-14_12h39.46.271,What-B-Scan_AC,2022.2.5,None,
2,First_Order,1.0,viswhat,stimulus/viswhat_stim/blank_white.png,stimulus/viswhat_stim/blank_white.png,stimulus/viswhat_stim/land_vehicle-firetruck.png,stimulus/viswhat_stim/water_vehicle-jetski.png,stimulus/viswhat_stim/blank_white.png,stimulus/viswhat_stim/location_box.png,stimulus/viswhat_stim/location_yes.png,stimulus/viswhat_stim/location_no.png,None,Location,None,Type,2,0.0,0,5.125,0,5.125,0,5.125,0,0.0,0.625,0,0.0,0,0.0,1,0.5,1,2.125,0,0.0,0,0.0,0,0.0,0,0.0,0,,,,,0,2,2,2,,,,,,,,,54.99026670799958,54.99026670799958,54.99026670799958,54.99026670799958,54.99026670799958,54.99026670799958,54.99026670799958,54.99026670799958,54.95686199933365,54.99026670799958,54.99026670799958,54.99026670799958,54.95686199933365,54.99026670799958,54.99026670799958,54.99026670799958,57.08828733300015,61.13012604100004,54.99026670799958,54.99026670799958,60.139178374999574,55.455869874999735,56.47528662500008,57.08828733300015,58.0995384580001,54.99026670799958,54.99026670799958,54.97352866600031,54.99026670799958,54.99026670799958,54.99026670799958,54.97352866600031,54.99026670799958,54.99026670799958,60.139178374999574,54.99026670799958,60.139178374999574,60.214377250000325,60.85807683300027,54.99026670799958,2,1,0.8416865409999446,reldom2_s013,001,2025-02-14_12h39.46.271,What-B-Scan_AC,2022.2.5,None,
3,First_Order,1.0,viswhat,stimulus/viswhat_stim/blank_white.png,stimulus/viswhat_stim/blank_white.png,stimulus/viswhat_stim/land_animal-moose.png,stimulus/viswhat_stim/water_animal-jellyfish.png,stimulus/viswhat_stim/blank_white.png,stimulus/viswhat_stim/type_box.png,stimulus/viswhat_stim/type_yes.png,stimulus/viswhat_stim/type_no.png,None,Type,None,Type,1,0.0,0,5.125,0,5.125,0,5.125,0,0.0,0.625,0,0.0,0,0.0,1,0.5,1,2.125,0,0.0,0,0.0,0,0.0,0,0.0,0,,,,,0,3,3,3,,,,,,,,,61.13012604100004,61.13012604100004,61.13012604100004,61.13012604100004,61.13012604100004,61.13012604100004,61.13012604100004,61.13012604100004,61.03338945799951,61.13012604100004,61.13012604100004,61.13012604100004,61.03338945799951,61.13012604100004,61.13012604100004,61.13012604100004,63.21977620799953,,61.13012604100004,61.13012604100004,66.32607479099988,61.60734829099965,62.68366049999986,63.21977620799953,64.29703566599983,61.13012604100004,61.13012604100004,61.08338945799951,61.13012604100004,61.13012604100004,61.13012604100004,61.08338945799951,61.13012604100004,61.13012604100004,66.32607479099988,61.13012604100004,66.32607479099988,66.32607479099988,67.19114675000037,61.13012604100004,1,1,0.699112750000495,reldom2_s013,001,2025-02-14_12h39.46.271,What-B-Scan_AC,2022.2.5,None,
4,First_Order,1.0,viswhat,stimulus/viswhat_stim/blank_white.png,stimulus/viswhat_stim/blank_white.png,stimulus/viswhat_stim/land_animal-tiger.png,stimulus/viswhat_stim/land_vehicle-rv.png,stimulus/viswhat_stim/blank_white.png,stimulus/viswhat_stim/type_box.png,stimulus/viswhat_stim/type_yes.png,stimulus/viswhat_stim/type_no.png,None,Type,None,Location,2,0.0,0,5.125,0,5.125,0,5.125,0,0.0,0.625,0,0.0,0,0.0,1,0.5,1,2.125,0,0.0,0,0.0,0,0.0,0,0.0,0,,,,,0,4,4,4,,,,,,,,,67.19114675000037,67.19114675000037,67.19114675000037,67.19114675000037,67.19114675000037,67.19114675000037,67.19114675000037,67.19114675000037,67.14219287466646,67.19114675000037,67.19114675000037,67.19114675000037,67.14219287466646,67.19114675000037,67.19114675000037,67.19114675000037,69.30257779099975,,67.19114675000037,67.19114675000037,72.35043374999987,67.67455416600023,68.71499024999957,69.30257779099975,70.34080554100001,67.19114675000037,67.19114675000037,67.15885954133313,67.19114675000037,67.19114675000037,67.19114675000037,67.15885954133313,67.19114675000037,67.19114675000037,72.35043374999987,67.19114675000037,72.35043374999987,72.40892583299956,73.04543341600038,67.19114675000037,2,1,1.1836723749993325,reldom2_s013,001,2025-02-14_12h39.46.271,What-B-Scan_AC,2022.2.5,None,
0,0.0,None,fixation,stimulus/viswhat_stim/blank_white.png,stimulus/viswhat_stim/blank_white.png,stimulus/audwhat_stim/blank_white.png,stimulus/audwhat_stim/blank_white.png,stimulus/viswhat_stim/blank_white.png,stimulus/viswhat_stim/blank_white.png,stimulus/viswhat_stim/blank_white.png,stimulus/viswhat_stim/blank_white.png,0.0,0.0,0.0,0.0,0,0.0,0,0.0,0,0.0,0,0.0,0,0.0,0.0,0,0.0,0,0.0,0,0.0,0,0.0,0,0.0,0,0.0,0,0.0,0,0.0,9,,,,,0,5,5,5,,,,,,,,,73.31347937499959,73.31347937499959,73.31347937499959,73.31347937499959,73.31347937499959,73.31347937499959,73.31347937499959,73.31347937499959,73.21987129166688,73.31347937499959,73.31347937499959,73.31347937499959,73.21987129166688,73.31347937499959,73.31347937499959,73.31347937499959,73.31347937499959,73.31347937499959,73.31347937499959,73.31347937499959,73.31347937499959,73.31347937499959,73.31347937499959,73.31347937499959,73.31347937499959,73.31347937499959,73.31347937499959,73.26987129166689,73.31347937499959,73.31347937499959,73.31347937499959,73.26987129166689,73.31347937499959,73.31347937499959,73.31347937499959,73.31347937499959,73.31347937499959,78.53230012499989,78.53230012499989,82.49339595800029,None,0,,reldom2_s013,001,2025-02-14_12h39.46.271,What-B-Scan_AC,2022.2.5,None,
5,Second_Order,1.0,viswhat,stimulus/viswhat_stim/land_animal-bunny.png,stimulus/viswhat_stim/land_vehicle-motorcycle.png,stimulus/viswhat_stim/water_animal-octopus.png,stimulus/viswhat_stim/land_animal-fox.png,stimulus/viswhat_stim/match_blank.png,stimulus/viswhat_stim/match_box.png,stimulus/viswhat_stim/match_yes.png,stimulus/viswhat_stim/match_no.png,2.0,Match,Location,Type,2,5.125,0,5.125,0,5.125,0,5.125,0,0.75,0.75,1,0.5,1,2.125,1,0.5,1,2.125,0,0.0,0,0.0,0,0.0,0,0.0,0,,,,,0,6,6,6,,,,,,,,,82.49339595800029,87.6174146659996,82.9274770410002,83.92580462499973,84.56456766599968,85.56295349999982,82.49339595800029,82.49339595800029,82.50335295766642,82.49339595800029,82.49339595800029,82.49339595800029,82.50335295766642,82.49339595800029,87.6174146659996,88.43832412499978,90.52034783300041,94.40933416600001,88.43832412499978,88.43832412499978,93.5761444159998,88.87208250000003,89.89783208300014,90.52034783300041,91.55254158299977,88.43832412499978,88.43832412499978,88.40287879099996,88.43832412499978,88.43832412499978,88.43832412499978,88.40287879099996,88.43832412499978,88.43832412499978,93.5761444159998,88.43832412499978,93.5761444159998,93.6273405410002,,88.43832412499978,2,1,0.6970426249999946,reldom2_s013,001,2025-02-14_12h39.46.271,What-B-Scan_AC,2022.2.5,None,
6,Second_Order,1.0,viswhat,stimulus/viswhat_stim/land_vehicle-tank.png,stimulus/viswhat_stim/land_animal-wolf.png,stimulus/viswhat_stim/water_vehicle-motorboatraft.png,stimulus/viswhat_stim/water_animal-squid.png,stimulus/viswhat_stim/match_blank.png,stimulus/viswhat_stim/match_box.png,stimulus/viswhat_stim/match_yes.png,stimulus/viswhat_stim/match_no.png,1.0,Match,Location,Location,1,5.125,0,5.125,0,5.125,0,5.125,0,0.625,0.625,1,0.5,1,2.125,1,0.5,1,2.125,0,0.0,0,0.0,0,0.0,0,0.0,0,,,,,0,7,7,7,,,,,,,,,94.40933416600001,99.53291162499954,94.8881093330001,95.8867592079996,96.51002058300037,97.50722104099987,94.40933416600001,94.40933416600001,94.4114982916663,94.40933416600001,94.40933416600001,94.40933416600001,94.4114982916663,94.40933416600001,99.53291162499954,100.22930979099965,102.31382679099988,106.34940845799974,100.22930979099965,100.22930979099965,105.38650437500019,100.66907195800013,101.69584504100021,102.31382679099988,103.35435349999989,100.22930979099965,100.22930979099965,100.19646512499985,100.22930979099965,100.22930979099965,100.22930979099965,100.19646512499985,100.22930979099965,100.22930979099965,105.38650437500019,100.22930979099965,105.38650437500019,105.41036529099983,106.05281066600037,100.22930979099965,1,1,0.5674516660001245,reldom2_s013,001,2025-02-14_12h39.46.271,What-B-Scan_AC,2022.2.5,None,
0,0.0,None,fixation,stimulus/viswhat_stim/blank_white.png,stimulus/viswhat_stim/blank_white.png,stimulus/audwhat_stim/blank_white.png,stimulus/audwhat_stim/blank_white.png,stimulus/viswhat_stim/blank_white.png,stimulus/viswhat_stim/blank_white.png,stimulus/viswhat_stim/blank_white.png,stimulus/viswhat_stim/blank_white.png,0.0,0.0,0.0,0.0,0,0.0,0,0.0,0,0.0,0,0.0,0,0.0,0.0,0,0.0,0,0.0,0,0.0,0,0.0,0,0.0,0,0.0,0,0.0,0,0.0,9,,,,,0,8,8,8,,,,,,,,,106.34940845799974,106.34940845799974,106.34940845799974,106.34940845799974,106.34940845799974,106.34940845799974,106.34940845799974,106.34940845799974,106.24813579099973,106.34940845799974,106.34940845799974,106.34940845799974,106.24813579099973,106.34940845799974,106.34940845799974,106.34940845799974,106.34940845799974,106.34940845799974,106.34940845799974,106.34940845799974,106.34940845799974,106.34940845799974,106.34940845799974,106.34940845799974,106.34940845799974,106.34940845799974,106.34940845799974,106.29813579099974,106.34940845799974,106.34940845799974,106.34940845799974,106.29813579099974,106.34940845799974,106.34940845799974,106.34940845799974,106.34940845799974,106.34940845799974,111.55363666599987,111.55363666599987,115.79654079099964,None,0,,reldom2_s013,001,2025-02-14_12h39.46.271,What-B-Scan_AC,2022.2.5,None,
7,First_Order,2.0,viswhat,stimulus/viswhat_stim/blank_white.png,stimulus/viswhat_stim/blank_white.png,stimulus/viswhat_stim/water_animal-lobster.png,stimulus/viswhat_stim/water_vehicle-canoe.png,stimulus/viswhat_stim/blank_white.png,stimulus/viswhat_stim/location_box.png,stimulus/viswhat_stim/location_yes.png,stimulus/viswhat_stim/location_no.png,None,Location,None,Location,1,0.0,0,5.125,0,5.125,0,5.125,0,0.0,0.625,0,0.0,0,0.0,1,0.5,1,2.125,0,0.0,0,0.0,0,0.0,0,0.0,0,,,,,0,9,9,9,,,,,,,,,115.79654079099964,115.79654079099964,115.79654079099964,115.79654079099964,115.79654079099964,115.79654079099964,115.79654079099964,115.79654079099964,115.51566904166673,115.79654079099964,115.79654079099964,115.79654079099964,115.51566904166673,115.79654079099964,115.79654079099964,115.79654079099964,117.89266983299967,,115.79654079099964,115.79654079099964,121.18169241600026,116.2458068750002,117.44391254099992,117.89266983299967,119.08985379099977,115.79654079099964,115.79654079099964,115.64900237500005,115.79654079099964,115.79654079099964,115.79654079099964,115.64900237500005,115.79654079099964,115.79654079099964,121.18169241600026,115.79654079099964,121.18169241600026,120.88818012499996,,115.79654079099964,1,1,0.9865107920004448,reldom2_s013,001,2025-02-14_12h39.46.271,What-B-Scan_AC,2022.2.5,None,
8,First_Order,2.0,viswhat,stimulus/viswhat_stim/blank_white.png,stimulus/viswhat_stim/blank_white.png,stimulus/viswhat_stim/water_animal-jellyfish.png,stimulus/viswhat_stim/land_animal-bunny.png,stimulus/viswhat_stim/blank_white.png,stimulus/viswhat_stim/type_box.png,stimulus/viswhat_stim/type_yes.png,stimulus/viswhat_stim/type_no.png,None,Type,None,Type,1,0.0,0,5.125,0,5.125,0,5.125,0,0.0,0.625,0,0.0,0,0.0,1,0.5,1,2.125,0,0.0,0,0.0,0,0.0,0,0.0,0,,,,,0,10,10,10,,,,,,,,,121.90225333299986,121.90225333299986,121.90225333299986,121.90225333299986,121.90225333299986,121.90225333299986,121.90225333299986,121.90225333299986,121.81962320799957,121.90225333299986,121.90225333299986,121.90225333299986,121.81962320799957,121.90225333299986,121.90225333299986,121.90225333299986,123.9902089999996,,121.90225333299986,121.90225333299986,127.07245074999992,122.3721174579996,123.41761225000027,123.9902089999996,125.04065295799955,121.90225333299986,121.90225333299986,121.8529565413329,121.90225333299986,121.90225333299986,121.90225333299986,121.8529565413329,121.90225333299986,121.90225333299986,127.07245074999992,121.90225333299986,127.07245074999992,127.11899479099975,127.96945554099966,121.90225333299986,1,1,0.5668205829997532,reldom2_s013,001,2025-02-14_12h39.46.271,What-B-Scan_AC,2022.2.5,None,
9,First_Order,2.0,viswhat,stimulus/viswhat_stim/blank_white.png,stimulus/viswhat_stim/blank_white.png,stimulus/viswhat_stim/land_animal-cat.png,stimulus/viswhat_stim/water_animal-whale (1).png,stimulus/viswhat_stim/blank_white.png,stimulus/viswhat_stim/location_box.png,stimulus/viswhat_stim/location_yes.png,stimulus/viswhat_stim/location_no.png,None,Location,None,Type,2,0.0,0,5.125,0,5.125,0,5.125,0,0.0,0.625,0,0.0,0,0.0,1,0.5,1,2.125,0,0.0,0,0.0,0,0.0,0,0.0,0,,,,,0,11,11,11,,,,,,,,,127.96945554099966,127.96945554099966,127.96945554099966,127.96945554099966,127.96945554099966,127.96945554099966,127.96945554099966,127.96945554099966,127.92165029099979,127.96945554099966,127.96945554099966,127.96945554099966,127.92165029099979,127.96945554099966,127.96945554099966,127.96945554099966,130.05736595799954,134.09244287500042,127.96945554099966,127.96945554099966,133.11841187499977,128.45204416599972,129.4801685829998,130.05736595799954,131.09115962499982,127.96945554099966,127.96945554099966,127.93831695766646,127.96945554099966,127.96945554099966,127.96945554099966,127.93831695766646,127.96945554099966,127.96945554099966,133.11841187499977,127.96945554099966,133.11841187499977,133.19778504100032,133.83209808300035,127.96945554099966,2,1,1.1003510419996019,reldom2_s013,001,2025-02-14_12h39.46.271,What-B-Scan_AC,2022.2.5,None,
10,First_Order,2.0,viswhat,stimulus/viswhat_stim/blank_white.png,stimulus/viswhat_stim/blank_white.png,stimulus/viswhat_stim/water_animal-shark.png,stimulus/viswhat_stim/water_vehicle-yacht.png,stimulus/viswhat_stim/blank_white.png,stimulus/viswhat_stim/type_box.png,stimulus/viswhat_stim/type_yes.png,stimulus/viswhat_stim/type_no.png,None,Type,None,Location,2,0.0,0,5.125,0,5.125,0,5.125,0,0.0,0.625,0,0.0,0,0.0,1,0.5,1,2.125,0,0.0,0,0.0,0,0.0,0,0.0,0,,,,,0,12,12,12,,,,,,,,,134.09244287500042,134.09244287500042,134.09244287500042,134.09244287500042,134.09244287500042,134.09244287500042,134.09244287500042,134.09244287500042,134.01123020800026,134.09244287500042,134.09244287500042,134.09244287500042,134.01123020800026,134.09244287500042,134.09244287500042,134.09244287500042,136.1926139999996,,134.09244287500042,134.09244287500042,139.24488025000028,134.565834,135.59486025000024,136.1926139999996,137.23287274999984,134.09244287500042,134.09244287500042,134.06123020800024,134.09244287500042,134.09244287500042,134.09244287500042,134.06123020800024,134.09244287500042,134.09244287500042,139.24488025000028,134.09244287500042,139.24488025000028,139.282222541,139.9548085409997,134.09244287500042,2,1,0.7930038750000676,reldom2_s013,001,2025-02-14_12h39.46.271,What-B-Scan_AC,2022.2.5,None,
0,0.0,None,fixation,stimulus/viswhat_stim/blank_white.png,stimulus/viswhat_stim/blank_white.png,stimulus/audwhat_stim/blank_white.png,stimulus/audwhat_stim/blank_white.png,stimulus/viswhat_stim/blank_white.png,stimulus/viswhat_stim/blank_white.png,stimulus/viswhat_stim/blank_white.png,stimulus/viswhat_stim/blank_white.png,0.0,0.0,0.0,0.0,0,0.0,0,0.0,0,0.0,0,0.0,0,0.0,0.0,0,0.0,0,0.0,0,0.0,0,0.0,0,0.0,0,0.0,0,0.0,0,0.0,10,,,,,0,13,13,13,,,,,,,,,140.22108025000034,140.22108025000034,140.22108025000034,140.22108025000034,140.22108025000034,140.22108025000034,140.22108025000034,140.22108025000034,140.12526408333375,140.22108025000034,140.22108025000034,140.22108025000034,140.12526408333375,140.22108025000034,140.22108025000034,140.22108025000034,140.22108025000034,140.22108025000034,140.22108025000034,140.22108025000034,140.22108025000034,140.22108025000034,140.22108025000034,140.22108025000034,140.22108025000034,140.22108025000034,140.22108025000034,140.17526408333373,140.22108025000034,140.22108025000034,140.22108025000034,140.17526408333373,140.22108025000034,140.22108025000034,140.22108025000034,140.22108025000034,140.22108025000034,145.41147833299965,145.41147833299965,150.3361124160001,None,0,,reldom2_s013,001,2025-02-14_12h39.46.271,What-B-Scan_AC,2022.2.5,None,
11,Second_Order,2.0,viswhat,stimulus/viswhat_stim/land_animal-ostrich.png,stimulus/viswhat_stim/water_animal-stingray.png,stimulus/viswhat_stim/water_vehicle-cruiseship.png,stimulus/viswhat_stim/water_animal-seaturtle.png,stimulus/viswhat_stim/match_blank.png,stimulus/viswhat_stim/match_box.png,stimulus/viswhat_stim/match_yes.png,stimulus/viswhat_stim/match_no.png,2.0,Match,Type,Location,2,5.125,0,5.125,0,5.125,0,5.125,0,0.75,0.75,1,0.5,1,2.125,1,0.5,1,2.125,0,0.0,0,0.0,0,0.0,0,0.0,0,,,,,0,14,14,14,,,,,,,,,150.3361124160001,155.4577760000002,150.8172280409999,151.81621670799996,152.43770170799962,153.43648437499996,150.3361124160001,150.3361124160001,150.34649670833292,150.3361124160001,150.3361124160001,150.3361124160001,150.34649670833292,150.3361124160001,155.4577760000002,156.43212079099976,158.45192191600017,,156.43212079099976,156.43212079099976,161.6800135829999,156.83513158299957,157.9456682910004,158.45192191600017,159.56407483299972,156.43212079099976,156.43212079099976,156.34261895799992,156.43212079099976,156.43212079099976,156.43212079099976,156.34261895799992,156.43212079099976,156.43212079099976,161.6800135829999,156.43212079099976,161.6800135829999,161.58463762500014,,156.43212079099976,2,1,0.8066279159993428,reldom2_s013,001,2025-02-14_12h39.46.271,What-B-Scan_AC,2022.2.5,None,
12,Second_Order,2.0,viswhat,stimulus/viswhat_stim/land_animal-ostrich.png,stimulus/viswhat_stim/land_vehicle-oldcar.png,stimulus/viswhat_stim/water_vehicle-ship.png,stimulus/viswhat_stim/land_vehicle-vespa.png,stimulus/viswhat_stim/match_blank.png,stimulus/viswhat_stim/match_box.png,stimulus/viswhat_stim/match_yes.png,stimulus/viswhat_stim/match_no.png,2.0,Match,Location,Type,2,5.125,0,5.125,0,5.125,0,5.125,0,0.625,0.625,1,0.5,1,2.125,1,0.5,1,2.125,0,0.0,0,0.0,0,0.0,0,0.0,0,,,,,0,15,15,15,,,,,,,,,162.38074854099978,167.50231154100038,162.84559729099965,163.84394383299968,164.46634495800026,165.46377308299998,162.38074854099978,162.38074854099978,162.3895637493331,162.38074854099978,162.38074854099978,162.38074854099978,162.3895637493331,162.38074854099978,167.50231154100038,168.28143766599987,170.32862816600027,,168.28143766599987,168.28143766599987,173.47232379100024,168.6912417909998,169.78341795799952,170.32862816600027,171.42680941599974,168.28143766599987,168.28143766599987,168.2202159579998,168.28143766599987,168.28143766599987,168.28143766599987,168.2202159579998,168.28143766599987,168.28143766599987,173.47232379100024,168.28143766599987,173.47232379100024,173.47232379100024,174.38443220800036,168.28143766599987,2,1,0.810779958999774,reldom2_s013,001,2025-02-14_12h39.46.271,What-B-Scan_AC,2022.2.5,None,
0,0.0,None,fixation,stimulus/viswhat_stim/blank_white.png,stimulus/viswhat_stim/blank_white.png,stimulus/audwhat_stim/blank_white.png,stimulus/audwhat_stim/blank_white.png,stimulus/viswhat_stim/blank_white.png,stimulus/viswhat_stim/blank_white.png,stimulus/viswhat_stim/blank_white.png,stimulus/viswhat_stim/blank_white.png,0.0,0.0,0.0,0.0,0,0.0,0,0.0,0,0.0,0,0.0,0,0.0,0.0,0,0.0,0,0.0,0,0.0,0,0.0,0,0.0,0,0.0,0,0.0,0,0.0,9,,,,,0,16,16,16,,,,,,,,,174.38443220800036,174.38443220800036,174.38443220800036,174.38443220800036,174.38443220800036,174.38443220800036,174.38443220800036,174.38443220800036,174.28412420833314,174.38443220800036,174.38443220800036,174.38443220800036,174.28412420833314,174.38443220800036,174.38443220800036,174.38443220800036,174.38443220800036,174.38443220800036,174.38443220800036,174.38443220800036,174.38443220800036,174.38443220800036,174.38443220800036,174.38443220800036,174.38443220800036,174.38443220800036,174.38443220800036,174.33412420833315,174.38443220800036,174.38443220800036,174.38443220800036,174.33412420833315,174.38443220800036,174.38443220800036,174.38443220800036,174.38443220800036,174.38443220800036,179.57605958299973,179.57605958299973,183.642130833,None,0,,reldom2_s013,001,2025-02-14_12h39.46.271,What-B-Scan_AC,2022.2.5,None,
13,First_Order,3.0,audwhat,stimulus/audwhat_stim/dummy.wav,stimulus/audwhat_stim/dummy.wav,stimulus/audwhat_stim/percussion mallet_low-pitch_Ftri_loud.wav,stimulus/audwhat_stim/percussion xylophone_high-pitch_Dtri_loud.wav,stimulus/audwhat_stim/blank_white.png,stimulus/audwhat_stim/pitch_box.png,stimulus/audwhat_stim/pitch_yes.png,stimulus/audwhat_stim/pitch_no.png,None,Pitch,None,Category,2,0.0,0,5.125,0,5.125,0,5.125,0,0.0,0.625,0,0.0,0,0.0,0,0.0,0,0.0,0,0.0,0,0.0,1,0.5,1,2.125,0,,,,,0,17,17,17,,,,,,,,,183.642130833,183.642130833,183.642130833,183.642130833,183.642130833,183.642130833,183.642130833,183.642130833,183.5695504576667,183.642130833,183.642130833,183.642130833,183.5695504576667,183.642130833,183.642130833,183.642130833,185.7247829580001,,183.642130833,183.642130833,188.82993845799956,183.642130833,183.642130833,183.642130833,183.642130833,184.105830083,185.1708372080002,184.07576058266685,,185.7247829580001,186.79395908300012,185.6952407916663,186.7476537499997,183.642130833,188.82993845799956,183.642130833,188.82993845799956,188.87113775000034,189.52345279099973,183.642130833,2,1,1.4326045419993534,reldom2_s013,001,2025-02-14_12h39.46.271,What-B-Scan_AC,2022.2.5,None,
14,First_Order,3.0,audwhat,stimulus/audwhat_stim/dummy.wav,stimulus/audwhat_stim/dummy.wav,stimulus/audwhat_stim/string cello_low-pitch_D_loud.wav,stimulus/audwhat_stim/percussion mallet_low-pitch_D_loud.wav,stimulus/audwhat_stim/blank_white.png,stimulus/audwhat_stim/pitch_box.png,stimulus/audwhat_stim/pitch_yes.png,stimulus/audwhat_stim/pitch_no.png,None,Pitch,None,Pitch,1,0.0,0,5.125,0,5.125,0,5.125,0,0.0,0.625,0,0.0,0,0.0,0,0.0,0,0.0,0,0.0,0,0.0,1,0.5,1,2.125,0,,,,,0,18,18,18,,,,,,,,,189.73630491600034,189.73630491600034,189.73630491600034,189.73630491600034,189.73630491600034,189.73630491600034,189.73630491600034,189.73630491600034,189.65678612433308,189.73630491600034,189.73630491600034,189.73630491600034,189.65678612433308,189.73630491600034,189.73630491600034,189.73630491600034,191.822680708,,189.73630491600034,189.73630491600034,194.88780816599956,189.73630491600034,189.73630491600034,189.73630491600034,189.73630491600034,190.2000061660001,191.26606841600005,190.17004166666655,,191.822680708,192.89679462499953,191.7929207496666,,189.73630491600034,194.88780816599956,189.73630491600034,194.88780816599956,194.92849516600018,195.58302337500027,189.73630491600034,1,1,0.39129616700029146,reldom2_s013,001,2025-02-14_12h39.46.271,What-B-Scan_AC,2022.2.5,None,
15,First_Order,3.0,audwhat,stimulus/audwhat_stim/dummy.wav,stimulus/audwhat_stim/dummy.wav,stimulus/audwhat_stim/string cello_high-pitch_D_loud.wav,stimulus/audwhat_stim/string cello_low-pitch_Ftri_loud.wav,stimulus/audwhat_stim/blank_white.png,stimulus/audwhat_stim/category_box.png,stimulus/audwhat_stim/category_yes.png,stimulus/audwhat_stim/category_no.png,None,Category,None,Category,1,0.0,0,5.125,0,5.125,0,5.125,0,0.0,0.625,0,0.0,0,0.0,0,0.0,0,0.0,0,0.0,0,0.0,1,0.5,1,2.125,0,,,,,0,19,19,19,,,,,,,,,195.83782333300042,195.83782333300042,195.83782333300042,195.83782333300042,195.83782333300042,195.83782333300042,195.83782333300042,195.83782333300042,195.75646708333366,195.83782333300042,195.83782333300042,195.83782333300042,195.75646708333366,195.83782333300042,195.83782333300042,195.83782333300042,197.93464587499966,201.9650135410002,195.83782333300042,195.83782333300042,201.01673725,195.83782333300042,195.83782333300042,195.83782333300042,195.83782333300042,196.30417862499962,197.37685837499976,196.27434304166698,,197.93464587499966,198.96502004099966,197.90502220766692,,195.83782333300042,201.01673725,195.83782333300042,201.01673725,201.0579501660004,201.7112175000002,195.83782333300042,1,1,0.7912305420004486,reldom2_s013,001,2025-02-14_12h39.46.271,What-B-Scan_AC,2022.2.5,None,
16,First_Order,3.0,audwhat,stimulus/audwhat_stim/dummy.wav,stimulus/audwhat_stim/dummy.wav,stimulus/audwhat_stim/string viola_low-pitch_F_loud.wav,stimulus/audwhat_stim/percussion mallet_low-pitch_F_loud.wav,stimulus/audwhat_stim/blank_white.png,stimulus/audwhat_stim/category_box.png,stimulus/audwhat_stim/category_yes.png,stimulus/audwhat_stim/category_no.png,None,Category,None,Pitch,2,0.0,0,5.125,0,5.125,0,5.125,0,0.0,0.625,0,0.0,0,0.0,0,0.0,0,0.0,0,0.0,0,0.0,1,0.5,1,2.125,0,,,,,0,20,20,20,,,,,,,,,201.9650135410002,201.9650135410002,201.9650135410002,201.9650135410002,201.9650135410002,201.9650135410002,201.9650135410002,201.9650135410002,201.88527295833333,201.9650135410002,201.9650135410002,201.9650135410002,201.88527295833333,201.9650135410002,201.9650135410002,201.9650135410002,204.06587091599977,,201.9650135410002,201.9650135410002,207.1469398749996,201.9650135410002,201.9650135410002,201.9650135410002,201.9650135410002,202.43328491600005,203.50639395799953,202.40331541666663,,204.06587091599977,205.0952237499996,204.03621745766694,,201.9650135410002,207.1469398749996,201.9650135410002,207.1469398749996,207.18828683300035,207.84351529099968,201.9650135410002,2,1,1.6550804170001356,reldom2_s013,001,2025-02-14_12h39.46.271,What-B-Scan_AC,2022.2.5,None,
0,0.0,None,fixation,stimulus/viswhat_stim/blank_white.png,stimulus/viswhat_stim/blank_white.png,stimulus/audwhat_stim/blank_white.png,stimulus/audwhat_stim/blank_white.png,stimulus/viswhat_stim/blank_white.png,stimulus/viswhat_stim/blank_white.png,stimulus/viswhat_stim/blank_white.png,stimulus/viswhat_stim/blank_white.png,0.0,0.0,0.0,0.0,0,0.0,0,0.0,0,0.0,0,0.0,0,0.0,0.0,0,0.0,0,0.0,0,0.0,0,0.0,0,0.0,0,0.0,0,0.0,0,0.0,9,,,,,0,21,21,21,,,,,,,,,208.0764554999996,208.0764554999996,208.0764554999996,208.0764554999996,208.0764554999996,208.0764554999996,208.0764554999996,208.0764554999996,207.97684862433303,208.0764554999996,208.0764554999996,208.0764554999996,207.97684862433303,208.0764554999996,208.0764554999996,208.0764554999996,208.0764554999996,208.0764554999996,208.0764554999996,208.0764554999996,208.0764554999996,208.0764554999996,208.0764554999996,208.0764554999996,208.0764554999996,208.0764554999996,208.0764554999996,208.026848624333,208.0764554999996,208.0764554999996,208.0764554999996,208.026848624333,208.0764554999996,208.0764554999996,208.0764554999996,208.0764554999996,208.0764554999996,213.27453950000017,213.27453950000017,217.21986291600024,None,0,,reldom2_s013,001,2025-02-14_12h39.46.271,What-B-Scan_AC,2022.2.5,None,
17,Second_Order,3.0,audwhat,stimulus/audwhat_stim/percussion mallet_high-pitch_Ftri_loud.wav,stimulus/audwhat_stim/string cello_high-pitch_Ftri_loud.wav,stimulus/audwhat_stim/percussion mallet_low-pitch_D_loud.wav,stimulus/audwhat_stim/string viola_low-pitch_D_loud.wav,stimulus/viswhat_stim/match_blank.png,stimulus/viswhat_stim/match_box.png,stimulus/viswhat_stim/match_yes.png,stimulus/viswhat_stim/match_no.png,1.0,Match,Pitch,Pitch,1,5.125,0,5.125,0,5.125,0,5.125,0,0.75,0.75,0,0.0,0,0.0,0,0.0,0,0.0,1,0.5,1,2.125,1,0.5,1,2.125,0,,,,,0,22,22,22,,,,,,,,,217.21986291600024,222.33723754099992,217.21986291600024,217.21986291600024,217.21986291600024,217.21986291600024,217.67132845800006,218.6701849580004,217.68416058266692,,219.29317125000034,220.29088070800026,219.30507616666662,,222.33723754099992,223.19923737499994,225.27462604100037,229.18450074999964,223.19923737499994,223.19923737499994,228.37520554099956,223.19923737499994,223.19923737499994,223.19923737499994,223.19923737499994,223.61208716599958,224.6738477910003,223.5829726666664,,225.27462604100037,226.34194962499987,225.24471574966654,,223.19923737499994,228.37520554099956,223.19923737499994,228.37520554099956,228.37520554099956,,223.19923737499994,1,1,0.927456458000961,reldom2_s013,001,2025-02-14_12h39.46.271,What-B-Scan_AC,2022.2.5,None,
18,Second_Order,3.0,audwhat,stimulus/audwhat_stim/percussion mallet_high-pitch_Dtri_loud.wav,stimulus/audwhat_stim/string cello_high-pitch_Dtri_loud.wav,stimulus/audwhat_stim/string viola_low-pitch_Ftri_loud.wav,stimulus/audwhat_stim/percussion mallet_low-pitch_Ftri_loud.wav,stimulus/viswhat_stim/match_blank.png,stimulus/viswhat_stim/match_box.png,stimulus/viswhat_stim/match_yes.png,stimulus/viswhat_stim/match_no.png,1.0,Match,Pitch,Pitch,1,5.125,0,5.125,0,5.125,0,5.125,0,0.625,0.625,0,0.0,0,0.0,0,0.0,0,0.0,1,0.5,1,2.125,1,0.5,1,2.125,0,,,,,0,23,23,23,,,,,,,,,229.18450074999964,234.3070125410004,229.18450074999964,229.18450074999964,229.18450074999964,229.18450074999964,229.6309331250004,230.6183234580003,229.645146666667,,231.27059379099956,232.26853166599994,231.28260312466708,,234.3070125410004,235.0424881250001,237.1033639999996,241.15237224999964,235.0424881250001,235.0424881250001,240.19158745799996,235.0424881250001,235.0424881250001,235.0424881250001,235.0424881250001,235.49826337499962,236.55290904100002,235.46897429166646,,237.1033639999996,238.16164958300033,237.07365916666666,,235.0424881250001,240.19158745799996,235.0424881250001,240.19158745799996,240.23183824999978,240.88085679100004,235.0424881250001,1,1,1.189149957999689,reldom2_s013,001,2025-02-14_12h39.46.271,What-B-Scan_AC,2022.2.5,None,
0,0.0,None,fixation,stimulus/viswhat_stim/blank_white.png,stimulus/viswhat_stim/blank_white.png,stimulus/audwhat_stim/blank_white.png,stimulus/audwhat_stim/blank_white.png,stimulus/viswhat_stim/blank_white.png,stimulus/viswhat_stim/blank_white.png,stimulus/viswhat_stim/blank_white.png,stimulus/viswhat_stim/blank_white.png,0.0,0.0,0.0,0.0,0,0.0,0,0.0,0,0.0,0,0.0,0,0.0,0.0,0,0.0,0,0.0,0,0.0,0,0.0,0,0.0,0,0.0,0,0.0,0,0.0,8,,,,,0,24,24,24,,,,,,,,,241.15237224999964,241.15237224999964,241.15237224999964,241.15237224999964,241.15237224999964,241.15237224999964,241.15237224999964,241.15237224999964,241.05409566633367,241.15237224999964,241.15237224999964,241.15237224999964,241.05409566633367,241.15237224999964,241.15237224999964,241.15237224999964,241.15237224999964,241.15237224999964,241.15237224999964,241.15237224999964,241.15237224999964,241.15237224999964,241.15237224999964,241.15237224999964,241.15237224999964,241.15237224999964,241.15237224999964,241.10409566633365,241.15237224999964,241.15237224999964,241.15237224999964,241.10409566633365,241.15237224999964,241.15237224999964,241.15237224999964,241.15237224999964,241.15237224999964,246.3479260410004,246.3479260410004,249.40335799999957,None,0,,reldom2_s013,001,2025-02-14_12h39.46.271,What-B-Scan_AC,2022.2.5,None,
19,First_Order,4.0,audwhat,stimulus/audwhat_stim/dummy.wav,stimulus/audwhat_stim/dummy.wav,stimulus/audwhat_stim/percussion mallet_low-pitch_Ftri_loud.wav,stimulus/audwhat_stim/string viola_low-pitch_Ftri_loud.wav,stimulus/audwhat_stim/blank_white.png,stimulus/audwhat_stim/pitch_box.png,stimulus/audwhat_stim/pitch_yes.png,stimulus/audwhat_stim/pitch_no.png,None,Pitch,None,Pitch,1,0.0,0,5.125,0,5.125,0,5.125,0,0.0,0.625,0,0.0,0,0.0,0,0.0,0,0.0,0,0.0,0,0.0,1,0.5,1,2.125,0,,,,,0,25,25,25,,,,,,,,,249.40335799999957,249.40335799999957,249.40335799999957,249.40335799999957,249.40335799999957,249.40335799999957,249.40335799999957,249.40335799999957,249.33141195766683,249.40335799999957,249.40335799999957,249.40335799999957,249.33141195766683,249.40335799999957,249.40335799999957,249.40335799999957,251.49012420799954,,249.40335799999957,249.40335799999957,254.55327066599966,249.40335799999957,249.40335799999957,249.40335799999957,249.40335799999957,249.8667782499997,250.9349834579998,249.83681362466658,,251.49012420799954,252.56036454100013,251.460311791667,,249.40335799999957,254.55327066599966,249.40335799999957,254.55327066599966,254.59422541599997,255.24698050000006,249.40335799999957,1,1,1.0627467500007697,reldom2_s013,001,2025-02-14_12h39.46.271,What-B-Scan_AC,2022.2.5,None,
20,First_Order,4.0,audwhat,stimulus/audwhat_stim/dummy.wav,stimulus/audwhat_stim/dummy.wav,stimulus/audwhat_stim/string viola_low-pitch_F_loud.wav,stimulus/audwhat_stim/string cello_high-pitch_Ftri_loud.wav,stimulus/audwhat_stim/blank_white.png,stimulus/audwhat_stim/category_box.png,stimulus/audwhat_stim/category_yes.png,stimulus/audwhat_stim/category_no.png,None,Category,None,Category,1,0.0,0,5.125,0,5.125,0,5.125,0,0.0,0.625,0,0.0,0,0.0,0,0.0,0,0.0,0,0.0,0,0.0,1,0.5,1,2.125,0,,,,,0,26,26,26,,,,,,,,,255.50035962499987,255.50035962499987,255.50035962499987,255.50035962499987,255.50035962499987,255.50035962499987,255.50035962499987,255.50035962499987,255.42087495833326,255.50035962499987,255.50035962499987,255.50035962499987,255.42087495833326,255.50035962499987,255.50035962499987,255.50035962499987,257.59218387500005,261.6256853750001,255.50035962499987,255.50035962499987,260.6739668749997,255.50035962499987,255.50035962499987,255.50035962499987,255.50035962499987,255.96616670799995,257.03559637499984,255.93626179166702,,257.59218387500005,258.6221456249996,257.561788332667,,255.50035962499987,260.6739668749997,255.50035962499987,260.6739668749997,260.7152873750001,261.3717037079996,255.50035962499987,1,1,0.709230166999987,reldom2_s013,001,2025-02-14_12h39.46.271,What-B-Scan_AC,2022.2.5,None,
21,First_Order,4.0,audwhat,stimulus/audwhat_stim/dummy.wav,stimulus/audwhat_stim/dummy.wav,stimulus/audwhat_stim/string viola_high-pitch_F_loud.wav,stimulus/audwhat_stim/percussion mallet_high-pitch_F_loud.wav,stimulus/audwhat_stim/blank_white.png,stimulus/audwhat_stim/category_box.png,stimulus/audwhat_stim/category_yes.png,stimulus/audwhat_stim/category_no.png,None,Category,None,Pitch,2,0.0,0,5.125,0,5.125,0,5.125,0,0.0,0.625,0,0.0,0,0.0,0,0.0,0,0.0,0,0.0,0,0.0,1,0.5,1,2.125,0,,,,,0,27,27,27,,,,,,,,,261.6256853750001,261.6256853750001,261.6256853750001,261.6256853750001,261.6256853750001,261.6256853750001,261.6256853750001,261.6256853750001,261.54595508333307,261.6256853750001,261.6256853750001,261.6256853750001,261.54595508333307,261.6256853750001,261.6256853750001,261.6256853750001,263.72284308300004,267.7502346250003,261.6256853750001,261.6256853750001,266.79921662499964,261.6256853750001,261.6256853750001,261.6256853750001,261.6256853750001,262.0905228749998,263.1633188329997,262.06076316666645,,263.72284308300004,264.75233883300007,263.69244229166657,,261.6256853750001,266.79921662499964,261.6256853750001,266.79921662499964,266.8405911250002,267.4962808749997,261.6256853750001,2,1,0.9268648750003194,reldom2_s013,001,2025-02-14_12h39.46.271,What-B-Scan_AC,2022.2.5,None,
22,First_Order,4.0,audwhat,stimulus/audwhat_stim/dummy.wav,stimulus/audwhat_stim/dummy.wav,stimulus/audwhat_stim/percussion xylophone_high-pitch_D_loud.wav,stimulus/audwhat_stim/percussion mallet_low-pitch_F_loud.wav,stimulus/audwhat_stim/blank_white.png,stimulus/audwhat_stim/pitch_box.png,stimulus/audwhat_stim/pitch_yes.png,stimulus/audwhat_stim/pitch_no.png,None,Pitch,None,Category,2,0.0,0,5.125,0,5.125,0,5.125,0,0.0,0.625,0,0.0,0,0.0,0,0.0,0,0.0,0,0.0,0,0.0,1,0.5,1,2.125,0,,,,,0,28,28,28,,,,,,,,,267.7502346250003,267.7502346250003,267.7502346250003,267.7502346250003,267.7502346250003,267.7502346250003,267.7502346250003,267.7502346250003,267.670551874333,267.7502346250003,267.7502346250003,267.7502346250003,267.670551874333,267.7502346250003,267.7502346250003,267.7502346250003,269.84001983300004,,267.7502346250003,267.7502346250003,272.90655049999987,267.7502346250003,267.7502346250003,267.7502346250003,267.7502346250003,268.2142174159999,269.28341320799973,268.18415612466674,269.2369982500004,269.84001983300004,270.9124028750002,269.81028212466686,,267.7502346250003,272.90655049999987,267.7502346250003,272.90655049999987,272.9477717079999,273.60111041599976,267.7502346250003,2,1,0.5979919999999765,reldom2_s013,001,2025-02-14_12h39.46.271,What-B-Scan_AC,2022.2.5,None,
0,0.0,None,fixation,stimulus/viswhat_stim/blank_white.png,stimulus/viswhat_stim/blank_white.png,stimulus/audwhat_stim/blank_white.png,stimulus/audwhat_stim/blank_white.png,stimulus/viswhat_stim/blank_white.png,stimulus/viswhat_stim/blank_white.png,stimulus/viswhat_stim/blank_white.png,stimulus/viswhat_stim/blank_white.png,0.0,0.0,0.0,0.0,0,0.0,0,0.0,0,0.0,0,0.0,0,0.0,0.0,0,0.0,0,0.0,0,0.0,0,0.0,0,0.0,0,0.0,0,0.0,0,0.0,10,,,,,0,29,29,29,,,,,,,,,273.874625208,273.874625208,273.874625208,273.874625208,273.874625208,273.874625208,273.874625208,273.874625208,273.7749025413333,273.874625208,273.874625208,273.874625208,273.7749025413333,273.874625208,273.874625208,273.874625208,273.874625208,273.874625208,273.874625208,273.874625208,273.874625208,273.874625208,273.874625208,273.874625208,273.874625208,273.874625208,273.874625208,273.8249025413333,273.874625208,273.874625208,273.874625208,273.8249025413333,273.874625208,273.874625208,273.874625208,273.874625208,273.874625208,279.06104033300016,279.06104033300016,284.01484058299957,None,0,,reldom2_s013,001,2025-02-14_12h39.46.271,What-B-Scan_AC,2022.2.5,None,
23,Second_Order,4.0,audwhat,stimulus/audwhat_stim/percussion mallet_high-pitch_Ftri_loud.wav,stimulus/audwhat_stim/percussion mallet_low-pitch_Dtri_loud.wav,stimulus/audwhat_stim/percussion mallet_high-pitch_D_loud.wav,stimulus/audwhat_stim/string viola_high-pitch_D_loud.wav,stimulus/viswhat_stim/match_blank.png,stimulus/viswhat_stim/match_box.png,stimulus/viswhat_stim/match_yes.png,stimulus/viswhat_stim/match_no.png,2.0,Match,Category,Pitch,2,5.125,0,5.125,0,5.125,0,5.125,0,0.75,0.75,0,0.0,0,0.0,0,0.0,0,0.0,1,0.5,1,2.125,1,0.5,1,2.125,0,,,,,0,30,30,30,,,,,,,,,284.01484058299957,289.1385999160002,284.01484058299957,284.01484058299957,284.01484058299957,284.01484058299957,284.47183429100005,285.46127466599955,284.4742664166663,,286.098252625,287.09522395800013,286.1095454576664,,289.1385999160002,289.9892226660004,292.06970270799957,295.9833327079996,289.9892226660004,289.9892226660004,295.1731145829999,289.9892226660004,289.9892226660004,289.9892226660004,289.9892226660004,290.40532537499985,291.4701755830001,290.3751469996662,,292.06970270799957,293.1370627079996,292.0397885416662,,289.9892226660004,295.1731145829999,289.9892226660004,295.1731145829999,295.1731145829999,,289.9892226660004,2,1,2.687339959000383,reldom2_s013,001,2025-02-14_12h39.46.271,What-B-Scan_AC,2022.2.5,None,
24,Second_Order,4.0,audwhat,stimulus/audwhat_stim/string viola_high-pitch_Dtri_loud.wav,stimulus/audwhat_stim/percussion mallet_high-pitch_Dtri_loud.wav,stimulus/audwhat_stim/string cello_low-pitch_Dtri_loud.wav,stimulus/audwhat_stim/string viola_high-pitch_Ftri_loud.wav,stimulus/viswhat_stim/match_blank.png,stimulus/viswhat_stim/match_box.png,stimulus/viswhat_stim/match_yes.png,stimulus/viswhat_stim/match_no.png,2.0,Match,Pitch,Category,2,5.125,0,5.125,0,5.125,0,5.125,0,0.625,0.625,0,0.0,0,0.0,0,0.0,0,0.0,1,0.5,1,2.125,1,0.5,1,2.125,0,,,,,0,31,31,31,,,,,,,,,295.9833327079996,301.0991036659998,295.9833327079996,295.9833327079996,295.9833327079996,295.9833327079996,296.4370266249998,297.4359478329998,296.4500042076663,,298.05823237499953,299.05623408300016,298.07046799966633,,301.0991036659998,301.82795183300004,303.89166083300006,307.94013008299953,301.82795183300004,301.82795183300004,306.9792386250001,301.82795183300004,301.82795183300004,301.82795183300004,301.82795183300004,302.28361874999973,303.34053870800017,302.25460279166623,,303.89166083300006,304.9507038749998,303.862354666667,,301.82795183300004,306.9792386250001,301.82795183300004,306.9792386250001,307.02002283299953,307.66809912499957,301.82795183300004,2,1,1.3046765420003794,reldom2_s013,001,2025-02-14_12h39.46.271,What-B-Scan_AC,2022.2.5,None,
0,0.0,None,fixation,stimulus/viswhat_stim/blank_white.png,stimulus/viswhat_stim/blank_white.png,stimulus/audwhat_stim/blank_white.png,stimulus/audwhat_stim/blank_white.png,stimulus/viswhat_stim/blank_white.png,stimulus/viswhat_stim/blank_white.png,stimulus/viswhat_stim/blank_white.png,stimulus/viswhat_stim/blank_white.png,0.0,0.0,0.0,0.0,0,0.0,0,0.0,0,0.0,0,0.0,0,0.0,0.0,0,0.0,0,0.0,0,0.0,0,0.0,0,0.0,0,0.0,0,0.0,0,0.0,9,,,,,0,32,32,32,,,,,,,,,307.94013008299953,307.94013008299953,307.94013008299953,307.94013008299953,307.94013008299953,307.94013008299953,307.94013008299953,307.94013008299953,307.8421122083329,307.94013008299953,307.94013008299953,307.94013008299953,307.8421122083329,307.94013008299953,307.94013008299953,307.94013008299953,307.94013008299953,307.94013008299953,307.94013008299953,307.94013008299953,307.94013008299953,307.94013008299953,307.94013008299953,307.94013008299953,307.94013008299953,307.94013008299953,307.94013008299953,307.8921122083329,307.94013008299953,307.94013008299953,307.94013008299953,307.8921122083329,307.94013008299953,307.94013008299953,307.94013008299953,307.94013008299953,307.94013008299953,313.16371549999985,313.16371549999985,317.21355462500014,None,0,,reldom2_s013,001,2025-02-14_12h39.46.271,What-B-Scan_AC,2022.2.5,None,
25,First_Order,5.0,viswhat,stimulus/viswhat_stim/blank_white.png,stimulus/viswhat_stim/blank_white.png,stimulus/viswhat_stim/land_animal-elephant.png,stimulus/viswhat_stim/land_vehicle-firetruck.png,stimulus/viswhat_stim/blank_white.png,stimulus/viswhat_stim/location_box.png,stimulus/viswhat_stim/location_yes.png,stimulus/viswhat_stim/location_no.png,None,Location,None,Location,1,0.0,0,5.125,0,5.125,0,5.125,0,0.0,0.625,0,0.0,0,0.0,1,0.5,1,2.125,0,0.0,0,0.0,0,0.0,0,0.0,0,,,,,0,33,33,33,,,,,,,,,317.21355462500014,317.21355462500014,317.21355462500014,317.21355462500014,317.21355462500014,317.21355462500014,317.21355462500014,317.21355462500014,317.1129886666664,317.21355462500014,317.21355462500014,317.21355462500014,317.1129886666664,317.21355462500014,317.21355462500014,317.21355462500014,319.2908842500001,,317.21355462500014,317.21355462500014,322.3780113749999,317.6870440829998,318.75745954099966,319.2908842500001,320.3635044579996,317.21355462500014,317.21355462500014,317.1629886666664,317.21355462500014,317.21355462500014,317.21355462500014,317.1629886666664,317.21355462500014,317.21355462500014,322.3780113749999,317.21355462500014,322.3780113749999,322.43255608300024,323.266719708,317.21355462500014,1,1,1.1286024170003657,reldom2_s013,001,2025-02-14_12h39.46.271,What-B-Scan_AC,2022.2.5,None,
26,First_Order,5.0,viswhat,stimulus/viswhat_stim/blank_white.png,stimulus/viswhat_stim/blank_white.png,stimulus/viswhat_stim/land_vehicle-tank.png,stimulus/viswhat_stim/land_animal-pig.png,stimulus/viswhat_stim/blank_white.png,stimulus/viswhat_stim/type_box.png,stimulus/viswhat_stim/type_yes.png,stimulus/viswhat_stim/type_no.png,None,Type,None,Location,2,0.0,0,5.125,0,5.125,0,5.125,0,0.0,0.625,0,0.0,0,0.0,1,0.5,1,2.125,0,0.0,0,0.0,0,0.0,0,0.0,0,,,,,0,34,34,34,,,,,,,,,323.266719708,323.266719708,323.266719708,323.266719708,323.266719708,323.266719708,323.266719708,323.266719708,323.2424082076665,323.266719708,323.266719708,323.266719708,323.2424082076665,323.266719708,323.266719708,323.266719708,325.36961150000025,329.4330626250003,323.266719708,323.266719708,328.399842625,323.7483419580003,324.7576970829996,325.36961150000025,326.3872369159999,323.266719708,323.266719708,323.2590748743332,323.266719708,323.266719708,323.266719708,323.2590748743332,323.266719708,323.266719708,328.399842625,323.266719708,328.399842625,328.4808105000002,329.1104917499997,323.266719708,2,1,0.8808145419998255,reldom2_s013,001,2025-02-14_12h39.46.271,What-B-Scan_AC,2022.2.5,None,
27,First_Order,5.0,viswhat,stimulus/viswhat_stim/blank_white.png,stimulus/viswhat_stim/blank_white.png,stimulus/viswhat_stim/land_animal-moose.png,stimulus/viswhat_stim/land_vehicle-vespa.png,stimulus/viswhat_stim/blank_white.png,stimulus/viswhat_stim/location_box.png,stimulus/viswhat_stim/location_yes.png,stimulus/viswhat_stim/location_no.png,None,Location,None,Location,1,0.0,0,5.125,0,5.125,0,5.125,0,0.0,0.625,0,0.0,0,0.0,1,0.5,1,2.125,0,0.0,0,0.0,0,0.0,0,0.0,0,,,,,0,35,35,35,,,,,,,,,329.4330626250003,329.4330626250003,329.4330626250003,329.4330626250003,329.4330626250003,329.4330626250003,329.4330626250003,329.4330626250003,329.3106679993337,329.4330626250003,329.4330626250003,329.4330626250003,329.3106679993337,329.4330626250003,329.4330626250003,329.4330626250003,331.50644137499967,,329.4330626250003,329.4330626250003,334.65011737500026,329.90117254100005,330.9723625409997,331.50644137499967,332.58039912499953,329.4330626250003,329.4330626250003,329.37733466600037,329.4330626250003,329.4330626250003,329.4330626250003,329.37733466600037,329.4330626250003,329.4330626250003,334.65011737500026,329.4330626250003,334.65011737500026,334.65011737500026,335.5349952079996,329.4330626250003,1,1,0.7450658329998987,reldom2_s013,001,2025-02-14_12h39.46.271,What-B-Scan_AC,2022.2.5,None,
28,First_Order,5.0,viswhat,stimulus/viswhat_stim/blank_white.png,stimulus/viswhat_stim/blank_white.png,stimulus/viswhat_stim/land_animal-giraffe.png,stimulus/viswhat_stim/water_animal-squid.png,stimulus/viswhat_stim/blank_white.png,stimulus/viswhat_stim/location_box.png,stimulus/viswhat_stim/location_yes.png,stimulus/viswhat_stim/location_no.png,None,Location,None,Type,2,0.0,0,5.125,0,5.125,0,5.125,0,0.0,0.625,0,0.0,0,0.0,1,0.5,1,2.125,0,0.0,0,0.0,0,0.0,0,0.0,0,,,,,0,36,36,36,,,,,,,,,335.5349952079996,335.5349952079996,335.5349952079996,335.5349952079996,335.5349952079996,335.5349952079996,335.5349952079996,335.5349952079996,335.4459568333331,335.5349952079996,335.5349952079996,335.5349952079996,335.4459568333331,335.5349952079996,335.5349952079996,335.5349952079996,337.6411964580002,,335.5349952079996,335.5349952079996,340.7411116249996,335.9784830409999,337.03226583299966,337.6411964580002,338.6974037500004,335.5349952079996,335.5349952079996,335.4959568333331,335.5349952079996,335.5349952079996,335.5349952079996,335.4959568333331,335.5349952079996,335.5349952079996,340.7411116249996,335.5349952079996,340.7411116249996,340.7411116249996,341.64282900000035,335.5349952079996,1,0,3.436180499999864,reldom2_s013,001,2025-02-14_12h39.46.271,What-B-Scan_AC,2022.2.5,None,
0,0.0,None,fixation,stimulus/viswhat_stim/blank_white.png,stimulus/viswhat_stim/blank_white.png,stimulus/audwhat_stim/blank_white.png,stimulus/audwhat_stim/blank_white.png,stimulus/viswhat_stim/blank_white.png,stimulus/viswhat_stim/blank_white.png,stimulus/viswhat_stim/blank_white.png,stimulus/viswhat_stim/blank_white.png,0.0,0.0,0.0,0.0,0,0.0,0,0.0,0,0.0,0,0.0,0,0.0,0.0,0,0.0,0,0.0,0,0.0,0,0.0,0,0.0,0,0.0,0,0.0,0,0.0,9,,,,,0,37,37,37,,,,,,,,,341.64282900000035,341.64282900000035,341.64282900000035,341.64282900000035,341.64282900000035,341.64282900000035,341.64282900000035,341.64282900000035,341.53849020799987,341.64282900000035,341.64282900000035,341.64282900000035,341.53849020799987,341.64282900000035,341.64282900000035,341.64282900000035,341.64282900000035,341.64282900000035,341.64282900000035,341.64282900000035,341.64282900000035,341.64282900000035,341.64282900000035,341.64282900000035,341.64282900000035,341.64282900000035,341.64282900000035,341.60515687466653,341.64282900000035,341.64282900000035,341.64282900000035,341.60515687466653,341.64282900000035,341.64282900000035,341.64282900000035,341.64282900000035,341.64282900000035,346.8399794999996,346.8399794999996,350.7738577910004,None,0,,reldom2_s013,001,2025-02-14_12h39.46.271,What-B-Scan_AC,2022.2.5,None,
29,Second_Order,5.0,viswhat,stimulus/viswhat_stim/water_vehicle-pirateship.png,stimulus/viswhat_stim/land_vehicle-schoolbus.png,stimulus/viswhat_stim/water_animal-dolphin.png,stimulus/viswhat_stim/land_animal-cat.png,stimulus/viswhat_stim/match_blank.png,stimulus/viswhat_stim/match_box.png,stimulus/viswhat_stim/match_yes.png,stimulus/viswhat_stim/match_no.png,1.0,Match,Type,Type,1,5.125,0,5.125,0,5.125,0,5.125,0,0.75,0.75,1,0.5,1,2.125,1,0.5,1,2.125,0,0.0,0,0.0,0,0.0,0,0.0,0,,,,,0,38,38,38,,,,,,,,,350.7738577910004,355.89195941599974,351.2472546660001,352.24575045799975,352.8691311249995,353.8657389580003,350.7738577910004,350.7738577910004,350.77960162433294,350.7738577910004,350.7738577910004,350.7738577910004,350.77960162433294,350.7738577910004,355.89195941599974,356.7149957499996,358.79468025000006,,356.7149957499996,356.7149957499996,361.86636674999954,357.16265941599977,358.1861241659999,358.79468025000006,359.8184877909998,356.7149957499996,356.7149957499996,356.6927971246669,356.7149957499996,356.7149957499996,356.7149957499996,356.6927971246669,356.7149957499996,356.7149957499996,361.86636674999954,356.7149957499996,361.86636674999954,361.89295491600024,,356.7149957499996,1,1,1.0268239580000227,reldom2_s013,001,2025-02-14_12h39.46.271,What-B-Scan_AC,2022.2.5,None,
30,Second_Order,5.0,viswhat,stimulus/viswhat_stim/water_animal-orka.png,stimulus/viswhat_stim/land_animal-bunny.png,stimulus/viswhat_stim/land_vehicle-motorcycle.png,stimulus/viswhat_stim/water_vehicle-motorboatraft.png,stimulus/viswhat_stim/match_blank.png,stimulus/viswhat_stim/match_box.png,stimulus/viswhat_stim/match_yes.png,stimulus/viswhat_stim/match_no.png,1.0,Match,Type,Type,1,5.125,0,5.125,0,5.125,0,5.125,0,0.625,0.625,1,0.5,1,2.125,1,0.5,1,2.125,0,0.0,0,0.0,0,0.0,0,0.0,0,,,,,0,39,39,39,,,,,,,,,362.7408569999998,367.85264395800004,363.15371016599966,364.1433869579996,364.77918141600003,365.7774377079995,362.7408569999998,362.7408569999998,362.7548313330002,362.7408569999998,362.7408569999998,362.7408569999998,362.7548313330002,362.7408569999998,367.85264395800004,368.54308070800016,370.62496233299953,,368.54308070800016,368.54308070800016,373.69834241599983,368.9890900829996,370.02835641599995,370.62496233299953,371.640168291,368.54308070800016,368.54308070800016,368.5163175830001,368.54308070800016,368.54308070800016,368.54308070800016,368.5163175830001,368.54308070800016,368.54308070800016,373.69834241599983,368.54308070800016,373.69834241599983,373.7467176250002,374.3993366249997,368.54308070800016,1,1,1.4063911250004821,reldom2_s013,001,2025-02-14_12h39.46.271,What-B-Scan_AC,2022.2.5,None,
0,0.0,None,fixation,stimulus/viswhat_stim/blank_white.png,stimulus/viswhat_stim/blank_white.png,stimulus/audwhat_stim/blank_white.png,stimulus/audwhat_stim/blank_white.png,stimulus/viswhat_stim/blank_white.png,stimulus/viswhat_stim/blank_white.png,stimulus/viswhat_stim/blank_white.png,stimulus/viswhat_stim/blank_white.png,0.0,0.0,0.0,0.0,0,0.0,0,0.0,0,0.0,0,0.0,0,0.0,0.0,0,0.0,0,0.0,0,0.0,0,0.0,0,0.0,0,0.0,0,0.0,0,0.0,9,,,,,0,40,40,40,,,,,,,,,374.6524640409998,374.6524640409998,374.6524640409998,374.6524640409998,374.6524640409998,374.6524640409998,374.6524640409998,374.6524640409998,374.54786616599955,374.6524640409998,374.6524640409998,374.6524640409998,374.54786616599955,374.6524640409998,374.6524640409998,374.6524640409998,374.6524640409998,374.6524640409998,374.6524640409998,374.6524640409998,374.6524640409998,374.6524640409998,374.6524640409998,374.6524640409998,374.6524640409998,374.6524640409998,374.6524640409998,374.6145328326662,374.6524640409998,374.6524640409998,374.6524640409998,374.6145328326662,374.6524640409998,374.6524640409998,374.6524640409998,374.6524640409998,374.6524640409998,379.8716327909997,379.8716327909997,383.9154934580001,None,0,,reldom2_s013,001,2025-02-14_12h39.46.271,What-B-Scan_AC,2022.2.5,None,
31,First_Order,6.0,viswhat,stimulus/viswhat_stim/blank_white.png,stimulus/viswhat_stim/blank_white.png,stimulus/viswhat_stim/water_vehicle-ship.png,stimulus/viswhat_stim/land_vehicle-schoolbus.png,stimulus/viswhat_stim/blank_white.png,stimulus/viswhat_stim/location_box.png,stimulus/viswhat_stim/location_yes.png,stimulus/viswhat_stim/location_no.png,None,Location,None,Type,2,0.0,0,5.125,0,5.125,0,5.125,0,0.0,0.625,0,0.0,0,0.0,1,0.5,1,2.125,0,0.0,0,0.0,0,0.0,0,0.0,0,,,,,0,41,41,41,,,,,,,,,383.9154934580001,383.9154934580001,383.9154934580001,383.9154934580001,383.9154934580001,383.9154934580001,383.9154934580001,383.9154934580001,383.8153789166669,383.9154934580001,383.9154934580001,383.9154934580001,383.8153789166669,383.9154934580001,383.9154934580001,383.9154934580001,386.0234125830002,390.00910620800005,383.9154934580001,383.9154934580001,389.0960462080002,384.3986332499999,385.48198624999986,386.0234125830002,387.1099017079996,383.9154934580001,383.9154934580001,383.8653789166669,383.9154934580001,383.9154934580001,383.9154934580001,383.8653789166669,383.9154934580001,383.9154934580001,389.0960462080002,383.9154934580001,389.0960462080002,389.0960462080002,389.803294458,383.9154934580001,2,1,1.4183317500001067,reldom2_s013,001,2025-02-14_12h39.46.271,What-B-Scan_AC,2022.2.5,None,
32,First_Order,6.0,viswhat,stimulus/viswhat_stim/blank_white.png,stimulus/viswhat_stim/blank_white.png,stimulus/viswhat_stim/land_vehicle-bus.png,stimulus/viswhat_stim/water_vehicle-jetski.png,stimulus/viswhat_stim/blank_white.png,stimulus/viswhat_stim/type_box.png,stimulus/viswhat_stim/type_yes.png,stimulus/viswhat_stim/type_no.png,None,Type,None,Type,1,0.0,0,5.125,0,5.125,0,5.125,0,0.0,0.625,0,0.0,0,0.0,1,0.5,1,2.125,0,0.0,0,0.0,0,0.0,0,0.0,0,,,,,0,42,42,42,,,,,,,,,390.00910620800005,390.00910620800005,390.00910620800005,390.00910620800005,390.00910620800005,390.00910620800005,390.00910620800005,390.00910620800005,389.9699611246666,390.00910620800005,390.00910620800005,390.00910620800005,389.9699611246666,390.00910620800005,390.00910620800005,390.00910620800005,392.11161816599997,396.1044535000001,390.00910620800005,390.00910620800005,395.15250558299977,390.4776669160001,391.49836595800025,392.11161816599997,393.1372019999999,390.00910620800005,390.00910620800005,389.9866277913333,390.00910620800005,390.00910620800005,390.00910620800005,389.9866277913333,390.00910620800005,390.00910620800005,395.15250558299977,390.00910620800005,395.15250558299977,395.22276441600025,395.8551137080003,390.00910620800005,1,1,1.3318710840003405,reldom2_s013,001,2025-02-14_12h39.46.271,What-B-Scan_AC,2022.2.5,None,
33,First_Order,6.0,viswhat,stimulus/viswhat_stim/blank_white.png,stimulus/viswhat_stim/blank_white.png,stimulus/viswhat_stim/water_animal-seahorse.png,stimulus/viswhat_stim/water_vehicle-cabincruiser.png,stimulus/viswhat_stim/blank_white.png,stimulus/viswhat_stim/type_box.png,stimulus/viswhat_stim/type_yes.png,stimulus/viswhat_stim/type_no.png,None,Type,None,Location,2,0.0,0,5.125,0,5.125,0,5.125,0,0.0,0.625,0,0.0,0,0.0,1,0.5,1,2.125,0,0.0,0,0.0,0,0.0,0,0.0,0,,,,,0,43,43,43,,,,,,,,,396.1044535000001,396.1044535000001,396.1044535000001,396.1044535000001,396.1044535000001,396.1044535000001,396.1044535000001,396.1044535000001,396.0488632080001,396.1044535000001,396.1044535000001,396.1044535000001,396.0488632080001,396.1044535000001,396.1044535000001,396.1044535000001,398.21539641599975,,396.1044535000001,396.1044535000001,401.2684574160003,396.59046712500003,397.628800083,398.21539641599975,399.259836833,396.1044535000001,396.1044535000001,396.0821965413335,396.1044535000001,396.1044535000001,396.1044535000001,396.0821965413335,396.1044535000001,396.1044535000001,401.2684574160003,396.1044535000001,401.2684574160003,401.32603995800037,401.9650307080001,396.1044535000001,2,1,1.1680679170003714,reldom2_s013,001,2025-02-14_12h39.46.271,What-B-Scan_AC,2022.2.5,None,
34,First_Order,6.0,viswhat,stimulus/viswhat_stim/blank_white.png,stimulus/viswhat_stim/blank_white.png,stimulus/viswhat_stim/land_animal-tiger.png,stimulus/viswhat_stim/water_animal-octopus.png,stimulus/viswhat_stim/blank_white.png,stimulus/viswhat_stim/type_box.png,stimulus/viswhat_stim/type_yes.png,stimulus/viswhat_stim/type_no.png,None,Type,None,Type,1,0.0,0,5.125,0,5.125,0,5.125,0,0.0,0.625,0,0.0,0,0.0,1,0.5,1,2.125,0,0.0,0,0.0,0,0.0,0,0.0,0,,,,,0,44,44,44,,,,,,,,,402.2060139160003,402.2060139160003,402.2060139160003,402.2060139160003,402.2060139160003,402.2060139160003,402.2060139160003,402.2060139160003,402.13953245766686,402.2060139160003,402.2060139160003,402.2060139160003,402.13953245766686,402.2060139160003,402.2060139160003,402.2060139160003,404.3226671250004,,402.2060139160003,402.2060139160003,407.3833884579999,402.68250312500004,403.71868054100014,404.3226671250004,405.35959533299956,402.2060139160003,402.2060139160003,402.17286579100016,402.2060139160003,402.2060139160003,402.2060139160003,402.17286579100016,402.2060139160003,402.2060139160003,407.3833884579999,402.2060139160003,407.3833884579999,407.4212558749996,408.0943727499998,402.2060139160003,1,1,0.9471481250002398,reldom2_s013,001,2025-02-14_12h39.46.271,What-B-Scan_AC,2022.2.5,None,
0,0.0,None,fixation,stimulus/viswhat_stim/blank_white.png,stimulus/viswhat_stim/blank_white.png,stimulus/audwhat_stim/blank_white.png,stimulus/audwhat_stim/blank_white.png,stimulus/viswhat_stim/blank_white.png,stimulus/viswhat_stim/blank_white.png,stimulus/viswhat_stim/blank_white.png,stimulus/viswhat_stim/blank_white.png,0.0,0.0,0.0,0.0,0,0.0,0,0.0,0,0.0,0,0.0,0,0.0,0.0,0,0.0,0,0.0,0,0.0,0,0.0,0,0.0,0,0.0,0,0.0,0,0.0,8,,,,,0,45,45,45,,,,,,,,,408.32338224999967,408.32338224999967,408.32338224999967,408.32338224999967,408.32338224999967,408.32338224999967,408.32338224999967,408.32338224999967,408.22770608333315,408.32338224999967,408.32338224999967,408.32338224999967,408.22770608333315,408.32338224999967,408.32338224999967,408.32338224999967,408.32338224999967,408.32338224999967,408.32338224999967,408.32338224999967,408.32338224999967,408.32338224999967,408.32338224999967,408.32338224999967,408.32338224999967,408.32338224999967,408.32338224999967,408.27770608333316,408.32338224999967,408.32338224999967,408.32338224999967,408.27770608333316,408.32338224999967,408.32338224999967,408.32338224999967,408.32338224999967,408.32338224999967,413.51192945799994,413.51192945799994,416.4718730000004,None,0,,reldom2_s013,001,2025-02-14_12h39.46.271,What-B-Scan_AC,2022.2.5,None,
35,Second_Order,6.0,viswhat,stimulus/viswhat_stim/land_animal-wolf.png,stimulus/viswhat_stim/land_vehicle-schoolbus.png,stimulus/viswhat_stim/water_animal-shark.png,stimulus/viswhat_stim/water_vehicle-ship.png,stimulus/viswhat_stim/match_blank.png,stimulus/viswhat_stim/match_box.png,stimulus/viswhat_stim/match_yes.png,stimulus/viswhat_stim/match_no.png,1.0,Match,Location,Location,1,5.125,0,5.125,0,5.125,0,5.125,0,0.75,0.75,1,0.5,1,2.125,1,0.5,1,2.125,0,0.0,0,0.0,0,0.0,0,0.0,0,,,,,0,46,46,46,,,,,,,,,416.4718730000004,421.59402633300033,416.9486749159996,417.94790541600014,418.569243291,419.5680069580003,416.4718730000004,416.4718730000004,416.4796582083337,416.4718730000004,416.4718730000004,416.4718730000004,416.4796582083337,416.4718730000004,421.59402633300033,422.4966590410004,424.52042470800006,,422.4966590410004,422.4966590410004,427.72714133299996,422.91390195799977,424.03038624999954,424.52042470800006,425.6393570829996,422.4966590410004,422.4966590410004,422.4311652909997,422.4966590410004,422.4966590410004,422.4966590410004,422.4311652909997,422.4966590410004,422.4966590410004,427.72714133299996,422.4966590410004,427.72714133299996,427.6628755410002,,422.4966590410004,1,1,0.6568144160000884,reldom2_s013,001,2025-02-14_12h39.46.271,What-B-Scan_AC,2022.2.5,None,
36,Second_Order,6.0,viswhat,stimulus/viswhat_stim/land_vehicle-oldcar.png,stimulus/viswhat_stim/land_animal-cat.png,stimulus/viswhat_stim/water_vehicle-cargoboat.png,stimulus/viswhat_stim/water_animal-orka.png,stimulus/viswhat_stim/match_blank.png,stimulus/viswhat_stim/match_box.png,stimulus/viswhat_stim/match_yes.png,stimulus/viswhat_stim/match_no.png,1.0,Match,Location,Location,1,5.125,0,5.125,0,5.125,0,5.125,0,0.625,0.625,1,0.5,1,2.125,1,0.5,1,2.125,0,0.0,0,0.0,0,0.0,0,0.0,0,,,,,0,47,47,47,,,,,,,,,428.47089587499977,433.58854391600016,428.9271529159996,429.9251012909999,430.5477284159997,431.54525124999964,428.47089587499977,428.47089587499977,428.470089832667,428.47089587499977,428.47089587499977,428.47089587499977,428.470089832667,428.47089587499977,433.58854391600016,434.3623652079996,436.40859920799994,440.4783787079996,434.3623652079996,434.3623652079996,439.59272583300026,434.75690175,435.81471529099963,436.40859920799994,437.4704909579996,434.3623652079996,434.3623652079996,434.30165054100013,434.3623652079996,434.3623652079996,434.3623652079996,434.30165054100013,434.3623652079996,434.3623652079996,439.59272583300026,434.3623652079996,439.59272583300026,439.5322191659998,440.4783787079996,434.3623652079996,1,1,0.7780299160003779,reldom2_s013,001,2025-02-14_12h39.46.271,What-B-Scan_AC,2022.2.5,None,
0,0.0,None,fixation,stimulus/viswhat_stim/blank_white.png,stimulus/viswhat_stim/blank_white.png,stimulus/audwhat_stim/blank_white.png,stimulus/audwhat_stim/blank_white.png,stimulus/viswhat_stim/blank_white.png,stimulus/viswhat_stim/blank_white.png,stimulus/viswhat_stim/blank_white.png,stimulus/viswhat_stim/blank_white.png,0.0,0.0,0.0,0.0,0,0.0,0,0.0,0,0.0,0,0.0,0,0.0,0.0,0,0.0,0,0.0,0,0.0,0,0.0,0,0.0,0,0.0,0,0.0,0,0.0,10,,,,,0,48,48,48,,,,,,,,,440.4783787079996,440.4783787079996,440.4783787079996,440.4783787079996,440.4783787079996,440.4783787079996,440.4783787079996,440.4783787079996,440.3824641243336,440.4783787079996,440.4783787079996,440.4783787079996,440.3824641243336,440.4783787079996,440.4783787079996,440.4783787079996,440.4783787079996,440.4783787079996,440.4783787079996,440.4783787079996,440.4783787079996,440.4783787079996,440.4783787079996,440.4783787079996,440.4783787079996,440.4783787079996,440.4783787079996,440.43246412433353,440.4783787079996,440.4783787079996,440.4783787079996,440.43246412433353,440.4783787079996,440.4783787079996,440.4783787079996,440.4783787079996,440.4783787079996,445.69264074999955,445.69264074999955,450.7346191659999,None,0,,reldom2_s013,001,2025-02-14_12h39.46.271,What-B-Scan_AC,2022.2.5,None,
37,First_Order,7.0,audwhat,stimulus/audwhat_stim/dummy.wav,stimulus/audwhat_stim/dummy.wav,stimulus/audwhat_stim/string viola_low-pitch_Ftri_loud.wav,stimulus/audwhat_stim/string viola_high-pitch_Dtri_loud.wav,stimulus/audwhat_stim/blank_white.png,stimulus/audwhat_stim/category_box.png,stimulus/audwhat_stim/category_yes.png,stimulus/audwhat_stim/category_no.png,None,Category,None,Category,1,0.0,0,5.125,0,5.125,0,5.125,0,0.0,0.625,0,0.0,0,0.0,0,0.0,0,0.0,0,0.0,0,0.0,1,0.5,1,2.125,0,,,,,0,49,49,49,,,,,,,,,450.7346191659999,450.7346191659999,450.7346191659999,450.7346191659999,450.7346191659999,450.7346191659999,450.7346191659999,450.7346191659999,450.66172537466684,450.7346191659999,450.7346191659999,450.7346191659999,450.66172537466684,450.7346191659999,450.7346191659999,450.7346191659999,452.8328891660003,456.85906570800034,450.7346191659999,450.7346191659999,455.90757683300035,450.7346191659999,450.7346191659999,450.7346191659999,450.7346191659999,451.1987693330002,452.2727251659999,451.1693000416665,,452.8328891660003,453.90652758299984,452.80274249966646,,450.7346191659999,455.90757683300035,450.7346191659999,455.90757683300035,455.9490539159997,456.6045434580001,450.7346191659999,1,1,1.8842299999996612,reldom2_s013,001,2025-02-14_12h39.46.271,What-B-Scan_AC,2022.2.5,None,
38,First_Order,7.0,audwhat,stimulus/audwhat_stim/dummy.wav,stimulus/audwhat_stim/dummy.wav,stimulus/audwhat_stim/percussion mallet_high-pitch_D_loud.wav,stimulus/audwhat_stim/string viola_high-pitch_D_loud.wav,stimulus/audwhat_stim/blank_white.png,stimulus/audwhat_stim/pitch_box.png,stimulus/audwhat_stim/pitch_yes.png,stimulus/audwhat_stim/pitch_no.png,None,Pitch,None,Pitch,1,0.0,0,5.125,0,5.125,0,5.125,0,0.0,0.625,0,0.0,0,0.0,0,0.0,0,0.0,0,0.0,0,0.0,1,0.5,1,2.125,0,,,,,0,50,50,50,,,,,,,,,456.85906570800034,456.85906570800034,456.85906570800034,456.85906570800034,456.85906570800034,456.85906570800034,456.85906570800034,456.85906570800034,456.7790315413332,456.85906570800034,456.85906570800034,456.85906570800034,456.7790315413332,456.85906570800034,456.85906570800034,456.85906570800034,458.951568083,462.97227104099966,456.85906570800034,456.85906570800034,462.0213564579999,456.85906570800034,456.85906570800034,456.85906570800034,456.85906570800034,457.3241880409996,458.3936515409996,457.2941154996663,,458.951568083,460.0259530410003,458.9216624576668,,456.85906570800034,462.0213564579999,456.85906570800034,462.0213564579999,462.0623020000003,462.7186633330002,456.85906570800034,2,0,0.7494024170000557,reldom2_s013,001,2025-02-14_12h39.46.271,What-B-Scan_AC,2022.2.5,None,
39,First_Order,7.0,audwhat,stimulus/audwhat_stim/dummy.wav,stimulus/audwhat_stim/dummy.wav,stimulus/audwhat_stim/string viola_low-pitch_Dtri_loud.wav,stimulus/audwhat_stim/percussion mallet_low-pitch_Dtri_loud.wav,stimulus/audwhat_stim/blank_white.png,stimulus/audwhat_stim/category_box.png,stimulus/audwhat_stim/category_yes.png,stimulus/audwhat_stim/category_no.png,None,Category,None,Pitch,2,0.0,0,5.125,0,5.125,0,5.125,0,0.0,0.625,0,0.0,0,0.0,0,0.0,0,0.0,0,0.0,0,0.0,1,0.5,1,2.125,0,,,,,0,51,51,51,,,,,,,,,462.97227104099966,462.97227104099966,462.97227104099966,462.97227104099966,462.97227104099966,462.97227104099966,462.97227104099966,462.97227104099966,462.8925182493332,462.97227104099966,462.97227104099966,462.97227104099966,462.8925182493332,462.97227104099966,462.97227104099966,462.97227104099966,465.071958083,469.100999708,462.97227104099966,462.97227104099966,468.1496968749998,462.97227104099966,462.97227104099966,462.97227104099966,462.97227104099966,463.4392846660003,464.5125630829998,463.40956199966627,,465.071958083,466.1464766250001,465.0416804576664,,462.97227104099966,468.1496968749998,462.97227104099966,468.1496968749998,468.1911131249999,468.8471433329996,462.97227104099966,2,1,1.0674018340005205,reldom2_s013,001,2025-02-14_12h39.46.271,What-B-Scan_AC,2022.2.5,None,
40,First_Order,7.0,audwhat,stimulus/audwhat_stim/dummy.wav,stimulus/audwhat_stim/dummy.wav,stimulus/audwhat_stim/string viola_high-pitch_F_loud.wav,stimulus/audwhat_stim/string viola_low-pitch_Ftri_loud.wav,stimulus/audwhat_stim/blank_white.png,stimulus/audwhat_stim/pitch_box.png,stimulus/audwhat_stim/pitch_yes.png,stimulus/audwhat_stim/pitch_no.png,None,Pitch,None,Category,2,0.0,0,5.125,0,5.125,0,5.125,0,0.0,0.625,0,0.0,0,0.0,0,0.0,0,0.0,0,0.0,0,0.0,1,0.5,1,2.125,0,,,,,0,52,52,52,,,,,,,,,469.100999708,469.100999708,469.100999708,469.100999708,469.100999708,469.100999708,469.100999708,469.100999708,469.0213098333335,469.100999708,469.100999708,469.100999708,469.0213098333335,469.100999708,469.100999708,469.100999708,471.19842341599997,475.2406988749999,469.100999708,469.100999708,474.27100133299973,469.100999708,469.100999708,469.100999708,469.100999708,469.567809958,470.6403020830003,469.5382418326665,,471.19842341599997,472.27005595799983,471.1682219166662,,469.100999708,474.27100133299973,469.100999708,474.27100133299973,474.31191037499957,474.96725975000027,469.100999708,2,1,0.9739321249999193,reldom2_s013,001,2025-02-14_12h39.46.271,What-B-Scan_AC,2022.2.5,None,
0,0.0,None,fixation,stimulus/viswhat_stim/blank_white.png,stimulus/viswhat_stim/blank_white.png,stimulus/audwhat_stim/blank_white.png,stimulus/audwhat_stim/blank_white.png,stimulus/viswhat_stim/blank_white.png,stimulus/viswhat_stim/blank_white.png,stimulus/viswhat_stim/blank_white.png,stimulus/viswhat_stim/blank_white.png,0.0,0.0,0.0,0.0,0,0.0,0,0.0,0,0.0,0,0.0,0,0.0,0.0,0,0.0,0,0.0,0,0.0,0,0.0,0,0.0,0,0.0,0,0.0,0,0.0,9,,,,,0,53,53,53,,,,,,,,,475.2406988749999,475.2406988749999,475.2406988749999,475.2406988749999,475.2406988749999,475.2406988749999,475.2406988749999,475.2406988749999,475.14077962433305,475.2406988749999,475.2406988749999,475.2406988749999,475.14077962433305,475.2406988749999,475.2406988749999,475.2406988749999,475.2406988749999,475.2406988749999,475.2406988749999,475.2406988749999,475.2406988749999,475.2406988749999,475.2406988749999,475.2406988749999,475.2406988749999,475.2406988749999,475.2406988749999,475.19077962433306,475.2406988749999,475.2406988749999,475.2406988749999,475.19077962433306,475.2406988749999,475.2406988749999,475.2406988749999,475.2406988749999,475.2406988749999,480.4407176249997,480.4407176249997,484.3903607909997,None,0,,reldom2_s013,001,2025-02-14_12h39.46.271,What-B-Scan_AC,2022.2.5,None,
41,Second_Order,7.0,audwhat,stimulus/audwhat_stim/percussion mallet_low-pitch_F_loud.wav,stimulus/audwhat_stim/percussion mallet_high-pitch_D_loud.wav,stimulus/audwhat_stim/string cello_low-pitch_Dtri_loud.wav,stimulus/audwhat_stim/string viola_high-pitch_F_loud.wav,stimulus/viswhat_stim/match_blank.png,stimulus/viswhat_stim/match_box.png,stimulus/viswhat_stim/match_yes.png,stimulus/viswhat_stim/match_no.png,1.0,Match,Category,Category,1,5.125,0,5.125,0,5.125,0,5.125,0,0.75,0.75,0,0.0,0,0.0,0,0.0,0,0.0,1,0.5,1,2.125,1,0.5,1,2.125,0,,,,,0,54,54,54,,,,,,,,,484.3903607909997,489.5127184160001,484.3903607909997,484.3903607909997,484.3903607909997,484.3903607909997,484.8373241250001,485.82492462499977,484.85159579166634,,486.472661541,487.4611667910003,486.47627966666664,487.4744115829999,489.5127184160001,490.36551750000035,492.4065048330003,,490.36551750000035,490.36551750000035,495.52383379099956,490.36551750000035,490.36551750000035,490.36551750000035,490.36551750000035,490.7815174159996,491.84866370799955,490.751238832667,,492.4065048330003,493.4802735410003,492.3761189996669,,490.36551750000035,495.52383379099956,490.36551750000035,495.52383379099956,495.52383379099956,,490.36551750000035,1,1,0.9413687090000167,reldom2_s013,001,2025-02-14_12h39.46.271,What-B-Scan_AC,2022.2.5,None,
42,Second_Order,7.0,audwhat,stimulus/audwhat_stim/percussion mallet_high-pitch_Ftri_loud.wav,stimulus/audwhat_stim/percussion mallet_low-pitch_F_loud.wav,stimulus/audwhat_stim/percussion mallet_low-pitch_Dtri_loud.wav,stimulus/audwhat_stim/string viola_low-pitch_Dtri_loud.wav,stimulus/viswhat_stim/match_blank.png,stimulus/viswhat_stim/match_box.png,stimulus/viswhat_stim/match_yes.png,stimulus/viswhat_stim/match_no.png,2.0,Match,Category,Pitch,2,5.125,0,5.125,0,5.125,0,5.125,0,0.625,0.625,0,0.0,0,0.0,0,0.0,0,0.0,1,0.5,1,2.125,1,0.5,1,2.125,0,,,,,0,55,55,55,,,,,,,,,496.33547712499967,501.45686662499975,496.33547712499967,496.33547712499967,496.33547712499967,496.33547712499967,496.7826502079997,497.76856470799976,496.79592229166633,,498.41646229100024,499.4058487499997,498.41962116666696,499.4058487499997,501.45686662499975,502.1907177080002,504.2644478330003,,502.1907177080002,502.1907177080002,507.3619793750004,502.1907177080002,502.1907177080002,502.1907177080002,502.1907177080002,502.6048284159997,503.66344679099984,502.57596879166636,,504.2644478330003,505.33044629100004,504.23479691666694,,502.1907177080002,507.3619793750004,502.1907177080002,507.3619793750004,507.3619793750004,508.0148542910001,502.1907177080002,1,0,2.066810958000133,reldom2_s013,001,2025-02-14_12h39.46.271,What-B-Scan_AC,2022.2.5,None,
0,0.0,None,fixation,stimulus/viswhat_stim/blank_white.png,stimulus/viswhat_stim/blank_white.png,stimulus/audwhat_stim/blank_white.png,stimulus/audwhat_stim/blank_white.png,stimulus/viswhat_stim/blank_white.png,stimulus/viswhat_stim/blank_white.png,stimulus/viswhat_stim/blank_white.png,stimulus/viswhat_stim/blank_white.png,0.0,0.0,0.0,0.0,0,0.0,0,0.0,0,0.0,0,0.0,0,0.0,0.0,0,0.0,0,0.0,0,0.0,0,0.0,0,0.0,0,0.0,0,0.0,0,0.0,9,,,,,0,56,56,56,,,,,,,,,508.2873573750003,508.2873573750003,508.2873573750003,508.2873573750003,508.2873573750003,508.2873573750003,508.2873573750003,508.2873573750003,508.1887252083335,508.2873573750003,508.2873573750003,508.2873573750003,508.1887252083335,508.2873573750003,508.2873573750003,508.2873573750003,508.2873573750003,508.2873573750003,508.2873573750003,508.2873573750003,508.2873573750003,508.2873573750003,508.2873573750003,508.2873573750003,508.2873573750003,508.2873573750003,508.2873573750003,508.2387252083335,508.2873573750003,508.2873573750003,508.2873573750003,508.2387252083335,508.2873573750003,508.2873573750003,508.2873573750003,508.2873573750003,508.2873573750003,513.507252208,513.507252208,517.5427451249998,None,0,,reldom2_s013,001,2025-02-14_12h39.46.271,What-B-Scan_AC,2022.2.5,None,
43,First_Order,8.0,audwhat,stimulus/audwhat_stim/dummy.wav,stimulus/audwhat_stim/dummy.wav,stimulus/audwhat_stim/string cello_high-pitch_D_loud.wav,stimulus/audwhat_stim/string cello_low-pitch_F_loud.wav,stimulus/audwhat_stim/blank_white.png,stimulus/audwhat_stim/pitch_box.png,stimulus/audwhat_stim/pitch_yes.png,stimulus/audwhat_stim/pitch_no.png,None,Pitch,None,Category,2,0.0,0,5.125,0,5.125,0,5.125,0,0.0,0.625,0,0.0,0,0.0,0,0.0,0,0.0,0,0.0,0,0.0,1,0.5,1,2.125,0,,,,,0,57,57,57,,,,,,,,,517.5427451249998,517.5427451249998,517.5427451249998,517.5427451249998,517.5427451249998,517.5427451249998,517.5427451249998,517.5427451249998,517.4685937496666,517.5427451249998,517.5427451249998,517.5427451249998,517.4685937496666,517.5427451249998,517.5427451249998,517.5427451249998,519.6336181659999,,517.5427451249998,517.5427451249998,522.6958017500001,517.5427451249998,517.5427451249998,517.5427451249998,517.5427451249998,518.0073538329998,519.0761096249998,517.977269416667,,519.6336181659999,520.7057197499998,519.6038069576664,,517.5427451249998,522.6958017500001,517.5427451249998,522.6958017500001,522.7365485,523.3898873750004,517.5427451249998,2,1,1.3074419590002435,reldom2_s013,001,2025-02-14_12h39.46.271,What-B-Scan_AC,2022.2.5,None,
44,First_Order,8.0,audwhat,stimulus/audwhat_stim/dummy.wav,stimulus/audwhat_stim/dummy.wav,stimulus/audwhat_stim/percussion mallet_low-pitch_F_loud.wav,stimulus/audwhat_stim/string cello_low-pitch_F_loud.wav,stimulus/audwhat_stim/blank_white.png,stimulus/audwhat_stim/pitch_box.png,stimulus/audwhat_stim/pitch_yes.png,stimulus/audwhat_stim/pitch_no.png,None,Pitch,None,Pitch,1,0.0,0,5.125,0,5.125,0,5.125,0,0.0,0.625,0,0.0,0,0.0,0,0.0,0,0.0,0,0.0,0,0.0,1,0.5,1,2.125,0,,,,,0,58,58,58,,,,,,,,,523.6424302080004,523.6424302080004,523.6424302080004,523.6424302080004,523.6424302080004,523.6424302080004,523.6424302080004,523.6424302080004,523.5635052913332,523.6424302080004,523.6424302080004,523.6424302080004,523.5635052913332,523.6424302080004,523.6424302080004,523.6424302080004,525.7321659999998,,523.6424302080004,523.6424302080004,528.7960521249997,523.6424302080004,523.6424302080004,523.6424302080004,523.6424302080004,524.1059351249996,525.1756112499997,524.0763009166669,,525.7321659999998,526.8036431250002,525.7023799576666,,523.6424302080004,528.7960521249997,523.6424302080004,528.7960521249997,528.8372703750001,529.4875106660002,523.6424302080004,1,1,0.9101118339995082,reldom2_s013,001,2025-02-14_12h39.46.271,What-B-Scan_AC,2022.2.5,None,
45,First_Order,8.0,audwhat,stimulus/audwhat_stim/dummy.wav,stimulus/audwhat_stim/dummy.wav,stimulus/audwhat_stim/string viola_low-pitch_Dtri_loud.wav,stimulus/audwhat_stim/string cello_high-pitch_Ftri_loud.wav,stimulus/audwhat_stim/blank_white.png,stimulus/audwhat_stim/category_box.png,stimulus/audwhat_stim/category_yes.png,stimulus/audwhat_stim/category_no.png,None,Category,None,Category,1,0.0,0,5.125,0,5.125,0,5.125,0,0.0,0.625,0,0.0,0,0.0,0,0.0,0,0.0,0,0.0,0,0.0,1,0.5,1,2.125,0,,,,,0,59,59,59,,,,,,,,,529.7410037500003,529.7410037500003,529.7410037500003,529.7410037500003,529.7410037500003,529.7410037500003,529.7410037500003,529.7410037500003,529.6616526243334,529.7410037500003,529.7410037500003,529.7410037500003,529.6616526243334,529.7410037500003,529.7410037500003,529.7410037500003,531.8491934160002,,529.7410037500003,529.7410037500003,534.9344483750001,529.7410037500003,529.7410037500003,529.7410037500003,529.7410037500003,530.2121850829999,531.243483708,530.1818637076669,,531.8491934160002,532.8822581249997,531.8191187916666,,529.7410037500003,534.9344483750001,529.7410037500003,534.9344483750001,534.9344483750001,535.590945166,529.7410037500003,1,1,0.8457417919998989,reldom2_s013,001,2025-02-14_12h39.46.271,What-B-Scan_AC,2022.2.5,None,
46,First_Order,8.0,audwhat,stimulus/audwhat_stim/dummy.wav,stimulus/audwhat_stim/dummy.wav,stimulus/audwhat_stim/string viola_high-pitch_Ftri_loud.wav,stimulus/audwhat_stim/percussion xylophone_high-pitch_Ftri_loud.wav,stimulus/audwhat_stim/blank_white.png,stimulus/audwhat_stim/category_box.png,stimulus/audwhat_stim/category_yes.png,stimulus/audwhat_stim/category_no.png,None,Category,None,Pitch,2,0.0,0,5.125,0,5.125,0,5.125,0,0.0,0.625,0,0.0,0,0.0,0,0.0,0,0.0,0,0.0,0,0.0,1,0.5,1,2.125,0,,,,,0,60,60,60,,,,,,,,,535.8450282499998,535.8450282499998,535.8450282499998,535.8450282499998,535.8450282499998,535.8450282499998,535.8450282499998,535.8450282499998,535.7653357083337,535.8450282499998,535.8450282499998,535.8450282499998,535.7653357083337,535.8450282499998,535.8450282499998,535.8450282499998,537.9493942079998,,535.8450282499998,535.8450282499998,541.0345344159996,535.8450282499998,535.8450282499998,535.8450282499998,535.8450282499998,536.3126820409998,537.3881992079996,536.2825662916669,,537.9493942079998,538.9791693329998,537.9190974996666,538.9791693329998,535.8450282499998,541.0345344159996,535.8450282499998,541.0345344159996,541.0759334160002,541.7325890000002,535.8450282499998,2,1,1.5466915420001897,reldom2_s013,001,2025-02-14_12h39.46.271,What-B-Scan_AC,2022.2.5,None,
0,0.0,None,fixation,stimulus/viswhat_stim/blank_white.png,stimulus/viswhat_stim/blank_white.png,stimulus/audwhat_stim/blank_white.png,stimulus/audwhat_stim/blank_white.png,stimulus/viswhat_stim/blank_white.png,stimulus/viswhat_stim/blank_white.png,stimulus/viswhat_stim/blank_white.png,stimulus/viswhat_stim/blank_white.png,0.0,0.0,0.0,0.0,0,0.0,0,0.0,0,0.0,0,0.0,0,0.0,0.0,0,0.0,0,0.0,0,0.0,0,0.0,0,0.0,0,0.0,0,0.0,0,0.0,8,,,,,0,61,61,61,,,,,,,,,541.9661155410004,541.9661155410004,541.9661155410004,541.9661155410004,541.9661155410004,541.9661155410004,541.9661155410004,541.9661155410004,541.8659223333335,541.9661155410004,541.9661155410004,541.9661155410004,541.8659223333335,541.9661155410004,541.9661155410004,541.9661155410004,541.9661155410004,541.9661155410004,541.9661155410004,541.9661155410004,541.9661155410004,541.9661155410004,541.9661155410004,541.9661155410004,541.9661155410004,541.9661155410004,541.9661155410004,541.9159223333335,541.9661155410004,541.9661155410004,541.9661155410004,541.9159223333335,541.9661155410004,541.9661155410004,541.9661155410004,541.9661155410004,541.9661155410004,547.1635370829999,547.1635370829999,550.1060285410003,None,0,,reldom2_s013,001,2025-02-14_12h39.46.271,What-B-Scan_AC,2022.2.5,None,
47,Second_Order,8.0,audwhat,stimulus/audwhat_stim/string cello_low-pitch_Dtri_loud.wav,stimulus/audwhat_stim/string viola_high-pitch_D_loud.wav,stimulus/audwhat_stim/percussion xylophone_high-pitch_F_loud.wav,stimulus/audwhat_stim/percussion mallet_low-pitch_D_loud.wav,stimulus/viswhat_stim/match_blank.png,stimulus/viswhat_stim/match_box.png,stimulus/viswhat_stim/match_yes.png,stimulus/viswhat_stim/match_no.png,1.0,Match,Category,Category,1,5.125,0,5.125,0,5.125,0,5.125,0,0.75,0.75,0,0.0,0,0.0,0,0.0,0,0.0,1,0.5,1,2.125,1,0.5,1,2.125,0,,,,,0,62,62,62,,,,,,,,,550.1060285410003,555.2190324160001,550.1060285410003,550.1060285410003,550.1060285410003,550.1060285410003,550.5556079580001,551.5429203329995,550.5697765826665,,552.1779232910003,553.1640131659997,552.1907114166663,,555.2190324160001,556.0695327080002,558.1128115829997,,556.0695327080002,556.0695327080002,561.2339567500003,556.0695327080002,556.0695327080002,556.0695327080002,556.0695327080002,556.4865462500002,557.555475833,556.4565429166662,557.5088351249997,558.1128115829997,559.1835877909998,558.0830141666668,,556.0695327080002,561.2339567500003,556.0695327080002,561.2339567500003,561.2339567500003,,556.0695327080002,1,1,1.3706126670003869,reldom2_s013,001,2025-02-14_12h39.46.271,What-B-Scan_AC,2022.2.5,None,
48,Second_Order,8.0,audwhat,stimulus/audwhat_stim/percussion mallet_high-pitch_D_loud.wav,stimulus/audwhat_stim/percussion mallet_low-pitch_Dtri_loud.wav,stimulus/audwhat_stim/string viola_high-pitch_F_loud.wav,stimulus/audwhat_stim/string viola_low-pitch_Dtri_loud.wav,stimulus/viswhat_stim/match_blank.png,stimulus/viswhat_stim/match_box.png,stimulus/viswhat_stim/match_yes.png,stimulus/viswhat_stim/match_no.png,1.0,Match,Category,Category,1,5.125,0,5.125,0,5.125,0,5.125,0,0.625,0.625,0,0.0,0,0.0,0,0.0,0,0.0,1,0.5,1,2.125,1,0.5,1,2.125,0,,,,,0,63,63,63,,,,,,,,,562.046051708,567.1633828329996,562.046051708,562.046051708,562.046051708,562.046051708,562.5014755829998,563.4999692499996,562.5143831666667,,564.1223788750003,565.1209049159997,564.1353385416662,,567.1633828329996,567.89366075,569.9614631249997,,567.89366075,567.89366075,573.0629643749999,567.89366075,567.89366075,567.89366075,567.89366075,568.3516425830003,569.4089640000002,568.321658707667,,569.9614631249997,571.0302944579998,569.931667666667,,567.89366075,573.0629643749999,567.89366075,573.0629643749999,573.0629643749999,573.7135289580001,567.89366075,1,1,0.8537613749995216,reldom2_s013,001,2025-02-14_12h39.46.271,What-B-Scan_AC,2022.2.5,None,
0,0.0,None,fixation,stimulus/viswhat_stim/blank_white.png,stimulus/viswhat_stim/blank_white.png,stimulus/audwhat_stim/blank_white.png,stimulus/audwhat_stim/blank_white.png,stimulus/viswhat_stim/blank_white.png,stimulus/viswhat_stim/blank_white.png,stimulus/viswhat_stim/blank_white.png,stimulus/viswhat_stim/blank_white.png,0.0,0.0,0.0,0.0,0,0.0,0,0.0,0,0.0,0,0.0,0,0.0,0.0,0,0.0,0,0.0,0,0.0,0,0.0,0,0.0,0,0.0,0,0.0,0,0.0,16,,,,,0,64,64,64,,,,,,,,,573.9864958750004,573.9864958750004,573.9864958750004,573.9864958750004,573.9864958750004,573.9864958750004,573.9864958750004,573.9864958750004,573.8869646663335,573.9864958750004,573.9864958750004,573.9864958750004,573.8869646663335,573.9864958750004,573.9864958750004,573.9864958750004,573.9864958750004,573.9864958750004,573.9864958750004,573.9864958750004,573.9864958750004,573.9864958750004,573.9864958750004,573.9864958750004,573.9864958750004,573.9864958750004,573.9864958750004,573.9369646663334,573.9864958750004,573.9864958750004,573.9864958750004,573.9369646663334,573.9864958750004,573.9864958750004,573.9864958750004,573.9864958750004,573.9864958750004,579.1727576249996,579.1727576249996,590.1414435409997,None,0,,reldom2_s013,001,2025-02-14_12h39.46.271,What-B-Scan_AC,2022.2.5,None,
