Trial,Order,Block,Type,Stimuli_File1,Stimuli_File2,Stimuli_File3,Stimuli_File4,Cue_File1,Cue_File2,Response_File_Yes,Response_File_No,Match,Cue_Dimension,Pair1_Dimension,Pair2_Dimension,Key,Cue1_Duration,Cue1_Onset,Cue2_Duration,Cue2_Onset,ResponseYes_Duration,ResponseYes_Onset,ResponseNo_Duration,ResponseNo_Onset,ITI_Within,ITI_Between,Image1_Duration,Image1_Onset,Image2_Duration,Image2_Onset,Image3_Duration,Image3_Onset,Image4_Duration,Image4_Onset,Sound1_Duration,Sound1_Onset,Sound2_Duration,Sound2_Onset,Sound3_Duration,Sound3_Onset,Sound4_Duration,Sound4_Onset,Fixation_Duration,trials_2.thisRepN,trials_2.thisTrialN,trials_2.thisN,trials_2.thisIndex,trials.thisRepN,trials.thisTrialN,trials.thisN,trials.thisIndex,text_start.started,key_resp_start.started,key_resp_start.keys,key_resp_start.rt,text2.started,key_resp_2.started,key_resp_2.keys,key_resp_2.rt,cue_file1.started,cue_file1.stopped,image_1.started,image_1.stopped,image_2.started,image_2.stopped,sound_icon1.started,sound_icon1.stopped,sound_1.started,sound_1.stopped,sound_icon2.started,sound_icon2.stopped,sound_2.started,sound_2.stopped,image_blank_1.started,image_blank_1.stopped,key_press.started,key_press.stopped,fixation_text.started,cue_file2.started,cue_file2.stopped,image_3.started,image_3.stopped,image_4.started,image_4.stopped,sound_icon3.started,sound_icon3.stopped,sound_3.started,sound_3.stopped,sound_icon4.started,sound_icon4.stopped,sound_4.started,sound_4.stopped,response_yes.started,response_yes.stopped,response_no.started,response_no.stopped,iti_blank.started,iti_blank.stopped,fixation_text.stopped,key_press.keys,key_press.corr,key_press.rt,participant,session,date,expName,psychopyVersion,frameRate,
,,,,,,,,,,,,,,,,,,,,,,,,,,,,,,,,,,,,,,,,,,,,,,,,,,,,8.497596541999883,8.497596541999883,2,0.7814045410004837,,,,,,,,,,,,,,,,,,,,,,,,,,,,,,,,,,,,,,,,,,,,,,,,reldom2_s008,001,2025-02-06_12h58.40.440,Aud-A-Scan_AC,2022.2.5,None,
,,,,,,,,,,,,,,,,,,,,,,,,,,,,,,,,,,,,,,,,,,,,0,0,0,0,,,,,,,,,9.300768999999491,9.300768999999491,5,17.072005499000625,,,,,,,,,,,,,,,,,,,,,,,,,,,,,,,,,,,,,,,,,,,,reldom2_s008,001,2025-02-06_12h58.40.440,Aud-A-Scan_AC,2022.2.5,None,
,,,,,,,,,,,,,,,,,,,,,,,,,,,,,,,,,,,,,,,,,,,,1,0,1,0,,,,,,,,,26.386150583000017,26.386150583000017,5,1.9852979580000465,,,,,,,,,,,,,,,,,,,,,,,,,,,,,,,,,,,,,,,,,,,,reldom2_s008,001,2025-02-06_12h58.40.440,Aud-A-Scan_AC,2022.2.5,None,
,,,,,,,,,,,,,,,,,,,,,,,,,,,,,,,,,,,,,,,,,,,,2,0,2,0,,,,,,,,,28.384727374999784,28.384727374999784,5,1.986309292000442,,,,,,,,,,,,,,,,,,,,,,,,,,,,,,,,,,,,,,,,,,,,reldom2_s008,001,2025-02-06_12h58.40.440,Aud-A-Scan_AC,2022.2.5,None,
,,,,,,,,,,,,,,,,,,,,,,,,,,,,,,,,,,,,,,,,,,,,3,0,3,0,,,,,,,,,30.386717833000148,30.386717833000148,5,1.9837398750005377,,,,,,,,,,,,,,,,,,,,,,,,,,,,,,,,,,,,,,,,,,,,reldom2_s008,001,2025-02-06_12h58.40.440,Aud-A-Scan_AC,2022.2.5,None,
0,0.0,None,fixation,stimulus/audwhere_stim/blank_white.png,stimulus/audwhere_stim/blank_white.png,stimulus/audwhat_stim/blank_white.png,stimulus/audwhat_stim/blank_white.png,stimulus/audwhere_stim/blank_white.png,stimulus/audwhere_stim/blank_white.png,stimulus/audwhere_stim/blank_white.png,stimulus/audwhere_stim/blank_white.png,0.0,0.0,0.0,0.0,0,0.0,0,0.0,0,0.0,0,0.0,0,0.0,0.0,0,0,0,0,0,0,0,0,0,0.0,0,0.0,0,0.0,0,0.0,16,,,,,0,0,0,0,,,,,,,,,32.56304666699998,32.56304666699998,32.56304666699998,32.56304666699998,32.56304666699998,32.56304666699998,32.56304666699998,32.56304666699998,32.4545138333336,32.56304666699998,32.56304666699998,32.56304666699998,32.4545138333336,32.56304666699998,32.56304666699998,32.56304666699998,32.56304666699998,32.56304666699998,32.56304666699998,32.56304666699998,32.56304666699998,32.56304666699998,32.56304666699998,32.56304666699998,32.56304666699998,32.56304666699998,32.56304666699998,32.52118050000026,32.56304666699998,32.56304666699998,32.56304666699998,32.52118050000026,32.56304666699998,32.56304666699998,32.56304666699998,32.56304666699998,32.56304666699998,37.74965041699943,37.74965041699943,48.77154179199988,None,0,,reldom2_s008,001,2025-02-06_12h58.40.440,Aud-A-Scan_AC,2022.2.5,None,
1,First_Order,1.0,audwhere,stimulus/audwhere_stim/dummy.wav,stimulus/audwhere_stim/dummy.wav,stimulus/audwhere_stim/left_away_280h.wav,stimulus/audwhere_stim/right_away_290h.wav,stimulus/audwhere_stim/blank_white.png,stimulus/audwhere_stim/direction_box.png,stimulus/audwhere_stim/direction_yes.png,stimulus/audwhere_stim/direction_no.png,None,Direction,None,Direction,1,0.0,0,5.125,0,5.125,0,5.125,0,0.0,0.625,0,0,0,0,0,0,0,0,0,0.0,0,0.0,1,0.5,1,2.125,0,,,,,0,1,1,1,,,,,,,,,48.77154179199988,48.77154179199988,48.77154179199988,48.77154179199988,48.77154179199988,48.77154179199988,48.77154179199988,48.77154179199988,48.69754654199951,48.77154179199988,48.77154179199988,48.77154179199988,48.69754654199951,48.77154179199988,48.77154179199988,48.77154179199988,50.85345362499993,54.892430707999665,48.77154179199988,48.77154179199988,53.9480494999998,48.77154179199988,48.77154179199988,48.77154179199988,48.77154179199988,49.2335832079998,50.29834629200013,49.2040637916664,,50.85345362499993,51.918375207999816,50.82341949966691,,48.77154179199988,53.9480494999998,48.77154179199988,53.9480494999998,53.989034499999434,54.64096795800015,48.77154179199988,1,1,1.2507225410008687,reldom2_s008,001,2025-02-06_12h58.40.440,Aud-A-Scan_AC,2022.2.5,None,
2,First_Order,1.0,audwhere,stimulus/audwhere_stim/dummy.wav,stimulus/audwhere_stim/dummy.wav,stimulus/audwhere_stim/left_away_270h.wav,stimulus/audwhere_stim/left_toward_270h.wav,stimulus/audwhere_stim/blank_white.png,stimulus/audwhere_stim/direction_box.png,stimulus/audwhere_stim/direction_yes.png,stimulus/audwhere_stim/direction_no.png,None,Direction,None,Side,2,0.0,0,5.125,0,5.125,0,5.125,0,0.0,0.625,0,0,0,0,0,0,0,0,0,0.0,0,0.0,1,0.5,1,2.125,0,,,,,0,2,2,2,,,,,,,,,54.892430707999665,54.892430707999665,54.892430707999665,54.892430707999665,54.892430707999665,54.892430707999665,54.892430707999665,54.892430707999665,54.814945541333266,54.892430707999665,54.892430707999665,54.892430707999665,54.814945541333266,54.892430707999665,54.892430707999665,54.892430707999665,56.98346345800019,,54.892430707999665,54.892430707999665,60.05189041699941,54.892430707999665,54.892430707999665,54.892430707999665,54.892430707999665,55.35744875,56.42755879200013,55.32744699966612,,56.98346345800019,58.0524172079995,56.954064374666146,,54.892430707999665,60.05189041699941,54.892430707999665,60.05189041699941,60.093057291999685,60.75100179199944,54.892430707999665,2,1,1.5415162500003134,reldom2_s008,001,2025-02-06_12h58.40.440,Aud-A-Scan_AC,2022.2.5,None,
3,First_Order,1.0,audwhere,stimulus/audwhere_stim/dummy.wav,stimulus/audwhere_stim/dummy.wav,stimulus/audwhere_stim/left_toward_300h.wav,stimulus/audwhere_stim/left_away_280h.wav,stimulus/audwhere_stim/blank_white.png,stimulus/audwhere_stim/direction_box.png,stimulus/audwhere_stim/direction_yes.png,stimulus/audwhere_stim/direction_no.png,None,Direction,None,Side,2,0.0,0,5.125,0,5.125,0,5.125,0,0.0,0.625,0,0,0,0,0,0,0,0,0,0.0,0,0.0,1,0.5,1,2.125,0,,,,,0,3,3,3,,,,,,,,,61.00798916700023,61.00798916700023,61.00798916700023,61.00798916700023,61.00798916700023,61.00798916700023,61.00798916700023,61.00798916700023,60.92456062533359,61.00798916700023,61.00798916700023,61.00798916700023,60.92456062533359,61.00798916700023,61.00798916700023,61.00798916700023,63.110165957999925,,61.00798916700023,61.00798916700023,66.20167179199962,61.00798916700023,61.00798916700023,61.00798916700023,61.00798916700023,61.47540316699997,62.505170417000045,61.44510516666675,,63.110165957999925,64.14015612499952,63.08009820866688,,61.00798916700023,66.20167179199962,61.00798916700023,66.20167179199962,66.20167179199962,66.86060958300004,61.00798916700023,2,1,1.091042749000735,reldom2_s008,001,2025-02-06_12h58.40.440,Aud-A-Scan_AC,2022.2.5,None,
4,First_Order,1.0,audwhere,stimulus/audwhere_stim/dummy.wav,stimulus/audwhere_stim/dummy.wav,stimulus/audwhere_stim/left_away_270h.wav,stimulus/audwhere_stim/left_toward_290h.wav,stimulus/audwhere_stim/blank_white.png,stimulus/audwhere_stim/side_box.png,stimulus/audwhere_stim/side_yes.png,stimulus/audwhere_stim/side_no.png,None,Side,None,Side,1,0.0,0,5.125,0,5.125,0,5.125,0,0.0,0.625,0,0,0,0,0,0,0,0,0,0.0,0,0.0,1,0.5,1,2.125,0,,,,,0,4,4,4,,,,,,,,,67.11778154199965,67.11778154199965,67.11778154199965,67.11778154199965,67.11778154199965,67.11778154199965,67.11778154199965,67.11778154199965,67.03488000033315,67.11778154199965,67.11778154199965,67.11778154199965,67.03488000033315,67.11778154199965,67.11778154199965,67.11778154199965,69.2175540420003,,67.11778154199965,67.11778154199965,72.29869291700015,67.11778154199965,67.11778154199965,67.11778154199965,67.11778154199965,67.58343849999983,68.65726566699959,67.55416029166669,,69.2175540420003,70.29355916700024,69.18692379166647,,67.11778154199965,72.29869291700015,67.11778154199965,72.29869291700015,72.34051562500008,72.99786849999964,67.11778154199965,1,1,1.640942707999784,reldom2_s008,001,2025-02-06_12h58.40.440,Aud-A-Scan_AC,2022.2.5,None,
0,0.0,None,fixation,stimulus/audwhere_stim/blank_white.png,stimulus/audwhere_stim/blank_white.png,stimulus/audwhat_stim/blank_white.png,stimulus/audwhat_stim/blank_white.png,stimulus/audwhere_stim/blank_white.png,stimulus/audwhere_stim/blank_white.png,stimulus/audwhere_stim/blank_white.png,stimulus/audwhere_stim/blank_white.png,0.0,0.0,0.0,0.0,0,0.0,0,0.0,0,0.0,0,0.0,0,0.0,0.0,0,0,0,0,0,0,0,0,0,0.0,0,0.0,0,0.0,0,0.0,9,,,,,0,5,5,5,,,,,,,,,73.2316364999997,73.2316364999997,73.2316364999997,73.2316364999997,73.2316364999997,73.2316364999997,73.2316364999997,73.2316364999997,73.13120183333297,73.2316364999997,73.2316364999997,73.2316364999997,73.13120183333297,73.2316364999997,73.2316364999997,73.2316364999997,73.2316364999997,73.2316364999997,73.2316364999997,73.2316364999997,73.2316364999997,73.2316364999997,73.2316364999997,73.2316364999997,73.2316364999997,73.2316364999997,73.2316364999997,73.18120183333298,73.2316364999997,73.2316364999997,73.2316364999997,73.18120183333298,73.2316364999997,73.2316364999997,73.2316364999997,73.2316364999997,73.2316364999997,78.44590470799994,78.44590470799994,82.40251070799968,None,0,,reldom2_s008,001,2025-02-06_12h58.40.440,Aud-A-Scan_AC,2022.2.5,None,
5,Second_Order,1.0,audwhere,stimulus/audwhere_stim/left_away_290h.wav,stimulus/audwhere_stim/right_away_300h.wav,stimulus/audwhere_stim/right_toward_290h.wav,stimulus/audwhere_stim/left_toward_300h.wav,stimulus/audwhere_stim/match_blank.png,stimulus/audwhere_stim/match_box.png,stimulus/audwhere_stim/match_yes.png,stimulus/audwhere_stim/match_no.png,1.0,Match,Direction,Direction,1,5.125,0,5.125,0,5.125,0,5.125,0,0.75,0.75,0,0,0,0,0,0,0,0,1,0.5,1,2.125,1,0.5,1,2.125,0,,,,,0,6,6,6,,,,,,,,,82.40251070799968,87.51635295799952,82.40251070799968,82.40251070799968,82.40251070799968,82.40251070799968,82.85449991699988,83.85239820799961,82.86695116666694,83.85981620799976,84.47390487499979,85.45952995799962,84.48714837466675,85.48103416699996,87.51635295799952,88.348777917,90.44743595799991,,88.348777917,88.348777917,93.53064529199946,88.348777917,88.348777917,88.348777917,88.348777917,88.81453020800018,89.88493800000015,88.78437458366649,,90.44743595799991,91.52182329199968,90.41604358366682,,88.348777917,93.53064529199946,88.348777917,93.53064529199946,93.53064529199946,,88.348777917,1,1,1.0486687080001502,reldom2_s008,001,2025-02-06_12h58.40.440,Aud-A-Scan_AC,2022.2.5,None,
6,Second_Order,1.0,audwhere,stimulus/audwhere_stim/left_away_280h.wav,stimulus/audwhere_stim/right_away_280h.wav,stimulus/audwhere_stim/left_away_300h.wav,stimulus/audwhere_stim/left_toward_280h.wav,stimulus/audwhere_stim/match_blank.png,stimulus/audwhere_stim/match_box.png,stimulus/audwhere_stim/match_yes.png,stimulus/audwhere_stim/match_no.png,2.0,Match,Direction,Side,2,5.125,0,5.125,0,5.125,0,5.125,0,0.625,0.625,0,0,0,0,0,0,0,0,1,0.5,1,2.125,1,0.5,1,2.125,0,,,,,0,7,7,7,,,,,,,,,94.34456454199972,99.4606467499998,94.34456454199972,94.34456454199972,94.34456454199972,94.34456454199972,94.79883804200017,95.7969496249998,94.81101270866681,95.80494612500024,96.4197549999999,97.41731620799965,96.43181737466627,97.42515424999965,99.4606467499998,100.16793295800016,102.25267616699966,106.29681625000012,100.16793295800016,100.16793295800016,105.32448654200016,100.16793295800016,100.16793295800016,100.16793295800016,100.16793295800016,100.63202300000012,101.69578987499972,100.60252008366685,,102.25267616699966,103.32286825000028,102.22261529166668,,100.16793295800016,105.32448654200016,100.16793295800016,105.32448654200016,105.3659042499994,106.01984741700016,100.16793295800016,2,1,1.9062571660006142,reldom2_s008,001,2025-02-06_12h58.40.440,Aud-A-Scan_AC,2022.2.5,None,
0,0.0,None,fixation,stimulus/audwhere_stim/blank_white.png,stimulus/audwhere_stim/blank_white.png,stimulus/audwhat_stim/blank_white.png,stimulus/audwhat_stim/blank_white.png,stimulus/audwhere_stim/blank_white.png,stimulus/audwhere_stim/blank_white.png,stimulus/audwhere_stim/blank_white.png,stimulus/audwhere_stim/blank_white.png,0.0,0.0,0.0,0.0,0,0.0,0,0.0,0,0.0,0,0.0,0,0.0,0.0,0,0,0,0,0,0,0,0,0,0.0,0,0.0,0,0.0,0,0.0,10,,,,,0,8,8,8,,,,,,,,,106.29681625000012,106.29681625000012,106.29681625000012,106.29681625000012,106.29681625000012,106.29681625000012,106.29681625000012,106.29681625000012,106.19399241633357,106.29681625000012,106.29681625000012,106.29681625000012,106.19399241633357,106.29681625000012,106.29681625000012,106.29681625000012,106.29681625000012,106.29681625000012,106.29681625000012,106.29681625000012,106.29681625000012,106.29681625000012,106.29681625000012,106.29681625000012,106.29681625000012,106.29681625000012,106.29681625000012,106.24399241633358,106.29681625000012,106.29681625000012,106.29681625000012,106.24399241633358,106.29681625000012,106.29681625000012,106.29681625000012,106.29681625000012,106.29681625000012,111.49099699999988,111.49099699999988,116.56410099999994,None,0,,reldom2_s008,001,2025-02-06_12h58.40.440,Aud-A-Scan_AC,2022.2.5,None,
7,First_Order,2.0,audwhere,stimulus/audwhere_stim/dummy.wav,stimulus/audwhere_stim/dummy.wav,stimulus/audwhere_stim/left_away_300h.wav,stimulus/audwhere_stim/right_away_300h.wav,stimulus/audwhere_stim/blank_white.png,stimulus/audwhere_stim/side_box.png,stimulus/audwhere_stim/side_yes.png,stimulus/audwhere_stim/side_no.png,None,Side,None,Direction,2,0.0,0,5.125,0,5.125,0,5.125,0,0.0,0.625,0,0,0,0,0,0,0,0,0,0.0,0,0.0,1,0.5,1,2.125,0,,,,,0,9,9,9,,,,,,,,,116.56410099999994,116.56410099999994,116.56410099999994,116.56410099999994,116.56410099999994,116.56410099999994,116.56410099999994,116.56410099999994,116.48719058366684,116.56410099999994,116.56410099999994,116.56410099999994,116.48719058366684,116.56410099999994,116.56410099999994,116.56410099999994,118.67338649999965,122.68003245799991,116.56410099999994,116.56410099999994,121.72367266699985,116.56410099999994,116.56410099999994,116.56410099999994,116.56410099999994,117.03349324999999,118.06447887499962,117.00363954166666,,118.67338649999965,119.70556008299991,118.64295129166682,,116.56410099999994,121.72367266699985,116.56410099999994,121.72367266699985,121.76474683299966,122.42473733299994,116.56410099999994,2,1,1.1855465409998942,reldom2_s008,001,2025-02-06_12h58.40.440,Aud-A-Scan_AC,2022.2.5,None,
8,First_Order,2.0,audwhere,stimulus/audwhere_stim/dummy.wav,stimulus/audwhere_stim/dummy.wav,stimulus/audwhere_stim/left_away_280h.wav,stimulus/audwhere_stim/right_away_270h.wav,stimulus/audwhere_stim/blank_white.png,stimulus/audwhere_stim/side_box.png,stimulus/audwhere_stim/side_yes.png,stimulus/audwhere_stim/side_no.png,None,Side,None,Direction,2,0.0,0,5.125,0,5.125,0,5.125,0,0.0,0.625,0,0,0,0,0,0,0,0,0,0.0,0,0.0,1,0.5,1,2.125,0,,,,,0,10,10,10,,,,,,,,,122.68003245799991,122.68003245799991,122.68003245799991,122.68003245799991,122.68003245799991,122.68003245799991,122.68003245799991,122.68003245799991,122.5987804163334,122.68003245799991,122.68003245799991,122.68003245799991,122.5987804163334,122.68003245799991,122.68003245799991,122.68003245799991,124.78940262499964,,122.68003245799991,122.68003245799991,127.8343142499998,122.68003245799991,122.68003245799991,122.68003245799991,122.68003245799991,123.14836874999946,124.178678708,123.11783904166647,,124.78940262499964,125.82256537499961,124.75890420866678,,122.68003245799991,127.8343142499998,122.68003245799991,127.8343142499998,127.87575649999962,128.5360000419996,122.68003245799991,2,1,0.7609660830003122,reldom2_s008,001,2025-02-06_12h58.40.440,Aud-A-Scan_AC,2022.2.5,None,
9,First_Order,2.0,audwhere,stimulus/audwhere_stim/dummy.wav,stimulus/audwhere_stim/dummy.wav,stimulus/audwhere_stim/left_away_280h.wav,stimulus/audwhere_stim/right_away_300h.wav,stimulus/audwhere_stim/blank_white.png,stimulus/audwhere_stim/direction_box.png,stimulus/audwhere_stim/direction_yes.png,stimulus/audwhere_stim/direction_no.png,None,Direction,None,Direction,1,0.0,0,5.125,0,5.125,0,5.125,0,0.0,0.625,0,0,0,0,0,0,0,0,0,0.0,0,0.0,1,0.5,1,2.125,0,,,,,0,11,11,11,,,,,,,,,128.7920788749998,128.7920788749998,128.7920788749998,128.7920788749998,128.7920788749998,128.7920788749998,128.7920788749998,128.7920788749998,128.71071854133348,128.7920788749998,128.7920788749998,128.7920788749998,128.71071854133348,128.7920788749998,128.7920788749998,128.7920788749998,130.87324416699994,134.91448341700016,128.7920788749998,128.7920788749998,133.95135983299951,128.7920788749998,128.7920788749998,128.7920788749998,128.7920788749998,129.26389149999977,130.30533558299976,129.2329916666661,,130.87324416699994,131.91539166700022,130.84265616666679,,128.7920788749998,133.95135983299951,128.7920788749998,133.95135983299951,133.99229679200016,134.65731020800013,128.7920788749998,1,1,2.140882916000919,reldom2_s008,001,2025-02-06_12h58.40.440,Aud-A-Scan_AC,2022.2.5,None,
10,First_Order,2.0,audwhere,stimulus/audwhere_stim/dummy.wav,stimulus/audwhere_stim/dummy.wav,stimulus/audwhere_stim/right_away_270h.wav,stimulus/audwhere_stim/right_toward_300h.wav,stimulus/audwhere_stim/blank_white.png,stimulus/audwhere_stim/side_box.png,stimulus/audwhere_stim/side_yes.png,stimulus/audwhere_stim/side_no.png,None,Side,None,Side,1,0.0,0,5.125,0,5.125,0,5.125,0,0.0,0.625,0,0,0,0,0,0,0,0,0,0.0,0,0.0,1,0.5,1,2.125,0,,,,,0,12,12,12,,,,,,,,,134.91448341700016,134.91448341700016,134.91448341700016,134.91448341700016,134.91448341700016,134.91448341700016,134.91448341700016,134.91448341700016,134.83185500033338,134.91448341700016,134.91448341700016,134.91448341700016,134.83185500033338,134.91448341700016,134.91448341700016,134.91448341700016,137.0292204999996,,134.91448341700016,134.91448341700016,140.08734616699985,134.91448341700016,134.91448341700016,134.91448341700016,134.91448341700016,135.38423049999983,136.4187334170001,135.3536581246665,,137.0292204999996,138.06459300000006,136.99877374966698,,134.91448341700016,140.08734616699985,134.91448341700016,140.08734616699985,140.1288660829996,140.79108645799988,134.91448341700016,1,1,1.2033596240007682,reldom2_s008,001,2025-02-06_12h58.40.440,Aud-A-Scan_AC,2022.2.5,None,
0,0.0,None,fixation,stimulus/audwhere_stim/blank_white.png,stimulus/audwhere_stim/blank_white.png,stimulus/audwhat_stim/blank_white.png,stimulus/audwhat_stim/blank_white.png,stimulus/audwhere_stim/blank_white.png,stimulus/audwhere_stim/blank_white.png,stimulus/audwhere_stim/blank_white.png,stimulus/audwhere_stim/blank_white.png,0.0,0.0,0.0,0.0,0,0.0,0,0.0,0,0.0,0,0.0,0,0.0,0.0,0,0,0,0,0,0,0,0,0,0.0,0,0.0,0,0.0,0,0.0,8,,,,,0,13,13,13,,,,,,,,,141.02897649999977,141.02897649999977,141.02897649999977,141.02897649999977,141.02897649999977,141.02897649999977,141.02897649999977,141.02897649999977,140.92441979133324,141.02897649999977,141.02897649999977,141.02897649999977,140.92441979133324,141.02897649999977,141.02897649999977,141.02897649999977,141.02897649999977,141.02897649999977,141.02897649999977,141.02897649999977,141.02897649999977,141.02897649999977,141.02897649999977,141.02897649999977,141.02897649999977,141.02897649999977,141.02897649999977,140.97441979133322,141.02897649999977,141.02897649999977,141.02897649999977,140.97441979133322,141.02897649999977,141.02897649999977,141.02897649999977,141.02897649999977,141.02897649999977,146.2269220420003,146.2269220420003,149.18628270799945,None,0,,reldom2_s008,001,2025-02-06_12h58.40.440,Aud-A-Scan_AC,2022.2.5,None,
11,Second_Order,2.0,audwhere,stimulus/audwhere_stim/left_away_280h.wav,stimulus/audwhere_stim/left_toward_280h.wav,stimulus/audwhere_stim/right_toward_280h.wav,stimulus/audwhere_stim/left_toward_270h.wav,stimulus/audwhere_stim/match_blank.png,stimulus/audwhere_stim/match_box.png,stimulus/audwhere_stim/match_yes.png,stimulus/audwhere_stim/match_no.png,2.0,Match,Side,Direction,2,5.125,0,5.125,0,5.125,0,5.125,0,0.75,0.75,0,0,0,0,0,0,0,0,1,0.5,1,2.125,1,0.5,1,2.125,0,,,,,0,14,14,14,,,,,,,,,149.18628270799945,154.30362604199945,149.18628270799945,149.18628270799945,149.18628270799945,149.18628270799945,149.64167929199994,150.64000766699974,149.65441662466608,150.64784566700018,151.26308375000008,152.26038016700022,151.27478224966697,152.26839949999976,154.30362604199945,155.13509987499947,157.2000051670002,,155.13509987499947,155.13509987499947,160.2972603749995,155.13509987499947,155.13509987499947,155.13509987499947,155.13509987499947,155.60459154199998,156.63775587500004,155.5749145416669,,157.2000051670002,158.2324790419998,157.16980249966608,,155.13509987499947,160.2972603749995,155.13509987499947,160.2972603749995,160.33869641699948,,155.13509987499947,2,1,1.5313172920004945,reldom2_s008,001,2025-02-06_12h58.40.440,Aud-A-Scan_AC,2022.2.5,None,
12,Second_Order,2.0,audwhere,stimulus/audwhere_stim/left_away_300h.wav,stimulus/audwhere_stim/right_away_270h.wav,stimulus/audwhere_stim/left_toward_280h.wav,stimulus/audwhere_stim/right_toward_280h.wav,stimulus/audwhere_stim/match_blank.png,stimulus/audwhere_stim/match_box.png,stimulus/audwhere_stim/match_yes.png,stimulus/audwhere_stim/match_no.png,1.0,Match,Direction,Direction,1,5.125,0,5.125,0,5.125,0,5.125,0,0.625,0.625,0,0,0,0,0,0,0,0,1,0.5,1,2.125,1,0.5,1,2.125,0,,,,,0,15,15,15,,,,,,,,,161.119918333,166.2430643329999,161.119918333,161.119918333,161.119918333,161.119918333,161.5694471249999,162.56762329199955,161.58197679166668,162.5754978750001,163.2023435000001,164.19190487499964,163.2058193746664,164.20469695799966,166.2430643329999,166.95872816700012,169.02482954199968,173.09756229199957,166.95872816700012,166.95872816700012,172.11584520799988,166.95872816700012,166.95872816700012,166.95872816700012,166.95872816700012,167.429764042,168.46417366700007,167.39994591666644,,169.02482954199968,170.05559654199988,168.99408062466617,,166.95872816700012,172.11584520799988,166.95872816700012,172.11584520799988,172.15701549999994,172.81772699999965,166.95872816700012,1,1,0.8943297499999971,reldom2_s008,001,2025-02-06_12h58.40.440,Aud-A-Scan_AC,2022.2.5,None,
0,0.0,None,fixation,stimulus/audwhere_stim/blank_white.png,stimulus/audwhere_stim/blank_white.png,stimulus/audwhat_stim/blank_white.png,stimulus/audwhat_stim/blank_white.png,stimulus/audwhere_stim/blank_white.png,stimulus/audwhere_stim/blank_white.png,stimulus/audwhere_stim/blank_white.png,stimulus/audwhere_stim/blank_white.png,0.0,0.0,0.0,0.0,0,0.0,0,0.0,0,0.0,0,0.0,0,0.0,0.0,0,0,0,0,0,0,0,0,0,0.0,0,0.0,0,0.0,0,0.0,8,,,,,0,16,16,16,,,,,,,,,173.09756229199957,173.09756229199957,173.09756229199957,173.09756229199957,173.09756229199957,173.09756229199957,173.09756229199957,173.09756229199957,172.9923185833333,173.09756229199957,173.09756229199957,173.09756229199957,172.9923185833333,173.09756229199957,173.09756229199957,173.09756229199957,173.09756229199957,173.09756229199957,173.09756229199957,173.09756229199957,173.09756229199957,173.09756229199957,173.09756229199957,173.09756229199957,173.09756229199957,173.09756229199957,173.09756229199957,173.04231858333327,173.09756229199957,173.09756229199957,173.09756229199957,173.04231858333327,173.09756229199957,173.09756229199957,173.09756229199957,173.09756229199957,173.09756229199957,178.31779712499974,178.31779712499974,181.3727321669994,None,0,,reldom2_s008,001,2025-02-06_12h58.40.440,Aud-A-Scan_AC,2022.2.5,None,
13,First_Order,3.0,audwhat,stimulus/audwhat_stim/dummy.wav,stimulus/audwhat_stim/dummy.wav,stimulus/audwhat_stim/percussion xylophone_high-pitch_F_loud.wav,stimulus/audwhat_stim/percussion mallet_low-pitch_Dtri_loud.wav,stimulus/audwhat_stim/blank_white.png,stimulus/audwhat_stim/category_box.png,stimulus/audwhat_stim/category_yes.png,stimulus/audwhat_stim/category_no.png,None,Category,None,Category,1,0.0,0,5.125,0,5.125,0,5.125,0,0.0,0.625,0,0,0,0,0,0,0,0,0,0.0,0,0.0,1,0.5,1,2.125,0,,,,,0,17,17,17,,,,,,,,,181.3727321669994,181.3727321669994,181.3727321669994,181.3727321669994,181.3727321669994,181.3727321669994,181.3727321669994,181.3727321669994,181.29515049966693,181.3727321669994,181.3727321669994,181.3727321669994,181.29515049966693,181.3727321669994,181.3727321669994,181.3727321669994,183.45655566699952,187.49202216699996,181.3727321669994,181.3727321669994,186.5306699169996,181.3727321669994,181.3727321669994,181.3727321669994,181.3727321669994,181.84454862500024,182.8896812920002,181.8139512916662,182.8896812920002,183.45655566699952,184.50069008299943,183.4256276246663,,181.3727321669994,186.5306699169996,181.3727321669994,186.5306699169996,186.57233087500026,187.23451491699961,181.3727321669994,1,1,1.296836708000228,reldom2_s008,001,2025-02-06_12h58.40.440,Aud-A-Scan_AC,2022.2.5,None,
14,First_Order,3.0,audwhat,stimulus/audwhat_stim/dummy.wav,stimulus/audwhat_stim/dummy.wav,stimulus/audwhat_stim/string cello_low-pitch_Ftri_loud.wav,stimulus/audwhat_stim/string viola_high-pitch_F_loud.wav,stimulus/audwhat_stim/blank_white.png,stimulus/audwhat_stim/category_box.png,stimulus/audwhat_stim/category_yes.png,stimulus/audwhat_stim/category_no.png,None,Category,None,Category,1,0.0,0,5.125,0,5.125,0,5.125,0,0.0,0.625,0,0,0,0,0,0,0,0,0,0.0,0,0.0,1,0.5,1,2.125,0,,,,,0,18,18,18,,,,,,,,,187.49202216699996,187.49202216699996,187.49202216699996,187.49202216699996,187.49202216699996,187.49202216699996,187.49202216699996,187.49202216699996,187.4089363333334,187.49202216699996,187.49202216699996,187.49202216699996,187.4089363333334,187.49202216699996,187.49202216699996,187.49202216699996,189.56992408299993,193.6150934999996,187.49202216699996,187.49202216699996,192.68803562499943,187.49202216699996,187.49202216699996,187.49202216699996,187.49202216699996,187.96309437499986,189.00428587500028,187.9323974586662,,189.56992408299993,190.6120921669999,189.53936941666623,,187.49202216699996,192.68803562499943,187.49202216699996,192.68803562499943,192.68803562499943,193.3520187919994,187.49202216699996,1,1,0.5686499160001404,reldom2_s008,001,2025-02-06_12h58.40.440,Aud-A-Scan_AC,2022.2.5,None,
15,First_Order,3.0,audwhat,stimulus/audwhat_stim/dummy.wav,stimulus/audwhat_stim/dummy.wav,stimulus/audwhat_stim/string viola_low-pitch_D_loud.wav,stimulus/audwhat_stim/percussion mallet_low-pitch_D_loud.wav,stimulus/audwhat_stim/blank_white.png,stimulus/audwhat_stim/pitch_box.png,stimulus/audwhat_stim/pitch_yes.png,stimulus/audwhat_stim/pitch_no.png,None,Pitch,None,Pitch,1,0.0,0,5.125,0,5.125,0,5.125,0,0.0,0.625,0,0,0,0,0,0,0,0,0,0.0,0,0.0,1,0.5,1,2.125,0,,,,,0,19,19,19,,,,,,,,,193.6150934999996,193.6150934999996,193.6150934999996,193.6150934999996,193.6150934999996,193.6150934999996,193.6150934999996,193.6150934999996,193.52665887533308,193.6150934999996,193.6150934999996,193.6150934999996,193.52665887533308,193.6150934999996,193.6150934999996,193.6150934999996,195.6882592920001,,193.6150934999996,193.6150934999996,198.8007579999994,193.6150934999996,193.6150934999996,193.6150934999996,193.6150934999996,194.08604079199995,195.1240022920001,194.05567912466657,,195.6882592920001,196.73178958300014,195.65816629166628,,193.6150934999996,198.8007579999994,193.6150934999996,198.8007579999994,198.8418227080001,199.50391037499958,193.6150934999996,1,1,0.6515509580003709,reldom2_s008,001,2025-02-06_12h58.40.440,Aud-A-Scan_AC,2022.2.5,None,
16,First_Order,3.0,audwhat,stimulus/audwhat_stim/dummy.wav,stimulus/audwhat_stim/dummy.wav,stimulus/audwhat_stim/string cello_low-pitch_D_loud.wav,stimulus/audwhat_stim/string viola_high-pitch_Dtri_loud.wav,stimulus/audwhat_stim/blank_white.png,stimulus/audwhat_stim/pitch_box.png,stimulus/audwhat_stim/pitch_yes.png,stimulus/audwhat_stim/pitch_no.png,None,Pitch,None,Category,2,0.0,0,5.125,0,5.125,0,5.125,0,0.0,0.625,0,0,0,0,0,0,0,0,0,0.0,0,0.0,1,0.5,1,2.125,0,,,,,0,20,20,20,,,,,,,,,199.72154308300014,199.72154308300014,199.72154308300014,199.72154308300014,199.72154308300014,199.72154308300014,199.72154308300014,199.72154308300014,199.63724370833293,199.72154308300014,199.72154308300014,199.72154308300014,199.63724370833293,199.72154308300014,199.72154308300014,199.72154308300014,201.79303583299952,,199.72154308300014,199.72154308300014,204.90477850000025,199.72154308300014,199.72154308300014,199.72154308300014,199.72154308300014,200.1916652079999,201.22888120799962,200.16116741666636,,201.79303583299952,202.83299383299982,201.76279670866668,,199.72154308300014,204.90477850000025,199.72154308300014,204.90477850000025,204.94614204200025,205.6102730829998,199.72154308300014,2,1,2.6462168740008565,reldom2_s008,001,2025-02-06_12h58.40.440,Aud-A-Scan_AC,2022.2.5,None,
0,0.0,None,fixation,stimulus/audwhere_stim/blank_white.png,stimulus/audwhere_stim/blank_white.png,stimulus/audwhat_stim/blank_white.png,stimulus/audwhat_stim/blank_white.png,stimulus/audwhere_stim/blank_white.png,stimulus/audwhere_stim/blank_white.png,stimulus/audwhere_stim/blank_white.png,stimulus/audwhere_stim/blank_white.png,0.0,0.0,0.0,0.0,0,0.0,0,0.0,0,0.0,0,0.0,0,0.0,0.0,0,0,0,0,0,0,0,0,0,0.0,0,0.0,0,0.0,0,0.0,8,,,,,0,21,21,21,,,,,,,,,205.84861037500013,205.84861037500013,205.84861037500013,205.84861037500013,205.84861037500013,205.84861037500013,205.84861037500013,205.84861037500013,205.74360641633317,205.84861037500013,205.84861037500013,205.84861037500013,205.74360641633317,205.84861037500013,205.84861037500013,205.84861037500013,205.84861037500013,205.84861037500013,205.84861037500013,205.84861037500013,205.84861037500013,205.84861037500013,205.84861037500013,205.84861037500013,205.84861037500013,205.84861037500013,205.84861037500013,205.79360641633315,205.84861037500013,205.84861037500013,205.84861037500013,205.79360641633315,205.84861037500013,205.84861037500013,205.84861037500013,205.84861037500013,205.84861037500013,211.05254287499974,211.05254287499974,214.02613812500022,None,0,,reldom2_s008,001,2025-02-06_12h58.40.440,Aud-A-Scan_AC,2022.2.5,None,
17,Second_Order,3.0,audwhat,stimulus/audwhat_stim/percussion mallet_high-pitch_F_loud.wav,stimulus/audwhat_stim/string viola_high-pitch_F_loud.wav,stimulus/audwhat_stim/string cello_low-pitch_Ftri_loud.wav,stimulus/audwhat_stim/string cello_high-pitch_Dtri_loud.wav,stimulus/audwhere_stim/match_blank.png,stimulus/audwhat_stim/match_box.png,stimulus/audwhere_stim/match_yes.png,stimulus/audwhere_stim/match_no.png,2.0,Match,Pitch,Category,2,5.125,0,5.125,0,5.125,0,5.125,0,0.75,0.75,0,0,0,0,0,0,0,0,1,0.5,1,2.125,1,0.5,1,2.125,0,,,,,0,22,22,22,,,,,,,,,214.02613812500022,219.14808404199994,214.02613812500022,214.02613812500022,214.02613812500022,214.02613812500022,214.4749339580003,215.4729065829997,214.4873641666666,215.48102912499962,216.1076178329995,217.0966065829998,216.11100862466654,,219.14808404199994,219.98349166699973,222.04815175000022,,219.98349166699973,219.98349166699973,225.15131895800005,219.98349166699973,219.98349166699973,219.98349166699973,219.98349166699973,220.45550133300003,221.48682516699955,220.4246682496662,,222.04815175000022,223.0858742499995,222.0181719586665,,219.98349166699973,225.15131895800005,219.98349166699973,225.15131895800005,225.19273379199967,,219.98349166699973,2,1,1.54047087500021,reldom2_s008,001,2025-02-06_12h58.40.440,Aud-A-Scan_AC,2022.2.5,None,
18,Second_Order,3.0,audwhat,stimulus/audwhat_stim/string viola_low-pitch_F_loud.wav,stimulus/audwhat_stim/percussion mallet_low-pitch_F_loud.wav,stimulus/audwhat_stim/percussion mallet_high-pitch_Ftri_loud.wav,stimulus/audwhat_stim/string cello_high-pitch_Ftri_loud.wav,stimulus/audwhere_stim/match_blank.png,stimulus/audwhat_stim/match_box.png,stimulus/audwhere_stim/match_yes.png,stimulus/audwhere_stim/match_no.png,1.0,Match,Pitch,Pitch,1,5.125,0,5.125,0,5.125,0,5.125,0,0.625,0.625,0,0,0,0,0,0,0,0,1,0.5,1,2.125,1,0.5,1,2.125,0,,,,,0,23,23,23,,,,,,,,,225.97449858300024,231.09835737499998,225.97449858300024,225.97449858300024,225.97449858300024,225.97449858300024,226.43146579199947,227.42065749999983,226.43413387466651,,228.05638145800003,229.05450674999975,228.06857804166637,229.06264737499987,231.09835737499998,231.81329133300005,233.86952333299996,237.94378716699975,231.81329133300005,231.81329133300005,236.96394887499991,231.81329133300005,231.81329133300005,231.81329133300005,231.81329133300005,232.27991158300028,233.31001195799945,232.25008479166652,,233.86952333299996,234.90390070800004,233.83994504166665,,231.81329133300005,236.96394887499991,231.81329133300005,236.96394887499991,237.00562570799957,237.66487287499967,231.81329133300005,1,1,0.9782778740009235,reldom2_s008,001,2025-02-06_12h58.40.440,Aud-A-Scan_AC,2022.2.5,None,
0,0.0,None,fixation,stimulus/audwhere_stim/blank_white.png,stimulus/audwhere_stim/blank_white.png,stimulus/audwhat_stim/blank_white.png,stimulus/audwhat_stim/blank_white.png,stimulus/audwhere_stim/blank_white.png,stimulus/audwhere_stim/blank_white.png,stimulus/audwhere_stim/blank_white.png,stimulus/audwhere_stim/blank_white.png,0.0,0.0,0.0,0.0,0,0.0,0,0.0,0,0.0,0,0.0,0,0.0,0.0,0,0,0,0,0,0,0,0,0,0.0,0,0.0,0,0.0,0,0.0,9,,,,,0,24,24,24,,,,,,,,,237.94378716699975,237.94378716699975,237.94378716699975,237.94378716699975,237.94378716699975,237.94378716699975,237.94378716699975,237.94378716699975,237.83968587533323,237.94378716699975,237.94378716699975,237.94378716699975,237.83968587533323,237.94378716699975,237.94378716699975,237.94378716699975,237.94378716699975,237.94378716699975,237.94378716699975,237.94378716699975,237.94378716699975,237.94378716699975,237.94378716699975,237.94378716699975,237.94378716699975,237.94378716699975,237.94378716699975,237.8896858753332,237.94378716699975,237.94378716699975,237.94378716699975,237.8896858753332,237.94378716699975,237.94378716699975,237.94378716699975,237.94378716699975,237.94378716699975,243.1356077499995,243.1356077499995,247.22003495799981,None,0,,reldom2_s008,001,2025-02-06_12h58.40.440,Aud-A-Scan_AC,2022.2.5,None,
19,First_Order,4.0,audwhat,stimulus/audwhat_stim/dummy.wav,stimulus/audwhat_stim/dummy.wav,stimulus/audwhat_stim/percussion mallet_low-pitch_D_loud.wav,stimulus/audwhat_stim/string viola_low-pitch_D_loud.wav,stimulus/audwhat_stim/blank_white.png,stimulus/audwhat_stim/category_box.png,stimulus/audwhat_stim/category_yes.png,stimulus/audwhat_stim/category_no.png,None,Category,None,Pitch,2,0.0,0,5.125,0,5.125,0,5.125,0,0.0,0.625,0,0,0,0,0,0,0,0,0,0.0,0,0.0,1,0.5,1,2.125,0,,,,,0,25,25,25,,,,,,,,,247.22003495799981,247.22003495799981,247.22003495799981,247.22003495799981,247.22003495799981,247.22003495799981,247.22003495799981,247.22003495799981,247.1422865416668,247.22003495799981,247.22003495799981,247.22003495799981,247.1422865416668,247.22003495799981,247.22003495799981,247.22003495799981,249.30234154200025,253.343498833,247.22003495799981,247.22003495799981,252.3775370000003,247.22003495799981,247.22003495799981,247.22003495799981,247.22003495799981,247.69237970799986,248.7349307079994,247.66176124966685,,249.30234154200025,250.34588591699958,249.2720147916664,,247.22003495799981,252.3775370000003,247.22003495799981,252.3775370000003,252.4199907080001,253.08542079200015,247.22003495799981,2,1,1.0750282490007521,reldom2_s008,001,2025-02-06_12h58.40.440,Aud-A-Scan_AC,2022.2.5,None,
20,First_Order,4.0,audwhat,stimulus/audwhat_stim/dummy.wav,stimulus/audwhat_stim/dummy.wav,stimulus/audwhat_stim/percussion xylophone_high-pitch_Dtri_loud.wav,stimulus/audwhat_stim/string cello_high-pitch_Dtri_loud.wav,stimulus/audwhat_stim/blank_white.png,stimulus/audwhat_stim/pitch_box.png,stimulus/audwhat_stim/pitch_yes.png,stimulus/audwhat_stim/pitch_no.png,None,Pitch,None,Pitch,1,0.0,0,5.125,0,5.125,0,5.125,0,0.0,0.625,0,0,0,0,0,0,0,0,0,0.0,0,0.0,1,0.5,1,2.125,0,,,,,0,26,26,26,,,,,,,,,253.343498833,253.343498833,253.343498833,253.343498833,253.343498833,253.343498833,253.343498833,253.343498833,253.26002408333275,253.343498833,253.343498833,253.343498833,253.26002408333275,253.343498833,253.343498833,253.343498833,255.42666762499994,259.469221542,253.343498833,253.343498833,258.5071918329995,253.343498833,253.343498833,253.343498833,253.343498833,253.8157562919996,254.86165504200017,253.78526033366623,254.86165504200017,255.42666762499994,256.46867658300016,255.39672849966635,,253.343498833,258.5071918329995,253.343498833,258.5071918329995,258.5489753749998,259.210753458,253.343498833,1,1,0.9471895830001813,reldom2_s008,001,2025-02-06_12h58.40.440,Aud-A-Scan_AC,2022.2.5,None,
21,First_Order,4.0,audwhat,stimulus/audwhat_stim/dummy.wav,stimulus/audwhat_stim/dummy.wav,stimulus/audwhat_stim/string viola_low-pitch_D_loud.wav,stimulus/audwhat_stim/percussion mallet_low-pitch_D_loud.wav,stimulus/audwhat_stim/blank_white.png,stimulus/audwhat_stim/category_box.png,stimulus/audwhat_stim/category_yes.png,stimulus/audwhat_stim/category_no.png,None,Category,None,Pitch,2,0.0,0,5.125,0,5.125,0,5.125,0,0.0,0.625,0,0,0,0,0,0,0,0,0,0.0,0,0.0,1,0.5,1,2.125,0,,,,,0,27,27,27,,,,,,,,,259.469221542,259.469221542,259.469221542,259.469221542,259.469221542,259.469221542,259.469221542,259.469221542,259.38543029133336,259.469221542,259.469221542,259.469221542,259.38543029133336,259.469221542,259.469221542,259.469221542,261.5547187080001,265.6010519579995,259.469221542,259.469221542,264.6346217499995,259.469221542,259.469221542,259.469221542,259.469221542,259.94153458300025,260.9865364999996,259.91072841666687,,261.5547187080001,262.59903708299953,261.52399658366653,,259.469221542,264.6346217499995,259.469221542,264.6346217499995,264.6763344579995,265.34291866700005,259.469221542,1,0,3.188015499999892,reldom2_s008,001,2025-02-06_12h58.40.440,Aud-A-Scan_AC,2022.2.5,None,
22,First_Order,4.0,audwhat,stimulus/audwhat_stim/dummy.wav,stimulus/audwhat_stim/dummy.wav,stimulus/audwhat_stim/string viola_low-pitch_Ftri_loud.wav,stimulus/audwhat_stim/string cello_high-pitch_D_loud.wav,stimulus/audwhat_stim/blank_white.png,stimulus/audwhat_stim/pitch_box.png,stimulus/audwhat_stim/pitch_yes.png,stimulus/audwhat_stim/pitch_no.png,None,Pitch,None,Category,2,0.0,0,5.125,0,5.125,0,5.125,0,0.0,0.625,0,0,0,0,0,0,0,0,0,0.0,0,0.0,1,0.5,1,2.125,0,,,,,0,28,28,28,,,,,,,,,265.6010519579995,265.6010519579995,265.6010519579995,265.6010519579995,265.6010519579995,265.6010519579995,265.6010519579995,265.6010519579995,265.51767416633277,265.6010519579995,265.6010519579995,265.6010519579995,265.51767416633277,265.6010519579995,265.6010519579995,265.6010519579995,267.6820306669997,271.73915820799994,265.6010519579995,265.6010519579995,270.75472162499955,265.6010519579995,265.6010519579995,265.6010519579995,265.6010519579995,266.07578533299966,267.1165993750001,266.0451595416664,,267.6820306669997,268.7264767500001,267.6511144586668,,265.6010519579995,270.75472162499955,265.6010519579995,270.75472162499955,270.7962762500001,271.460643417,265.6010519579995,1,0,0.9206664580005963,reldom2_s008,001,2025-02-06_12h58.40.440,Aud-A-Scan_AC,2022.2.5,None,
0,0.0,None,fixation,stimulus/audwhere_stim/blank_white.png,stimulus/audwhere_stim/blank_white.png,stimulus/audwhat_stim/blank_white.png,stimulus/audwhat_stim/blank_white.png,stimulus/audwhere_stim/blank_white.png,stimulus/audwhere_stim/blank_white.png,stimulus/audwhere_stim/blank_white.png,stimulus/audwhere_stim/blank_white.png,0.0,0.0,0.0,0.0,0,0.0,0,0.0,0,0.0,0,0.0,0,0.0,0.0,0,0,0,0,0,0,0,0,0,0.0,0,0.0,0,0.0,0,0.0,10,,,,,0,29,29,29,,,,,,,,,271.73915820799994,271.73915820799994,271.73915820799994,271.73915820799994,271.73915820799994,271.73915820799994,271.73915820799994,271.73915820799994,271.63497300033316,271.73915820799994,271.73915820799994,271.73915820799994,271.63497300033316,271.73915820799994,271.73915820799994,271.73915820799994,271.73915820799994,271.73915820799994,271.73915820799994,271.73915820799994,271.73915820799994,271.73915820799994,271.73915820799994,271.73915820799994,271.73915820799994,271.73915820799994,271.73915820799994,271.6849730003332,271.73915820799994,271.73915820799994,271.73915820799994,271.6849730003332,271.73915820799994,271.73915820799994,271.73915820799994,271.73915820799994,271.73915820799994,276.9569371669995,276.9569371669995,281.8836497499997,None,0,,reldom2_s008,001,2025-02-06_12h58.40.440,Aud-A-Scan_AC,2022.2.5,None,
23,Second_Order,4.0,audwhat,stimulus/audwhat_stim/string cello_low-pitch_F_loud.wav,stimulus/audwhat_stim/string cello_high-pitch_Ftri_loud.wav,stimulus/audwhat_stim/percussion mallet_high-pitch_Ftri_loud.wav,stimulus/audwhat_stim/percussion mallet_low-pitch_F_loud.wav,stimulus/audwhere_stim/match_blank.png,stimulus/audwhat_stim/match_box.png,stimulus/audwhere_stim/match_yes.png,stimulus/audwhere_stim/match_no.png,1.0,Match,Category,Category,1,5.125,0,5.125,0,5.125,0,5.125,0,0.75,0.75,0,0,0,0,0,0,0,0,1,0.5,1,2.125,1,0.5,1,2.125,0,,,,,0,30,30,30,,,,,,,,,281.8836497499997,287.00480741699994,281.8836497499997,281.8836497499997,281.8836497499997,281.8836497499997,282.3301967919997,283.3164625829995,282.3433814586663,,283.964181542,284.95362495799964,283.9681060836667,,287.00480741699994,287.8410560829998,289.9103309579996,,287.8410560829998,287.8410560829998,293.0185114169999,287.8410560829998,287.8410560829998,287.8410560829998,287.8410560829998,288.3097589580002,289.3474248329994,288.2792274996666,,289.9103309579996,290.94838804200026,289.8795443336669,,287.8410560829998,293.0185114169999,287.8410560829998,293.0185114169999,293.0185114169999,,287.8410560829998,1,1,1.5460530000009385,reldom2_s008,001,2025-02-06_12h58.40.440,Aud-A-Scan_AC,2022.2.5,None,
24,Second_Order,4.0,audwhat,stimulus/audwhat_stim/percussion xylophone_high-pitch_Dtri_loud.wav,stimulus/audwhat_stim/percussion mallet_low-pitch_D_loud.wav,stimulus/audwhat_stim/string cello_low-pitch_Ftri_loud.wav,stimulus/audwhat_stim/string viola_high-pitch_D_loud.wav,stimulus/audwhere_stim/match_blank.png,stimulus/audwhat_stim/match_box.png,stimulus/audwhere_stim/match_yes.png,stimulus/audwhere_stim/match_no.png,1.0,Match,Category,Category,1,5.125,0,5.125,0,5.125,0,5.125,0,0.625,0.625,0,0,0,0,0,0,0,0,1,0.5,1,2.125,1,0.5,1,2.125,0,,,,,0,31,31,31,,,,,,,,,293.841876083,298.965465667,293.841876083,293.841876083,293.841876083,293.841876083,294.2921761669995,295.29033204200005,294.3046554586665,295.29821679199995,295.92537825,296.9143208329997,295.9291642916662,296.92728974999955,298.965465667,299.68048120799995,301.7453144579995,,299.68048120799995,299.68048120799995,304.8456709579996,299.68048120799995,299.68048120799995,299.68048120799995,299.68048120799995,300.14655374999984,301.18263016699984,300.11662908366657,,301.7453144579995,302.7836438329996,301.7147199166668,,299.68048120799995,304.8456709579996,299.68048120799995,304.8456709579996,304.88747808300013,305.5484823750003,299.68048120799995,1,1,0.5591137500005061,reldom2_s008,001,2025-02-06_12h58.40.440,Aud-A-Scan_AC,2022.2.5,None,
0,0.0,None,fixation,stimulus/audwhere_stim/blank_white.png,stimulus/audwhere_stim/blank_white.png,stimulus/audwhat_stim/blank_white.png,stimulus/audwhat_stim/blank_white.png,stimulus/audwhere_stim/blank_white.png,stimulus/audwhere_stim/blank_white.png,stimulus/audwhere_stim/blank_white.png,stimulus/audwhere_stim/blank_white.png,0.0,0.0,0.0,0.0,0,0.0,0,0.0,0,0.0,0,0.0,0,0.0,0.0,0,0,0,0,0,0,0,0,0,0.0,0,0.0,0,0.0,0,0.0,9,,,,,0,32,32,32,,,,,,,,,305.7855193329997,305.7855193329997,305.7855193329997,305.7855193329997,305.7855193329997,305.7855193329997,305.7855193329997,305.7855193329997,305.6818157083336,305.7855193329997,305.7855193329997,305.7855193329997,305.6818157083336,305.7855193329997,305.7855193329997,305.7855193329997,305.7855193329997,305.7855193329997,305.7855193329997,305.7855193329997,305.7855193329997,305.7855193329997,305.7855193329997,305.7855193329997,305.7855193329997,305.7855193329997,305.7855193329997,305.7318157083336,305.7855193329997,305.7855193329997,305.7855193329997,305.7318157083336,305.7855193329997,305.7855193329997,305.7855193329997,305.7855193329997,305.7855193329997,310.98281566700007,310.98281566700007,315.01459650000015,None,0,,reldom2_s008,001,2025-02-06_12h58.40.440,Aud-A-Scan_AC,2022.2.5,None,
25,First_Order,5.0,audwhere,stimulus/audwhere_stim/dummy.wav,stimulus/audwhere_stim/dummy.wav,stimulus/audwhere_stim/right_away_300h.wav,stimulus/audwhere_stim/right_toward_300h.wav,stimulus/audwhere_stim/blank_white.png,stimulus/audwhere_stim/direction_box.png,stimulus/audwhere_stim/direction_yes.png,stimulus/audwhere_stim/direction_no.png,None,Direction,None,Side,2,0.0,0,5.125,0,5.125,0,5.125,0,0.0,0.625,0,0,0,0,0,0,0,0,0,0.0,0,0.0,1,0.5,1,2.125,0,,,,,0,33,33,33,,,,,,,,,315.01459650000015,315.01459650000015,315.01459650000015,315.01459650000015,315.01459650000015,315.01459650000015,315.01459650000015,315.01459650000015,314.9379018336664,315.01459650000015,315.01459650000015,315.01459650000015,314.9379018336664,315.01459650000015,315.01459650000015,315.01459650000015,317.1010254169996,321.1416355419997,315.01459650000015,315.01459650000015,320.1763727919997,315.01459650000015,315.01459650000015,315.01459650000015,315.01459650000015,315.4889095419994,316.5331160420001,315.45792437466685,,317.1010254169996,318.1433818329997,317.0700881246669,,315.01459650000015,320.1763727919997,315.01459650000015,320.1763727919997,320.21855754199987,320.8839561670002,315.01459650000015,2,1,1.6196362079999744,reldom2_s008,001,2025-02-06_12h58.40.440,Aud-A-Scan_AC,2022.2.5,None,
26,First_Order,5.0,audwhere,stimulus/audwhere_stim/dummy.wav,stimulus/audwhere_stim/dummy.wav,stimulus/audwhere_stim/right_away_280h.wav,stimulus/audwhere_stim/left_away_270h.wav,stimulus/audwhere_stim/blank_white.png,stimulus/audwhere_stim/side_box.png,stimulus/audwhere_stim/side_yes.png,stimulus/audwhere_stim/side_no.png,None,Side,None,Direction,2,0.0,0,5.125,0,5.125,0,5.125,0,0.0,0.625,0,0,0,0,0,0,0,0,0,0.0,0,0.0,1,0.5,1,2.125,0,,,,,0,34,34,34,,,,,,,,,321.1416355419997,321.1416355419997,321.1416355419997,321.1416355419997,321.1416355419997,321.1416355419997,321.1416355419997,321.1416355419997,321.0583039163331,321.1416355419997,321.1416355419997,321.1416355419997,321.0583039163331,321.1416355419997,321.1416355419997,321.1416355419997,323.21546962499997,,321.1416355419997,321.1416355419997,326.32508762499947,321.1416355419997,321.1416355419997,321.1416355419997,321.1416355419997,321.6125992919997,322.6495557919998,321.5818925416663,,323.21546962499997,324.2536441249995,323.1845002496668,,321.1416355419997,326.32508762499947,321.1416355419997,326.32508762499947,326.36618983300013,327.0314301669996,321.1416355419997,2,1,1.2116978330004713,reldom2_s008,001,2025-02-06_12h58.40.440,Aud-A-Scan_AC,2022.2.5,None,
27,First_Order,5.0,audwhere,stimulus/audwhere_stim/dummy.wav,stimulus/audwhere_stim/dummy.wav,stimulus/audwhere_stim/left_away_300h.wav,stimulus/audwhere_stim/right_away_290h.wav,stimulus/audwhere_stim/blank_white.png,stimulus/audwhere_stim/direction_box.png,stimulus/audwhere_stim/direction_yes.png,stimulus/audwhere_stim/direction_no.png,None,Direction,None,Direction,1,0.0,0,5.125,0,5.125,0,5.125,0,0.0,0.625,0,0,0,0,0,0,0,0,0,0.0,0,0.0,1,0.5,1,2.125,0,,,,,0,35,35,35,,,,,,,,,327.24794783299967,327.24794783299967,327.24794783299967,327.24794783299967,327.24794783299967,327.24794783299967,327.24794783299967,327.24794783299967,327.1647635003329,327.24794783299967,327.24794783299967,327.24794783299967,327.1647635003329,327.24794783299967,327.24794783299967,327.24794783299967,329.3393226669996,,327.24794783299967,327.24794783299967,332.4218984580002,327.24794783299967,327.24794783299967,327.24794783299967,327.24794783299967,327.72493716699955,328.7705415419996,327.6936887496661,,329.3393226669996,330.38558358299997,329.3087297086661,,327.24794783299967,332.4218984580002,327.24794783299967,332.4218984580002,332.4638247080002,333.1302155829999,327.24794783299967,1,1,1.3308039990006364,reldom2_s008,001,2025-02-06_12h58.40.440,Aud-A-Scan_AC,2022.2.5,None,
28,First_Order,5.0,audwhere,stimulus/audwhere_stim/dummy.wav,stimulus/audwhere_stim/dummy.wav,stimulus/audwhere_stim/left_away_290h.wav,stimulus/audwhere_stim/right_away_280h.wav,stimulus/audwhere_stim/blank_white.png,stimulus/audwhere_stim/direction_box.png,stimulus/audwhere_stim/direction_yes.png,stimulus/audwhere_stim/direction_no.png,None,Direction,None,Direction,1,0.0,0,5.125,0,5.125,0,5.125,0,0.0,0.625,0,0,0,0,0,0,0,0,0,0.0,0,0.0,1,0.5,1,2.125,0,,,,,0,36,36,36,,,,,,,,,333.34715204199983,333.34715204199983,333.34715204199983,333.34715204199983,333.34715204199983,333.34715204199983,333.34715204199983,333.34715204199983,333.2635489163332,333.34715204199983,333.34715204199983,333.34715204199983,333.2635489163332,333.34715204199983,333.34715204199983,333.34715204199983,335.44113262500014,,333.34715204199983,333.34715204199983,338.5267211669998,333.34715204199983,333.34715204199983,333.34715204199983,333.34715204199983,333.82183987499957,334.87405124999987,333.7910548746661,334.8264828749998,335.44113262500014,336.48655283300013,335.41034645866625,,333.34715204199983,338.5267211669998,333.34715204199983,338.5267211669998,338.56836937499975,339.2335286669995,333.34715204199983,1,1,1.287746750000224,reldom2_s008,001,2025-02-06_12h58.40.440,Aud-A-Scan_AC,2022.2.5,None,
0,0.0,None,fixation,stimulus/audwhere_stim/blank_white.png,stimulus/audwhere_stim/blank_white.png,stimulus/audwhat_stim/blank_white.png,stimulus/audwhat_stim/blank_white.png,stimulus/audwhere_stim/blank_white.png,stimulus/audwhere_stim/blank_white.png,stimulus/audwhere_stim/blank_white.png,stimulus/audwhere_stim/blank_white.png,0.0,0.0,0.0,0.0,0,0.0,0,0.0,0,0.0,0,0.0,0,0.0,0.0,0,0,0,0,0,0,0,0,0,0.0,0,0.0,0,0.0,0,0.0,9,,,,,0,37,37,37,,,,,,,,,339.47243654199974,339.47243654199974,339.47243654199974,339.47243654199974,339.47243654199974,339.47243654199974,339.47243654199974,339.47243654199974,339.36686200033284,339.47243654199974,339.47243654199974,339.47243654199974,339.36686200033284,339.47243654199974,339.47243654199974,339.47243654199974,339.47243654199974,339.47243654199974,339.47243654199974,339.47243654199974,339.47243654199974,339.47243654199974,339.47243654199974,339.47243654199974,339.47243654199974,339.47243654199974,339.47243654199974,339.4335286669995,339.47243654199974,339.47243654199974,339.47243654199974,339.4335286669995,339.47243654199974,339.47243654199974,339.47243654199974,339.47243654199974,339.47243654199974,344.70599458299966,344.70599458299966,348.6137512919995,None,0,,reldom2_s008,001,2025-02-06_12h58.40.440,Aud-A-Scan_AC,2022.2.5,None,
29,Second_Order,5.0,audwhere,stimulus/audwhere_stim/right_toward_270h.wav,stimulus/audwhere_stim/right_away_280h.wav,stimulus/audwhere_stim/left_toward_290h.wav,stimulus/audwhere_stim/left_away_290h.wav,stimulus/audwhere_stim/match_blank.png,stimulus/audwhere_stim/match_box.png,stimulus/audwhere_stim/match_yes.png,stimulus/audwhere_stim/match_no.png,1.0,Match,Side,Side,1,5.125,0,5.125,0,5.125,0,5.125,0,0.75,0.75,0,0,0,0,0,0,0,0,1,0.5,1,2.125,1,0.5,1,2.125,0,,,,,0,38,38,38,,,,,,,,,348.6137512919995,353.72998499999994,348.6137512919995,348.6137512919995,348.6137512919995,348.6137512919995,349.0683548750003,350.0666236669995,349.0808947496664,350.0742257920001,350.6896146250001,351.68719695799973,350.70137158366674,351.69514849999996,353.72998499999994,354.5601729170003,356.6314318750001,,354.5601729170003,354.5601729170003,359.73889116699957,354.5601729170003,354.5601729170003,354.5601729170003,354.5601729170003,355.03090970799985,356.06615758299995,354.9999839166669,,356.6314318750001,357.6684513330001,356.6004167086669,,354.5601729170003,359.73889116699957,354.5601729170003,359.73889116699957,359.73889116699957,,354.5601729170003,1,1,1.0624830830001883,reldom2_s008,001,2025-02-06_12h58.40.440,Aud-A-Scan_AC,2022.2.5,None,
30,Second_Order,5.0,audwhere,stimulus/audwhere_stim/left_toward_300h.wav,stimulus/audwhere_stim/left_away_290h.wav,stimulus/audwhere_stim/right_away_290h.wav,stimulus/audwhere_stim/right_toward_280h.wav,stimulus/audwhere_stim/match_blank.png,stimulus/audwhere_stim/match_box.png,stimulus/audwhere_stim/match_yes.png,stimulus/audwhere_stim/match_no.png,1.0,Match,Side,Side,1,5.125,0,5.125,0,5.125,0,5.125,0,0.625,0.625,0,0,0,0,0,0,0,0,1,0.5,1,2.125,1,0.5,1,2.125,0,,,,,0,39,39,39,,,,,,,,,360.5645410830002,365.68646895799975,360.5645410830002,360.5645410830002,360.5645410830002,360.5645410830002,361.01190479199977,362.01083966700025,361.02504416666693,362.01882062499953,362.6500547079995,363.64774962499996,362.66237491666675,363.6559769579999,365.68646895799975,366.4018065829996,368.4678985419996,,366.4018065829996,366.4018065829996,371.5687290830001,366.4018065829996,366.4018065829996,366.4018065829996,366.4018065829996,366.8717490829995,367.90412562500023,366.8411027916666,,368.4678985419996,369.50099370799944,368.4376628336661,,366.4018065829996,371.5687290830001,366.4018065829996,371.5687290830001,371.6101640420002,372.27086425000016,366.4018065829996,1,1,1.0480634579998878,reldom2_s008,001,2025-02-06_12h58.40.440,Aud-A-Scan_AC,2022.2.5,None,
0,0.0,None,fixation,stimulus/audwhere_stim/blank_white.png,stimulus/audwhere_stim/blank_white.png,stimulus/audwhat_stim/blank_white.png,stimulus/audwhat_stim/blank_white.png,stimulus/audwhere_stim/blank_white.png,stimulus/audwhere_stim/blank_white.png,stimulus/audwhere_stim/blank_white.png,stimulus/audwhere_stim/blank_white.png,0.0,0.0,0.0,0.0,0,0.0,0,0.0,0,0.0,0,0.0,0,0.0,0.0,0,0,0,0,0,0,0,0,0,0.0,0,0.0,0,0.0,0,0.0,9,,,,,0,40,40,40,,,,,,,,,372.50954487499985,372.50954487499985,372.50954487499985,372.50954487499985,372.50954487499985,372.50954487499985,372.50954487499985,372.50954487499985,372.4041975833335,372.50954487499985,372.50954487499985,372.50954487499985,372.4041975833335,372.50954487499985,372.50954487499985,372.50954487499985,372.50954487499985,372.50954487499985,372.50954487499985,372.50954487499985,372.50954487499985,372.50954487499985,372.50954487499985,372.50954487499985,372.50954487499985,372.50954487499985,372.50954487499985,372.4541975833335,372.50954487499985,372.50954487499985,372.50954487499985,372.4541975833335,372.50954487499985,372.50954487499985,372.50954487499985,372.50954487499985,372.50954487499985,377.7038580419994,377.7038580419994,381.74314508299994,None,0,,reldom2_s008,001,2025-02-06_12h58.40.440,Aud-A-Scan_AC,2022.2.5,None,
31,First_Order,6.0,audwhere,stimulus/audwhere_stim/dummy.wav,stimulus/audwhere_stim/dummy.wav,stimulus/audwhere_stim/left_away_300h.wav,stimulus/audwhere_stim/left_toward_300h.wav,stimulus/audwhere_stim/blank_white.png,stimulus/audwhere_stim/side_box.png,stimulus/audwhere_stim/side_yes.png,stimulus/audwhere_stim/side_no.png,None,Side,None,Side,1,0.0,0,5.125,0,5.125,0,5.125,0,0.0,0.625,0,0,0,0,0,0,0,0,0,0.0,0,0.0,1,0.5,1,2.125,0,,,,,0,41,41,41,,,,,,,,,381.74314508299994,381.74314508299994,381.74314508299994,381.74314508299994,381.74314508299994,381.74314508299994,381.74314508299994,381.74314508299994,381.66514120866634,381.74314508299994,381.74314508299994,381.74314508299994,381.66514120866634,381.74314508299994,381.74314508299994,381.74314508299994,383.81647854199946,,381.74314508299994,381.74314508299994,386.93074145799983,381.74314508299994,381.74314508299994,381.74314508299994,381.74314508299994,382.2139874579998,383.251546042,382.18344766666655,,383.81647854199946,384.8584150830002,383.78584354166674,,381.74314508299994,386.93074145799983,381.74314508299994,386.93074145799983,386.9726805419996,387.63674179200007,381.74314508299994,1,1,1.1407374580003307,reldom2_s008,001,2025-02-06_12h58.40.440,Aud-A-Scan_AC,2022.2.5,None,
32,First_Order,6.0,audwhere,stimulus/audwhere_stim/dummy.wav,stimulus/audwhere_stim/dummy.wav,stimulus/audwhere_stim/right_away_270h.wav,stimulus/audwhere_stim/left_away_280h.wav,stimulus/audwhere_stim/blank_white.png,stimulus/audwhere_stim/side_box.png,stimulus/audwhere_stim/side_yes.png,stimulus/audwhere_stim/side_no.png,None,Side,None,Direction,2,0.0,0,5.125,0,5.125,0,5.125,0,0.0,0.625,0,0,0,0,0,0,0,0,0,0.0,0,0.0,1,0.5,1,2.125,0,,,,,0,42,42,42,,,,,,,,,387.8538855830002,387.8538855830002,387.8538855830002,387.8538855830002,387.8538855830002,387.8538855830002,387.8538855830002,387.8538855830002,387.7700751253334,387.8538855830002,387.8538855830002,387.8538855830002,387.7700751253334,387.8538855830002,387.8538855830002,387.8538855830002,389.92940933299997,,387.8538855830002,387.8538855830002,393.0430852919999,387.8538855830002,387.8538855830002,387.8538855830002,387.8538855830002,388.3265142499995,389.36537891700027,388.2960035836661,,389.92940933299997,390.9697099999994,389.89847266666607,,387.8538855830002,393.0430852919999,387.8538855830002,393.0430852919999,393.08472687499943,393.7502817079994,387.8538855830002,2,1,1.1295660420000786,reldom2_s008,001,2025-02-06_12h58.40.440,Aud-A-Scan_AC,2022.2.5,None,
33,First_Order,6.0,audwhere,stimulus/audwhere_stim/dummy.wav,stimulus/audwhere_stim/dummy.wav,stimulus/audwhere_stim/left_toward_270h.wav,stimulus/audwhere_stim/left_away_270h.wav,stimulus/audwhere_stim/blank_white.png,stimulus/audwhere_stim/direction_box.png,stimulus/audwhere_stim/direction_yes.png,stimulus/audwhere_stim/direction_no.png,None,Direction,None,Side,2,0.0,0,5.125,0,5.125,0,5.125,0,0.0,0.625,0,0,0,0,0,0,0,0,0,0.0,0,0.0,1,0.5,1,2.125,0,,,,,0,43,43,43,,,,,,,,,393.96747920799953,393.96747920799953,393.96747920799953,393.96747920799953,393.96747920799953,393.96747920799953,393.96747920799953,393.96747920799953,393.88361504133275,393.96747920799953,393.96747920799953,393.96747920799953,393.88361504133275,393.96747920799953,393.96747920799953,393.96747920799953,396.05827750000026,,393.96747920799953,393.96747920799953,399.1471138329998,393.96747920799953,393.96747920799953,393.96747920799953,393.96747920799953,394.4461846670001,395.48945079199984,394.4142481666661,,396.05827750000026,397.11017566699957,396.02766945866665,397.06272383299984,393.96747920799953,399.1471138329998,393.96747920799953,399.1471138329998,399.18909212499966,399.8555338750002,393.96747920799953,2,1,1.530438708001384,reldom2_s008,001,2025-02-06_12h58.40.440,Aud-A-Scan_AC,2022.2.5,None,
34,First_Order,6.0,audwhere,stimulus/audwhere_stim/dummy.wav,stimulus/audwhere_stim/dummy.wav,stimulus/audwhere_stim/left_toward_300h.wav,stimulus/audwhere_stim/left_away_300h.wav,stimulus/audwhere_stim/blank_white.png,stimulus/audwhere_stim/side_box.png,stimulus/audwhere_stim/side_yes.png,stimulus/audwhere_stim/side_no.png,None,Side,None,Side,1,0.0,0,5.125,0,5.125,0,5.125,0,0.0,0.625,0,0,0,0,0,0,0,0,0,0.0,0,0.0,1,0.5,1,2.125,0,,,,,0,44,44,44,,,,,,,,,400.0734076669996,400.0734076669996,400.0734076669996,400.0734076669996,400.0734076669996,400.0734076669996,400.0734076669996,400.0734076669996,399.98886720833355,400.0734076669996,400.0734076669996,400.0734076669996,399.98886720833355,400.0734076669996,400.0734076669996,400.0734076669996,402.15301145800004,406.21107241699974,400.0734076669996,400.0734076669996,405.26910891700027,400.0734076669996,400.0734076669996,400.0734076669996,400.0734076669996,400.5476683329998,401.5867379579995,400.5165984166663,,402.15301145800004,403.19377283299946,402.12188720866675,,400.0734076669996,405.26910891700027,400.0734076669996,405.26910891700027,405.26910891700027,405.93272541700026,400.0734076669996,2,0,2.1928583740009344,reldom2_s008,001,2025-02-06_12h58.40.440,Aud-A-Scan_AC,2022.2.5,None,
0,0.0,None,fixation,stimulus/audwhere_stim/blank_white.png,stimulus/audwhere_stim/blank_white.png,stimulus/audwhat_stim/blank_white.png,stimulus/audwhat_stim/blank_white.png,stimulus/audwhere_stim/blank_white.png,stimulus/audwhere_stim/blank_white.png,stimulus/audwhere_stim/blank_white.png,stimulus/audwhere_stim/blank_white.png,0.0,0.0,0.0,0.0,0,0.0,0,0.0,0,0.0,0,0.0,0,0.0,0.0,0,0,0,0,0,0,0,0,0,0.0,0,0.0,0,0.0,0,0.0,10,,,,,0,45,45,45,,,,,,,,,406.21107241699974,406.21107241699974,406.21107241699974,406.21107241699974,406.21107241699974,406.21107241699974,406.21107241699974,406.21107241699974,406.1071413753335,406.21107241699974,406.21107241699974,406.21107241699974,406.1071413753335,406.21107241699974,406.21107241699974,406.21107241699974,406.21107241699974,406.21107241699974,406.21107241699974,406.21107241699974,406.21107241699974,406.21107241699974,406.21107241699974,406.21107241699974,406.21107241699974,406.21107241699974,406.21107241699974,406.15714137533354,406.21107241699974,406.21107241699974,406.21107241699974,406.15714137533354,406.21107241699974,406.21107241699974,406.21107241699974,406.21107241699974,406.21107241699974,411.4336231669995,411.4336231669995,416.36849724999956,None,0,,reldom2_s008,001,2025-02-06_12h58.40.440,Aud-A-Scan_AC,2022.2.5,None,
35,Second_Order,6.0,audwhere,stimulus/audwhere_stim/left_away_280h.wav,stimulus/audwhere_stim/left_toward_300h.wav,stimulus/audwhere_stim/right_away_280h.wav,stimulus/audwhere_stim/right_toward_300h.wav,stimulus/audwhere_stim/match_blank.png,stimulus/audwhere_stim/match_box.png,stimulus/audwhere_stim/match_yes.png,stimulus/audwhere_stim/match_no.png,1.0,Match,Side,Side,1,5.125,0,5.125,0,5.125,0,5.125,0,0.75,0.75,0,0,0,0,0,0,0,0,1,0.5,1,2.125,1,0.5,1,2.125,0,,,,,0,46,46,46,,,,,,,,,416.36849724999956,421.4857950830001,416.36849724999956,416.36849724999956,416.36849724999956,416.36849724999956,416.82338141699984,417.8094814999995,416.8373087496668,417.83073524999963,418.44524762499987,419.4432296670002,418.45769970866627,419.452611875,421.4857950830001,422.3161694579994,424.3943263330002,428.3323928330001,422.3161694579994,422.3161694579994,427.50885349999953,422.3161694579994,422.3161694579994,422.3161694579994,422.3161694579994,422.7896900420001,423.82744170800015,422.7594244166669,,424.3943263330002,425.4353461669998,424.36298229166664,,422.3161694579994,427.50885349999953,422.3161694579994,427.50885349999953,427.50885349999953,,422.3161694579994,1,1,0.8952932490010426,reldom2_s008,001,2025-02-06_12h58.40.440,Aud-A-Scan_AC,2022.2.5,None,
36,Second_Order,6.0,audwhere,stimulus/audwhere_stim/left_away_290h.wav,stimulus/audwhere_stim/left_toward_270h.wav,stimulus/audwhere_stim/left_toward_290h.wav,stimulus/audwhere_stim/right_toward_270h.wav,stimulus/audwhere_stim/match_blank.png,stimulus/audwhere_stim/match_box.png,stimulus/audwhere_stim/match_yes.png,stimulus/audwhere_stim/match_no.png,2.0,Match,Side,Direction,2,5.125,0,5.125,0,5.125,0,5.125,0,0.625,0.625,0,0,0,0,0,0,0,0,1,0.5,1,2.125,1,0.5,1,2.125,0,,,,,0,47,47,47,,,,,,,,,428.3323928330001,433.4467100419997,428.3323928330001,428.3323928330001,428.3323928330001,428.3323928330001,428.7859619999999,429.78384645799997,428.7983818336663,429.7917421249995,430.4068749580001,431.40399737499956,430.4184196246663,431.41189162499995,433.4467100419997,434.1601257499997,436.22679504200005,,434.1601257499997,434.1601257499997,439.33068212499984,434.1601257499997,434.1601257499997,434.1601257499997,434.1601257499997,434.62896504199944,435.66142316700007,434.59928283366685,,436.22679504200005,437.2642609579998,436.19683433366686,,434.1601257499997,439.33068212499984,434.1601257499997,439.33068212499984,439.37292937500024,440.03399595799965,434.1601257499997,2,1,2.1098930000007385,reldom2_s008,001,2025-02-06_12h58.40.440,Aud-A-Scan_AC,2022.2.5,None,
0,0.0,None,fixation,stimulus/audwhere_stim/blank_white.png,stimulus/audwhere_stim/blank_white.png,stimulus/audwhat_stim/blank_white.png,stimulus/audwhat_stim/blank_white.png,stimulus/audwhere_stim/blank_white.png,stimulus/audwhere_stim/blank_white.png,stimulus/audwhere_stim/blank_white.png,stimulus/audwhere_stim/blank_white.png,0.0,0.0,0.0,0.0,0,0.0,0,0.0,0,0.0,0,0.0,0,0.0,0.0,0,0,0,0,0,0,0,0,0,0.0,0,0.0,0,0.0,0,0.0,9,,,,,0,48,48,48,,,,,,,,,440.2706089579997,440.2706089579997,440.2706089579997,440.2706089579997,440.2706089579997,440.2706089579997,440.2706089579997,440.2706089579997,440.167329291333,440.2706089579997,440.2706089579997,440.2706089579997,440.167329291333,440.2706089579997,440.2706089579997,440.2706089579997,440.2706089579997,440.2706089579997,440.2706089579997,440.2706089579997,440.2706089579997,440.2706089579997,440.2706089579997,440.2706089579997,440.2706089579997,440.2706089579997,440.2706089579997,440.217329291333,440.2706089579997,440.2706089579997,440.2706089579997,440.217329291333,440.2706089579997,440.2706089579997,440.2706089579997,440.2706089579997,440.2706089579997,445.46253462499953,445.46253462499953,449.49671975,None,0,,reldom2_s008,001,2025-02-06_12h58.40.440,Aud-A-Scan_AC,2022.2.5,None,
37,First_Order,7.0,audwhat,stimulus/audwhat_stim/dummy.wav,stimulus/audwhat_stim/dummy.wav,stimulus/audwhat_stim/string cello_low-pitch_Ftri_loud.wav,stimulus/audwhat_stim/string cello_high-pitch_D_loud.wav,stimulus/audwhat_stim/blank_white.png,stimulus/audwhat_stim/pitch_box.png,stimulus/audwhat_stim/pitch_yes.png,stimulus/audwhat_stim/pitch_no.png,None,Pitch,None,Category,2,0.0,0,5.125,0,5.125,0,5.125,0,0.0,0.625,0,0,0,0,0,0,0,0,0,0.0,0,0.0,1,0.5,1,2.125,0,,,,,0,49,49,49,,,,,,,,,449.49671975,449.49671975,449.49671975,449.49671975,449.49671975,449.49671975,449.49671975,449.49671975,449.4196171246664,449.49671975,449.49671975,449.49671975,449.4196171246664,449.49671975,449.49671975,449.49671975,451.61084429199946,455.62708266699974,449.49671975,449.49671975,454.66271716699976,449.49671975,449.49671975,449.49671975,449.49671975,449.96843479200015,451.0040884170003,449.93801699966684,,451.61084429199946,452.6468101669998,451.5806971246668,,449.49671975,454.66271716699976,449.49671975,454.66271716699976,454.7044439169995,455.3688124170003,449.49671975,2,1,2.822650416000215,reldom2_s008,001,2025-02-06_12h58.40.440,Aud-A-Scan_AC,2022.2.5,None,
38,First_Order,7.0,audwhat,stimulus/audwhat_stim/dummy.wav,stimulus/audwhat_stim/dummy.wav,stimulus/audwhat_stim/string cello_low-pitch_D_loud.wav,stimulus/audwhat_stim/string cello_high-pitch_Ftri_loud.wav,stimulus/audwhat_stim/blank_white.png,stimulus/audwhat_stim/pitch_box.png,stimulus/audwhat_stim/pitch_yes.png,stimulus/audwhat_stim/pitch_no.png,None,Pitch,None,Category,2,0.0,0,5.125,0,5.125,0,5.125,0,0.0,0.625,0,0,0,0,0,0,0,0,0,0.0,0,0.0,1,0.5,1,2.125,0,,,,,0,50,50,50,,,,,,,,,455.62708266699974,455.62708266699974,455.62708266699974,455.62708266699974,455.62708266699974,455.62708266699974,455.62708266699974,455.62708266699974,455.5435566253328,455.62708266699974,455.62708266699974,455.62708266699974,455.5435566253328,455.62708266699974,455.62708266699974,455.62708266699974,457.7006892499994,,455.62708266699974,455.62708266699974,460.81158895799945,455.62708266699974,455.62708266699974,455.62708266699974,455.62708266699974,456.09870545800004,457.1370555829999,456.06781116666684,,457.7006892499994,458.73965150000004,457.67033620866664,,455.62708266699974,460.81158895799945,455.62708266699974,460.81158895799945,460.85349658299947,461.5160227079996,455.62708266699974,2,1,1.4752321240011952,reldom2_s008,001,2025-02-06_12h58.40.440,Aud-A-Scan_AC,2022.2.5,None,
39,First_Order,7.0,audwhat,stimulus/audwhat_stim/dummy.wav,stimulus/audwhat_stim/dummy.wav,stimulus/audwhat_stim/percussion xylophone_high-pitch_Dtri_loud.wav,stimulus/audwhat_stim/string cello_high-pitch_Dtri_loud.wav,stimulus/audwhat_stim/blank_white.png,stimulus/audwhat_stim/pitch_box.png,stimulus/audwhat_stim/pitch_yes.png,stimulus/audwhat_stim/pitch_no.png,None,Pitch,None,Pitch,1,0.0,0,5.125,0,5.125,0,5.125,0,0.0,0.625,0,0,0,0,0,0,0,0,0,0.0,0,0.0,1,0.5,1,2.125,0,,,,,0,51,51,51,,,,,,,,,461.7341863749998,461.7341863749998,461.7341863749998,461.7341863749998,461.7341863749998,461.7341863749998,461.7341863749998,461.7341863749998,461.6493560413329,461.7341863749998,461.7341863749998,461.7341863749998,461.6493560413329,461.7341863749998,461.7341863749998,461.7341863749998,463.8145637919997,467.8528730420003,461.7341863749998,461.7341863749998,466.93083291699986,461.7341863749998,461.7341863749998,461.7341863749998,461.7341863749998,462.2064299169997,463.2498947080003,462.1755576246662,463.2498947080003,463.8145637919997,464.8567856669997,463.78393358366634,,461.7341863749998,466.93083291699986,461.7341863749998,466.93083291699986,466.93083291699986,467.59400395800003,461.7341863749998,1,1,0.7268801239997629,reldom2_s008,001,2025-02-06_12h58.40.440,Aud-A-Scan_AC,2022.2.5,None,
40,First_Order,7.0,audwhat,stimulus/audwhat_stim/dummy.wav,stimulus/audwhat_stim/dummy.wav,stimulus/audwhat_stim/string cello_low-pitch_D_loud.wav,stimulus/audwhat_stim/percussion mallet_low-pitch_D_loud.wav,stimulus/audwhat_stim/blank_white.png,stimulus/audwhat_stim/pitch_box.png,stimulus/audwhat_stim/pitch_yes.png,stimulus/audwhat_stim/pitch_no.png,None,Pitch,None,Pitch,1,0.0,0,5.125,0,5.125,0,5.125,0,0.0,0.625,0,0,0,0,0,0,0,0,0,0.0,0,0.0,1,0.5,1,2.125,0,,,,,0,52,52,52,,,,,,,,,467.8528730420003,467.8528730420003,467.8528730420003,467.8528730420003,467.8528730420003,467.8528730420003,467.8528730420003,467.8528730420003,467.76915350033335,467.8528730420003,467.8528730420003,467.8528730420003,467.76915350033335,467.8528730420003,467.8528730420003,467.8528730420003,469.9317328749994,473.995752625,467.8528730420003,467.8528730420003,473.0098303329996,467.8528730420003,467.8528730420003,467.8528730420003,467.8528730420003,468.32374258300024,469.3655357079997,468.2928929166667,,469.9317328749994,470.977042083,469.9010109166668,,467.8528730420003,473.0098303329996,467.8528730420003,473.0098303329996,473.0512253329998,473.71714520800015,467.8528730420003,1,1,0.8890974580008333,reldom2_s008,001,2025-02-06_12h58.40.440,Aud-A-Scan_AC,2022.2.5,None,
0,0.0,None,fixation,stimulus/audwhere_stim/blank_white.png,stimulus/audwhere_stim/blank_white.png,stimulus/audwhat_stim/blank_white.png,stimulus/audwhat_stim/blank_white.png,stimulus/audwhere_stim/blank_white.png,stimulus/audwhere_stim/blank_white.png,stimulus/audwhere_stim/blank_white.png,stimulus/audwhere_stim/blank_white.png,0.0,0.0,0.0,0.0,0,0.0,0,0.0,0,0.0,0,0.0,0,0.0,0.0,0,0,0,0,0,0,0,0,0,0.0,0,0.0,0,0.0,0,0.0,10,,,,,0,53,53,53,,,,,,,,,473.995752625,473.995752625,473.995752625,473.995752625,473.995752625,473.995752625,473.995752625,473.995752625,473.89198408333334,473.995752625,473.995752625,473.995752625,473.89198408333334,473.995752625,473.995752625,473.995752625,473.995752625,473.995752625,473.995752625,473.995752625,473.995752625,473.995752625,473.995752625,473.995752625,473.995752625,473.995752625,473.995752625,473.94198408333335,473.995752625,473.995752625,473.995752625,473.94198408333335,473.995752625,473.995752625,473.995752625,473.995752625,473.995752625,479.22196916699977,479.22196916699977,484.1710947499996,None,0,,reldom2_s008,001,2025-02-06_12h58.40.440,Aud-A-Scan_AC,2022.2.5,None,
41,Second_Order,7.0,audwhat,stimulus/audwhat_stim/percussion xylophone_high-pitch_Ftri_loud.wav,stimulus/audwhat_stim/percussion mallet_low-pitch_Dtri_loud.wav,stimulus/audwhat_stim/string viola_low-pitch_Ftri_loud.wav,stimulus/audwhat_stim/percussion mallet_low-pitch_Ftri_loud.wav,stimulus/audwhere_stim/match_blank.png,stimulus/audwhat_stim/match_box.png,stimulus/audwhere_stim/match_yes.png,stimulus/audwhere_stim/match_no.png,2.0,Match,Category,Pitch,2,5.125,0,5.125,0,5.125,0,5.125,0,0.75,0.75,0,0,0,0,0,0,0,0,1,0.5,1,2.125,1,0.5,1,2.125,0,,,,,0,54,54,54,,,,,,,,,484.1710947499996,489.2941606249997,484.1710947499996,484.1710947499996,484.1710947499996,484.1710947499996,484.6273788749995,485.6163257500002,484.63037370866664,485.6292277499997,486.25326479199975,487.2498357079994,486.2641566666664,487.2596680830002,489.2941606249997,490.12324875000013,492.19522054200024,496.14095995800017,490.12324875000013,490.12324875000013,495.31559495799956,490.12324875000013,490.12324875000013,490.12324875000013,490.12324875000013,490.5954883329996,491.6307362919997,490.5650516666667,,492.19522054200024,493.2395001249997,492.1643614586667,,490.12324875000013,495.31559495799956,490.12324875000013,495.31559495799956,495.31559495799956,,490.12324875000013,1,0,0.514266208000663,reldom2_s008,001,2025-02-06_12h58.40.440,Aud-A-Scan_AC,2022.2.5,None,
42,Second_Order,7.0,audwhat,stimulus/audwhat_stim/string cello_high-pitch_Dtri_loud.wav,stimulus/audwhat_stim/percussion mallet_high-pitch_Dtri_loud.wav,stimulus/audwhat_stim/percussion mallet_low-pitch_D_loud.wav,stimulus/audwhat_stim/string cello_low-pitch_D_loud.wav,stimulus/audwhere_stim/match_blank.png,stimulus/audwhat_stim/match_box.png,stimulus/audwhere_stim/match_yes.png,stimulus/audwhere_stim/match_no.png,1.0,Match,Pitch,Pitch,1,5.125,0,5.125,0,5.125,0,5.125,0,0.625,0.625,0,0,0,0,0,0,0,0,1,0.5,1,2.125,1,0.5,1,2.125,0,,,,,0,55,55,55,,,,,,,,,496.14095995800017,501.2533475419996,496.14095995800017,496.14095995800017,496.14095995800017,496.14095995800017,496.59188924999944,497.5902998749998,496.6042607916663,,498.22508062499946,499.21965241699945,498.2284612496662,499.21965241699945,501.2533475419996,501.9653523750003,504.03081849999944,,501.9653523750003,501.9653523750003,507.1376537919996,501.9653523750003,501.9653523750003,501.9653523750003,501.9653523750003,502.43524533300024,503.46921333299997,502.4038501246662,,504.03081849999944,505.0679240829995,504.0003033746664,,501.9653523750003,507.1376537919996,501.9653523750003,507.1376537919996,507.1793815000001,507.84081499999957,501.9653523750003,1,1,1.0852625830011675,reldom2_s008,001,2025-02-06_12h58.40.440,Aud-A-Scan_AC,2022.2.5,None,
0,0.0,None,fixation,stimulus/audwhere_stim/blank_white.png,stimulus/audwhere_stim/blank_white.png,stimulus/audwhat_stim/blank_white.png,stimulus/audwhat_stim/blank_white.png,stimulus/audwhere_stim/blank_white.png,stimulus/audwhere_stim/blank_white.png,stimulus/audwhere_stim/blank_white.png,stimulus/audwhere_stim/blank_white.png,0.0,0.0,0.0,0.0,0,0.0,0,0.0,0,0.0,0,0.0,0,0.0,0.0,0,0,0,0,0,0,0,0,0,0.0,0,0.0,0,0.0,0,0.0,9,,,,,0,56,56,56,,,,,,,,,508.0795740419999,508.0795740419999,508.0795740419999,508.0795740419999,508.0795740419999,508.0795740419999,508.0795740419999,508.0795740419999,507.9741483333329,508.0795740419999,508.0795740419999,508.0795740419999,507.9741483333329,508.0795740419999,508.0795740419999,508.0795740419999,508.0795740419999,508.0795740419999,508.0795740419999,508.0795740419999,508.0795740419999,508.0795740419999,508.0795740419999,508.0795740419999,508.0795740419999,508.0795740419999,508.0795740419999,508.04081499999955,508.0795740419999,508.0795740419999,508.0795740419999,508.04081499999955,508.0795740419999,508.0795740419999,508.0795740419999,508.0795740419999,508.0795740419999,513.2791092079997,513.2791092079997,517.3267288750003,None,0,,reldom2_s008,001,2025-02-06_12h58.40.440,Aud-A-Scan_AC,2022.2.5,None,
43,First_Order,8.0,audwhat,stimulus/audwhat_stim/dummy.wav,stimulus/audwhat_stim/dummy.wav,stimulus/audwhat_stim/string viola_low-pitch_F_loud.wav,stimulus/audwhat_stim/percussion mallet_low-pitch_F_loud.wav,stimulus/audwhat_stim/blank_white.png,stimulus/audwhat_stim/category_box.png,stimulus/audwhat_stim/category_yes.png,stimulus/audwhat_stim/category_no.png,None,Category,None,Pitch,2,0.0,0,5.125,0,5.125,0,5.125,0,0.0,0.625,0,0,0,0,0,0,0,0,0,0.0,0,0.0,1,0.5,1,2.125,0,,,,,0,57,57,57,,,,,,,,,517.3267288750003,517.3267288750003,517.3267288750003,517.3267288750003,517.3267288750003,517.3267288750003,517.3267288750003,517.3267288750003,517.2479371246669,517.3267288750003,517.3267288750003,517.3267288750003,517.2479371246669,517.3267288750003,517.3267288750003,517.3267288750003,519.4153303329995,,517.3267288750003,517.3267288750003,522.4925364999999,517.3267288750003,517.3267288750003,517.3267288750003,517.3267288750003,517.8025910830002,518.8472633330002,517.7716824996662,,519.4153303329995,520.4617842919997,519.3844244586664,,517.3267288750003,522.4925364999999,517.3267288750003,522.4925364999999,522.5344055420001,523.2016921670001,517.3267288750003,2,1,0.6965075830003116,reldom2_s008,001,2025-02-06_12h58.40.440,Aud-A-Scan_AC,2022.2.5,None,
44,First_Order,8.0,audwhat,stimulus/audwhat_stim/dummy.wav,stimulus/audwhat_stim/dummy.wav,stimulus/audwhat_stim/percussion mallet_low-pitch_Dtri_loud.wav,stimulus/audwhat_stim/percussion xylophone_high-pitch_F_loud.wav,stimulus/audwhat_stim/blank_white.png,stimulus/audwhat_stim/category_box.png,stimulus/audwhat_stim/category_yes.png,stimulus/audwhat_stim/category_no.png,None,Category,None,Category,1,0.0,0,5.125,0,5.125,0,5.125,0,0.0,0.625,0,0,0,0,0,0,0,0,0,0.0,0,0.0,1,0.5,1,2.125,0,,,,,0,58,58,58,,,,,,,,,523.4191935419994,523.4191935419994,523.4191935419994,523.4191935419994,523.4191935419994,523.4191935419994,523.4191935419994,523.4191935419994,523.3350255003335,523.4191935419994,523.4191935419994,523.4191935419994,523.3350255003335,523.4191935419994,523.4191935419994,523.4191935419994,525.5137319999994,,523.4191935419994,523.4191935419994,528.5992717919999,523.4191935419994,523.4191935419994,523.4191935419994,523.4191935419994,523.8950815420003,524.946306375,523.8638166246667,524.898901083,525.5137319999994,526.5656086250001,525.4824015836668,526.5656086250001,523.4191935419994,528.5992717919999,523.4191935419994,528.5992717919999,528.6409132919998,529.3068446249999,523.4191935419994,1,1,0.994228125000518,reldom2_s008,001,2025-02-06_12h58.40.440,Aud-A-Scan_AC,2022.2.5,None,
45,First_Order,8.0,audwhat,stimulus/audwhat_stim/dummy.wav,stimulus/audwhat_stim/dummy.wav,stimulus/audwhat_stim/string cello_high-pitch_Dtri_loud.wav,stimulus/audwhat_stim/percussion xylophone_high-pitch_Dtri_loud.wav,stimulus/audwhat_stim/blank_white.png,stimulus/audwhat_stim/category_box.png,stimulus/audwhat_stim/category_yes.png,stimulus/audwhat_stim/category_no.png,None,Category,None,Pitch,2,0.0,0,5.125,0,5.125,0,5.125,0,0.0,0.625,0,0,0,0,0,0,0,0,0,0.0,0,0.0,1,0.5,1,2.125,0,,,,,0,59,59,59,,,,,,,,,529.5260137079995,529.5260137079995,529.5260137079995,529.5260137079995,529.5260137079995,529.5260137079995,529.5260137079995,529.5260137079995,529.4401779583333,529.5260137079995,529.5260137079995,529.5260137079995,529.4401779583333,529.5260137079995,529.5260137079995,529.5260137079995,531.6159321249997,,529.5260137079995,529.5260137079995,534.7063115829997,529.5260137079995,529.5260137079995,529.5260137079995,529.5260137079995,529.9994356669995,531.0460927919994,529.9686509166661,,531.6159321249997,532.6642492499996,531.5843989586667,532.6642492499996,529.5260137079995,534.7063115829997,529.5260137079995,534.7063115829997,534.7484622920001,535.4148303330003,529.5260137079995,2,1,1.615642041000683,reldom2_s008,001,2025-02-06_12h58.40.440,Aud-A-Scan_AC,2022.2.5,None,
46,First_Order,8.0,audwhat,stimulus/audwhat_stim/dummy.wav,stimulus/audwhat_stim/dummy.wav,stimulus/audwhat_stim/percussion mallet_low-pitch_Ftri_loud.wav,stimulus/audwhat_stim/percussion mallet_high-pitch_F_loud.wav,stimulus/audwhat_stim/blank_white.png,stimulus/audwhat_stim/category_box.png,stimulus/audwhat_stim/category_yes.png,stimulus/audwhat_stim/category_no.png,None,Category,None,Category,1,0.0,0,5.125,0,5.125,0,5.125,0,0.0,0.625,0,0,0,0,0,0,0,0,0,0.0,0,0.0,1,0.5,1,2.125,0,,,,,0,60,60,60,,,,,,,,,535.6328147499999,535.6328147499999,535.6328147499999,535.6328147499999,535.6328147499999,535.6328147499999,535.6328147499999,535.6328147499999,535.5481636663336,535.6328147499999,535.6328147499999,535.6328147499999,535.5481636663336,535.6328147499999,535.6328147499999,535.6328147499999,537.7261794169999,541.77458475,535.6328147499999,535.6328147499999,540.822422792,535.6328147499999,535.6328147499999,535.6328147499999,535.6328147499999,536.1083012079998,537.1588886669997,536.0777018746669,537.1118286669998,537.7261794169999,538.7793445830002,537.6952377916662,538.7318875419996,535.6328147499999,540.822422792,535.6328147499999,540.822422792,540.8646282499994,541.5349412079995,535.6328147499999,1,1,1.3161286660006226,reldom2_s008,001,2025-02-06_12h58.40.440,Aud-A-Scan_AC,2022.2.5,None,
0,0.0,None,fixation,stimulus/audwhere_stim/blank_white.png,stimulus/audwhere_stim/blank_white.png,stimulus/audwhat_stim/blank_white.png,stimulus/audwhat_stim/blank_white.png,stimulus/audwhere_stim/blank_white.png,stimulus/audwhere_stim/blank_white.png,stimulus/audwhere_stim/blank_white.png,stimulus/audwhere_stim/blank_white.png,0.0,0.0,0.0,0.0,0,0.0,0,0.0,0,0.0,0,0.0,0,0.0,0.0,0,0,0,0,0,0,0,0,0,0.0,0,0.0,0,0.0,0,0.0,8,,,,,0,61,61,61,,,,,,,,,541.77458475,541.77458475,541.77458475,541.77458475,541.77458475,541.77458475,541.77458475,541.77458475,541.6682745413328,541.77458475,541.77458475,541.77458475,541.6682745413328,541.77458475,541.77458475,541.77458475,541.77458475,541.77458475,541.77458475,541.77458475,541.77458475,541.77458475,541.77458475,541.77458475,541.77458475,541.77458475,541.77458475,541.7349412079994,541.77458475,541.77458475,541.77458475,541.7349412079994,541.77458475,541.77458475,541.77458475,541.77458475,541.77458475,546.9603414169997,546.9603414169997,549.9401729579995,None,0,,reldom2_s008,001,2025-02-06_12h58.40.440,Aud-A-Scan_AC,2022.2.5,None,
47,Second_Order,8.0,audwhat,stimulus/audwhat_stim/string cello_high-pitch_F_loud.wav,stimulus/audwhat_stim/string viola_low-pitch_D_loud.wav,stimulus/audwhat_stim/percussion mallet_low-pitch_Ftri_loud.wav,stimulus/audwhat_stim/percussion xylophone_high-pitch_F_loud.wav,stimulus/audwhere_stim/match_blank.png,stimulus/audwhat_stim/match_box.png,stimulus/audwhere_stim/match_yes.png,stimulus/audwhere_stim/match_no.png,1.0,Match,Category,Category,1,5.125,0,5.125,0,5.125,0,5.125,0,0.75,0.75,0,0,0,0,0,0,0,0,1,0.5,1,2.125,1,0.5,1,2.125,0,,,,,0,62,62,62,,,,,,,,,549.9401729579995,555.0615132920002,549.9401729579995,549.9401729579995,549.9401729579995,549.9401729579995,550.3955517079994,551.3847377080001,550.4016247086668,,552.0201630829997,553.0181842080001,552.0323876666664,,555.0615132920002,555.8942707079996,557.96704675,561.9146791249996,555.8942707079996,555.8942707079996,561.0886905420002,555.8942707079996,555.8942707079996,555.8942707079996,555.8942707079996,556.3642130420003,557.4015788750003,556.3336726666669,,557.96704675,559.0155551669995,557.9366832086664,559.0155551669995,555.8942707079996,561.0886905420002,555.8942707079996,561.0886905420002,561.0886905420002,,555.8942707079996,1,1,0.7223099170005298,reldom2_s008,001,2025-02-06_12h58.40.440,Aud-A-Scan_AC,2022.2.5,None,
48,Second_Order,8.0,audwhat,stimulus/audwhat_stim/percussion mallet_high-pitch_Ftri_loud.wav,stimulus/audwhat_stim/percussion mallet_low-pitch_D_loud.wav,stimulus/audwhat_stim/string cello_high-pitch_Ftri_loud.wav,stimulus/audwhat_stim/percussion xylophone_high-pitch_Ftri_loud.wav,stimulus/audwhere_stim/match_blank.png,stimulus/audwhat_stim/match_box.png,stimulus/audwhere_stim/match_yes.png,stimulus/audwhere_stim/match_no.png,2.0,Match,Category,Pitch,2,5.125,0,5.125,0,5.125,0,5.125,0,0.625,0.625,0,0,0,0,0,0,0,0,1,0.5,1,2.125,1,0.5,1,2.125,0,,,,,0,63,63,63,,,,,,,,,561.9146791249996,567.038769625,561.9146791249996,561.9146791249996,561.9146791249996,561.9146791249996,562.3605608329999,563.3585175829994,562.3731507916666,563.3670306670001,563.9979910000002,564.9954225829997,564.0101209996667,565.0031991670003,567.038769625,567.7482669579995,569.8144942079998,,567.7482669579995,567.7482669579995,572.92425,567.7482669579995,567.7482669579995,567.7482669579995,567.7482669579995,568.2193756669994,569.2520530419997,568.1886493746663,,569.8144942079998,570.8555167079994,569.7839779996668,570.8555167079994,567.7482669579995,572.92425,567.7482669579995,572.92425,572.9655748329997,573.630145958,567.7482669579995,2,1,2.0254326660005972,reldom2_s008,001,2025-02-06_12h58.40.440,Aud-A-Scan_AC,2022.2.5,None,
0,0.0,None,fixation,stimulus/audwhere_stim/blank_white.png,stimulus/audwhere_stim/blank_white.png,stimulus/audwhat_stim/blank_white.png,stimulus/audwhat_stim/blank_white.png,stimulus/audwhere_stim/blank_white.png,stimulus/audwhere_stim/blank_white.png,stimulus/audwhere_stim/blank_white.png,stimulus/audwhere_stim/blank_white.png,0.0,0.0,0.0,0.0,0,0.0,0,0.0,0,0.0,0,0.0,0,0.0,0.0,0,0,0,0,0,0,0,0,0,0.0,0,0.0,0,0.0,0,0.0,16,,,,,0,64,64,64,,,,,,,,,573.868720333,573.868720333,573.868720333,573.868720333,573.868720333,573.868720333,573.868720333,573.868720333,573.7634792913333,573.868720333,573.868720333,573.868720333,573.7634792913333,573.868720333,573.868720333,573.868720333,573.868720333,573.868720333,573.868720333,573.868720333,573.868720333,573.868720333,573.868720333,573.868720333,573.868720333,573.868720333,573.868720333,573.8301459579999,573.868720333,573.868720333,573.868720333,573.8301459579999,573.868720333,573.868720333,573.868720333,573.868720333,573.868720333,579.0628797499994,579.0628797499994,590.0421783330003,None,0,,reldom2_s008,001,2025-02-06_12h58.40.440,Aud-A-Scan_AC,2022.2.5,None,
