Trial,Order,Block,Type,Stimuli_File1,Stimuli_File2,Stimuli_File3,Stimuli_File4,Cue_File1,Cue_File2,Response_File_Yes,Response_File_No,Match,Cue_Dimension,Pair1_Dimension,Pair2_Dimension,Key,Cue1_Duration,Cue1_Onset,Cue2_Duration,Cue2_Onset,ResponseYes_Duration,ResponseYes_Onset,ResponseNo_Duration,ResponseNo_Onset,ITI_Within,ITI_Between,Image1_Duration,Image1_Onset,Image2_Duration,Image2_Onset,Image3_Duration,Image3_Onset,Image4_Duration,Image4_Onset,Sound1_Duration,Sound1_Onset,Sound2_Duration,Sound2_Onset,Sound3_Duration,Sound3_Onset,Sound4_Duration,Sound4_Onset,Fixation_Duration,trials_2.thisRepN,trials_2.thisTrialN,trials_2.thisN,trials_2.thisIndex,trials.thisRepN,trials.thisTrialN,trials.thisN,trials.thisIndex,text_start.started,key_resp_start.started,key_resp_start.keys,key_resp_start.rt,cue_file1.started,cue_file1.stopped,image_1.started,image_1.stopped,image_2.started,image_2.stopped,sound_icon1.started,sound_icon1.stopped,sound_1.started,sound_1.stopped,sound_icon2.started,sound_icon2.stopped,sound_2.started,sound_2.stopped,image_blank_1.started,image_blank_1.stopped,key_press.started,key_press.stopped,fixation_text.started,cue_file2.started,cue_file2.stopped,image_3.started,image_3.stopped,image_4.started,image_4.stopped,sound_icon3.started,sound_icon3.stopped,sound_3.started,sound_3.stopped,sound_icon4.started,sound_icon4.stopped,sound_4.started,sound_4.stopped,response_yes.started,response_yes.stopped,response_no.started,response_no.stopped,iti_blank.started,iti_blank.stopped,fixation_text.stopped,key_press.keys,key_press.corr,key_press.rt,text_score.started,participant,session,date,expName,psychopyVersion,frameRate,
,,,,,,,,,,,,,,,,,,,,,,,,,,,,,,,,,,,,,,,,,,,,,,,,,,,,18.915569908996986,18.915569908996986,2,1.3532472930091899,,,,,,,,,,,,,,,,,,,,,,,,,,,,,,,,,,,,,,,,,,,,,reldom2_s008,001,2025-02-06_11h35.19.878,audwhere_practice_AC,2022.2.5,None,
,,,,,,,,,,,,,,,,,,,,,,,,,,,,,,,,,,,,,,,,,,,,0,0,0,0,,,,,,,,,,,,,,,,,,,,,,,,,,,,,,,,,,,,,,,,,,,,,,,,,,,,,reldom2_s008,001,2025-02-06_11h35.19.878,audwhere_practice_AC,2022.2.5,None,
,,,,,,,,,,,,,,,,,,,,,,,,,,,,,,,,,,,,,,,,,,,,1,0,1,0,,,,,,,,,,,,,,,,,,,,,,,,,,,,,,,,,,,,,,,,,,,,,,,,,,,,,reldom2_s008,001,2025-02-06_11h35.19.878,audwhere_practice_AC,2022.2.5,None,
,,,,,,,,,,,,,,,,,,,,,,,,,,,,,,,,,,,,,,,,,,,,2,0,2,0,,,,,,,,,,,,,,,,,,,,,,,,,,,,,,,,,,,,,,,,,,,,,,,,,,,,,reldom2_s008,001,2025-02-06_11h35.19.878,audwhere_practice_AC,2022.2.5,None,
,,,,,,,,,,,,,,,,,,,,,,,,,,,,,,,,,,,,,,,,,,,,3,0,3,0,,,,,,,,,,,,,,,,,,,,,,,,,,,,,,,,,,,,,,,,,,,,,,,,,,,,,reldom2_s008,001,2025-02-06_11h35.19.878,audwhere_practice_AC,2022.2.5,None,
0,0.0,None,fixation,stimulus/audwhere_stim/blank_white.png,stimulus/audwhere_stim/blank_white.png,stimulus/audwhat_stim/blank_white.png,stimulus/audwhat_stim/blank_white.png,stimulus/audwhere_stim/blank_white.png,stimulus/audwhere_stim/blank_white.png,stimulus/audwhere_stim/blank_white.png,stimulus/audwhere_stim/blank_white.png,0.0,0.0,0.0,0.0,0,0.0,0,0.0,0,0.0,0,0.0,0,0.0,0.0,0,0,0,0,0,0,0,0,0,0.0,0,0.0,0,0.0,0,0.0,6,,,,,0,0,0,0,,,,,20.85388472199702,20.85388472199702,20.85388472199702,20.85388472199702,20.85388472199702,20.85388472199702,20.85388472199702,20.85388472199702,20.549986127327912,20.85388472199702,20.85388472199702,20.85388472199702,20.549986127327912,20.85388472199702,20.85388472199702,20.85388472199702,20.85388472199702,20.85388472199702,20.85388472199702,20.85388472199702,20.85388472199702,20.85388472199702,20.85388472199702,20.85388472199702,20.85388472199702,20.85388472199702,20.85388472199702,20.699986127327914,20.85388472199702,20.85388472199702,20.85388472199702,20.699986127327914,20.85388472199702,20.85388472199702,20.85388472199702,20.85388472199702,20.85388472199702,25.98840691199439,25.98840691199439,27.72717434199876,None,0,,,reldom2_s008,001,2025-02-06_11h35.19.878,audwhere_practice_AC,2022.2.5,None,
1,First_Order,1.0,audwhere,stimulus/audwhere_stim/dummy.wav,stimulus/audwhere_stim/dummy.wav,stimulus/audwhere_stim/left_toward_280h.wav,stimulus/audwhere_stim/right_toward_270h.wav,stimulus/audwhere_stim/blank_white.png,stimulus/audwhere_stim/direction_box.png,stimulus/audwhere_stim/direction_yes.png,stimulus/audwhere_stim/direction_no.png,None,Direction,None,Direction,1,0.0,0,5.25,0,5.25,0,5.25,0,0.0,0.75,0,0,0,0,0,0,0,0,0,0.0,0,0.0,1,0.5,1,2.125,0,,,,,0,1,1,1,,,,,27.72717434199876,27.72717434199876,27.72717434199876,27.72717434199876,27.72717434199876,27.72717434199876,27.72717434199876,27.72717434199876,27.384647070327386,27.72717434199876,27.72717434199876,27.72717434199876,27.384647070327386,27.72717434199876,27.72717434199876,27.72717434199876,29.782631818998198,33.59223014399322,27.72717434199876,27.72717434199876,33.294823446995,27.72717434199876,27.72717434199876,27.72717434199876,27.72717434199876,28.096541999999317,29.40796337199572,27.924763563660477,,29.782631818998198,31.10048844999983,29.616839348662566,,27.72717434199876,33.294823446995,27.72717434199876,33.294823446995,32.95650386899797,34.43771345099958,27.72717434199876,2,0,2.5576499850067194,,reldom2_s008,001,2025-02-06_11h35.19.878,audwhere_practice_AC,2022.2.5,None,
2,First_Order,1.0,audwhere,stimulus/audwhere_stim/dummy.wav,stimulus/audwhere_stim/dummy.wav,stimulus/audwhere_stim/left_toward_290h.wav,stimulus/audwhere_stim/right_toward_280h.wav,stimulus/audwhere_stim/blank_white.png,stimulus/audwhere_stim/direction_box.png,stimulus/audwhere_stim/direction_yes.png,stimulus/audwhere_stim/direction_no.png,None,Direction,None,Direction,1,0.0,0,5.25,0,5.25,0,5.25,0,0.0,0.75,0,0,0,0,0,0,0,0,0,0.0,0,0.0,1,0.5,1,2.125,0,,,,,0,2,2,2,,,,,34.43771345099958,34.43771345099958,34.43771345099958,34.43771345099958,34.43771345099958,34.43771345099958,34.43771345099958,34.43771345099958,34.13827223499393,34.43771345099958,34.43771345099958,34.43771345099958,34.13827223499393,34.43771345099958,34.43771345099958,34.43771345099958,36.47460461499577,40.41365003399551,34.43771345099958,34.43771345099958,39.95899304499471,34.43771345099958,34.43771345099958,34.43771345099958,34.43771345099958,34.808004496997455,36.102900452999165,34.63711746066498,,36.47460461499577,37.76726694399986,36.309248874666324,,34.43771345099958,39.95899304499471,34.43771345099958,39.95899304499471,39.627618262995384,41.14064921299723,34.43771345099958,1,1,1.9842372870043619,,reldom2_s008,001,2025-02-06_11h35.19.878,audwhere_practice_AC,2022.2.5,None,
3,First_Order,1.0,audwhere,stimulus/audwhere_stim/dummy.wav,stimulus/audwhere_stim/dummy.wav,stimulus/audwhere_stim/right_toward_290h.wav,stimulus/audwhere_stim/right_away_270h.wav,stimulus/audwhere_stim/blank_white.png,stimulus/audwhere_stim/side_box.png,stimulus/audwhere_stim/side_yes.png,stimulus/audwhere_stim/side_no.png,None,Side,None,Side,1,0.0,0,5.25,0,5.25,0,5.25,0,0.0,0.75,0,0,0,0,0,0,0,0,0,0.0,0,0.0,1,0.5,1,2.125,0,,,,,0,3,3,3,,,,,41.14064921299723,41.14064921299723,41.14064921299723,41.14064921299723,41.14064921299723,41.14064921299723,41.14064921299723,41.14064921299723,40.84698336732884,41.14064921299723,41.14064921299723,41.14064921299723,40.84698336732884,41.14064921299723,41.14064921299723,41.14064921299723,43.1616749869936,47.00813659499545,41.14064921299723,41.14064921299723,46.70637424299639,41.14064921299723,41.14064921299723,41.14064921299723,41.14064921299723,41.511316307995,42.79368908099423,41.34786013866348,,43.1616749869936,44.45472319499822,42.98966937466709,,41.14064921299723,46.70637424299639,41.14064921299723,46.70637424299639,46.371164589996624,47.87659578599414,41.14064921299723,1,1,2.513079911004752,,reldom2_s008,001,2025-02-06_11h35.19.878,audwhere_practice_AC,2022.2.5,None,
4,First_Order,1.0,audwhere,stimulus/audwhere_stim/dummy.wav,stimulus/audwhere_stim/dummy.wav,stimulus/audwhere_stim/right_away_280h.wav,stimulus/audwhere_stim/right_toward_290h.wav,stimulus/audwhere_stim/blank_white.png,stimulus/audwhere_stim/side_box.png,stimulus/audwhere_stim/side_yes.png,stimulus/audwhere_stim/side_no.png,None,Side,None,Side,1,0.0,0,5.25,0,5.25,0,5.25,0,0.0,0.75,0,0,0,0,0,0,0,0,0,0.0,0,0.0,1,0.5,1,2.125,0,,,,,0,4,4,4,,,,,47.87659578599414,47.87659578599414,47.87659578599414,47.87659578599414,47.87659578599414,47.87659578599414,47.87659578599414,47.87659578599414,47.588706818328255,47.87659578599414,47.87659578599414,47.87659578599414,47.588706818328255,47.87659578599414,47.87659578599414,47.87659578599414,49.905194283994206,53.72408462399471,47.87659578599414,47.87659578599414,53.42687544499495,47.87659578599414,47.87659578599414,47.87659578599414,47.87659578599414,48.248497819993645,49.53814051599329,48.08165699766347,,49.905194283994206,51.22916665299999,49.73898850966022,,47.87659578599414,53.42687544499495,47.87659578599414,53.42687544499495,53.08348490999924,54.584212687994295,47.87659578599414,1,1,2.6648783100026776,,reldom2_s008,001,2025-02-06_11h35.19.878,audwhere_practice_AC,2022.2.5,None,
0,0.0,None,fixation,stimulus/audwhere_stim/blank_white.png,stimulus/audwhere_stim/blank_white.png,stimulus/audwhat_stim/blank_white.png,stimulus/audwhat_stim/blank_white.png,stimulus/audwhere_stim/blank_white.png,stimulus/audwhere_stim/blank_white.png,stimulus/audwhere_stim/blank_white.png,stimulus/audwhere_stim/blank_white.png,0.0,0.0,0.0,0.0,0,0.0,0,0.0,0,0.0,0,0.0,0,0.0,0.0,0,0,0,0,0,0,0,0,0,0.0,0,0.0,0,0.0,0,0.0,6,,,,,0,5,5,5,,,,,54.584212687994295,54.584212687994295,54.584212687994295,54.584212687994295,54.584212687994295,54.584212687994295,54.584212687994295,54.584212687994295,54.27112109999725,54.584212687994295,54.584212687994295,54.584212687994295,54.27112109999725,54.584212687994295,54.584212687994295,54.584212687994295,54.584212687994295,54.584212687994295,54.584212687994295,54.584212687994295,54.584212687994295,54.584212687994295,54.584212687994295,54.584212687994295,54.584212687994295,54.584212687994295,54.584212687994295,54.42112109999725,54.584212687994295,54.584212687994295,54.584212687994295,54.42112109999725,54.584212687994295,54.584212687994295,54.584212687994295,54.584212687994295,54.584212687994295,59.769886581998435,59.769886581998435,61.15913523299969,None,0,,,reldom2_s008,001,2025-02-06_11h35.19.878,audwhere_practice_AC,2022.2.5,None,
5,Second_Order,1.0,audwhere,stimulus/audwhere_stim/right_toward_270h.wav,stimulus/audwhere_stim/left_toward_280h.wav,stimulus/audwhere_stim/left_away_270h.wav,stimulus/audwhere_stim/right_away_290h.wav,stimulus/audwhere_stim/match_blank.png,stimulus/audwhere_stim/match_box.png,stimulus/audwhere_stim/match_yes.png,stimulus/audwhere_stim/match_no.png,1.0,Match,Direction,Direction,1,5.25,0,5.25,0,5.25,0,5.25,0,0.75,0.75,0,0,0,0,0,0,0,0,1,0.5,1,2.125,1,0.5,1,2.125,0,,,,,0,6,6,6,,,,,61.15913523299969,66.40586717299448,61.15913523299969,61.15913523299969,61.15913523299969,61.15913523299969,61.50795397699403,62.51487925499532,61.506093959662635,,63.14330382499611,64.14727124699857,63.13878126966689,,66.40586717299448,67.45835334099684,69.4564140769944,73.39787466899725,67.45835334099684,67.45835334099684,72.95177803799743,67.45835334099684,67.45835334099684,67.45835334099684,67.45835334099684,67.9784204779935,69.26797807099501,67.8187712926631,,69.4564140769944,70.75324938699487,69.28464473766168,,67.45835334099684,72.95177803799743,67.45835334099684,72.95177803799743,72.62212232199818,73.79461082600028,67.45835334099684,1,1,1.5080181720040855,,reldom2_s008,001,2025-02-06_11h35.19.878,audwhere_practice_AC,2022.2.5,None,
6,Second_Order,1.0,audwhere,stimulus/audwhere_stim/left_toward_280h.wav,stimulus/audwhere_stim/left_away_290h.wav,stimulus/audwhere_stim/right_toward_300h.wav,stimulus/audwhere_stim/right_away_270h.wav,stimulus/audwhere_stim/match_blank.png,stimulus/audwhere_stim/match_box.png,stimulus/audwhere_stim/match_yes.png,stimulus/audwhere_stim/match_no.png,1.0,Match,Side,Side,1,5.25,0,5.25,0,5.25,0,5.25,0,0.75,0.75,0,0,0,0,0,0,0,0,1,0.5,1,2.125,1,0.5,1,2.125,0,,,,,0,7,7,7,,,,,73.79461082600028,79.05129927899543,73.79461082600028,73.79461082600028,73.79461082600028,73.79461082600028,74.15897662600037,75.16323170299438,74.15929218266344,,75.79562307899323,76.79706248199363,75.79319973366024,,79.05129927899543,80.08758114999364,82.24292367699672,85.96646187099395,80.08758114999364,80.08758114999364,85.52216135899653,80.08758114999364,80.08758114999364,80.08758114999364,80.08758114999364,80.59809160299483,81.87169038799766,80.44633821366394,,82.24292367699672,83.52853557599883,82.0684708376614,,80.08758114999364,85.52216135899653,80.08758114999364,85.52216135899653,85.37303418199735,86.83108467199781,80.08758114999364,2,0,1.998167823003314,,reldom2_s008,001,2025-02-06_11h35.19.878,audwhere_practice_AC,2022.2.5,None,
0,0.0,None,fixation,stimulus/audwhere_stim/blank_white.png,stimulus/audwhere_stim/blank_white.png,stimulus/audwhat_stim/blank_white.png,stimulus/audwhat_stim/blank_white.png,stimulus/audwhere_stim/blank_white.png,stimulus/audwhere_stim/blank_white.png,stimulus/audwhere_stim/blank_white.png,stimulus/audwhere_stim/blank_white.png,0.0,0.0,0.0,0.0,0,0.0,0,0.0,0,0.0,0,0.0,0,0.0,0.0,0,0,0,0,0,0,0,0,0,0.0,0,0.0,0,0.0,0,0.0,7,,,,,0,8,8,8,,,,,86.83108467199781,86.83108467199781,86.83108467199781,86.83108467199781,86.83108467199781,86.83108467199781,86.83108467199781,86.83108467199781,86.51512226099877,86.83108467199781,86.83108467199781,86.83108467199781,86.51512226099877,86.83108467199781,86.83108467199781,86.83108467199781,86.83108467199781,86.83108467199781,86.83108467199781,86.83108467199781,86.83108467199781,86.83108467199781,86.83108467199781,86.83108467199781,86.83108467199781,86.83108467199781,86.83108467199781,86.66512226099876,86.83108467199781,86.83108467199781,86.83108467199781,86.66512226099876,86.83108467199781,86.83108467199781,86.83108467199781,86.83108467199781,86.83108467199781,92.09063089799747,92.09063089799747,94.64918874199793,None,0,,,reldom2_s008,001,2025-02-06_11h35.19.878,audwhere_practice_AC,2022.2.5,None,
7,First_Order,2.0,audwhere,stimulus/audwhere_stim/dummy.wav,stimulus/audwhere_stim/dummy.wav,stimulus/audwhere_stim/right_toward_290h.wav,stimulus/audwhere_stim/right_away_280h.wav,stimulus/audwhere_stim/blank_white.png,stimulus/audwhere_stim/direction_box.png,stimulus/audwhere_stim/direction_yes.png,stimulus/audwhere_stim/direction_no.png,None,Direction,None,Side,2,0.0,0,5.25,0,5.25,0,5.25,0,0.0,0.75,0,0,0,0,0,0,0,0,0,0.0,0,0.0,1,0.5,1,2.125,0,,,,,0,9,9,9,,,,,94.64918874199793,94.64918874199793,94.64918874199793,94.64918874199793,94.64918874199793,94.64918874199793,94.64918874199793,94.64918874199793,94.35225295866209,94.64918874199793,94.64918874199793,94.64918874199793,94.35225295866209,94.64918874199793,94.64918874199793,94.64918874199793,96.67150380199746,100.56447264799499,94.64918874199793,94.64918874199793,100.12021746399842,94.64918874199793,94.64918874199793,94.64918874199793,94.64918874199793,95.19369384099991,96.48167716799799,95.02804250966098,,96.67150380199746,97.95115588699991,96.49834383466465,,94.64918874199793,100.12021746399842,94.64918874199793,100.12021746399842,99.78352517099847,101.25297095499991,94.64918874199793,1,0,3.0333288380061276,,reldom2_s008,001,2025-02-06_11h35.19.878,audwhere_practice_AC,2022.2.5,None,
8,First_Order,2.0,audwhere,stimulus/audwhere_stim/dummy.wav,stimulus/audwhere_stim/dummy.wav,stimulus/audwhere_stim/right_toward_300h.wav,stimulus/audwhere_stim/right_away_280h.wav,stimulus/audwhere_stim/blank_white.png,stimulus/audwhere_stim/direction_box.png,stimulus/audwhere_stim/direction_yes.png,stimulus/audwhere_stim/direction_no.png,None,Direction,None,Side,2,0.0,0,5.25,0,5.25,0,5.25,0,0.0,0.75,0,0,0,0,0,0,0,0,0,0.0,0,0.0,1,0.5,1,2.125,0,,,,,0,10,10,10,,,,,101.25297095499991,101.25297095499991,101.25297095499991,101.25297095499991,101.25297095499991,101.25297095499991,101.25297095499991,101.25297095499991,100.964472647995,101.25297095499991,101.25297095499991,101.25297095499991,100.964472647995,101.25297095499991,101.25297095499991,101.25297095499991,103.32449374999851,107.22910919399874,101.25297095499991,101.25297095499991,106.77965820899408,101.25297095499991,101.25297095499991,101.25297095499991,101.25297095499991,101.82134199299617,103.14014437899459,101.65690477566046,,103.32449374999851,104.62502558299457,103.15681104566126,,101.25297095499991,106.77965820899408,101.25297095499991,106.77965820899408,106.4414131529993,107.91802930799895,101.25297095499991,1,0,1.9077453090067138,,reldom2_s008,001,2025-02-06_11h35.19.878,audwhere_practice_AC,2022.2.5,None,
9,First_Order,2.0,audwhere,stimulus/audwhere_stim/dummy.wav,stimulus/audwhere_stim/dummy.wav,stimulus/audwhere_stim/right_toward_290h.wav,stimulus/audwhere_stim/left_toward_290h.wav,stimulus/audwhere_stim/blank_white.png,stimulus/audwhere_stim/side_box.png,stimulus/audwhere_stim/side_yes.png,stimulus/audwhere_stim/side_no.png,None,Side,None,Direction,2,0.0,0,5.25,0,5.25,0,5.25,0,0.0,0.75,0,0,0,0,0,0,0,0,0,0.0,0,0.0,1,0.5,1,2.125,0,,,,,0,11,11,11,,,,,107.91802930799895,107.91802930799895,107.91802930799895,107.91802930799895,107.91802930799895,107.91802930799895,107.91802930799895,107.91802930799895,107.64577586066541,107.91802930799895,107.91802930799895,107.91802930799895,107.64577586066541,107.91802930799895,107.91802930799895,107.91802930799895,109.92979396799637,113.86755849199835,107.91802930799895,107.91802930799895,113.42555852399528,107.91802930799895,107.91802930799895,107.91802930799895,107.91802930799895,108.46308667399717,109.74823560599907,108.30021830866123,,109.92979396799637,111.22311401899788,109.76490227266574,,107.91802930799895,113.42555852399528,107.91802930799895,113.42555852399528,113.09101624399773,114.555971072994,107.91802930799895,1,0,1.511671035004838,,reldom2_s008,001,2025-02-06_11h35.19.878,audwhere_practice_AC,2022.2.5,None,
10,First_Order,2.0,audwhere,stimulus/audwhere_stim/dummy.wav,stimulus/audwhere_stim/dummy.wav,stimulus/audwhere_stim/right_toward_300h.wav,stimulus/audwhere_stim/left_toward_300h.wav,stimulus/audwhere_stim/blank_white.png,stimulus/audwhere_stim/side_box.png,stimulus/audwhere_stim/side_yes.png,stimulus/audwhere_stim/side_no.png,None,Side,None,Direction,2,0.0,0,5.25,0,5.25,0,5.25,0,0.0,0.75,0,0,0,0,0,0,0,0,0,0.0,0,0.0,1,0.5,1,2.125,0,,,,,0,12,12,12,,,,,114.555971072994,114.555971072994,114.555971072994,114.555971072994,114.555971072994,114.555971072994,114.555971072994,114.555971072994,114.26755849199836,114.555971072994,114.555971072994,114.555971072994,114.26755849199836,114.555971072994,114.555971072994,114.555971072994,116.59617247899587,120.39613384099357,114.555971072994,114.555971072994,120.09502675399563,114.555971072994,114.555971072994,114.555971072994,114.555971072994,115.10352389999753,116.41178073699848,114.9356828496641,,116.59617247899587,117.88969588599866,116.42844740366515,,114.555971072994,120.09502675399563,114.555971072994,120.09502675399563,119.75216847299453,121.26141414599988,114.555971072994,1,0,1.7237541230060742,,reldom2_s008,001,2025-02-06_11h35.19.878,audwhere_practice_AC,2022.2.5,None,
0,0.0,None,fixation,stimulus/audwhere_stim/blank_white.png,stimulus/audwhere_stim/blank_white.png,stimulus/audwhat_stim/blank_white.png,stimulus/audwhat_stim/blank_white.png,stimulus/audwhere_stim/blank_white.png,stimulus/audwhere_stim/blank_white.png,stimulus/audwhere_stim/blank_white.png,stimulus/audwhere_stim/blank_white.png,0.0,0.0,0.0,0.0,0,0.0,0,0.0,0,0.0,0,0.0,0,0.0,0.0,0,0,0,0,0,0,0,0,0,0.0,0,0.0,0,0.0,0,0.0,7,,,,,0,13,13,13,,,,,121.26141414599988,121.26141414599988,121.26141414599988,121.26141414599988,121.26141414599988,121.26141414599988,121.26141414599988,121.26141414599988,120.95153164799413,121.26141414599988,121.26141414599988,121.26141414599988,120.95153164799413,121.26141414599988,121.26141414599988,121.26141414599988,121.26141414599988,121.26141414599988,121.26141414599988,121.26141414599988,121.26141414599988,121.26141414599988,121.26141414599988,121.26141414599988,121.26141414599988,121.26141414599988,121.26141414599988,121.10153164799412,121.26141414599988,121.26141414599988,121.26141414599988,121.10153164799412,121.26141414599988,121.26141414599988,121.26141414599988,121.26141414599988,121.26141414599988,126.47625519799476,126.47625519799476,128.7381365409965,None,0,,,reldom2_s008,001,2025-02-06_11h35.19.878,audwhere_practice_AC,2022.2.5,None,
11,Second_Order,2.0,audwhere,stimulus/audwhere_stim/right_toward_300h.wav,stimulus/audwhere_stim/right_away_300h.wav,stimulus/audwhere_stim/left_away_280h.wav,stimulus/audwhere_stim/right_away_290h.wav,stimulus/audwhere_stim/match_blank.png,stimulus/audwhere_stim/match_box.png,stimulus/audwhere_stim/match_yes.png,stimulus/audwhere_stim/match_no.png,2.0,Match,Side,Direction,2,5.25,0,5.25,0,5.25,0,5.25,0,0.75,0.75,0,0,0,0,0,0,0,0,1,0.5,1,2.125,1,0.5,1,2.125,0,,,,,0,14,14,14,,,,,128.7381365409965,133.99304837199452,128.7381365409965,128.7381365409965,128.7381365409965,128.7381365409965,129.09623663899401,130.11300561399548,129.095152874663,,130.71576353899582,131.71903700799885,130.71283236166008,,133.99304837199452,135.0281530909997,137.19442487999913,140.95211227300024,135.0281530909997,135.0281530909997,140.50551768199512,135.0281530909997,135.0281530909997,135.0281530909997,135.0281530909997,135.54703823899763,136.8227566179994,135.39160127666062,,137.19442487999913,138.5051558979976,137.02646563166152,,135.0281530909997,140.50551768199512,135.0281530909997,140.50551768199512,140.17240346099425,141.34841093499563,135.0281530909997,1,0,1.4670875320007326,,reldom2_s008,001,2025-02-06_11h35.19.878,audwhere_practice_AC,2022.2.5,None,
12,Second_Order,2.0,audwhere,stimulus/audwhere_stim/left_toward_270h.wav,stimulus/audwhere_stim/right_toward_270h.wav,stimulus/audwhere_stim/left_toward_270h.wav,stimulus/audwhere_stim/left_away_300h.wav,stimulus/audwhere_stim/match_blank.png,stimulus/audwhere_stim/match_box.png,stimulus/audwhere_stim/match_yes.png,stimulus/audwhere_stim/match_no.png,2.0,Match,Direction,Side,2,5.25,0,5.25,0,5.25,0,5.25,0,0.75,0.75,0,0,0,0,0,0,0,0,1,0.5,1,2.125,1,0.5,1,2.125,0,,,,,0,15,15,15,,,,,141.34841093499563,146.61024618999363,141.34841093499563,141.34841093499563,141.34841093499563,141.34841093499563,141.71445478499663,142.72789990499587,141.7117375786659,,143.33767917399382,144.34214618899568,143.3354984826622,,146.61024618999363,147.66302350600017,149.8084138569975,153.57370507199812,147.66302350600017,147.66302350600017,153.12194871199608,147.66302350600017,147.66302350600017,147.66302350600017,147.66302350600017,148.1790947529953,149.4504535379965,148.02144489166338,,149.8084138569975,151.1021767189959,149.6460645026639,,147.66302350600017,153.12194871199608,147.66302350600017,153.12194871199608,152.96465773999807,154.4392148639963,147.66302350600017,2,1,1.9814356540082372,,reldom2_s008,001,2025-02-06_11h35.19.878,audwhere_practice_AC,2022.2.5,None,
0,0.0,None,fixation,stimulus/audwhere_stim/blank_white.png,stimulus/audwhere_stim/blank_white.png,stimulus/audwhat_stim/blank_white.png,stimulus/audwhat_stim/blank_white.png,stimulus/audwhere_stim/blank_white.png,stimulus/audwhere_stim/blank_white.png,stimulus/audwhere_stim/blank_white.png,stimulus/audwhere_stim/blank_white.png,0.0,0.0,0.0,0.0,0,0.0,0,0.0,0,0.0,0,0.0,0,0.0,0.0,0,0,0,0,0,0,0,0,0,0.0,0,0.0,0,0.0,0,0.0,6,,,,,0,16,16,16,,,,,154.4392148639963,154.4392148639963,154.4392148639963,154.4392148639963,154.4392148639963,154.4392148639963,154.4392148639963,154.4392148639963,154.1214799509966,154.4392148639963,154.4392148639963,154.4392148639963,154.1214799509966,154.4392148639963,154.4392148639963,154.4392148639963,154.4392148639963,154.4392148639963,154.4392148639963,154.4392148639963,154.4392148639963,154.4392148639963,154.4392148639963,154.4392148639963,154.4392148639963,154.4392148639963,154.4392148639963,154.2714799509966,154.4392148639963,154.4392148639963,154.4392148639963,154.2714799509966,154.4392148639963,154.4392148639963,154.4392148639963,154.4392148639963,154.4392148639963,159.7087996009941,159.7087996009941,160.8222915439983,None,0,,,reldom2_s008,001,2025-02-06_11h35.19.878,audwhere_practice_AC,2022.2.5,None,
,,,,,,,,,,,,,,,,,,,,,,,,,,,,,,,,,,,,,,,,,,,,,,,,,,,,,,,,,,,,,,,,,,,,,,,,,,,,,,,,,,,,,,,,,,,,,,,,,,,160.8222915439983,,,,,,,
