Trial,Order,Block,Type,Stimuli_File1,Stimuli_File2,Stimuli_File3,Stimuli_File4,Cue_File1,Cue_File2,Response_File_Yes,Response_File_No,Match,Cue_Dimension,Pair1_Dimension,Pair2_Dimension,Key,Cue1_Duration,Cue1_Onset,Cue2_Duration,Cue2_Onset,ResponseYes_Duration,ResponseYes_Onset,ResponseNo_Duration,ResponseNo_Onset,ITI_Within,ITI_Between,Image1_Duration,Image1_Onset,Image2_Duration,Image2_Onset,Image3_Duration,Image3_Onset,Image4_Duration,Image4_Onset,Sound1_Duration,Sound1_Onset,Sound2_Duration,Sound2_Onset,Sound3_Duration,Sound3_Onset,Sound4_Duration,Sound4_Onset,Fixation_Duration,trials_2.thisRepN,trials_2.thisTrialN,trials_2.thisN,trials_2.thisIndex,trials.thisRepN,trials.thisTrialN,trials.thisN,trials.thisIndex,text_start.started,key_resp_start.started,key_resp_start.keys,key_resp_start.rt,text2.started,key_resp_2.started,key_resp_2.keys,key_resp_2.rt,cue_file1.started,cue_file1.stopped,image_1.started,image_1.stopped,image_2.started,image_2.stopped,sound_icon1.started,sound_icon1.stopped,sound_1.started,sound_1.stopped,sound_icon2.started,sound_icon2.stopped,sound_2.started,sound_2.stopped,image_blank_1.started,image_blank_1.stopped,key_press.started,key_press.stopped,fixation_text.started,cue_file2.started,cue_file2.stopped,image_3.started,image_3.stopped,image_4.started,image_4.stopped,sound_icon3.started,sound_icon3.stopped,sound_3.started,sound_3.stopped,sound_icon4.started,sound_icon4.stopped,sound_4.started,sound_4.stopped,response_yes.started,response_yes.stopped,response_no.started,response_no.stopped,iti_blank.started,iti_blank.stopped,fixation_text.stopped,key_press.keys,key_press.corr,key_press.rt,participant,session,date,expName,psychopyVersion,frameRate,
,,,,,,,,,,,,,,,,,,,,,,,,,,,,,,,,,,,,,,,,,,,,,,,,,,,,9.592647208000017,9.592647208000017,2,0.763540166999519,,,,,,,,,,,,,,,,,,,,,,,,,,,,,,,,,,,,,,,,,,,,,,,,reldom2_s008,001,2025-02-06_13h09.47.503,Vis-A-Scan_AC,2022.2.5,None,
,,,,,,,,,,,,,,,,,,,,,,,,,,,,,,,,,,,,,,,,,,,,0,0,0,0,,,,,,,,,10.376927332999912,10.376927332999912,5,16.983251873999507,,,,,,,,,,,,,,,,,,,,,,,,,,,,,,,,,,,,,,,,,,,,reldom2_s008,001,2025-02-06_13h09.47.503,Vis-A-Scan_AC,2022.2.5,None,
,,,,,,,,,,,,,,,,,,,,,,,,,,,,,,,,,,,,,,,,,,,,1,0,1,0,,,,,,,,,27.3721894170003,27.3721894170003,5,1.987479248999989,,,,,,,,,,,,,,,,,,,,,,,,,,,,,,,,,,,,,,,,,,,,reldom2_s008,001,2025-02-06_13h09.47.503,Vis-A-Scan_AC,2022.2.5,None,
,,,,,,,,,,,,,,,,,,,,,,,,,,,,,,,,,,,,,,,,,,,,2,0,2,0,,,,,,,,,29.384503000000223,29.384503000000223,5,1.975150166000276,,,,,,,,,,,,,,,,,,,,,,,,,,,,,,,,,,,,,,,,,,,,reldom2_s008,001,2025-02-06_13h09.47.503,Vis-A-Scan_AC,2022.2.5,None,
,,,,,,,,,,,,,,,,,,,,,,,,,,,,,,,,,,,,,,,,,,,,3,0,3,0,,,,,,,,,31.373619458000576,31.373619458000576,5,1.9867855829998007,,,,,,,,,,,,,,,,,,,,,,,,,,,,,,,,,,,,,,,,,,,,reldom2_s008,001,2025-02-06_13h09.47.503,Vis-A-Scan_AC,2022.2.5,None,
0,0.0,None,fixation,stimulus/viswhat_stim/blank_white.png,stimulus/viswhat_stim/blank_white.png,stimulus/viswhere_stim/blank_white.png,stimulus/viswhere_stim/blank_white.png,stimulus/viswhat_stim/blank_white.png,stimulus/viswhat_stim/blank_white.png,stimulus/viswhat_stim/blank_white.png,stimulus/viswhat_stim/blank_white.png,0.0,0.0,0.0,0.0,0,0.0,0,0.0,0,0.0,0,0.0,0,0.0,0.0,0,0.0,0,0.0,0,0.0,0,0.0,0,0,0,0,0,0,0,0,16,,,,,0,0,0,0,,,,,,,,,33.5566055420004,33.5566055420004,33.5566055420004,33.5566055420004,33.5566055420004,33.5566055420004,33.5566055420004,33.5566055420004,33.46199037500046,33.5566055420004,33.5566055420004,33.5566055420004,33.46199037500046,33.5566055420004,33.5566055420004,33.5566055420004,33.5566055420004,33.5566055420004,33.5566055420004,33.5566055420004,33.5566055420004,33.5566055420004,33.5566055420004,33.5566055420004,33.5566055420004,33.5566055420004,33.5566055420004,33.51199037500046,33.5566055420004,33.5566055420004,33.5566055420004,33.51199037500046,33.5566055420004,33.5566055420004,33.5566055420004,33.5566055420004,33.5566055420004,38.77578808300041,38.77578808300041,49.806148208000195,None,0,,reldom2_s008,001,2025-02-06_13h09.47.503,Vis-A-Scan_AC,2022.2.5,None,
1,First_Order,1.0,viswhat,stimulus/viswhat_stim/blank_white.png,stimulus/viswhat_stim/blank_white.png,stimulus/viswhat_stim/land_animal-moose.png,stimulus/viswhat_stim/water_animal-seaturtle.png,stimulus/viswhat_stim/blank_white.png,stimulus/viswhat_stim/type_box.png,stimulus/viswhat_stim/type_yes.png,stimulus/viswhat_stim/type_no.png,None,Type,None,Type,1,0.0,0,5.125,0,5.125,0,5.125,0,0.0,0.625,0,0.0,0,0.0,1,0.5,1,2.125,0,0,0,0,0,0,0,0,0,,,,,0,1,1,1,,,,,,,,,49.806148208000195,49.806148208000195,49.806148208000195,49.806148208000195,49.806148208000195,49.806148208000195,49.806148208000195,49.806148208000195,49.701437208000605,49.806148208000195,49.806148208000195,49.806148208000195,49.701437208000605,49.806148208000195,49.806148208000195,49.806148208000195,51.90727487500044,,49.806148208000195,49.806148208000195,55.006588332999854,50.27309591700032,51.3213484580001,51.90727487500044,52.95840520799993,49.806148208000195,49.806148208000195,49.7514372080006,49.806148208000195,49.806148208000195,49.806148208000195,49.7514372080006,49.806148208000195,49.806148208000195,55.006588332999854,49.806148208000195,55.006588332999854,55.006588332999854,55.85239983300016,49.806148208000195,1,1,1.7113524579999648,reldom2_s008,001,2025-02-06_13h09.47.503,Vis-A-Scan_AC,2022.2.5,None,
2,First_Order,1.0,viswhat,stimulus/viswhat_stim/blank_white.png,stimulus/viswhat_stim/blank_white.png,stimulus/viswhat_stim/water_vehicle-submarine.png,stimulus/viswhat_stim/land_vehicle-firetruck.png,stimulus/viswhat_stim/blank_white.png,stimulus/viswhat_stim/type_box.png,stimulus/viswhat_stim/type_yes.png,stimulus/viswhat_stim/type_no.png,None,Type,None,Type,1,0.0,0,5.125,0,5.125,0,5.125,0,0.0,0.625,0,0.0,0,0.0,1,0.5,1,2.125,0,0,0,0,0,0,0,0,0,,,,,0,2,2,2,,,,,,,,,55.85239983300016,55.85239983300016,55.85239983300016,55.85239983300016,55.85239983300016,55.85239983300016,55.85239983300016,55.85239983300016,55.81712045866667,55.85239983300016,55.85239983300016,55.85239983300016,55.81712045866667,55.85239983300016,55.85239983300016,55.85239983300016,57.943449041999884,,55.85239983300016,55.85239983300016,60.99758195800041,56.31659149999996,57.349326917000326,57.943449041999884,58.95424537500003,55.85239983300016,55.85239983300016,55.83378712533334,55.85239983300016,55.85239983300016,55.85239983300016,55.83378712533334,55.85239983300016,55.85239983300016,60.99758195800041,55.85239983300016,60.99758195800041,61.07809762499983,61.70793929200045,55.85239983300016,1,1,2.049797290999777,reldom2_s008,001,2025-02-06_13h09.47.503,Vis-A-Scan_AC,2022.2.5,None,
3,First_Order,1.0,viswhat,stimulus/viswhat_stim/blank_white.png,stimulus/viswhat_stim/blank_white.png,stimulus/viswhat_stim/water_vehicle-kayak.png,stimulus/viswhat_stim/land_vehicle-vespa.png,stimulus/viswhat_stim/blank_white.png,stimulus/viswhat_stim/location_box.png,stimulus/viswhat_stim/location_yes.png,stimulus/viswhat_stim/location_no.png,None,Location,None,Type,2,0.0,0,5.125,0,5.125,0,5.125,0,0.0,0.625,0,0.0,0,0.0,1,0.5,1,2.125,0,0,0,0,0,0,0,0,0,,,,,0,3,3,3,,,,,,,,,61.946553167000275,61.946553167000275,61.946553167000275,61.946553167000275,61.946553167000275,61.946553167000275,61.946553167000275,61.946553167000275,61.889299250000114,61.946553167000275,61.946553167000275,61.946553167000275,61.889299250000114,61.946553167000275,61.946553167000275,61.946553167000275,64.04776437500004,68.03500116699979,61.946553167000275,61.946553167000275,67.11402008300047,62.425136083000325,63.4594669170001,64.04776437500004,65.08560029199998,61.946553167000275,61.946553167000275,61.922632583333446,61.946553167000275,61.946553167000275,61.946553167000275,61.922632583333446,61.946553167000275,61.946553167000275,67.11402008300047,61.946553167000275,67.11402008300047,67.14547191700058,67.80245662500056,61.946553167000275,2,1,1.1920715829992332,reldom2_s008,001,2025-02-06_13h09.47.503,Vis-A-Scan_AC,2022.2.5,None,
4,First_Order,1.0,viswhat,stimulus/viswhat_stim/blank_white.png,stimulus/viswhat_stim/blank_white.png,stimulus/viswhat_stim/water_vehicle-pirateship.png,stimulus/viswhat_stim/land_vehicle-buldozer.png,stimulus/viswhat_stim/blank_white.png,stimulus/viswhat_stim/location_box.png,stimulus/viswhat_stim/location_yes.png,stimulus/viswhat_stim/location_no.png,None,Location,None,Type,2,0.0,0,5.125,0,5.125,0,5.125,0,0.0,0.625,0,0.0,0,0.0,1,0.5,1,2.125,0,0,0,0,0,0,0,0,0,,,,,0,4,4,4,,,,,,,,,68.03500116699979,68.03500116699979,68.03500116699979,68.03500116699979,68.03500116699979,68.03500116699979,68.03500116699979,68.03500116699979,67.98109299966642,68.03500116699979,68.03500116699979,68.03500116699979,67.98109299966642,68.03500116699979,68.03500116699979,68.03500116699979,70.14147004200004,74.18145591699977,68.03500116699979,68.03500116699979,73.18984279200049,68.51818466700024,69.55533966700023,70.14147004200004,71.18796962499982,68.03500116699979,68.03500116699979,68.01442633299976,68.03500116699979,68.03500116699979,68.03500116699979,68.01442633299976,68.03500116699979,68.03500116699979,73.18984279200049,68.03500116699979,73.18984279200049,73.24724175000028,73.88375779200032,68.03500116699979,2,1,0.7041410829997403,reldom2_s008,001,2025-02-06_13h09.47.503,Vis-A-Scan_AC,2022.2.5,None,
0,0.0,None,fixation,stimulus/viswhat_stim/blank_white.png,stimulus/viswhat_stim/blank_white.png,stimulus/viswhere_stim/blank_white.png,stimulus/viswhere_stim/blank_white.png,stimulus/viswhat_stim/blank_white.png,stimulus/viswhat_stim/blank_white.png,stimulus/viswhat_stim/blank_white.png,stimulus/viswhat_stim/blank_white.png,0.0,0.0,0.0,0.0,0,0.0,0,0.0,0,0.0,0,0.0,0,0.0,0.0,0,0.0,0,0.0,0,0.0,0,0.0,0,0,0,0,0,0,0,0,9,,,,,0,5,5,5,,,,,,,,,74.18145591699977,74.18145591699977,74.18145591699977,74.18145591699977,74.18145591699977,74.18145591699977,74.18145591699977,74.18145591699977,74.08690904166711,74.18145591699977,74.18145591699977,74.18145591699977,74.08690904166711,74.18145591699977,74.18145591699977,74.18145591699977,74.18145591699977,74.18145591699977,74.18145591699977,74.18145591699977,74.18145591699977,74.18145591699977,74.18145591699977,74.18145591699977,74.18145591699977,74.18145591699977,74.18145591699977,74.13690904166712,74.18145591699977,74.18145591699977,74.18145591699977,74.13690904166712,74.18145591699977,74.18145591699977,74.18145591699977,74.18145591699977,74.18145591699977,79.36594158299977,79.36594158299977,83.36760487500032,None,0,,reldom2_s008,001,2025-02-06_13h09.47.503,Vis-A-Scan_AC,2022.2.5,None,
5,Second_Order,1.0,viswhat,stimulus/viswhat_stim/water_vehicle-cruiser.png,stimulus/viswhat_stim/land_vehicle-pickuptruck.png,stimulus/viswhat_stim/land_animal-snake.png,stimulus/viswhat_stim/land_vehicle-trolley.png,stimulus/viswhat_stim/match_blank.png,stimulus/viswhat_stim/match_box.png,stimulus/viswhat_stim/match_yes.png,stimulus/viswhat_stim/match_no.png,2.0,Match,Type,Location,2,5.125,0,5.125,0,5.125,0,5.125,0,0.75,0.75,1,0.5,1,2.125,1,0.5,1,2.125,0,0,0,0,0,0,0,0,0,,,,,0,6,6,6,,,,,,,,,83.36760487500032,88.48905108300005,83.79524029200002,84.78391354199994,85.41964925000048,86.41744766700049,83.36760487500032,83.36760487500032,83.37712637533326,83.36760487500032,83.36760487500032,83.36760487500032,83.37712637533326,83.36760487500032,88.48905108300005,89.2789749170006,91.35965725000005,95.26992179199988,89.2789749170006,89.2789749170006,94.40817295800025,89.73789787500027,90.74345166700004,91.35965725000005,92.37271362499996,89.2789749170006,89.2789749170006,89.25747925033332,89.2789749170006,89.2789749170006,89.2789749170006,89.25747925033332,89.2789749170006,89.2789749170006,94.40817295800025,89.2789749170006,94.40817295800025,94.47701737500029,95.26992179199988,89.2789749170006,2,1,0.7119444159998238,reldom2_s008,001,2025-02-06_13h09.47.503,Vis-A-Scan_AC,2022.2.5,None,
6,Second_Order,1.0,viswhat,stimulus/viswhat_stim/land_vehicle-firetruck.png,stimulus/viswhat_stim/land_animal-dog.png,stimulus/viswhat_stim/water_animal-seaturtle.png,stimulus/viswhat_stim/water_vehicle-sailboat.png,stimulus/viswhat_stim/match_blank.png,stimulus/viswhat_stim/match_box.png,stimulus/viswhat_stim/match_yes.png,stimulus/viswhat_stim/match_no.png,1.0,Match,Location,Location,1,5.125,0,5.125,0,5.125,0,5.125,0,0.625,0.625,1,0.5,1,2.125,1,0.5,1,2.125,0,0,0,0,0,0,0,0,0,,,,,0,7,7,7,,,,,,,,,95.26992179199988,100.38866204199985,95.74304387499978,96.7418992920002,97.3649718329998,98.36186220800028,95.26992179199988,95.26992179199988,95.26989504199973,95.26992179199988,95.26992179199988,95.26992179199988,95.26989504199973,95.26992179199988,100.38866204199985,101.11687291700036,103.18181525,,101.11687291700036,101.11687291700036,106.31896504199995,101.54227145799996,102.59926745800021,103.18181525,104.24946183300017,101.11687291700036,101.11687291700036,101.06788074966704,101.11687291700036,101.11687291700036,101.11687291700036,101.06788074966704,101.11687291700036,101.11687291700036,106.31896504199995,101.11687291700036,106.31896504199995,106.31896504199995,106.98349454199979,101.11687291700036,1,1,0.4956856249991688,reldom2_s008,001,2025-02-06_13h09.47.503,Vis-A-Scan_AC,2022.2.5,None,
0,0.0,None,fixation,stimulus/viswhat_stim/blank_white.png,stimulus/viswhat_stim/blank_white.png,stimulus/viswhere_stim/blank_white.png,stimulus/viswhere_stim/blank_white.png,stimulus/viswhat_stim/blank_white.png,stimulus/viswhat_stim/blank_white.png,stimulus/viswhat_stim/blank_white.png,stimulus/viswhat_stim/blank_white.png,0.0,0.0,0.0,0.0,0,0.0,0,0.0,0,0.0,0,0.0,0,0.0,0.0,0,0.0,0,0.0,0,0.0,0,0.0,0,0,0,0,0,0,0,0,9,,,,,0,8,8,8,,,,,,,,,107.23656079200009,107.23656079200009,107.23656079200009,107.23656079200009,107.23656079200009,107.23656079200009,107.23656079200009,107.23656079200009,107.1334945419998,107.23656079200009,107.23656079200009,107.23656079200009,107.1334945419998,107.23656079200009,107.23656079200009,107.23656079200009,107.23656079200009,107.23656079200009,107.23656079200009,107.23656079200009,107.23656079200009,107.23656079200009,107.23656079200009,107.23656079200009,107.23656079200009,107.23656079200009,107.23656079200009,107.18349454199979,107.23656079200009,107.23656079200009,107.23656079200009,107.18349454199979,107.23656079200009,107.23656079200009,107.23656079200009,107.23656079200009,107.23656079200009,112.43295812500037,112.43295812500037,116.48893283300004,None,0,,reldom2_s008,001,2025-02-06_13h09.47.503,Vis-A-Scan_AC,2022.2.5,None,
7,First_Order,2.0,viswhat,stimulus/viswhat_stim/blank_white.png,stimulus/viswhat_stim/blank_white.png,stimulus/viswhat_stim/water_vehicle-ship.png,stimulus/viswhat_stim/water_animal-stingray.png,stimulus/viswhat_stim/blank_white.png,stimulus/viswhat_stim/type_box.png,stimulus/viswhat_stim/type_yes.png,stimulus/viswhat_stim/type_no.png,None,Type,None,Location,2,0.0,0,5.125,0,5.125,0,5.125,0,0.0,0.625,0,0.0,0,0.0,1,0.5,1,2.125,0,0,0,0,0,0,0,0,0,,,,,0,9,9,9,,,,,,,,,116.48893283300004,116.48893283300004,116.48893283300004,116.48893283300004,116.48893283300004,116.48893283300004,116.48893283300004,116.48893283300004,116.39091720866661,116.48893283300004,116.48893283300004,116.48893283300004,116.39091720866661,116.48893283300004,116.48893283300004,116.48893283300004,118.55972850000035,,116.48893283300004,116.48893283300004,121.69726341700061,116.9352931250005,118.00082895800006,118.55972850000035,119.62717783300013,116.48893283300004,116.48893283300004,116.4409172086666,116.48893283300004,116.48893283300004,116.48893283300004,116.4409172086666,116.48893283300004,116.48893283300004,121.69726341700061,116.48893283300004,121.69726341700061,121.69726341700061,122.53782183299973,116.48893283300004,2,1,1.4128574579999622,reldom2_s008,001,2025-02-06_13h09.47.503,Vis-A-Scan_AC,2022.2.5,None,
8,First_Order,2.0,viswhat,stimulus/viswhat_stim/blank_white.png,stimulus/viswhat_stim/blank_white.png,stimulus/viswhat_stim/land_vehicle-train.png,stimulus/viswhat_stim/land_animal-fox.png,stimulus/viswhat_stim/blank_white.png,stimulus/viswhat_stim/type_box.png,stimulus/viswhat_stim/type_yes.png,stimulus/viswhat_stim/type_no.png,None,Type,None,Location,2,0.0,0,5.125,0,5.125,0,5.125,0,0.0,0.625,0,0.0,0,0.0,1,0.5,1,2.125,0,0,0,0,0,0,0,0,0,,,,,0,10,10,10,,,,,,,,,122.53782183299973,122.53782183299973,122.53782183299973,122.53782183299973,122.53782183299973,122.53782183299973,122.53782183299973,122.53782183299973,122.50101924999981,122.53782183299973,122.53782183299973,122.53782183299973,122.50101924999981,122.53782183299973,122.53782183299973,122.53782183299973,124.64084087500032,128.6384118750002,122.53782183299973,122.53782183299973,127.67725495800005,123.01830558300026,124.0285044580005,124.64084087500032,125.65791066700058,122.53782183299973,122.53782183299973,122.51768591666648,122.53782183299973,122.53782183299973,122.53782183299973,122.51768591666648,122.53782183299973,122.53782183299973,127.67725495800005,122.53782183299973,127.67725495800005,127.75889245800045,128.3992832920003,122.53782183299973,2,1,0.9184235000002445,reldom2_s008,001,2025-02-06_13h09.47.503,Vis-A-Scan_AC,2022.2.5,None,
9,First_Order,2.0,viswhat,stimulus/viswhat_stim/blank_white.png,stimulus/viswhat_stim/blank_white.png,stimulus/viswhat_stim/land_animal-lion.png,stimulus/viswhat_stim/land_vehicle-bus.png,stimulus/viswhat_stim/blank_white.png,stimulus/viswhat_stim/location_box.png,stimulus/viswhat_stim/location_yes.png,stimulus/viswhat_stim/location_no.png,None,Location,None,Location,1,0.0,0,5.125,0,5.125,0,5.125,0,0.0,0.625,0,0.0,0,0.0,1,0.5,1,2.125,0,0,0,0,0,0,0,0,0,,,,,0,11,11,11,,,,,,,,,128.6384118750002,128.6384118750002,128.6384118750002,128.6384118750002,128.6384118750002,128.6384118750002,128.6384118750002,128.6384118750002,128.56635829133333,128.6384118750002,128.6384118750002,128.6384118750002,128.56635829133333,128.6384118750002,128.6384118750002,128.6384118750002,130.73540462500023,,128.6384118750002,128.6384118750002,133.8100472920005,129.10474404199977,130.1537710829998,130.73540462500023,131.79203450000023,128.6384118750002,128.6384118750002,128.59969162466666,128.6384118750002,128.6384118750002,128.6384118750002,128.59969162466666,128.6384118750002,128.6384118750002,133.8100472920005,128.6384118750002,133.8100472920005,133.8432692080005,134.50575095800014,128.6384118750002,1,1,0.5654989579988978,reldom2_s008,001,2025-02-06_13h09.47.503,Vis-A-Scan_AC,2022.2.5,None,
10,First_Order,2.0,viswhat,stimulus/viswhat_stim/blank_white.png,stimulus/viswhat_stim/blank_white.png,stimulus/viswhat_stim/land_animal-elephant.png,stimulus/viswhat_stim/land_vehicle-motorcycle.png,stimulus/viswhat_stim/blank_white.png,stimulus/viswhat_stim/location_box.png,stimulus/viswhat_stim/location_yes.png,stimulus/viswhat_stim/location_no.png,None,Location,None,Location,1,0.0,0,5.125,0,5.125,0,5.125,0,0.0,0.625,0,0.0,0,0.0,1,0.5,1,2.125,0,0,0,0,0,0,0,0,0,,,,,0,12,12,12,,,,,,,,,134.7887477080003,134.7887477080003,134.7887477080003,134.7887477080003,134.7887477080003,134.7887477080003,134.7887477080003,134.7887477080003,134.65540237466655,134.7887477080003,134.7887477080003,134.7887477080003,134.65540237466655,134.7887477080003,134.7887477080003,134.7887477080003,136.89323620800042,,134.7887477080003,134.7887477080003,140.0160717079998,135.26307262499995,136.35128345800058,136.89323620800042,137.9825518329999,134.7887477080003,134.7887477080003,134.7220690413332,134.7887477080003,134.7887477080003,134.7887477080003,134.7220690413332,134.7887477080003,134.7887477080003,140.0160717079998,134.7887477080003,140.0160717079998,140.0160717079998,140.91899658300008,134.7887477080003,1,1,0.7760469989998455,reldom2_s008,001,2025-02-06_13h09.47.503,Vis-A-Scan_AC,2022.2.5,None,
0,0.0,None,fixation,stimulus/viswhat_stim/blank_white.png,stimulus/viswhat_stim/blank_white.png,stimulus/viswhere_stim/blank_white.png,stimulus/viswhere_stim/blank_white.png,stimulus/viswhat_stim/blank_white.png,stimulus/viswhat_stim/blank_white.png,stimulus/viswhat_stim/blank_white.png,stimulus/viswhat_stim/blank_white.png,0.0,0.0,0.0,0.0,0,0.0,0,0.0,0,0.0,0,0.0,0,0.0,0.0,0,0.0,0,0.0,0,0.0,0,0.0,0,0,0,0,0,0,0,0,10,,,,,0,13,13,13,,,,,,,,,140.91899658300008,140.91899658300008,140.91899658300008,140.91899658300008,140.91899658300008,140.91899658300008,140.91899658300008,140.91899658300008,140.82087975033386,140.91899658300008,140.91899658300008,140.91899658300008,140.82087975033386,140.91899658300008,140.91899658300008,140.91899658300008,140.91899658300008,140.91899658300008,140.91899658300008,140.91899658300008,140.91899658300008,140.91899658300008,140.91899658300008,140.91899658300008,140.91899658300008,140.91899658300008,140.91899658300008,140.87087975033387,140.91899658300008,140.91899658300008,140.91899658300008,140.87087975033387,140.91899658300008,140.91899658300008,140.91899658300008,140.91899658300008,140.91899658300008,146.10674908300007,146.10674908300007,151.04977683300058,None,0,,reldom2_s008,001,2025-02-06_13h09.47.503,Vis-A-Scan_AC,2022.2.5,None,
11,Second_Order,2.0,viswhat,stimulus/viswhat_stim/water_vehicle-cabincruiser.png,stimulus/viswhat_stim/land_vehicle-scooter.png,stimulus/viswhat_stim/land_animal-giraffe.png,stimulus/viswhat_stim/water_animal-squid.png,stimulus/viswhat_stim/match_blank.png,stimulus/viswhat_stim/match_box.png,stimulus/viswhat_stim/match_yes.png,stimulus/viswhat_stim/match_no.png,1.0,Match,Type,Type,1,5.125,0,5.125,0,5.125,0,5.125,0,0.75,0.75,1,0.5,1,2.125,1,0.5,1,2.125,0,0,0,0,0,0,0,0,0,,,,,0,14,14,14,,,,,,,,,151.04977683300058,156.1664657500005,151.51739825000004,152.5070471250001,153.14245041699996,154.14045095799975,151.04977683300058,151.04977683300058,151.06359575000025,151.04977683300058,151.04977683300058,151.04977683300058,151.06359575000025,151.04977683300058,156.1664657500005,157.0179477920001,159.07480837500043,,157.0179477920001,157.0179477920001,162.18178933299987,157.46369720799976,158.51965454200035,159.07480837500043,160.1325947080004,157.0179477920001,157.0179477920001,156.96781999966706,157.0179477920001,157.0179477920001,157.0179477920001,156.96781999966706,157.0179477920001,157.0179477920001,162.18178933299987,157.0179477920001,162.18178933299987,162.23169466699983,,157.0179477920001,1,1,0.40893474999938917,reldom2_s008,001,2025-02-06_13h09.47.503,Vis-A-Scan_AC,2022.2.5,None,
12,Second_Order,2.0,viswhat,stimulus/viswhat_stim/land_animal-bunny.png,stimulus/viswhat_stim/land_vehicle-shortbus.png,stimulus/viswhat_stim/water_vehicle-sailboat.png,stimulus/viswhat_stim/water_animal-whale.png,stimulus/viswhat_stim/match_blank.png,stimulus/viswhat_stim/match_box.png,stimulus/viswhat_stim/match_yes.png,stimulus/viswhat_stim/match_no.png,1.0,Match,Location,Location,1,5.125,0,5.125,0,5.125,0,5.125,0,0.625,0.625,1,0.5,1,2.125,1,0.5,1,2.125,0,0,0,0,0,0,0,0,0,,,,,0,15,15,15,,,,,,,,,163.0268639169999,168.14433483300036,163.46582362499976,164.4645084169997,165.09900662500058,166.08847470799992,163.0268639169999,163.0268639169999,163.02974870800008,163.0268639169999,163.0268639169999,163.0268639169999,163.02974870800008,163.0268639169999,168.14433483300036,168.87026512500051,170.92441616700035,,168.87026512500051,168.87026512500051,174.07562970799972,169.29565625000032,170.3475898329998,170.92441616700035,171.97963433299992,168.87026512500051,168.87026512500051,168.82415583366682,168.87026512500051,168.87026512500051,168.87026512500051,168.82415583366682,168.87026512500051,168.87026512500051,174.07562970799972,168.87026512500051,174.07562970799972,174.07562970799972,174.73089779200018,168.87026512500051,1,1,0.4116236239997306,reldom2_s008,001,2025-02-06_13h09.47.503,Vis-A-Scan_AC,2022.2.5,None,
0,0.0,None,fixation,stimulus/viswhat_stim/blank_white.png,stimulus/viswhat_stim/blank_white.png,stimulus/viswhere_stim/blank_white.png,stimulus/viswhere_stim/blank_white.png,stimulus/viswhat_stim/blank_white.png,stimulus/viswhat_stim/blank_white.png,stimulus/viswhat_stim/blank_white.png,stimulus/viswhat_stim/blank_white.png,0.0,0.0,0.0,0.0,0,0.0,0,0.0,0,0.0,0,0.0,0,0.0,0.0,0,0.0,0,0.0,0,0.0,0,0.0,0,0,0,0,0,0,0,0,9,,,,,0,16,16,16,,,,,,,,,174.98592941700008,174.98592941700008,174.98592941700008,174.98592941700008,174.98592941700008,174.98592941700008,174.98592941700008,174.98592941700008,174.88089779200018,174.98592941700008,174.98592941700008,174.98592941700008,174.88089779200018,174.98592941700008,174.98592941700008,174.98592941700008,174.98592941700008,174.98592941700008,174.98592941700008,174.98592941700008,174.98592941700008,174.98592941700008,174.98592941700008,174.98592941700008,174.98592941700008,174.98592941700008,174.98592941700008,174.9308977920002,174.98592941700008,174.98592941700008,174.98592941700008,174.9308977920002,174.98592941700008,174.98592941700008,174.98592941700008,174.98592941700008,174.98592941700008,180.19775837500038,180.19775837500038,184.2064170829999,None,0,,reldom2_s008,001,2025-02-06_13h09.47.503,Vis-A-Scan_AC,2022.2.5,None,
13,First_Order,3.0,viswhere,stimulus/viswhere_stim/blank_white.png,stimulus/viswhere_stim/blank_white.png,stimulus/viswhere_stim/90-deg_dot-left_slateblue.png,stimulus/viswhere_stim/120-deg_dot-left_slateblue.png,stimulus/viswhere_stim/blank_white.png,stimulus/viswhere_stim/dot_box.png,stimulus/viswhere_stim/dot_yes.png,stimulus/viswhere_stim/dot_no.png,None,Dot,None,Dot,1,0.0,0,5.125,0,5.125,0,5.125,0,0.0,0.625,0,0.0,0,0.0,1,0.5,1,2.125,0,0,0,0,0,0,0,0,0,,,,,0,17,17,17,,,,,,,,,184.2064170829999,184.2064170829999,184.2064170829999,184.2064170829999,184.2064170829999,184.2064170829999,184.2064170829999,184.2064170829999,184.18324537466714,184.2064170829999,184.2064170829999,184.2064170829999,184.18324537466714,184.2064170829999,184.2064170829999,184.2064170829999,186.31275174999973,190.2632254580003,184.2064170829999,184.2064170829999,189.33226212499994,184.69039308300034,185.6966735420001,186.31275174999973,187.32154970800002,184.2064170829999,184.2064170829999,184.1999120413338,184.2064170829999,184.2064170829999,184.2064170829999,184.1999120413338,184.2064170829999,184.2064170829999,189.33226212499994,184.2064170829999,189.33226212499994,189.43194337499972,190.05803295799979,184.2064170829999,2,0,1.9962994579991573,reldom2_s008,001,2025-02-06_13h09.47.503,Vis-A-Scan_AC,2022.2.5,None,
14,First_Order,3.0,viswhere,stimulus/viswhere_stim/blank_white.png,stimulus/viswhere_stim/blank_white.png,stimulus/viswhere_stim/30-deg_dot-left_royalblue.png,stimulus/viswhere_stim/30-deg_dot-right_peru.png,stimulus/viswhere_stim/blank_white.png,stimulus/viswhere_stim/dot_box.png,stimulus/viswhere_stim/dot_yes.png,stimulus/viswhere_stim/dot_no.png,None,Dot,None,Line,2,0.0,0,5.125,0,5.125,0,5.125,0,0.0,0.625,0,0.0,0,0.0,1,0.5,1,2.125,0,0,0,0,0,0,0,0,0,,,,,0,18,18,18,,,,,,,,,190.2632254580003,190.2632254580003,190.2632254580003,190.2632254580003,190.2632254580003,190.2632254580003,190.2632254580003,190.2632254580003,190.23929162533327,190.2632254580003,190.2632254580003,190.2632254580003,190.23929162533327,190.2632254580003,190.2632254580003,190.2632254580003,192.36661279200052,196.33253341700038,190.2632254580003,190.2632254580003,195.3878557500002,190.7453584169998,191.75059725000028,192.36661279200052,193.37755841699982,190.2632254580003,190.2632254580003,190.25595829199995,190.2632254580003,190.2632254580003,190.2632254580003,190.25595829199995,190.2632254580003,190.2632254580003,195.3878557500002,190.2632254580003,195.3878557500002,195.48763624999992,196.11369012500018,190.2632254580003,1,0,1.57496429099956,reldom2_s008,001,2025-02-06_13h09.47.503,Vis-A-Scan_AC,2022.2.5,None,
15,First_Order,3.0,viswhere,stimulus/viswhere_stim/blank_white.png,stimulus/viswhere_stim/blank_white.png,stimulus/viswhere_stim/150-deg_dot-right_turquoise.png,stimulus/viswhere_stim/150-deg_dot-left_cyan.png,stimulus/viswhere_stim/blank_white.png,stimulus/viswhere_stim/line_box.png,stimulus/viswhere_stim/line_yes.png,stimulus/viswhere_stim/line_no.png,None,Line,None,Line,1,0.0,0,5.125,0,5.125,0,5.125,0,0.0,0.625,0,0.0,0,0.0,1,0.5,1,2.125,0,0,0,0,0,0,0,0,0,,,,,0,19,19,19,,,,,,,,,196.33253341700038,196.33253341700038,196.33253341700038,196.33253341700038,196.33253341700038,196.33253341700038,196.33253341700038,196.33253341700038,196.3081772083336,196.33253341700038,196.33253341700038,196.33253341700038,196.3081772083336,196.33253341700038,196.33253341700038,196.33253341700038,198.43272691699985,202.39688787500017,196.33253341700038,196.33253341700038,201.47349175,196.803861417,197.8247995419997,198.43272691699985,199.43630174999998,196.33253341700038,196.33253341700038,196.32484387500028,196.33253341700038,196.33253341700038,196.33253341700038,196.32484387500028,196.33253341700038,196.33253341700038,201.47349175,196.33253341700038,201.47349175,201.5578097080006,202.19178954200015,196.33253341700038,2,0,1.28638595800021,reldom2_s008,001,2025-02-06_13h09.47.503,Vis-A-Scan_AC,2022.2.5,None,
16,First_Order,3.0,viswhere,stimulus/viswhere_stim/blank_white.png,stimulus/viswhere_stim/blank_white.png,stimulus/viswhere_stim/120-deg_dot-right_mediumslateblue.png,stimulus/viswhere_stim/150-deg_dot-right_royalblue.png,stimulus/viswhere_stim/blank_white.png,stimulus/viswhere_stim/line_box.png,stimulus/viswhere_stim/line_yes.png,stimulus/viswhere_stim/line_no.png,None,Line,None,Dot,2,0.0,0,5.125,0,5.125,0,5.125,0,0.0,0.625,0,0.0,0,0.0,1,0.5,1,2.125,0,0,0,0,0,0,0,0,0,,,,,0,20,20,20,,,,,,,,,202.39688787500017,202.39688787500017,202.39688787500017,202.39688787500017,202.39688787500017,202.39688787500017,202.39688787500017,202.39688787500017,202.3728234583335,202.39688787500017,202.39688787500017,202.39688787500017,202.3728234583335,202.39688787500017,202.39688787500017,202.39688787500017,204.49842695799998,208.54988458299977,202.39688787500017,202.39688787500017,207.52432820800004,202.8830546250001,203.8968359999999,204.49842695799998,205.51601112499975,202.39688787500017,202.39688787500017,202.38949012500018,202.39688787500017,202.39688787500017,202.39688787500017,202.38949012500018,202.39688787500017,202.39688787500017,207.52432820800004,202.39688787500017,207.52432820800004,207.62131562500053,208.24776891700003,202.39688787500017,2,1,1.0312214989990025,reldom2_s008,001,2025-02-06_13h09.47.503,Vis-A-Scan_AC,2022.2.5,None,
0,0.0,None,fixation,stimulus/viswhat_stim/blank_white.png,stimulus/viswhat_stim/blank_white.png,stimulus/viswhere_stim/blank_white.png,stimulus/viswhere_stim/blank_white.png,stimulus/viswhat_stim/blank_white.png,stimulus/viswhat_stim/blank_white.png,stimulus/viswhat_stim/blank_white.png,stimulus/viswhat_stim/blank_white.png,0.0,0.0,0.0,0.0,0,0.0,0,0.0,0,0.0,0,0.0,0,0.0,0.0,0,0.0,0,0.0,0,0.0,0,0.0,0,0,0,0,0,0,0,0,8,,,,,0,21,21,21,,,,,,,,,208.54988458299977,208.54988458299977,208.54988458299977,208.54988458299977,208.54988458299977,208.54988458299977,208.54988458299977,208.54988458299977,208.44798987533372,208.54988458299977,208.54988458299977,208.54988458299977,208.44798987533372,208.54988458299977,208.54988458299977,208.54988458299977,208.54988458299977,208.54988458299977,208.54988458299977,208.54988458299977,208.54988458299977,208.54988458299977,208.54988458299977,208.54988458299977,208.54988458299977,208.54988458299977,208.54988458299977,208.49798987533373,208.54988458299977,208.54988458299977,208.54988458299977,208.49798987533373,208.54988458299977,208.54988458299977,208.54988458299977,208.54988458299977,208.54988458299977,213.7595565420006,213.7595565420006,216.69970629199997,None,0,,reldom2_s008,001,2025-02-06_13h09.47.503,Vis-A-Scan_AC,2022.2.5,None,
17,Second_Order,3.0,viswhere,stimulus/viswhere_stim/60-deg_dot-right_seagreen.png,stimulus/viswhere_stim/150-deg_dot-right_seagreen.png,stimulus/viswhere_stim/90-deg_dot-right_salmon.png,stimulus/viswhere_stim/90-deg_dot-left_seagreen.png,stimulus/viswhat_stim/match_blank.png,stimulus/viswhat_stim/match_box.png,stimulus/viswhat_stim/match_yes.png,stimulus/viswhat_stim/match_no.png,2.0,Match,Dot,Line,2,5.125,0,5.125,0,5.125,0,5.125,0,0.75,0.75,1,0.5,1,2.125,1,0.5,1,2.125,0,0,0,0,0,0,0,0,0,,,,,0,22,22,22,,,,,,,,,216.69970629199997,221.81871583300017,217.17315400000007,218.17125741700056,218.80645408300006,219.79536224999993,216.69970629199997,216.69970629199997,216.71126962533359,216.69970629199997,216.69970629199997,216.69970629199997,216.71126962533359,216.69970629199997,221.81871583300017,222.5954265420005,224.6828168330003,228.55298520799988,222.5954265420005,222.5954265420005,227.73397466700044,223.06294875000003,224.0795963749997,224.6828168330003,225.68674754200038,222.5954265420005,222.5954265420005,222.5851364583337,222.5954265420005,222.5954265420005,222.5954265420005,222.5851364583337,222.5954265420005,222.5954265420005,227.73397466700044,222.5954265420005,227.73397466700044,227.80969516700043,228.59127012499994,222.5954265420005,1,0,0.46393820799949026,reldom2_s008,001,2025-02-06_13h09.47.503,Vis-A-Scan_AC,2022.2.5,None,
18,Second_Order,3.0,viswhere,stimulus/viswhere_stim/150-deg_dot-right_goldenrod.png,stimulus/viswhere_stim/150-deg_dot-left_cyan.png,stimulus/viswhere_stim/120-deg_dot-left_royalblue.png,stimulus/viswhere_stim/60-deg_dot-left_royalblue.png,stimulus/viswhat_stim/match_blank.png,stimulus/viswhat_stim/match_box.png,stimulus/viswhat_stim/match_yes.png,stimulus/viswhat_stim/match_no.png,2.0,Match,Line,Dot,2,5.125,0,5.125,0,5.125,0,5.125,0,0.625,0.625,1,0.5,1,2.125,1,0.5,1,2.125,0,0,0,0,0,0,0,0,0,,,,,0,23,23,23,,,,,,,,,228.59127012499994,233.71225420800056,229.06728916700013,230.0656556670001,230.70019837500058,231.68943087499974,228.59127012499994,228.59127012499994,228.6029852079999,228.59127012499994,228.59127012499994,228.59127012499994,228.6029852079999,228.59127012499994,233.71225420800056,234.36802395799987,236.4667997080005,240.49689587500052,234.36802395799987,234.36802395799987,239.50331579199974,234.83340337499976,235.8473984580005,236.4667997080005,237.48074600000018,234.36802395799987,234.36802395799987,234.35845900033343,234.36802395799987,234.36802395799987,234.36802395799987,234.35845900033343,234.36802395799987,234.36802395799987,239.50331579199974,234.36802395799987,239.50331579199974,239.58664750000025,240.21254516699992,234.36802395799987,1,0,1.4424875419999807,reldom2_s008,001,2025-02-06_13h09.47.503,Vis-A-Scan_AC,2022.2.5,None,
0,0.0,None,fixation,stimulus/viswhat_stim/blank_white.png,stimulus/viswhat_stim/blank_white.png,stimulus/viswhere_stim/blank_white.png,stimulus/viswhere_stim/blank_white.png,stimulus/viswhat_stim/blank_white.png,stimulus/viswhat_stim/blank_white.png,stimulus/viswhat_stim/blank_white.png,stimulus/viswhat_stim/blank_white.png,0.0,0.0,0.0,0.0,0,0.0,0,0.0,0,0.0,0,0.0,0,0.0,0.0,0,0.0,0,0.0,0,0.0,0,0.0,0,0,0,0,0,0,0,0,10,,,,,0,24,24,24,,,,,,,,,240.49689587500052,240.49689587500052,240.49689587500052,240.49689587500052,240.49689587500052,240.49689587500052,240.49689587500052,240.49689587500052,240.3928469583337,240.49689587500052,240.49689587500052,240.49689587500052,240.3928469583337,240.49689587500052,240.49689587500052,240.49689587500052,240.49689587500052,240.49689587500052,240.49689587500052,240.49689587500052,240.49689587500052,240.49689587500052,240.49689587500052,240.49689587500052,240.49689587500052,240.49689587500052,240.49689587500052,240.44284695833372,240.49689587500052,240.49689587500052,240.49689587500052,240.44284695833372,240.49689587500052,240.49689587500052,240.49689587500052,240.49689587500052,240.49689587500052,245.68226116700043,245.68226116700043,250.6811587080001,None,0,,reldom2_s008,001,2025-02-06_13h09.47.503,Vis-A-Scan_AC,2022.2.5,None,
19,First_Order,4.0,viswhere,stimulus/viswhere_stim/blank_white.png,stimulus/viswhere_stim/blank_white.png,stimulus/viswhere_stim/90-deg_dot-right_royalblue.png,stimulus/viswhere_stim/120-deg_dot-right_goldenrod.png,stimulus/viswhere_stim/blank_white.png,stimulus/viswhere_stim/dot_box.png,stimulus/viswhere_stim/dot_yes.png,stimulus/viswhere_stim/dot_no.png,None,Dot,None,Dot,1,0.0,0,5.125,0,5.125,0,5.125,0,0.0,0.625,0,0.0,0,0.0,1,0.5,1,2.125,0,0,0,0,0,0,0,0,0,,,,,0,25,25,25,,,,,,,,,250.6811587080001,250.6811587080001,250.6811587080001,250.6811587080001,250.6811587080001,250.6811587080001,250.6811587080001,250.6811587080001,250.65698320866676,250.6811587080001,250.6811587080001,250.6811587080001,250.65698320866676,250.6811587080001,250.6811587080001,250.6811587080001,252.78659225000047,256.7402986249999,250.6811587080001,250.6811587080001,255.80771766700036,251.16392791700036,252.16997687500043,252.78659225000047,253.79737741700046,250.6811587080001,250.6811587080001,250.6736498753334,250.6811587080001,250.6811587080001,250.6811587080001,250.6736498753334,250.6811587080001,250.6811587080001,255.80771766700036,250.6811587080001,255.80771766700036,255.92443804200047,256.5499339170001,250.6811587080001,1,1,3.0194873329992333,reldom2_s008,001,2025-02-06_13h09.47.503,Vis-A-Scan_AC,2022.2.5,None,
20,First_Order,4.0,viswhere,stimulus/viswhere_stim/blank_white.png,stimulus/viswhere_stim/blank_white.png,stimulus/viswhere_stim/90-deg_dot-left_peru.png,stimulus/viswhere_stim/90-deg_dot-right_royalblue.png,stimulus/viswhere_stim/blank_white.png,stimulus/viswhere_stim/dot_box.png,stimulus/viswhere_stim/dot_yes.png,stimulus/viswhere_stim/dot_no.png,None,Dot,None,Line,2,0.0,0,5.125,0,5.125,0,5.125,0,0.0,0.625,0,0.0,0,0.0,1,0.5,1,2.125,0,0,0,0,0,0,0,0,0,,,,,0,26,26,26,,,,,,,,,256.7402986249999,256.7402986249999,256.7402986249999,256.7402986249999,256.7402986249999,256.7402986249999,256.7402986249999,256.7402986249999,256.7170118753332,256.7402986249999,256.7402986249999,256.7402986249999,256.7170118753332,256.7402986249999,256.7402986249999,256.7402986249999,258.8545960420006,262.81355195800006,256.7402986249999,256.7402986249999,261.8715043330003,257.2244692080003,258.235013083,258.8545960420006,259.8701189170006,256.7402986249999,256.7402986249999,256.73367854199984,256.7402986249999,256.7402986249999,256.7402986249999,256.73367854199984,256.7402986249999,256.7402986249999,261.8715043330003,256.7402986249999,261.8715043330003,261.96889183300027,262.594731917,256.7402986249999,1,0,1.5007124989997465,reldom2_s008,001,2025-02-06_13h09.47.503,Vis-A-Scan_AC,2022.2.5,None,
21,First_Order,4.0,viswhere,stimulus/viswhere_stim/blank_white.png,stimulus/viswhere_stim/blank_white.png,stimulus/viswhere_stim/120-deg_dot-left_cyan.png,stimulus/viswhere_stim/150-deg_dot-left_seagreen.png,stimulus/viswhere_stim/blank_white.png,stimulus/viswhere_stim/line_box.png,stimulus/viswhere_stim/line_yes.png,stimulus/viswhere_stim/line_no.png,None,Line,None,Dot,2,0.0,0,5.125,0,5.125,0,5.125,0,0.0,0.625,0,0.0,0,0.0,1,0.5,1,2.125,0,0,0,0,0,0,0,0,0,,,,,0,27,27,27,,,,,,,,,262.81355195800006,262.81355195800006,262.81355195800006,262.81355195800006,262.81355195800006,262.81355195800006,262.81355195800006,262.81355195800006,262.7899091253333,262.81355195800006,262.81355195800006,262.81355195800006,262.7899091253333,262.81355195800006,262.81355195800006,262.81355195800006,264.9175261669998,268.88028416700035,262.81355195800006,262.81355195800006,267.9378675830003,263.30029962499975,264.3159729580002,264.9175261669998,265.9363345419997,262.81355195800006,262.81355195800006,262.80657579199993,262.81355195800006,262.81355195800006,262.81355195800006,262.80657579199993,262.81355195800006,262.81355195800006,267.9378675830003,262.81355195800006,267.9378675830003,268.03554908299975,268.66198837499996,262.81355195800006,2,1,1.3776542079995124,reldom2_s008,001,2025-02-06_13h09.47.503,Vis-A-Scan_AC,2022.2.5,None,
22,First_Order,4.0,viswhere,stimulus/viswhere_stim/blank_white.png,stimulus/viswhere_stim/blank_white.png,stimulus/viswhere_stim/150-deg_dot-right_seagreen.png,stimulus/viswhere_stim/150-deg_dot-left_slateblue.png,stimulus/viswhere_stim/blank_white.png,stimulus/viswhere_stim/line_box.png,stimulus/viswhere_stim/line_yes.png,stimulus/viswhere_stim/line_no.png,None,Line,None,Line,1,0.0,0,5.125,0,5.125,0,5.125,0,0.0,0.625,0,0.0,0,0.0,1,0.5,1,2.125,0,0,0,0,0,0,0,0,0,,,,,0,28,28,28,,,,,,,,,268.88028416700035,268.88028416700035,268.88028416700035,268.88028416700035,268.88028416700035,268.88028416700035,268.88028416700035,268.88028416700035,268.8564207913335,268.88028416700035,268.88028416700035,268.88028416700035,268.8564207913335,268.88028416700035,268.88028416700035,268.88028416700035,270.97933250000006,275.0309131670001,268.88028416700035,268.88028416700035,274.0035666670001,269.37177837499985,270.3921669580004,270.97933250000006,271.98459,268.88028416700035,268.88028416700035,268.87308745800016,268.88028416700035,268.88028416700035,268.88028416700035,268.87308745800016,268.88028416700035,268.88028416700035,274.0035666670001,268.88028416700035,274.0035666670001,274.10278754200044,274.73435750000044,268.88028416700035,1,1,1.8164464169994972,reldom2_s008,001,2025-02-06_13h09.47.503,Vis-A-Scan_AC,2022.2.5,None,
0,0.0,None,fixation,stimulus/viswhat_stim/blank_white.png,stimulus/viswhat_stim/blank_white.png,stimulus/viswhere_stim/blank_white.png,stimulus/viswhere_stim/blank_white.png,stimulus/viswhat_stim/blank_white.png,stimulus/viswhat_stim/blank_white.png,stimulus/viswhat_stim/blank_white.png,stimulus/viswhat_stim/blank_white.png,0.0,0.0,0.0,0.0,0,0.0,0,0.0,0,0.0,0,0.0,0,0.0,0.0,0,0.0,0,0.0,0,0.0,0,0.0,0,0,0,0,0,0,0,0,9,,,,,0,29,29,29,,,,,,,,,275.0309131670001,275.0309131670001,275.0309131670001,275.0309131670001,275.0309131670001,275.0309131670001,275.0309131670001,275.0309131670001,274.92907983333345,275.0309131670001,275.0309131670001,275.0309131670001,274.92907983333345,275.0309131670001,275.0309131670001,275.0309131670001,275.0309131670001,275.0309131670001,275.0309131670001,275.0309131670001,275.0309131670001,275.0309131670001,275.0309131670001,275.0309131670001,275.0309131670001,275.0309131670001,275.0309131670001,274.97907983333346,275.0309131670001,275.0309131670001,275.0309131670001,274.97907983333346,275.0309131670001,275.0309131670001,275.0309131670001,275.0309131670001,275.0309131670001,280.24360650000017,280.24360650000017,284.1675936669999,None,0,,reldom2_s008,001,2025-02-06_13h09.47.503,Vis-A-Scan_AC,2022.2.5,None,
23,Second_Order,4.0,viswhere,stimulus/viswhere_stim/90-deg_dot-right_salmon.png,stimulus/viswhere_stim/150-deg_dot-right_seagreen.png,stimulus/viswhere_stim/150-deg_dot-right_mediumslateblue.png,stimulus/viswhere_stim/150-deg_dot-left_lightsseagreen.png,stimulus/viswhat_stim/match_blank.png,stimulus/viswhat_stim/match_box.png,stimulus/viswhat_stim/match_yes.png,stimulus/viswhat_stim/match_no.png,2.0,Match,Dot,Line,2,5.125,0,5.125,0,5.125,0,5.125,0,0.75,0.75,1,0.5,1,2.125,1,0.5,1,2.125,0,0,0,0,0,0,0,0,0,,,,,0,30,30,30,,,,,,,,,284.1675936669999,289.2906835829999,284.6455280420005,285.6438140830005,286.2665750420001,287.26428854200003,284.1675936669999,284.1675936669999,284.1797217913337,284.1675936669999,284.1675936669999,284.1675936669999,284.1797217913337,284.1675936669999,289.2906835829999,290.0723457920003,292.1577925829997,296.07176683299986,290.0723457920003,290.0723457920003,295.21508345799975,290.54381495800044,291.549092792,292.1577925829997,293.1652749169998,290.0723457920003,290.0723457920003,290.0584092503336,290.0723457920003,290.0723457920003,290.0723457920003,290.0584092503336,290.0723457920003,290.0723457920003,295.21508345799975,290.0723457920003,295.21508345799975,295.2854255829998,296.07176683299986,290.0723457920003,2,1,1.116870373999518,reldom2_s008,001,2025-02-06_13h09.47.503,Vis-A-Scan_AC,2022.2.5,None,
24,Second_Order,4.0,viswhere,stimulus/viswhere_stim/90-deg_dot-left_cyan.png,stimulus/viswhere_stim/60-deg_dot-left_slateblue.png,stimulus/viswhere_stim/120-deg_dot-right_goldenrod.png,stimulus/viswhere_stim/90-deg_dot-right_seagreen.png,stimulus/viswhat_stim/match_blank.png,stimulus/viswhat_stim/match_box.png,stimulus/viswhat_stim/match_yes.png,stimulus/viswhat_stim/match_no.png,1.0,Match,Dot,Dot,1,5.125,0,5.125,0,5.125,0,5.125,0,0.625,0.625,1,0.5,1,2.125,1,0.5,1,2.125,0,0,0,0,0,0,0,0,0,,,,,0,31,31,31,,,,,,,,,296.07176683299986,301.1843538330004,296.55546825000056,297.5414552500006,298.1772960420003,299.17487487500057,296.07176683299986,296.07176683299986,296.08355937500056,296.07176683299986,296.07176683299986,296.07176683299986,296.08355937500056,296.07176683299986,301.1843538330004,301.8384874170006,303.93734979200053,307.9757904170001,301.8384874170006,301.8384874170006,306.97803204200045,302.3045580420003,303.31462091699996,303.93734979200053,304.95393341700037,301.8384874170006,301.8384874170006,301.8309663753339,301.8384874170006,301.8384874170006,301.8384874170006,301.8309663753339,301.8384874170006,301.8384874170006,306.97803204200045,301.8384874170006,306.97803204200045,307.04783233299986,307.6770765830006,301.8384874170006,1,1,0.9262936249997438,reldom2_s008,001,2025-02-06_13h09.47.503,Vis-A-Scan_AC,2022.2.5,None,
0,0.0,None,fixation,stimulus/viswhat_stim/blank_white.png,stimulus/viswhat_stim/blank_white.png,stimulus/viswhere_stim/blank_white.png,stimulus/viswhere_stim/blank_white.png,stimulus/viswhat_stim/blank_white.png,stimulus/viswhat_stim/blank_white.png,stimulus/viswhat_stim/blank_white.png,stimulus/viswhat_stim/blank_white.png,0.0,0.0,0.0,0.0,0,0.0,0,0.0,0,0.0,0,0.0,0,0.0,0.0,0,0.0,0,0.0,0,0.0,0,0.0,0,0,0,0,0,0,0,0,10,,,,,0,32,32,32,,,,,,,,,307.9757904170001,307.9757904170001,307.9757904170001,307.9757904170001,307.9757904170001,307.9757904170001,307.9757904170001,307.9757904170001,307.8714505413339,307.9757904170001,307.9757904170001,307.9757904170001,307.8714505413339,307.9757904170001,307.9757904170001,307.9757904170001,307.9757904170001,307.9757904170001,307.9757904170001,307.9757904170001,307.9757904170001,307.9757904170001,307.9757904170001,307.9757904170001,307.9757904170001,307.9757904170001,307.9757904170001,307.9214505413339,307.9757904170001,307.9757904170001,307.9757904170001,307.9214505413339,307.9757904170001,307.9757904170001,307.9757904170001,307.9757904170001,307.9757904170001,313.1760616669999,313.1760616669999,318.2108761670006,None,0,,reldom2_s008,001,2025-02-06_13h09.47.503,Vis-A-Scan_AC,2022.2.5,None,
25,First_Order,5.0,viswhat,stimulus/viswhat_stim/blank_white.png,stimulus/viswhat_stim/blank_white.png,stimulus/viswhat_stim/land_vehicle-shortbus.png,stimulus/viswhat_stim/land_animal-pig.png,stimulus/viswhat_stim/blank_white.png,stimulus/viswhat_stim/location_box.png,stimulus/viswhat_stim/location_yes.png,stimulus/viswhat_stim/location_no.png,None,Location,None,Location,1,0.0,0,5.125,0,5.125,0,5.125,0,0.0,0.625,0,0.0,0,0.0,1,0.5,1,2.125,0,0,0,0,0,0,0,0,0,,,,,0,33,33,33,,,,,,,,,318.2108761670006,318.2108761670006,318.2108761670006,318.2108761670006,318.2108761670006,318.2108761670006,318.2108761670006,318.2108761670006,318.16744720866666,318.2108761670006,318.2108761670006,318.2108761670006,318.16744720866666,318.2108761670006,318.2108761670006,318.2108761670006,320.3134525000005,324.3387000419998,318.2108761670006,318.2108761670006,323.3673883749998,318.6843605419999,319.72275716700005,320.3134525000005,321.35223479199976,318.2108761670006,318.2108761670006,318.18411387533337,318.2108761670006,318.2108761670006,318.2108761670006,318.18411387533337,318.2108761670006,318.2108761670006,323.3673883749998,318.2108761670006,323.3673883749998,323.41576454200003,324.0575219170005,318.2108761670006,1,1,2.478616790999695,reldom2_s008,001,2025-02-06_13h09.47.503,Vis-A-Scan_AC,2022.2.5,None,
26,First_Order,5.0,viswhat,stimulus/viswhat_stim/blank_white.png,stimulus/viswhat_stim/blank_white.png,stimulus/viswhat_stim/land_vehicle-rv.png,stimulus/viswhat_stim/land_animal-bunny.png,stimulus/viswhat_stim/blank_white.png,stimulus/viswhat_stim/type_box.png,stimulus/viswhat_stim/type_yes.png,stimulus/viswhat_stim/type_no.png,None,Type,None,Location,2,0.0,0,5.125,0,5.125,0,5.125,0,0.0,0.625,0,0.0,0,0.0,1,0.5,1,2.125,0,0,0,0,0,0,0,0,0,,,,,0,34,34,34,,,,,,,,,324.3387000419998,324.3387000419998,324.3387000419998,324.3387000419998,324.3387000419998,324.3387000419998,324.3387000419998,324.3387000419998,324.25214850000026,324.3387000419998,324.3387000419998,324.3387000419998,324.25214850000026,324.3387000419998,324.3387000419998,324.3387000419998,326.4163778330003,330.45369649999975,324.3387000419998,324.3387000419998,329.51361041700056,324.8213185000004,325.88623412500056,326.4163778330003,327.4877198330005,324.3387000419998,324.3387000419998,324.30214850000027,324.3387000419998,324.3387000419998,324.3387000419998,324.30214850000027,324.3387000419998,324.3387000419998,329.51361041700056,324.3387000419998,329.51361041700056,329.5564932080006,330.23749000000043,324.3387000419998,2,1,0.8875007079996067,reldom2_s008,001,2025-02-06_13h09.47.503,Vis-A-Scan_AC,2022.2.5,None,
27,First_Order,5.0,viswhat,stimulus/viswhat_stim/blank_white.png,stimulus/viswhat_stim/blank_white.png,stimulus/viswhat_stim/land_animal-zebra.png,stimulus/viswhat_stim/land_vehicle-oldcar.png,stimulus/viswhat_stim/blank_white.png,stimulus/viswhat_stim/location_box.png,stimulus/viswhat_stim/location_yes.png,stimulus/viswhat_stim/location_no.png,None,Location,None,Location,1,0.0,0,5.125,0,5.125,0,5.125,0,0.0,0.625,0,0.0,0,0.0,1,0.5,1,2.125,0,0,0,0,0,0,0,0,0,,,,,0,35,35,35,,,,,,,,,330.45369649999975,330.45369649999975,330.45369649999975,330.45369649999975,330.45369649999975,330.45369649999975,330.45369649999975,330.45369649999975,330.3874900000004,330.45369649999975,330.45369649999975,330.45369649999975,330.3874900000004,330.45369649999975,330.45369649999975,330.45369649999975,332.5519975420002,336.5418203750005,330.45369649999975,330.45369649999975,335.6321441250002,330.94381279200024,331.97156104199985,332.5519975420002,333.5820342500001,330.45369649999975,330.45369649999975,330.4208233333338,330.45369649999975,330.45369649999975,330.45369649999975,330.4208233333338,330.45369649999975,330.45369649999975,335.6321441250002,330.45369649999975,335.6321441250002,335.6711821250001,336.3324102080005,330.45369649999975,1,1,1.2848945829991862,reldom2_s008,001,2025-02-06_13h09.47.503,Vis-A-Scan_AC,2022.2.5,None,
28,First_Order,5.0,viswhat,stimulus/viswhat_stim/blank_white.png,stimulus/viswhat_stim/blank_white.png,stimulus/viswhat_stim/water_vehicle-canoe.png,stimulus/viswhat_stim/land_vehicle-trolley.png,stimulus/viswhat_stim/blank_white.png,stimulus/viswhat_stim/type_box.png,stimulus/viswhat_stim/type_yes.png,stimulus/viswhat_stim/type_no.png,None,Type,None,Type,1,0.0,0,5.125,0,5.125,0,5.125,0,0.0,0.625,0,0.0,0,0.0,1,0.5,1,2.125,0,0,0,0,0,0,0,0,0,,,,,0,36,36,36,,,,,,,,,336.5418203750005,336.5418203750005,336.5418203750005,336.5418203750005,336.5418203750005,336.5418203750005,336.5418203750005,336.5418203750005,336.50465204133354,336.5418203750005,336.5418203750005,336.5418203750005,336.50465204133354,336.5418203750005,336.5418203750005,336.5418203750005,338.6553659580004,342.6807508330003,336.5418203750005,336.5418203750005,341.68770250000034,337.0103850830001,338.03058529200007,338.6553659580004,339.6782640000001,336.5418203750005,336.5418203750005,336.5213187080002,336.5418203750005,336.5418203750005,336.5418203750005,336.5213187080002,336.5418203750005,336.5418203750005,341.68770250000034,336.5418203750005,341.68770250000034,341.76879137500055,342.3987967080002,336.5418203750005,1,1,1.7692151249993913,reldom2_s008,001,2025-02-06_13h09.47.503,Vis-A-Scan_AC,2022.2.5,None,
0,0.0,None,fixation,stimulus/viswhat_stim/blank_white.png,stimulus/viswhat_stim/blank_white.png,stimulus/viswhere_stim/blank_white.png,stimulus/viswhere_stim/blank_white.png,stimulus/viswhat_stim/blank_white.png,stimulus/viswhat_stim/blank_white.png,stimulus/viswhat_stim/blank_white.png,stimulus/viswhat_stim/blank_white.png,0.0,0.0,0.0,0.0,0,0.0,0,0.0,0,0.0,0,0.0,0,0.0,0.0,0,0.0,0,0.0,0,0.0,0,0.0,0,0,0,0,0,0,0,0,9,,,,,0,37,37,37,,,,,,,,,342.6807508330003,342.6807508330003,342.6807508330003,342.6807508330003,342.6807508330003,342.6807508330003,342.6807508330003,342.6807508330003,342.58018212500025,342.6807508330003,342.6807508330003,342.6807508330003,342.58018212500025,342.6807508330003,342.6807508330003,342.6807508330003,342.6807508330003,342.6807508330003,342.6807508330003,342.6807508330003,342.6807508330003,342.6807508330003,342.6807508330003,342.6807508330003,342.6807508330003,342.6807508330003,342.6807508330003,342.63018212500026,342.6807508330003,342.6807508330003,342.6807508330003,342.63018212500026,342.6807508330003,342.6807508330003,342.6807508330003,342.6807508330003,342.6807508330003,347.9012168750005,347.9012168750005,351.8296057080006,None,0,,reldom2_s008,001,2025-02-06_13h09.47.503,Vis-A-Scan_AC,2022.2.5,None,
29,Second_Order,5.0,viswhat,stimulus/viswhat_stim/land_vehicle-schoolbus.png,stimulus/viswhat_stim/land_animal-snake.png,stimulus/viswhat_stim/water_vehicle-cruiser.png,stimulus/viswhat_stim/water_animal-whale.png,stimulus/viswhat_stim/match_blank.png,stimulus/viswhat_stim/match_box.png,stimulus/viswhat_stim/match_yes.png,stimulus/viswhat_stim/match_no.png,1.0,Match,Location,Location,1,5.125,0,5.125,0,5.125,0,5.125,0,0.75,0.75,1,0.5,1,2.125,1,0.5,1,2.125,0,0,0,0,0,0,0,0,0,,,,,0,38,38,38,,,,,,,,,351.8296057080006,356.947465708,352.3013437079999,353.2994353330005,353.9229814170003,354.9201387080002,351.8296057080006,351.8296057080006,351.83526687533333,351.8296057080006,351.8296057080006,351.8296057080006,351.83526687533333,351.8296057080006,356.947465708,357.82907324999996,359.8702324579999,,357.82907324999996,357.82907324999996,363.0164652080002,358.24835695799993,359.305956958,359.8702324579999,360.99260033300015,357.82907324999996,357.82907324999996,357.7632236253333,357.82907324999996,357.82907324999996,357.82907324999996,357.7632236253333,357.82907324999996,357.82907324999996,363.0164652080002,357.82907324999996,363.0164652080002,363.0164652080002,,357.82907324999996,1,1,0.48806366699955106,reldom2_s008,001,2025-02-06_13h09.47.503,Vis-A-Scan_AC,2022.2.5,None,
30,Second_Order,5.0,viswhat,stimulus/viswhat_stim/land_vehicle-tank.png,stimulus/viswhat_stim/water_vehicle-cabincruiser.png,stimulus/viswhat_stim/land_animal-pig.png,stimulus/viswhat_stim/water_animal-stingray.png,stimulus/viswhat_stim/match_blank.png,stimulus/viswhat_stim/match_box.png,stimulus/viswhat_stim/match_yes.png,stimulus/viswhat_stim/match_no.png,1.0,Match,Type,Type,1,5.125,0,5.125,0,5.125,0,5.125,0,0.625,0.625,1,0.5,1,2.125,1,0.5,1,2.125,0,0,0,0,0,0,0,0,0,,,,,0,39,39,39,,,,,,,,,363.81219191699984,368.9359330420002,364.27928070800044,365.27737570800036,365.90096616699975,366.8979334169999,363.81219191699984,363.81219191699984,363.8258691666666,363.81219191699984,363.81219191699984,363.81219191699984,363.8258691666666,363.81219191699984,368.9359330420002,369.6070300420006,371.6938761250003,375.7460412500004,369.6070300420006,369.6070300420006,374.7518177080001,370.0725404169998,371.09430554200026,371.6938761250003,372.6986708330005,369.6070300420006,369.6070300420006,369.58727850033347,369.6070300420006,369.6070300420006,369.6070300420006,369.58727850033347,369.6070300420006,369.6070300420006,374.7518177080001,369.6070300420006,374.7518177080001,374.81820287499977,375.45324337500006,369.6070300420006,1,1,0.8019932079996579,reldom2_s008,001,2025-02-06_13h09.47.503,Vis-A-Scan_AC,2022.2.5,None,
0,0.0,None,fixation,stimulus/viswhat_stim/blank_white.png,stimulus/viswhat_stim/blank_white.png,stimulus/viswhere_stim/blank_white.png,stimulus/viswhere_stim/blank_white.png,stimulus/viswhat_stim/blank_white.png,stimulus/viswhat_stim/blank_white.png,stimulus/viswhat_stim/blank_white.png,stimulus/viswhat_stim/blank_white.png,0.0,0.0,0.0,0.0,0,0.0,0,0.0,0,0.0,0,0.0,0,0.0,0.0,0,0.0,0,0.0,0,0.0,0,0.0,0,0,0,0,0,0,0,0,10,,,,,0,40,40,40,,,,,,,,,375.7460412500004,375.7460412500004,375.7460412500004,375.7460412500004,375.7460412500004,375.7460412500004,375.7460412500004,375.7460412500004,375.65261437500027,375.7460412500004,375.7460412500004,375.7460412500004,375.65261437500027,375.7460412500004,375.7460412500004,375.7460412500004,375.7460412500004,375.7460412500004,375.7460412500004,375.7460412500004,375.7460412500004,375.7460412500004,375.7460412500004,375.7460412500004,375.7460412500004,375.7460412500004,375.7460412500004,375.7026143750003,375.7460412500004,375.7460412500004,375.7460412500004,375.7026143750003,375.7460412500004,375.7460412500004,375.7460412500004,375.7460412500004,375.7460412500004,380.9493961670005,380.9493961670005,385.97786158300005,None,0,,reldom2_s008,001,2025-02-06_13h09.47.503,Vis-A-Scan_AC,2022.2.5,None,
31,First_Order,6.0,viswhat,stimulus/viswhat_stim/blank_white.png,stimulus/viswhat_stim/blank_white.png,stimulus/viswhat_stim/land_vehicle-rv.png,stimulus/viswhat_stim/land_animal-ostrich.png,stimulus/viswhat_stim/blank_white.png,stimulus/viswhat_stim/type_box.png,stimulus/viswhat_stim/type_yes.png,stimulus/viswhat_stim/type_no.png,None,Type,None,Location,2,0.0,0,5.125,0,5.125,0,5.125,0,0.0,0.625,0,0.0,0,0.0,1,0.5,1,2.125,0,0,0,0,0,0,0,0,0,,,,,0,41,41,41,,,,,,,,,385.97786158300005,385.97786158300005,385.97786158300005,385.97786158300005,385.97786158300005,385.97786158300005,385.97786158300005,385.97786158300005,385.94309679166656,385.97786158300005,385.97786158300005,385.97786158300005,385.94309679166656,385.97786158300005,385.97786158300005,385.97786158300005,388.0802209170006,392.1316968330002,385.97786158300005,385.97786158300005,391.10853833300007,386.465952042,387.49546937500054,388.0802209170006,389.1097968330005,385.97786158300005,385.97786158300005,385.95976345833327,385.97786158300005,385.97786158300005,385.97786158300005,385.95976345833327,385.97786158300005,385.97786158300005,391.10853833300007,385.97786158300005,391.10853833300007,391.2018110830004,391.84018900000046,385.97786158300005,2,1,0.7075289579997843,reldom2_s008,001,2025-02-06_13h09.47.503,Vis-A-Scan_AC,2022.2.5,None,
32,First_Order,6.0,viswhat,stimulus/viswhat_stim/blank_white.png,stimulus/viswhat_stim/blank_white.png,stimulus/viswhat_stim/land_animal-moose.png,stimulus/viswhat_stim/water_animal-dolphin.png,stimulus/viswhat_stim/blank_white.png,stimulus/viswhat_stim/type_box.png,stimulus/viswhat_stim/type_yes.png,stimulus/viswhat_stim/type_no.png,None,Type,None,Type,1,0.0,0,5.125,0,5.125,0,5.125,0,0.0,0.625,0,0.0,0,0.0,1,0.5,1,2.125,0,0,0,0,0,0,0,0,0,,,,,0,42,42,42,,,,,,,,,392.1316968330002,392.1316968330002,392.1316968330002,392.1316968330002,392.1316968330002,392.1316968330002,392.1316968330002,392.1316968330002,392.0330839169997,392.1316968330002,392.1316968330002,392.1316968330002,392.0330839169997,392.1316968330002,392.1316968330002,392.1316968330002,394.21775849999995,398.22983312500037,392.1316968330002,392.1316968330002,397.3038825829999,392.6069847079998,393.682794542,394.21775849999995,395.28960908299996,392.1316968330002,392.1316968330002,392.0830839169997,392.1316968330002,392.1316968330002,392.1316968330002,392.0830839169997,392.1316968330002,392.1316968330002,397.3038825829999,392.1316968330002,397.3038825829999,397.3575355419998,398.22983312500037,392.1316968330002,1,1,0.3781838750001043,reldom2_s008,001,2025-02-06_13h09.47.503,Vis-A-Scan_AC,2022.2.5,None,
33,First_Order,6.0,viswhat,stimulus/viswhat_stim/blank_white.png,stimulus/viswhat_stim/blank_white.png,stimulus/viswhat_stim/land_vehicle-buldozer.png,stimulus/viswhat_stim/water_vehicle-canoe.png,stimulus/viswhat_stim/blank_white.png,stimulus/viswhat_stim/location_box.png,stimulus/viswhat_stim/location_yes.png,stimulus/viswhat_stim/location_no.png,None,Location,None,Type,2,0.0,0,5.125,0,5.125,0,5.125,0,0.0,0.625,0,0.0,0,0.0,1,0.5,1,2.125,0,0,0,0,0,0,0,0,0,,,,,0,43,43,43,,,,,,,,,398.22983312500037,398.22983312500037,398.22983312500037,398.22983312500037,398.22983312500037,398.22983312500037,398.22983312500037,398.22983312500037,398.17096295866634,398.22983312500037,398.22983312500037,398.22983312500037,398.17096295866634,398.22983312500037,398.22983312500037,398.22983312500037,400.3230757500005,404.2906035420001,398.22983312500037,398.22983312500037,403.3727626250002,398.7069057079998,399.73744287499994,400.3230757500005,401.3560757920004,398.22983312500037,398.22983312500037,398.2042962919997,398.22983312500037,398.22983312500037,398.22983312500037,398.2042962919997,398.22983312500037,398.22983312500037,403.3727626250002,398.22983312500037,403.3727626250002,403.4351320000005,404.08413329199993,398.22983312500037,2,1,0.7632505829997172,reldom2_s008,001,2025-02-06_13h09.47.503,Vis-A-Scan_AC,2022.2.5,None,
34,First_Order,6.0,viswhat,stimulus/viswhat_stim/blank_white.png,stimulus/viswhat_stim/blank_white.png,stimulus/viswhat_stim/land_vehicle-scooter.png,stimulus/viswhat_stim/water_vehicle-motorboatraft.png,stimulus/viswhat_stim/blank_white.png,stimulus/viswhat_stim/location_box.png,stimulus/viswhat_stim/location_yes.png,stimulus/viswhat_stim/location_no.png,None,Location,None,Type,2,0.0,0,5.125,0,5.125,0,5.125,0,0.0,0.625,0,0.0,0,0.0,1,0.5,1,2.125,0,0,0,0,0,0,0,0,0,,,,,0,44,44,44,,,,,,,,,404.2906035420001,404.2906035420001,404.2906035420001,404.2906035420001,404.2906035420001,404.2906035420001,404.2906035420001,404.2906035420001,404.2624591666671,404.2906035420001,404.2906035420001,404.2906035420001,404.2624591666671,404.2906035420001,404.2906035420001,404.2906035420001,406.39860000000044,410.4411694999999,404.2906035420001,404.2906035420001,409.4163122079999,404.7757564580006,405.7888662080004,406.39860000000044,407.4141637920002,404.2906035420001,404.2906035420001,404.27912583333375,404.2906035420001,404.2906035420001,404.2906035420001,404.27912583333375,404.2906035420001,404.2906035420001,409.4163122079999,404.2906035420001,409.4163122079999,409.514164792,410.1451297499998,404.2906035420001,2,1,2.7066369999993185,reldom2_s008,001,2025-02-06_13h09.47.503,Vis-A-Scan_AC,2022.2.5,None,
0,0.0,None,fixation,stimulus/viswhat_stim/blank_white.png,stimulus/viswhat_stim/blank_white.png,stimulus/viswhere_stim/blank_white.png,stimulus/viswhere_stim/blank_white.png,stimulus/viswhat_stim/blank_white.png,stimulus/viswhat_stim/blank_white.png,stimulus/viswhat_stim/blank_white.png,stimulus/viswhat_stim/blank_white.png,0.0,0.0,0.0,0.0,0,0.0,0,0.0,0,0.0,0,0.0,0,0.0,0.0,0,0.0,0,0.0,0,0.0,0,0.0,0,0,0,0,0,0,0,0,8,,,,,0,45,45,45,,,,,,,,,410.4411694999999,410.4411694999999,410.4411694999999,410.4411694999999,410.4411694999999,410.4411694999999,410.4411694999999,410.4411694999999,410.3348849583338,410.4411694999999,410.4411694999999,410.4411694999999,410.3348849583338,410.4411694999999,410.4411694999999,410.4411694999999,410.4411694999999,410.4411694999999,410.4411694999999,410.4411694999999,410.4411694999999,410.4411694999999,410.4411694999999,410.4411694999999,410.4411694999999,410.4411694999999,410.4411694999999,410.4015516250005,410.4411694999999,410.4411694999999,410.4411694999999,410.4015516250005,410.4411694999999,410.4411694999999,410.4411694999999,410.4411694999999,410.4411694999999,415.6692402919998,415.6692402919998,418.60492633300055,None,0,,reldom2_s008,001,2025-02-06_13h09.47.503,Vis-A-Scan_AC,2022.2.5,None,
35,Second_Order,6.0,viswhat,stimulus/viswhat_stim/land_vehicle-train.png,stimulus/viswhat_stim/land_animal-moose.png,stimulus/viswhat_stim/land_vehicle-schoolbus.png,stimulus/viswhat_stim/water_vehicle-sailboat.png,stimulus/viswhat_stim/match_blank.png,stimulus/viswhat_stim/match_box.png,stimulus/viswhat_stim/match_yes.png,stimulus/viswhat_stim/match_no.png,2.0,Match,Location,Type,2,5.125,0,5.125,0,5.125,0,5.125,0,0.75,0.75,1,0.5,1,2.125,1,0.5,1,2.125,0,0,0,0,0,0,0,0,0,,,,,0,46,46,46,,,,,,,,,418.60492633300055,423.7189087500001,419.0514578330003,420.04070483299984,420.67688783300036,421.6740076670003,418.60492633300055,418.60492633300055,418.61411787466716,418.60492633300055,418.60492633300055,418.60492633300055,418.61411787466716,418.60492633300055,423.7189087500001,424.5652672080005,426.65300325000044,,424.5652672080005,424.5652672080005,429.7354154169998,425.035635792,426.0804705420005,426.65300325000044,427.70143754200035,424.5652672080005,424.5652672080005,424.51854545866723,424.5652672080005,424.5652672080005,424.5652672080005,424.51854545866723,424.5652672080005,424.5652672080005,429.7354154169998,424.5652672080005,429.7354154169998,429.7354154169998,,424.5652672080005,2,1,0.6317343749997235,reldom2_s008,001,2025-02-06_13h09.47.503,Vis-A-Scan_AC,2022.2.5,None,
36,Second_Order,6.0,viswhat,stimulus/viswhat_stim/land_animal-moose.png,stimulus/viswhat_stim/land_vehicle-schoolbus.png,stimulus/viswhat_stim/land_vehicle-pickuptruck.png,stimulus/viswhat_stim/water_vehicle-canoe(1).png,stimulus/viswhat_stim/match_blank.png,stimulus/viswhat_stim/match_box.png,stimulus/viswhat_stim/match_yes.png,stimulus/viswhat_stim/match_no.png,2.0,Match,Location,Type,2,5.125,0,5.125,0,5.125,0,5.125,0,0.625,0.625,1,0.5,1,2.125,1,0.5,1,2.125,0,0,0,0,0,0,0,0,0,,,,,0,47,47,47,,,,,,,,,430.5751679169998,435.69565129200055,431.0164200830004,432.01439412499985,432.638549667,433.63509729199995,430.5751679169998,430.5751679169998,430.58196158299995,430.5751679169998,430.5751679169998,430.5751679169998,430.58196158299995,430.5751679169998,435.69565129200055,436.36009187499985,438.4567917080003,442.5007426250004,436.36009187499985,436.36009187499985,441.50566716699996,436.81901516700054,437.8252521250006,438.4567917080003,439.472277375,436.36009187499985,436.36009187499985,436.34175516633377,436.36009187499985,436.36009187499985,436.36009187499985,436.34175516633377,436.36009187499985,436.36009187499985,441.50566716699996,436.36009187499985,441.50566716699996,441.57180379200054,442.2067314169999,436.36009187499985,2,1,0.5499859999999899,reldom2_s008,001,2025-02-06_13h09.47.503,Vis-A-Scan_AC,2022.2.5,None,
0,0.0,None,fixation,stimulus/viswhat_stim/blank_white.png,stimulus/viswhat_stim/blank_white.png,stimulus/viswhere_stim/blank_white.png,stimulus/viswhere_stim/blank_white.png,stimulus/viswhat_stim/blank_white.png,stimulus/viswhat_stim/blank_white.png,stimulus/viswhat_stim/blank_white.png,stimulus/viswhat_stim/blank_white.png,0.0,0.0,0.0,0.0,0,0.0,0,0.0,0,0.0,0,0.0,0,0.0,0.0,0,0.0,0,0.0,0,0.0,0,0.0,0,0,0,0,0,0,0,0,8,,,,,0,48,48,48,,,,,,,,,442.5007426250004,442.5007426250004,442.5007426250004,442.5007426250004,442.5007426250004,442.5007426250004,442.5007426250004,442.5007426250004,442.40681408300003,442.5007426250004,442.5007426250004,442.5007426250004,442.40681408300003,442.5007426250004,442.5007426250004,442.5007426250004,442.5007426250004,442.5007426250004,442.5007426250004,442.5007426250004,442.5007426250004,442.5007426250004,442.5007426250004,442.5007426250004,442.5007426250004,442.5007426250004,442.5007426250004,442.45681408300004,442.5007426250004,442.5007426250004,442.5007426250004,442.45681408300004,442.5007426250004,442.5007426250004,442.5007426250004,442.5007426250004,442.5007426250004,447.7105749580005,447.7105749580005,450.71883929199976,None,0,,reldom2_s008,001,2025-02-06_13h09.47.503,Vis-A-Scan_AC,2022.2.5,None,
37,First_Order,7.0,viswhere,stimulus/viswhere_stim/blank_white.png,stimulus/viswhere_stim/blank_white.png,stimulus/viswhere_stim/120-deg_dot-right_turquoise.png,stimulus/viswhere_stim/120-deg_dot-left_slateblue.png,stimulus/viswhere_stim/blank_white.png,stimulus/viswhere_stim/line_box.png,stimulus/viswhere_stim/line_yes.png,stimulus/viswhere_stim/line_no.png,None,Line,None,Line,1,0.0,0,5.125,0,5.125,0,5.125,0,0.0,0.625,0,0.0,0,0.0,1,0.5,1,2.125,0,0,0,0,0,0,0,0,0,,,,,0,49,49,49,,,,,,,,,450.71883929199976,450.71883929199976,450.71883929199976,450.71883929199976,450.71883929199976,450.71883929199976,450.71883929199976,450.71883929199976,450.6959152086671,450.71883929199976,450.71883929199976,450.71883929199976,450.6959152086671,450.71883929199976,450.71883929199976,450.71883929199976,452.8270280000006,456.7821801250002,450.71883929199976,450.71883929199976,455.8546135830002,451.2026653749999,452.2099856670002,452.8270280000006,453.8397312920006,450.71883929199976,450.71883929199976,450.7125818753338,450.71883929199976,450.71883929199976,450.71883929199976,450.7125818753338,450.71883929199976,450.71883929199976,455.8546135830002,450.71883929199976,455.8546135830002,455.9383392079999,456.5642991670002,450.71883929199976,1,1,1.6966129989996261,reldom2_s008,001,2025-02-06_13h09.47.503,Vis-A-Scan_AC,2022.2.5,None,
38,First_Order,7.0,viswhere,stimulus/viswhere_stim/blank_white.png,stimulus/viswhere_stim/blank_white.png,stimulus/viswhere_stim/30-deg_dot-right_royalblue.png,stimulus/viswhere_stim/30-deg_dot-left_royalblue.png,stimulus/viswhere_stim/blank_white.png,stimulus/viswhere_stim/dot_box.png,stimulus/viswhere_stim/dot_yes.png,stimulus/viswhere_stim/dot_no.png,None,Dot,None,Line,2,0.0,0,5.125,0,5.125,0,5.125,0,0.0,0.625,0,0.0,0,0.0,1,0.5,1,2.125,0,0,0,0,0,0,0,0,0,,,,,0,50,50,50,,,,,,,,,456.7821801250002,456.7821801250002,456.7821801250002,456.7821801250002,456.7821801250002,456.7821801250002,456.7821801250002,456.7821801250002,456.7581281253336,456.7821801250002,456.7821801250002,456.7821801250002,456.7581281253336,456.7821801250002,456.7821801250002,456.7821801250002,458.8923250830003,462.849599958,456.7821801250002,456.7821801250002,461.9208354170005,457.26590204200056,458.2741946670003,458.8923250830003,459.9058600420003,456.7821801250002,456.7821801250002,456.77479479200025,456.7821801250002,456.7821801250002,456.7821801250002,456.77479479200025,456.7821801250002,456.7821801250002,461.9208354170005,456.7821801250002,461.9208354170005,462.0048997920003,462.6312721250006,456.7821801250002,2,1,1.834871000000021,reldom2_s008,001,2025-02-06_13h09.47.503,Vis-A-Scan_AC,2022.2.5,None,
39,First_Order,7.0,viswhere,stimulus/viswhere_stim/blank_white.png,stimulus/viswhere_stim/blank_white.png,stimulus/viswhere_stim/150-deg_dot-left_peru.png,stimulus/viswhere_stim/30-deg_dot-left_goldenrod.png,stimulus/viswhere_stim/blank_white.png,stimulus/viswhere_stim/line_box.png,stimulus/viswhere_stim/line_yes.png,stimulus/viswhere_stim/line_no.png,None,Line,None,Dot,2,0.0,0,5.125,0,5.125,0,5.125,0,0.0,0.625,0,0.0,0,0.0,1,0.5,1,2.125,0,0,0,0,0,0,0,0,0,,,,,0,51,51,51,,,,,,,,,462.849599958,462.849599958,462.849599958,462.849599958,462.849599958,462.849599958,462.849599958,462.849599958,462.8255901253336,462.849599958,462.849599958,462.849599958,462.8255901253336,462.849599958,462.849599958,462.849599958,464.9582806670005,468.91925954199996,462.849599958,462.849599958,467.97344104200056,463.33795066699986,464.35516375000043,464.9582806670005,465.9788267499998,462.849599958,462.849599958,462.8422567920002,462.849599958,462.849599958,462.849599958,462.8422567920002,462.849599958,462.849599958,467.97344104200056,462.849599958,467.97344104200056,468.0721628330002,468.7152210000004,462.849599958,2,1,1.2357612499990864,reldom2_s008,001,2025-02-06_13h09.47.503,Vis-A-Scan_AC,2022.2.5,None,
40,First_Order,7.0,viswhere,stimulus/viswhere_stim/blank_white.png,stimulus/viswhere_stim/blank_white.png,stimulus/viswhere_stim/120-deg_dot-left_royalblue.png,stimulus/viswhere_stim/120-deg_dot-right_slateblue.png,stimulus/viswhere_stim/blank_white.png,stimulus/viswhere_stim/dot_box.png,stimulus/viswhere_stim/dot_yes.png,stimulus/viswhere_stim/dot_no.png,None,Dot,None,Line,2,0.0,0,5.125,0,5.125,0,5.125,0,0.0,0.625,0,0.0,0,0.0,1,0.5,1,2.125,0,0,0,0,0,0,0,0,0,,,,,0,52,52,52,,,,,,,,,468.91925954199996,468.91925954199996,468.91925954199996,468.91925954199996,468.91925954199996,468.91925954199996,468.91925954199996,468.91925954199996,468.89598404133386,468.91925954199996,468.91925954199996,468.91925954199996,468.89598404133386,468.91925954199996,468.91925954199996,468.91925954199996,471.02783770800033,475.06029404200035,468.91925954199996,468.91925954199996,474.0517208330002,469.4048094999998,470.4106820420002,471.02783770800033,472.03933291700014,468.91925954199996,468.91925954199996,468.9126507080005,468.91925954199996,468.91925954199996,468.91925954199996,468.9126507080005,468.91925954199996,468.91925954199996,474.0517208330002,468.91925954199996,474.0517208330002,474.1494627920001,474.77604512500056,468.91925954199996,2,1,1.8989143329999933,reldom2_s008,001,2025-02-06_13h09.47.503,Vis-A-Scan_AC,2022.2.5,None,
0,0.0,None,fixation,stimulus/viswhat_stim/blank_white.png,stimulus/viswhat_stim/blank_white.png,stimulus/viswhere_stim/blank_white.png,stimulus/viswhere_stim/blank_white.png,stimulus/viswhat_stim/blank_white.png,stimulus/viswhat_stim/blank_white.png,stimulus/viswhat_stim/blank_white.png,stimulus/viswhat_stim/blank_white.png,0.0,0.0,0.0,0.0,0,0.0,0,0.0,0,0.0,0,0.0,0,0.0,0.0,0,0.0,0,0.0,0,0.0,0,0.0,0,0,0,0,0,0,0,0,9,,,,,0,53,53,53,,,,,,,,,475.06029404200035,475.06029404200035,475.06029404200035,475.06029404200035,475.06029404200035,475.06029404200035,475.06029404200035,475.06029404200035,474.9568989583334,475.06029404200035,475.06029404200035,475.06029404200035,474.9568989583334,475.06029404200035,475.06029404200035,475.06029404200035,475.06029404200035,475.06029404200035,475.06029404200035,475.06029404200035,475.06029404200035,475.06029404200035,475.06029404200035,475.06029404200035,475.06029404200035,475.06029404200035,475.06029404200035,475.0068989583334,475.06029404200035,475.06029404200035,475.06029404200035,475.0068989583334,475.06029404200035,475.06029404200035,475.06029404200035,475.06029404200035,475.06029404200035,480.2903841670004,480.2903841670004,484.21866104200035,None,0,,reldom2_s008,001,2025-02-06_13h09.47.503,Vis-A-Scan_AC,2022.2.5,None,
41,Second_Order,7.0,viswhere,stimulus/viswhere_stim/90-deg_dot-right_seagreen.png,stimulus/viswhere_stim/90-deg_dot-left_salmon.png,stimulus/viswhere_stim/60-deg_dot-left_slateblue.png,stimulus/viswhere_stim/60-deg_dot-right_lightsseagreen.png,stimulus/viswhat_stim/match_blank.png,stimulus/viswhat_stim/match_box.png,stimulus/viswhat_stim/match_yes.png,stimulus/viswhat_stim/match_no.png,1.0,Match,Line,Line,1,5.125,0,5.125,0,5.125,0,5.125,0,0.75,0.75,1,0.5,1,2.125,1,0.5,1,2.125,0,0,0,0,0,0,0,0,0,,,,,0,54,54,54,,,,,,,,,484.21866104200035,489.3353138749999,484.6896421669999,485.6884767920001,486.3233007919998,487.3126857920006,484.21866104200035,484.21866104200035,484.2298881663338,484.21866104200035,484.21866104200035,484.21866104200035,484.2298881663338,484.21866104200035,489.3353138749999,490.1143231249998,492.19899350000014,496.09845654200035,490.1143231249998,490.1143231249998,495.24538245799977,490.58267162500033,491.59734941700026,492.19899350000014,493.21947770800034,490.1143231249998,490.1143231249998,490.10255841633307,490.1143231249998,490.1143231249998,490.1143231249998,490.10255841633307,490.1143231249998,490.1143231249998,495.24538245799977,490.1143231249998,495.24538245799977,495.32905991700045,496.09845654200035,490.1143231249998,1,1,0.7425617079998119,reldom2_s008,001,2025-02-06_13h09.47.503,Vis-A-Scan_AC,2022.2.5,None,
42,Second_Order,7.0,viswhere,stimulus/viswhere_stim/150-deg_dot-left_cyan.png,stimulus/viswhere_stim/60-deg_dot-left_royalblue.png,stimulus/viswhere_stim/30-deg_dot-right_mediumslateblue.png,stimulus/viswhere_stim/90-deg_dot-right_peru.png,stimulus/viswhat_stim/match_blank.png,stimulus/viswhat_stim/match_box.png,stimulus/viswhat_stim/match_yes.png,stimulus/viswhat_stim/match_no.png,1.0,Match,Dot,Dot,1,5.125,0,5.125,0,5.125,0,5.125,0,0.625,0.625,1,0.5,1,2.125,1,0.5,1,2.125,0,0,0,0,0,0,0,0,0,,,,,0,55,55,55,,,,,,,,,496.09845654200035,501.2144746670001,496.5842877080004,497.58273983300023,498.20506466700044,499.2032083330005,496.09845654200035,496.09845654200035,496.1116306250004,496.09845654200035,496.09845654200035,496.09845654200035,496.1116306250004,496.09845654200035,501.2144746670001,501.8685845,503.97169120800027,508.0082437500005,501.8685845,501.8685845,507.00359095800013,502.3352764170004,503.34854583300057,503.97169120800027,504.9926135830001,501.8685845,501.8685845,501.8590058753339,501.8685845,501.8685845,501.8685845,501.8590058753339,501.8685845,501.8685845,507.00359095800013,501.8685845,507.00359095800013,507.08699445799994,507.7217984580002,501.8685845,2,0,0.5573551249999582,reldom2_s008,001,2025-02-06_13h09.47.503,Vis-A-Scan_AC,2022.2.5,None,
0,0.0,None,fixation,stimulus/viswhat_stim/blank_white.png,stimulus/viswhat_stim/blank_white.png,stimulus/viswhere_stim/blank_white.png,stimulus/viswhere_stim/blank_white.png,stimulus/viswhat_stim/blank_white.png,stimulus/viswhat_stim/blank_white.png,stimulus/viswhat_stim/blank_white.png,stimulus/viswhat_stim/blank_white.png,0.0,0.0,0.0,0.0,0,0.0,0,0.0,0,0.0,0,0.0,0,0.0,0.0,0,0.0,0,0.0,0,0.0,0,0.0,0,0,0,0,0,0,0,0,8,,,,,0,56,56,56,,,,,,,,,508.0082437500005,508.0082437500005,508.0082437500005,508.0082437500005,508.0082437500005,508.0082437500005,508.0082437500005,508.0082437500005,507.9023456253338,508.0082437500005,508.0082437500005,508.0082437500005,507.9023456253338,508.0082437500005,508.0082437500005,508.0082437500005,508.0082437500005,508.0082437500005,508.0082437500005,508.0082437500005,508.0082437500005,508.0082437500005,508.0082437500005,508.0082437500005,508.0082437500005,508.0082437500005,508.0082437500005,507.9523456253338,508.0082437500005,508.0082437500005,508.0082437500005,507.9523456253338,508.0082437500005,508.0082437500005,508.0082437500005,508.0082437500005,508.0082437500005,513.2179997499998,513.2179997499998,516.231614458,None,0,,reldom2_s008,001,2025-02-06_13h09.47.503,Vis-A-Scan_AC,2022.2.5,None,
43,First_Order,8.0,viswhere,stimulus/viswhere_stim/blank_white.png,stimulus/viswhere_stim/blank_white.png,stimulus/viswhere_stim/150-deg_dot-left_lightsseagreen.png,stimulus/viswhere_stim/30-deg_dot-left_salmon.png,stimulus/viswhere_stim/blank_white.png,stimulus/viswhere_stim/dot_box.png,stimulus/viswhere_stim/dot_yes.png,stimulus/viswhere_stim/dot_no.png,None,Dot,None,Dot,1,0.0,0,5.125,0,5.125,0,5.125,0,0.0,0.625,0,0.0,0,0.0,1,0.5,1,2.125,0,0,0,0,0,0,0,0,0,,,,,0,57,57,57,,,,,,,,,516.231614458,516.231614458,516.231614458,516.231614458,516.231614458,516.231614458,516.231614458,516.231614458,516.2079439996666,516.231614458,516.231614458,516.231614458,516.2079439996666,516.231614458,516.231614458,516.231614458,518.3310450830004,522.2986438329999,516.231614458,516.231614458,521.370157583,516.7178188329999,517.7304212079998,518.3310450830004,519.3469307080004,516.231614458,516.231614458,516.2246106663332,516.231614458,516.231614458,516.231614458,516.2246106663332,516.231614458,516.231614458,521.370157583,516.231614458,521.370157583,521.4533719580004,522.0794727500006,516.231614458,2,0,1.5058367079991513,reldom2_s008,001,2025-02-06_13h09.47.503,Vis-A-Scan_AC,2022.2.5,None,
44,First_Order,8.0,viswhere,stimulus/viswhere_stim/blank_white.png,stimulus/viswhere_stim/blank_white.png,stimulus/viswhere_stim/150-deg_dot-right_seagreen.png,stimulus/viswhere_stim/150-deg_dot-left_goldenrod.png,stimulus/viswhere_stim/blank_white.png,stimulus/viswhere_stim/line_box.png,stimulus/viswhere_stim/line_yes.png,stimulus/viswhere_stim/line_no.png,None,Line,None,Line,1,0.0,0,5.125,0,5.125,0,5.125,0,0.0,0.625,0,0.0,0,0.0,1,0.5,1,2.125,0,0,0,0,0,0,0,0,0,,,,,0,58,58,58,,,,,,,,,522.2986438329999,522.2986438329999,522.2986438329999,522.2986438329999,522.2986438329999,522.2986438329999,522.2986438329999,522.2986438329999,522.2739867083332,522.2986438329999,522.2986438329999,522.2986438329999,522.2739867083332,522.2986438329999,522.2986438329999,522.2986438329999,524.398925208,528.3619007920006,522.2986438329999,522.2986438329999,527.4258817500004,522.7892838329999,523.7929562919999,524.398925208,525.405679167,522.2986438329999,522.2986438329999,522.2906533749998,522.2986438329999,522.2986438329999,522.2986438329999,522.2906533749998,522.2986438329999,522.2986438329999,527.4258817500004,522.2986438329999,527.4258817500004,527.5153345420003,528.1435855,522.2986438329999,1,1,1.2883384579999984,reldom2_s008,001,2025-02-06_13h09.47.503,Vis-A-Scan_AC,2022.2.5,None,
45,First_Order,8.0,viswhere,stimulus/viswhere_stim/blank_white.png,stimulus/viswhere_stim/blank_white.png,stimulus/viswhere_stim/150-deg_dot-left_seagreen.png,stimulus/viswhere_stim/60-deg_dot-left_turquoise.png,stimulus/viswhere_stim/blank_white.png,stimulus/viswhere_stim/dot_box.png,stimulus/viswhere_stim/dot_yes.png,stimulus/viswhere_stim/dot_no.png,None,Dot,None,Dot,1,0.0,0,5.125,0,5.125,0,5.125,0,0.0,0.625,0,0.0,0,0.0,1,0.5,1,2.125,0,0,0,0,0,0,0,0,0,,,,,0,59,59,59,,,,,,,,,528.3619007920006,528.3619007920006,528.3619007920006,528.3619007920006,528.3619007920006,528.3619007920006,528.3619007920006,528.3619007920006,528.3382247503336,528.3619007920006,528.3619007920006,528.3619007920006,528.3382247503336,528.3619007920006,528.3619007920006,528.3619007920006,530.4632320000001,534.4309305830002,528.3619007920006,528.3619007920006,533.4887194580006,528.8496814999999,529.8625619169998,530.4632320000001,531.482115625,528.3619007920006,528.3619007920006,528.3548914170002,528.3619007920006,528.3619007920006,528.3619007920006,528.3548914170002,528.3619007920006,528.3619007920006,533.4887194580006,528.3619007920006,533.4887194580006,533.5870150000001,534.2134886250005,528.3619007920006,2,0,1.7199822080001468,reldom2_s008,001,2025-02-06_13h09.47.503,Vis-A-Scan_AC,2022.2.5,None,
46,First_Order,8.0,viswhere,stimulus/viswhere_stim/blank_white.png,stimulus/viswhere_stim/blank_white.png,stimulus/viswhere_stim/150-deg_dot-left_lightsseagreen.png,stimulus/viswhere_stim/60-deg_dot-left_royalblue.png,stimulus/viswhere_stim/blank_white.png,stimulus/viswhere_stim/line_box.png,stimulus/viswhere_stim/line_yes.png,stimulus/viswhere_stim/line_no.png,None,Line,None,Dot,2,0.0,0,5.125,0,5.125,0,5.125,0,0.0,0.625,0,0.0,0,0.0,1,0.5,1,2.125,0,0,0,0,0,0,0,0,0,,,,,0,60,60,60,,,,,,,,,534.4309305830002,534.4309305830002,534.4309305830002,534.4309305830002,534.4309305830002,534.4309305830002,534.4309305830002,534.4309305830002,534.4074527913339,534.4309305830002,534.4309305830002,534.4309305830002,534.4074527913339,534.4309305830002,534.4309305830002,534.4309305830002,536.5439800000004,540.5842801670005,534.4309305830002,534.4309305830002,539.5554566669998,534.9187246250003,535.9206305420003,536.5439800000004,537.5636581670005,534.4309305830002,534.4309305830002,534.4241194580005,534.4309305830002,534.4309305830002,534.4309305830002,534.4241194580005,534.4309305830002,534.4309305830002,539.5554566669998,534.4309305830002,539.5554566669998,539.6540747500003,540.2852185000002,534.4309305830002,2,1,1.2028701669996735,reldom2_s008,001,2025-02-06_13h09.47.503,Vis-A-Scan_AC,2022.2.5,None,
0,0.0,None,fixation,stimulus/viswhat_stim/blank_white.png,stimulus/viswhat_stim/blank_white.png,stimulus/viswhere_stim/blank_white.png,stimulus/viswhere_stim/blank_white.png,stimulus/viswhat_stim/blank_white.png,stimulus/viswhat_stim/blank_white.png,stimulus/viswhat_stim/blank_white.png,stimulus/viswhat_stim/blank_white.png,0.0,0.0,0.0,0.0,0,0.0,0,0.0,0,0.0,0,0.0,0,0.0,0.0,0,0.0,0,0.0,0,0.0,0,0.0,0,0,0,0,0,0,0,0,9,,,,,0,61,61,61,,,,,,,,,540.5842801670005,540.5842801670005,540.5842801670005,540.5842801670005,540.5842801670005,540.5842801670005,540.5842801670005,540.5842801670005,540.4804572913339,540.5842801670005,540.5842801670005,540.5842801670005,540.4804572913339,540.5842801670005,540.5842801670005,540.5842801670005,540.5842801670005,540.5842801670005,540.5842801670005,540.5842801670005,540.5842801670005,540.5842801670005,540.5842801670005,540.5842801670005,540.5842801670005,540.5842801670005,540.5842801670005,540.5304572913338,540.5842801670005,540.5842801670005,540.5842801670005,540.5304572913338,540.5842801670005,540.5842801670005,540.5842801670005,540.5842801670005,540.5842801670005,545.8081726669998,545.8081726669998,549.7408565830001,None,0,,reldom2_s008,001,2025-02-06_13h09.47.503,Vis-A-Scan_AC,2022.2.5,None,
47,Second_Order,8.0,viswhere,stimulus/viswhere_stim/120-deg_dot-left_goldenrod.png,stimulus/viswhere_stim/120-deg_dot-right_seagreen.png,stimulus/viswhere_stim/90-deg_dot-left_peru.png,stimulus/viswhere_stim/90-deg_dot-right_turquoise.png,stimulus/viswhat_stim/match_blank.png,stimulus/viswhat_stim/match_box.png,stimulus/viswhat_stim/match_yes.png,stimulus/viswhat_stim/match_no.png,1.0,Match,Line,Line,1,5.125,0,5.125,0,5.125,0,5.125,0,0.75,0.75,1,0.5,1,2.125,1,0.5,1,2.125,0,0,0,0,0,0,0,0,0,,,,,0,62,62,62,,,,,,,,,549.7408565830001,554.8647371670004,550.2245858329998,551.2227089580001,551.8476633750006,552.8431094580001,549.7408565830001,549.7408565830001,549.7534015833336,549.7408565830001,549.7408565830001,549.7408565830001,549.7534015833336,549.7408565830001,554.8647371670004,555.6465257079999,557.7392902500005,561.6337544580001,555.6465257079999,555.6465257079999,560.7738190420005,556.1155142500002,557.1327487079998,557.7392902500005,558.7611414580006,555.6465257079999,555.6465257079999,555.633236125333,555.6465257079999,555.6465257079999,555.6465257079999,555.633236125333,555.6465257079999,555.6465257079999,560.7738190420005,555.6465257079999,560.7738190420005,560.8583893330006,561.6337544580001,555.6465257079999,1,1,0.9771791249995658,reldom2_s008,001,2025-02-06_13h09.47.503,Vis-A-Scan_AC,2022.2.5,None,
48,Second_Order,8.0,viswhere,stimulus/viswhere_stim/150-deg_dot-right_salmon.png,stimulus/viswhere_stim/90-deg_dot-right_cyan.png,stimulus/viswhere_stim/60-deg_dot-left_mediumslateblue.png,stimulus/viswhere_stim/30-deg_dot-left_turquoise.png,stimulus/viswhat_stim/match_blank.png,stimulus/viswhat_stim/match_box.png,stimulus/viswhat_stim/match_yes.png,stimulus/viswhat_stim/match_no.png,1.0,Match,Dot,Dot,1,5.125,0,5.125,0,5.125,0,5.125,0,0.625,0.625,1,0.5,1,2.125,1,0.5,1,2.125,0,0,0,0,0,0,0,0,0,,,,,0,63,63,63,,,,,,,,,561.6337544580001,566.7469221250003,562.1186048330001,563.117100333,563.7396859580003,564.7374096250005,561.6337544580001,561.6337544580001,561.6460116249998,561.6337544580001,561.6337544580001,561.6337544580001,561.6460116249998,561.6337544580001,566.7469221250003,567.4099983329997,569.5067140420006,573.5435375830002,567.4099983329997,567.4099983329997,572.546153708,567.8763009579998,568.8856483750005,569.5067140420006,570.5223277920004,567.4099983329997,567.4099983329997,567.3938808333337,567.4099983329997,567.4099983329997,567.4099983329997,567.3938808333337,567.4099983329997,567.4099983329997,572.546153708,567.4099983329997,572.546153708,572.6159291670001,573.2421453329998,567.4099983329997,2,0,1.404057582999485,reldom2_s008,001,2025-02-06_13h09.47.503,Vis-A-Scan_AC,2022.2.5,None,
0,0.0,None,fixation,stimulus/viswhat_stim/blank_white.png,stimulus/viswhat_stim/blank_white.png,stimulus/viswhere_stim/blank_white.png,stimulus/viswhere_stim/blank_white.png,stimulus/viswhat_stim/blank_white.png,stimulus/viswhat_stim/blank_white.png,stimulus/viswhat_stim/blank_white.png,stimulus/viswhat_stim/blank_white.png,0.0,0.0,0.0,0.0,0,0.0,0,0.0,0,0.0,0,0.0,0,0.0,0.0,0,0.0,0,0.0,0,0.0,0,0.0,0,0,0,0,0,0,0,0,16,,,,,0,64,64,64,,,,,,,,,573.5435375830002,573.5435375830002,573.5435375830002,573.5435375830002,573.5435375830002,573.5435375830002,573.5435375830002,573.5435375830002,573.4368134583332,573.5435375830002,573.5435375830002,573.5435375830002,573.4368134583332,573.5435375830002,573.5435375830002,573.5435375830002,573.5435375830002,573.5435375830002,573.5435375830002,573.5435375830002,573.5435375830002,573.5435375830002,573.5435375830002,573.5435375830002,573.5435375830002,573.5435375830002,573.5435375830002,573.4868134583331,573.5435375830002,573.5435375830002,573.5435375830002,573.4868134583331,573.5435375830002,573.5435375830002,573.5435375830002,573.5435375830002,573.5435375830002,578.7568699170006,578.7568699170006,589.7070520420002,None,0,,reldom2_s008,001,2025-02-06_13h09.47.503,Vis-A-Scan_AC,2022.2.5,None,
