Trial,Order,Block,Type,Stimuli_File1,Stimuli_File2,Stimuli_File3,Stimuli_File4,Cue_File1,Cue_File2,Response_File_Yes,Response_File_No,Match,Cue_Dimension,Pair1_Dimension,Pair2_Dimension,Key,Cue1_Duration,Cue1_Onset,Cue2_Duration,Cue2_Onset,ResponseYes_Duration,ResponseYes_Onset,ResponseNo_Duration,ResponseNo_Onset,ITI_Within,ITI_Between,Image1_Duration,Image1_Onset,Image2_Duration,Image2_Onset,Image3_Duration,Image3_Onset,Image4_Duration,Image4_Onset,Sound1_Duration,Sound1_Onset,Sound2_Duration,Sound2_Onset,Sound3_Duration,Sound3_Onset,Sound4_Duration,Sound4_Onset,Fixation_Duration,trials_2.thisRepN,trials_2.thisTrialN,trials_2.thisN,trials_2.thisIndex,trials.thisRepN,trials.thisTrialN,trials.thisN,trials.thisIndex,text_start.started,key_resp_start.started,key_resp_start.keys,key_resp_start.rt,text2.started,key_resp_2.started,key_resp_2.keys,key_resp_2.rt,cue_file1.started,cue_file1.stopped,image_1.started,image_1.stopped,image_2.started,image_2.stopped,sound_icon1.started,sound_icon1.stopped,sound_1.started,sound_1.stopped,sound_icon2.started,sound_icon2.stopped,sound_2.started,sound_2.stopped,image_blank_1.started,image_blank_1.stopped,key_press.started,key_press.stopped,fixation_text.started,cue_file2.started,cue_file2.stopped,image_3.started,image_3.stopped,image_4.started,image_4.stopped,sound_icon3.started,sound_icon3.stopped,sound_3.started,sound_3.stopped,sound_icon4.started,sound_icon4.stopped,sound_4.started,sound_4.stopped,response_yes.started,response_yes.stopped,response_no.started,response_no.stopped,iti_blank.started,iti_blank.stopped,fixation_text.stopped,key_press.keys,key_press.corr,key_press.rt,participant,session,date,expName,psychopyVersion,frameRate,
,,,,,,,,,,,,,,,,,,,,,,,,,,,,,,,,,,,,,,,,,,,,,,,,,,,,7.757131167000807,7.757131167000807,2,0.8132071249992805,,,,,,,,,,,,,,,,,,,,,,,,,,,,,,,,,,,,,,,,,,,,,,,,reldom2_s008,001,2025-02-06_12h36.07.165,What-A-Scan_AC,2022.2.5,None,
,,,,,,,,,,,,,,,,,,,,,,,,,,,,,,,,,,,,,,,,,,,,0,0,0,0,,,,,,,,,8.593993542000135,8.593993542000135,5,18.87742674999936,,,,,,,,,,,,,,,,,,,,,,,,,,,,,,,,,,,,,,,,,,,,reldom2_s008,001,2025-02-06_12h36.07.165,What-A-Scan_AC,2022.2.5,None,
,,,,,,,,,,,,,,,,,,,,,,,,,,,,,,,,,,,,,,,,,,,,1,0,1,0,,,,,,,,,27.48470908300078,27.48470908300078,5,1.9849426249993485,,,,,,,,,,,,,,,,,,,,,,,,,,,,,,,,,,,,,,,,,,,,reldom2_s008,001,2025-02-06_12h36.07.165,What-A-Scan_AC,2022.2.5,None,
,,,,,,,,,,,,,,,,,,,,,,,,,,,,,,,,,,,,,,,,,,,,2,0,2,0,,,,,,,,,29.480549333000454,29.480549333000454,5,1.9902367079994292,,,,,,,,,,,,,,,,,,,,,,,,,,,,,,,,,,,,,,,,,,,,reldom2_s008,001,2025-02-06_12h36.07.165,What-A-Scan_AC,2022.2.5,None,
,,,,,,,,,,,,,,,,,,,,,,,,,,,,,,,,,,,,,,,,,,,,3,0,3,0,,,,,,,,,31.480203125000116,31.480203125000116,5,1.990269249999983,,,,,,,,,,,,,,,,,,,,,,,,,,,,,,,,,,,,,,,,,,,,reldom2_s008,001,2025-02-06_12h36.07.165,What-A-Scan_AC,2022.2.5,None,
0,0.0,None,fixation,stimulus/audwhat_stim/blank_white.png,stimulus/audwhat_stim/blank_white.png,stimulus/viswhat_stim/blank_white.png,stimulus/viswhat_stim/blank_white.png,stimulus/audwhat_stim/blank_white.png,stimulus/audwhat_stim/blank_white.png,stimulus/audwhat_stim/blank_white.png,stimulus/audwhat_stim/blank_white.png,0.0,0.0,0.0,0.0,0,0.0,0,0.0,0,0.0,0,0.0,0,0.0,0.0,0,0.0,0,0.0,0,0.0,0,0.0,0,0.0,0,0.0,0,0.0,0,0.0,16,,,,,0,0,0,0,,,,,,,,,33.674101250000604,33.674101250000604,33.674101250000604,33.674101250000604,33.674101250000604,33.674101250000604,33.674101250000604,33.674101250000604,33.58301133300083,33.674101250000604,33.674101250000604,33.674101250000604,33.58301133300083,33.674101250000604,33.674101250000604,33.674101250000604,33.674101250000604,33.674101250000604,33.674101250000604,33.674101250000604,33.674101250000604,33.674101250000604,33.674101250000604,33.674101250000604,33.674101250000604,33.674101250000604,33.674101250000604,33.63301133300083,33.674101250000604,33.674101250000604,33.674101250000604,33.63301133300083,33.674101250000604,33.674101250000604,33.674101250000604,33.674101250000604,33.674101250000604,38.88039833300081,38.88039833300081,49.88379983300001,None,0,,reldom2_s008,001,2025-02-06_12h36.07.165,What-A-Scan_AC,2022.2.5,None,
1,First_Order,1.0,audwhat,stimulus/audwhat_stim/dummy.wav,stimulus/audwhat_stim/dummy.wav,stimulus/audwhat_stim/percussion mallet_low-pitch_Dtri_loud.wav,stimulus/audwhat_stim/percussion xylophone_high-pitch_F_loud.wav,stimulus/audwhat_stim/blank_white.png,stimulus/audwhat_stim/pitch_box.png,stimulus/audwhat_stim/pitch_yes.png,stimulus/audwhat_stim/pitch_no.png,None,Pitch,None,Category,2,0.0,0,5.125,0,5.125,0,5.125,0,0.0,0.625,0,0.0,0,0.0,0,0.0,0,0.0,0,0.0,0,0.0,1,0.5,1,2.125,0,,,,,0,1,1,1,,,,,,,,,49.88379983300001,49.88379983300001,49.88379983300001,49.88379983300001,49.88379983300001,49.88379983300001,49.88379983300001,49.88379983300001,49.81268641700026,49.88379983300001,49.88379983300001,49.88379983300001,49.81268641700026,49.88379983300001,49.88379983300001,49.88379983300001,51.99330183300026,56.0011090830003,49.88379983300001,49.88379983300001,55.04699137500029,49.88379983300001,49.88379983300001,49.88379983300001,49.88379983300001,50.33315133300039,51.3621279580002,50.30504595866684,,51.99330183300026,53.03033445800065,51.96477020866702,53.03033445800065,49.88379983300001,55.04699137500029,49.88379983300001,55.04699137500029,55.086553625000306,55.757307208000384,49.88379983300001,1,0,1.7318826249993435,reldom2_s008,001,2025-02-06_12h36.07.165,What-A-Scan_AC,2022.2.5,None,
2,First_Order,1.0,audwhat,stimulus/audwhat_stim/dummy.wav,stimulus/audwhat_stim/dummy.wav,stimulus/audwhat_stim/percussion xylophone_high-pitch_Dtri_loud.wav,stimulus/audwhat_stim/percussion mallet_low-pitch_D_loud.wav,stimulus/audwhat_stim/blank_white.png,stimulus/audwhat_stim/pitch_box.png,stimulus/audwhat_stim/pitch_yes.png,stimulus/audwhat_stim/pitch_no.png,None,Pitch,None,Category,2,0.0,0,5.125,0,5.125,0,5.125,0,0.0,0.625,0,0.0,0,0.0,0,0.0,0,0.0,0,0.0,0,0.0,1,0.5,1,2.125,0,,,,,0,2,2,2,,,,,,,,,56.0011090830003,56.0011090830003,56.0011090830003,56.0011090830003,56.0011090830003,56.0011090830003,56.0011090830003,56.0011090830003,55.92976979133358,56.0011090830003,56.0011090830003,56.0011090830003,55.92976979133358,56.0011090830003,56.0011090830003,56.0011090830003,58.11691554200024,,56.0011090830003,56.0011090830003,61.17737987500004,56.0011090830003,56.0011090830003,56.0011090830003,56.0011090830003,56.450676292000026,57.48915891700017,56.42203683366667,57.48915891700017,58.11691554200024,59.15738879200035,58.08855574966698,,56.0011090830003,61.17737987500004,56.0011090830003,61.17737987500004,61.21692541700031,61.89072883300014,56.0011090830003,2,1,0.7793878329994186,reldom2_s008,001,2025-02-06_12h36.07.165,What-A-Scan_AC,2022.2.5,None,
3,First_Order,1.0,audwhat,stimulus/audwhat_stim/dummy.wav,stimulus/audwhat_stim/dummy.wav,stimulus/audwhat_stim/percussion mallet_low-pitch_F_loud.wav,stimulus/audwhat_stim/percussion xylophone_high-pitch_Ftri_loud.wav,stimulus/audwhat_stim/blank_white.png,stimulus/audwhat_stim/category_box.png,stimulus/audwhat_stim/category_yes.png,stimulus/audwhat_stim/category_no.png,None,Category,None,Category,1,0.0,0,5.125,0,5.125,0,5.125,0,0.0,0.625,0,0.0,0,0.0,0,0.0,0,0.0,0,0.0,0,0.0,1,0.5,1,2.125,0,,,,,0,3,3,3,,,,,,,,,62.10308804200031,62.10308804200031,62.10308804200031,62.10308804200031,62.10308804200031,62.10308804200031,62.10308804200031,62.10308804200031,62.02406216633347,62.10308804200031,62.10308804200031,62.10308804200031,62.02406216633347,62.10308804200031,62.10308804200031,62.10308804200031,64.18600662500012,,62.10308804200031,62.10308804200031,67.27541437500076,62.10308804200031,62.10308804200031,62.10308804200031,62.10308804200031,62.55664129200068,63.599072042000444,62.527957041667165,,64.18600662500012,65.23520325000027,64.15719408366682,65.19002100000034,62.10308804200031,67.27541437500076,62.10308804200031,67.27541437500076,67.31515608300015,67.99114237499998,62.10308804200031,1,1,1.2886680419996992,reldom2_s008,001,2025-02-06_12h36.07.165,What-A-Scan_AC,2022.2.5,None,
4,First_Order,1.0,audwhat,stimulus/audwhat_stim/dummy.wav,stimulus/audwhat_stim/dummy.wav,stimulus/audwhat_stim/percussion mallet_low-pitch_Dtri_loud.wav,stimulus/audwhat_stim/percussion mallet_high-pitch_F_loud.wav,stimulus/audwhat_stim/blank_white.png,stimulus/audwhat_stim/category_box.png,stimulus/audwhat_stim/category_yes.png,stimulus/audwhat_stim/category_no.png,None,Category,None,Category,1,0.0,0,5.125,0,5.125,0,5.125,0,0.0,0.625,0,0.0,0,0.0,0,0.0,0,0.0,0,0.0,0,0.0,1,0.5,1,2.125,0,,,,,0,4,4,4,,,,,,,,,68.19982937500026,68.19982937500026,68.19982937500026,68.19982937500026,68.19982937500026,68.19982937500026,68.19982937500026,68.19982937500026,68.1244757083333,68.19982937500026,68.19982937500026,68.19982937500026,68.1244757083333,68.19982937500026,68.19982937500026,68.19982937500026,70.29832600000009,74.33627783300017,68.19982937500026,68.19982937500026,73.34706679200008,68.19982937500026,68.19982937500026,68.19982937500026,68.19982937500026,68.65239825000026,69.70907458300007,68.62356645866682,,70.29832600000009,71.34944895800072,70.26950354166753,71.30416329200034,68.19982937500026,73.34706679200008,68.19982937500026,73.34706679200008,73.42731883300075,74.10619258300085,68.19982937500026,1,1,1.1661868329993013,reldom2_s008,001,2025-02-06_12h36.07.165,What-A-Scan_AC,2022.2.5,None,
0,0.0,None,fixation,stimulus/audwhat_stim/blank_white.png,stimulus/audwhat_stim/blank_white.png,stimulus/viswhat_stim/blank_white.png,stimulus/viswhat_stim/blank_white.png,stimulus/audwhat_stim/blank_white.png,stimulus/audwhat_stim/blank_white.png,stimulus/audwhat_stim/blank_white.png,stimulus/audwhat_stim/blank_white.png,0.0,0.0,0.0,0.0,0,0.0,0,0.0,0,0.0,0,0.0,0,0.0,0.0,0,0.0,0,0.0,0,0.0,0,0.0,0,0.0,0,0.0,0,0.0,0,0.0,10,,,,,0,5,5,5,,,,,,,,,74.33627783300017,74.33627783300017,74.33627783300017,74.33627783300017,74.33627783300017,74.33627783300017,74.33627783300017,74.33627783300017,74.23952591633417,74.33627783300017,74.33627783300017,74.33627783300017,74.23952591633417,74.33627783300017,74.33627783300017,74.33627783300017,74.33627783300017,74.33627783300017,74.33627783300017,74.33627783300017,74.33627783300017,74.33627783300017,74.33627783300017,74.33627783300017,74.33627783300017,74.33627783300017,74.33627783300017,74.28952591633418,74.33627783300017,74.33627783300017,74.33627783300017,74.28952591633418,74.33627783300017,74.33627783300017,74.33627783300017,74.33627783300017,74.33627783300017,79.54486750000069,79.54486750000069,84.49117212500005,None,0,,reldom2_s008,001,2025-02-06_12h36.07.165,What-A-Scan_AC,2022.2.5,None,
5,Second_Order,1.0,audwhat,stimulus/audwhat_stim/string cello_low-pitch_D_loud.wav,stimulus/audwhat_stim/string viola_high-pitch_Dtri_loud.wav,stimulus/audwhat_stim/percussion mallet_low-pitch_D_loud.wav,stimulus/audwhat_stim/string viola_low-pitch_D_loud.wav,stimulus/audwhat_stim/match_blank.png,stimulus/audwhat_stim/match_box.png,stimulus/audwhat_stim/match_yes.png,stimulus/audwhat_stim/match_no.png,2.0,Match,Category,Pitch,2,5.125,0,5.125,0,5.125,0,5.125,0,0.75,0.75,0,0.0,0,0.0,0,0.0,0,0.0,1,0.5,1,2.125,1,0.5,1,2.125,0,,,,,0,6,6,6,,,,,,,,,84.49117212500005,89.6120399170004,84.49117212500005,84.49117212500005,84.49117212500005,84.49117212500005,84.93825508300051,85.93700325000009,84.95102158366741,,86.57172283300042,87.56039287500062,86.57636337466671,,89.6120399170004,90.44408300000032,92.53802933300085,,90.44408300000032,90.44408300000032,95.5950817920002,90.44408300000032,90.44408300000032,90.44408300000032,90.44408300000032,90.89697908300059,91.94662687500022,90.86830758366729,91.90177558300002,92.53802933300085,93.58889158300008,92.50897354166706,,90.44408300000032,95.5950817920002,90.44408300000032,95.5950817920002,95.6352435000008,,90.44408300000032,2,1,1.0369286239993016,reldom2_s008,001,2025-02-06_12h36.07.165,What-A-Scan_AC,2022.2.5,None,
6,Second_Order,1.0,audwhat,stimulus/audwhat_stim/string cello_high-pitch_Dtri_loud.wav,stimulus/audwhat_stim/percussion mallet_high-pitch_Dtri_loud.wav,stimulus/audwhat_stim/percussion mallet_low-pitch_Ftri_loud.wav,stimulus/audwhat_stim/string cello_low-pitch_Ftri_loud.wav,stimulus/audwhat_stim/match_blank.png,stimulus/audwhat_stim/match_box.png,stimulus/audwhat_stim/match_yes.png,stimulus/audwhat_stim/match_no.png,1.0,Match,Pitch,Pitch,1,5.125,0,5.125,0,5.125,0,5.125,0,0.625,0.625,0,0.0,0,0.0,0,0.0,0,0.0,1,0.5,1,2.125,1,0.5,1,2.125,0,,,,,0,7,7,7,,,,,,,,,96.43036758300059,101.54396200000065,96.43036758300059,96.43036758300059,96.43036758300059,96.43036758300059,96.88291870800003,97.8811733750008,96.89543083366722,,98.5160760000008,99.50648762500077,98.51989399966739,99.51837554200029,101.54396200000065,102.25397095800054,104.34154220800065,108.38001125000028,102.25397095800054,102.25397095800054,107.43305729200074,102.25397095800054,102.25397095800054,102.25397095800054,102.25397095800054,102.70664012500038,103.75425708300008,102.67775062466741,103.70926295800018,104.34154220800065,105.38999262500056,104.3129134166668,,102.25397095800054,107.43305729200074,102.25397095800054,107.43305729200074,107.43305729200074,108.11147704200084,102.25397095800054,1,1,1.4831502499991984,reldom2_s008,001,2025-02-06_12h36.07.165,What-A-Scan_AC,2022.2.5,None,
0,0.0,None,fixation,stimulus/audwhat_stim/blank_white.png,stimulus/audwhat_stim/blank_white.png,stimulus/viswhat_stim/blank_white.png,stimulus/viswhat_stim/blank_white.png,stimulus/audwhat_stim/blank_white.png,stimulus/audwhat_stim/blank_white.png,stimulus/audwhat_stim/blank_white.png,stimulus/audwhat_stim/blank_white.png,0.0,0.0,0.0,0.0,0,0.0,0,0.0,0,0.0,0,0.0,0,0.0,0.0,0,0.0,0,0.0,0,0.0,0,0.0,0,0.0,0,0.0,0,0.0,0,0.0,9,,,,,0,8,8,8,,,,,,,,,108.38001125000028,108.38001125000028,108.38001125000028,108.38001125000028,108.38001125000028,108.38001125000028,108.38001125000028,108.38001125000028,108.2846801253337,108.38001125000028,108.38001125000028,108.38001125000028,108.2846801253337,108.38001125000028,108.38001125000028,108.38001125000028,108.38001125000028,108.38001125000028,108.38001125000028,108.38001125000028,108.38001125000028,108.38001125000028,108.38001125000028,108.38001125000028,108.38001125000028,108.38001125000028,108.38001125000028,108.3346801253337,108.38001125000028,108.38001125000028,108.38001125000028,108.3346801253337,108.38001125000028,108.38001125000028,108.38001125000028,108.38001125000028,108.38001125000028,113.5967134170005,113.5967134170005,117.65085425000052,None,0,,reldom2_s008,001,2025-02-06_12h36.07.165,What-A-Scan_AC,2022.2.5,None,
7,First_Order,2.0,audwhat,stimulus/audwhat_stim/dummy.wav,stimulus/audwhat_stim/dummy.wav,stimulus/audwhat_stim/string cello_low-pitch_F_loud.wav,stimulus/audwhat_stim/percussion mallet_low-pitch_F_loud.wav,stimulus/audwhat_stim/blank_white.png,stimulus/audwhat_stim/pitch_box.png,stimulus/audwhat_stim/pitch_yes.png,stimulus/audwhat_stim/pitch_no.png,None,Pitch,None,Pitch,1,0.0,0,5.125,0,5.125,0,5.125,0,0.0,0.625,0,0.0,0,0.0,0,0.0,0,0.0,0,0.0,0,0.0,1,0.5,1,2.125,0,,,,,0,9,9,9,,,,,,,,,117.65085425000052,117.65085425000052,117.65085425000052,117.65085425000052,117.65085425000052,117.65085425000052,117.65085425000052,117.65085425000052,117.5804867086669,117.65085425000052,117.65085425000052,117.65085425000052,117.5804867086669,117.65085425000052,117.65085425000052,117.65085425000052,119.76004829200065,123.77310104200023,117.65085425000052,117.65085425000052,122.83602337500088,117.65085425000052,117.65085425000052,117.65085425000052,117.65085425000052,118.1102291670004,119.163889208,118.08029354166707,,119.76004829200065,120.8186726670001,119.73079108366734,,117.65085425000052,122.83602337500088,117.65085425000052,122.83602337500088,122.87704170800043,123.56201137500011,117.65085425000052,1,1,1.267022915999405,reldom2_s008,001,2025-02-06_12h36.07.165,What-A-Scan_AC,2022.2.5,None,
8,First_Order,2.0,audwhat,stimulus/audwhat_stim/dummy.wav,stimulus/audwhat_stim/dummy.wav,stimulus/audwhat_stim/string cello_low-pitch_Dtri_loud.wav,stimulus/audwhat_stim/percussion mallet_low-pitch_Dtri_loud.wav,stimulus/audwhat_stim/blank_white.png,stimulus/audwhat_stim/category_box.png,stimulus/audwhat_stim/category_yes.png,stimulus/audwhat_stim/category_no.png,None,Category,None,Pitch,2,0.0,0,5.125,0,5.125,0,5.125,0,0.0,0.625,0,0.0,0,0.0,0,0.0,0,0.0,0,0.0,0,0.0,1,0.5,1,2.125,0,,,,,0,10,10,10,,,,,,,,,123.77310104200023,123.77310104200023,123.77310104200023,123.77310104200023,123.77310104200023,123.77310104200023,123.77310104200023,123.77310104200023,123.69534470833344,123.77310104200023,123.77310104200023,123.77310104200023,123.69534470833344,123.77310104200023,123.77310104200023,123.77310104200023,125.85374595800022,129.89506062500004,123.77310104200023,123.77310104200023,128.95183033300054,123.77310104200023,123.77310104200023,123.77310104200023,123.77310104200023,124.23513995800022,125.29887070800032,124.20547129166722,,125.85374595800022,126.92037645800065,125.82437749966745,,123.77310104200023,128.95183033300054,123.77310104200023,128.95183033300054,128.99288141700072,129.6438973330005,123.77310104200023,2,1,0.7125651659989671,reldom2_s008,001,2025-02-06_12h36.07.165,What-A-Scan_AC,2022.2.5,None,
9,First_Order,2.0,audwhat,stimulus/audwhat_stim/dummy.wav,stimulus/audwhat_stim/dummy.wav,stimulus/audwhat_stim/string cello_high-pitch_F_loud.wav,stimulus/audwhat_stim/percussion mallet_high-pitch_F_loud.wav,stimulus/audwhat_stim/blank_white.png,stimulus/audwhat_stim/pitch_box.png,stimulus/audwhat_stim/pitch_yes.png,stimulus/audwhat_stim/pitch_no.png,None,Pitch,None,Pitch,1,0.0,0,5.125,0,5.125,0,5.125,0,0.0,0.625,0,0.0,0,0.0,0,0.0,0,0.0,0,0.0,0,0.0,1,0.5,1,2.125,0,,,,,0,11,11,11,,,,,,,,,129.89506062500004,129.89506062500004,129.89506062500004,129.89506062500004,129.89506062500004,129.89506062500004,129.89506062500004,129.89506062500004,129.81712545833412,129.89506062500004,129.89506062500004,129.89506062500004,129.81712545833412,129.89506062500004,129.89506062500004,129.89506062500004,131.9727231250008,136.01029845800076,129.89506062500004,129.89506062500004,135.06648691700047,129.89506062500004,129.89506062500004,129.89506062500004,129.89506062500004,130.35753758300052,131.41993475000072,130.32774308366723,,131.9727231250008,133.03765204200045,131.9429682916673,,129.89506062500004,135.06648691700047,129.89506062500004,135.06648691700047,135.1072653330002,135.75780362500063,129.89506062500004,1,1,0.5335937499994543,reldom2_s008,001,2025-02-06_12h36.07.165,What-A-Scan_AC,2022.2.5,None,
10,First_Order,2.0,audwhat,stimulus/audwhat_stim/dummy.wav,stimulus/audwhat_stim/dummy.wav,stimulus/audwhat_stim/percussion xylophone_high-pitch_D_loud.wav,stimulus/audwhat_stim/string cello_high-pitch_D_loud.wav,stimulus/audwhat_stim/blank_white.png,stimulus/audwhat_stim/category_box.png,stimulus/audwhat_stim/category_yes.png,stimulus/audwhat_stim/category_no.png,None,Category,None,Pitch,2,0.0,0,5.125,0,5.125,0,5.125,0,0.0,0.625,0,0.0,0,0.0,0,0.0,0,0.0,0,0.0,0,0.0,1,0.5,1,2.125,0,,,,,0,12,12,12,,,,,,,,,136.01029845800076,136.01029845800076,136.01029845800076,136.01029845800076,136.01029845800076,136.01029845800076,136.01029845800076,136.01029845800076,135.93159616633343,136.01029845800076,136.01029845800076,136.01029845800076,135.93159616633343,136.01029845800076,136.01029845800076,136.01029845800076,138.10571908300062,142.14385808300085,136.01029845800076,136.01029845800076,141.17670183300015,136.01029845800076,136.01029845800076,136.01029845800076,136.01029845800076,136.47424166700057,137.54864837500008,136.4442319996672,137.50137341700065,138.10571908300062,139.13504345800084,138.07559712466744,,136.01029845800076,141.17670183300015,136.01029845800076,141.17670183300015,141.21841591700013,141.87071520800055,136.01029845800076,2,1,0.6628204159987945,reldom2_s008,001,2025-02-06_12h36.07.165,What-A-Scan_AC,2022.2.5,None,
0,0.0,None,fixation,stimulus/audwhat_stim/blank_white.png,stimulus/audwhat_stim/blank_white.png,stimulus/viswhat_stim/blank_white.png,stimulus/viswhat_stim/blank_white.png,stimulus/audwhat_stim/blank_white.png,stimulus/audwhat_stim/blank_white.png,stimulus/audwhat_stim/blank_white.png,stimulus/audwhat_stim/blank_white.png,0.0,0.0,0.0,0.0,0,0.0,0,0.0,0,0.0,0,0.0,0,0.0,0.0,0,0.0,0,0.0,0,0.0,0,0.0,0,0.0,0,0.0,0,0.0,0,0.0,10,,,,,0,13,13,13,,,,,,,,,142.14385808300085,142.14385808300085,142.14385808300085,142.14385808300085,142.14385808300085,142.14385808300085,142.14385808300085,142.14385808300085,142.0453453753336,142.14385808300085,142.14385808300085,142.14385808300085,142.0453453753336,142.14385808300085,142.14385808300085,142.14385808300085,142.14385808300085,142.14385808300085,142.14385808300085,142.14385808300085,142.14385808300085,142.14385808300085,142.14385808300085,142.14385808300085,142.14385808300085,142.14385808300085,142.14385808300085,142.09534537533358,142.14385808300085,142.14385808300085,142.14385808300085,142.09534537533358,142.14385808300085,142.14385808300085,142.14385808300085,142.14385808300085,142.14385808300085,147.35331645800034,147.35331645800034,152.3004512080006,None,0,,reldom2_s008,001,2025-02-06_12h36.07.165,What-A-Scan_AC,2022.2.5,None,
11,Second_Order,2.0,audwhat,stimulus/audwhat_stim/string viola_high-pitch_D_loud.wav,stimulus/audwhat_stim/percussion xylophone_high-pitch_D_loud.wav,stimulus/audwhat_stim/percussion mallet_low-pitch_F_loud.wav,stimulus/audwhat_stim/string viola_low-pitch_F_loud.wav,stimulus/audwhat_stim/match_blank.png,stimulus/audwhat_stim/match_box.png,stimulus/audwhat_stim/match_yes.png,stimulus/audwhat_stim/match_no.png,1.0,Match,Pitch,Pitch,1,5.125,0,5.125,0,5.125,0,5.125,0,0.75,0.75,0,0.0,0,0.0,0,0.0,0,0.0,1,0.5,1,2.125,1,0.5,1,2.125,0,,,,,0,14,14,14,,,,,,,,,152.3004512080006,157.42287979200046,152.3004512080006,152.3004512080006,152.3004512080006,152.3004512080006,152.7576680000002,153.74686783300058,152.7609623746669,,154.38400470800025,155.3807423750004,154.3950051666673,155.3884454580002,157.42287979200046,158.25221291700018,160.32484408300024,164.26540475000002,158.25221291700018,158.25221291700018,163.41603462500007,158.25221291700018,158.25221291700018,158.25221291700018,158.25221291700018,158.7120540420001,159.7724832920003,158.68259433366737,,160.32484408300024,161.38629854200008,160.29517591666743,,158.25221291700018,163.41603462500007,158.25221291700018,163.41603462500007,163.45669612500024,,158.25221291700018,1,1,1.4260038329994131,reldom2_s008,001,2025-02-06_12h36.07.165,What-A-Scan_AC,2022.2.5,None,
12,Second_Order,2.0,audwhat,stimulus/audwhat_stim/percussion mallet_high-pitch_Dtri_loud.wav,stimulus/audwhat_stim/string viola_high-pitch_Dtri_loud.wav,stimulus/audwhat_stim/string viola_low-pitch_Dtri_loud.wav,stimulus/audwhat_stim/percussion mallet_low-pitch_Dtri_loud.wav,stimulus/audwhat_stim/match_blank.png,stimulus/audwhat_stim/match_box.png,stimulus/audwhat_stim/match_yes.png,stimulus/audwhat_stim/match_no.png,1.0,Match,Pitch,Pitch,1,5.125,0,5.125,0,5.125,0,5.125,0,0.625,0.625,0,0.0,0,0.0,0,0.0,0,0.0,1,0.5,1,2.125,1,0.5,1,2.125,0,,,,,0,15,15,15,,,,,,,,,164.26540475000002,169.3843136250007,164.26540475000002,164.26540475000002,164.26540475000002,164.26540475000002,164.72180070800005,165.72087141700013,164.73487612466695,165.7285927920002,166.34459008300018,167.34101279200058,166.35599737466717,,169.3843136250007,170.09184950000054,172.1530024170006,,170.09184950000054,170.09184950000054,175.27798425000037,170.09184950000054,170.09184950000054,170.09184950000054,170.09184950000054,170.54894216700086,171.60390733300028,170.5193826246671,,172.1530024170006,173.2101255000007,172.12357970866677,,170.09184950000054,175.27798425000037,170.09184950000054,175.27798425000037,175.27798425000037,175.9654392500006,170.09184950000054,1,1,1.1099634989996048,reldom2_s008,001,2025-02-06_12h36.07.165,What-A-Scan_AC,2022.2.5,None,
0,0.0,None,fixation,stimulus/audwhat_stim/blank_white.png,stimulus/audwhat_stim/blank_white.png,stimulus/viswhat_stim/blank_white.png,stimulus/viswhat_stim/blank_white.png,stimulus/audwhat_stim/blank_white.png,stimulus/audwhat_stim/blank_white.png,stimulus/audwhat_stim/blank_white.png,stimulus/audwhat_stim/blank_white.png,0.0,0.0,0.0,0.0,0,0.0,0,0.0,0,0.0,0,0.0,0,0.0,0.0,0,0.0,0,0.0,0,0.0,0,0.0,0,0.0,0,0.0,0,0.0,0,0.0,8,,,,,0,16,16,16,,,,,,,,,176.1970019170003,176.1970019170003,176.1970019170003,176.1970019170003,176.1970019170003,176.1970019170003,176.1970019170003,176.1970019170003,176.09877258333395,176.1970019170003,176.1970019170003,176.1970019170003,176.09877258333395,176.1970019170003,176.1970019170003,176.1970019170003,176.1970019170003,176.1970019170003,176.1970019170003,176.1970019170003,176.1970019170003,176.1970019170003,176.1970019170003,176.1970019170003,176.1970019170003,176.1970019170003,176.1970019170003,176.14877258333394,176.1970019170003,176.1970019170003,176.1970019170003,176.14877258333394,176.1970019170003,176.1970019170003,176.1970019170003,176.1970019170003,176.1970019170003,181.42367133300013,181.42367133300013,184.59254691700062,None,0,,reldom2_s008,001,2025-02-06_12h36.07.165,What-A-Scan_AC,2022.2.5,None,
13,First_Order,3.0,viswhat,stimulus/viswhat_stim/blank_white.png,stimulus/viswhat_stim/blank_white.png,stimulus/viswhat_stim/water_vehicle-cruiseship.png,stimulus/viswhat_stim/land_vehicle-pickuptruck.png,stimulus/viswhat_stim/blank_white.png,stimulus/viswhat_stim/type_box.png,stimulus/viswhat_stim/type_yes.png,stimulus/viswhat_stim/type_no.png,None,Type,None,Type,1,0.0,0,5.125,0,5.125,0,5.125,0,0.0,0.625,0,0.0,0,0.0,1,0.5,1,2.125,0,0.0,0,0.0,0,0.0,0,0.0,0,,,,,0,17,17,17,,,,,,,,,184.59254691700062,184.59254691700062,184.59254691700062,184.59254691700062,184.59254691700062,184.59254691700062,184.59254691700062,184.59254691700062,184.39556045866692,184.59254691700062,184.59254691700062,184.59254691700062,184.39556045866692,184.59254691700062,184.59254691700062,184.59254691700062,186.6465758330005,,184.59254691700062,184.59254691700062,189.86968416700074,184.98347612500038,186.15869708300033,186.6465758330005,187.8204412920004,184.59254691700062,184.59254691700062,184.49556045866692,184.59254691700062,184.59254691700062,184.59254691700062,184.49556045866692,184.59254691700062,184.59254691700062,189.86968416700074,184.59254691700062,189.86968416700074,189.7776211670007,,184.59254691700062,1,1,2.0512769159995514,reldom2_s008,001,2025-02-06_12h36.07.165,What-A-Scan_AC,2022.2.5,None,
14,First_Order,3.0,viswhat,stimulus/viswhat_stim/blank_white.png,stimulus/viswhat_stim/blank_white.png,stimulus/viswhat_stim/water_animal-lobster.png,stimulus/viswhat_stim/water_vehicle-cruiseship.png,stimulus/viswhat_stim/blank_white.png,stimulus/viswhat_stim/location_box.png,stimulus/viswhat_stim/location_yes.png,stimulus/viswhat_stim/location_no.png,None,Location,None,Location,1,0.0,0,5.125,0,5.125,0,5.125,0,0.0,0.625,0,0.0,0,0.0,1,0.5,1,2.125,0,0.0,0,0.0,0,0.0,0,0.0,0,,,,,0,18,18,18,,,,,,,,,191.02254554200044,191.02254554200044,191.02254554200044,191.02254554200044,191.02254554200044,191.02254554200044,191.02254554200044,191.02254554200044,190.56315850033366,191.02254554200044,191.02254554200044,191.02254554200044,190.56315850033366,191.02254554200044,191.02254554200044,191.02254554200044,193.0303345830007,,191.02254554200044,191.02254554200044,196.37635283300006,191.46865479200005,192.8060408750007,193.0303345830007,194.37235370800045,191.02254554200044,191.02254554200044,190.79649183366698,191.02254554200044,191.02254554200044,191.02254554200044,190.79649183366698,191.02254554200044,191.02254554200044,196.37635283300006,191.02254554200044,196.37635283300006,196.15927820800061,,191.02254554200044,1,1,2.373265999999603,reldom2_s008,001,2025-02-06_12h36.07.165,What-A-Scan_AC,2022.2.5,None,
15,First_Order,3.0,viswhat,stimulus/viswhat_stim/blank_white.png,stimulus/viswhat_stim/blank_white.png,stimulus/viswhat_stim/water_vehicle-cruiseship.png,stimulus/viswhat_stim/land_vehicle-bus.png,stimulus/viswhat_stim/blank_white.png,stimulus/viswhat_stim/location_box.png,stimulus/viswhat_stim/location_yes.png,stimulus/viswhat_stim/location_no.png,None,Location,None,Type,2,0.0,0,5.125,0,5.125,0,5.125,0,0.0,0.625,0,0.0,0,0.0,1,0.5,1,2.125,0,0.0,0,0.0,0,0.0,0,0.0,0,,,,,0,19,19,19,,,,,,,,,197.06307275000017,197.06307275000017,197.06307275000017,197.06307275000017,197.06307275000017,197.06307275000017,197.06307275000017,197.06307275000017,196.8596861663334,197.06307275000017,197.06307275000017,197.06307275000017,196.8596861663334,197.06307275000017,197.06307275000017,197.06307275000017,199.1163965830001,,197.06307275000017,197.06307275000017,202.2875748330007,197.4722408330008,198.59710629200072,199.1163965830001,200.2450183330002,197.06307275000017,197.06307275000017,196.9596861663334,197.06307275000017,197.06307275000017,197.06307275000017,196.9596861663334,197.06307275000017,197.06307275000017,202.2875748330007,197.06307275000017,202.2875748330007,202.2875748330007,,197.06307275000017,2,1,1.58862337499977,reldom2_s008,001,2025-02-06_12h36.07.165,What-A-Scan_AC,2022.2.5,None,
16,First_Order,3.0,viswhat,stimulus/viswhat_stim/blank_white.png,stimulus/viswhat_stim/blank_white.png,stimulus/viswhat_stim/land_vehicle-oldcar.png,stimulus/viswhat_stim/water_vehicle-pirateship.png,stimulus/viswhat_stim/blank_white.png,stimulus/viswhat_stim/type_box.png,stimulus/viswhat_stim/type_yes.png,stimulus/viswhat_stim/type_no.png,None,Type,None,Type,1,0.0,0,5.125,0,5.125,0,5.125,0,0.0,0.625,0,0.0,0,0.0,1,0.5,1,2.125,0,0.0,0,0.0,0,0.0,0,0.0,0,,,,,0,20,20,20,,,,,,,,,203.0924585420007,203.0924585420007,203.0924585420007,203.0924585420007,203.0924585420007,203.0924585420007,203.0924585420007,203.0924585420007,203.01847516700036,203.0924585420007,203.0924585420007,203.0924585420007,203.01847516700036,203.0924585420007,203.0924585420007,203.0924585420007,205.1772188750001,,203.0924585420007,203.0924585420007,208.263898917,203.572570542,204.6148207920005,205.1772188750001,206.22310687500067,203.0924585420007,203.0924585420007,203.05180850033372,203.0924585420007,203.0924585420007,203.0924585420007,203.05180850033372,203.0924585420007,203.0924585420007,208.263898917,203.0924585420007,208.263898917,208.30150250000042,208.97890729200026,203.0924585420007,1,1,2.5501254579994566,reldom2_s008,001,2025-02-06_12h36.07.165,What-A-Scan_AC,2022.2.5,None,
0,0.0,None,fixation,stimulus/audwhat_stim/blank_white.png,stimulus/audwhat_stim/blank_white.png,stimulus/viswhat_stim/blank_white.png,stimulus/viswhat_stim/blank_white.png,stimulus/audwhat_stim/blank_white.png,stimulus/audwhat_stim/blank_white.png,stimulus/audwhat_stim/blank_white.png,stimulus/audwhat_stim/blank_white.png,0.0,0.0,0.0,0.0,0,0.0,0,0.0,0,0.0,0,0.0,0,0.0,0.0,0,0.0,0,0.0,0,0.0,0,0.0,0,0.0,0,0.0,0,0.0,0,0.0,9,,,,,0,21,21,21,,,,,,,,,209.21003129200017,209.21003129200017,209.21003129200017,209.21003129200017,209.21003129200017,209.21003129200017,209.21003129200017,209.21003129200017,209.1122406253336,209.21003129200017,209.21003129200017,209.21003129200017,209.1122406253336,209.21003129200017,209.21003129200017,209.21003129200017,209.21003129200017,209.21003129200017,209.21003129200017,209.21003129200017,209.21003129200017,209.21003129200017,209.21003129200017,209.21003129200017,209.21003129200017,209.21003129200017,209.21003129200017,209.1622406253336,209.21003129200017,209.21003129200017,209.21003129200017,209.1622406253336,209.21003129200017,209.21003129200017,209.21003129200017,209.21003129200017,209.21003129200017,214.40593654200075,214.40593654200075,218.3590950000007,None,0,,reldom2_s008,001,2025-02-06_12h36.07.165,What-A-Scan_AC,2022.2.5,None,
17,Second_Order,3.0,viswhat,stimulus/viswhat_stim/water_animal-shark.png,stimulus/viswhat_stim/water_vehicle-pirateship.png,stimulus/viswhat_stim/water_animal-squid.png,stimulus/viswhat_stim/land_animal-elephant.png,stimulus/audwhat_stim/match_blank.png,stimulus/audwhat_stim/match_box.png,stimulus/audwhat_stim/match_yes.png,stimulus/audwhat_stim/match_no.png,2.0,Match,Location,Type,2,5.125,0,5.125,0,5.125,0,5.125,0,0.75,0.75,1,0.5,1,2.125,1,0.5,1,2.125,0,0.0,0,0.0,0,0.0,0,0.0,0,,,,,0,22,22,22,,,,,,,,,218.3590950000007,223.47569183300038,218.81423108300078,219.8120652080006,220.43575887500083,221.43266391700035,218.3590950000007,218.3590950000007,218.3686278750005,218.3590950000007,218.3590950000007,218.3590950000007,218.3686278750005,218.3590950000007,223.47569183300038,224.35430987500058,226.43478420800056,230.3424662920006,224.35430987500058,224.35430987500058,229.52586925000014,224.82158187500045,225.8990764170003,226.43478420800056,227.50982566700077,224.35430987500058,224.35430987500058,224.29412612533392,224.35430987500058,224.35430987500058,224.35430987500058,224.29412612533392,224.35430987500058,224.35430987500058,229.52586925000014,224.35430987500058,229.52586925000014,229.52586925000014,,224.35430987500058,2,1,1.3715864989990223,reldom2_s008,001,2025-02-06_12h36.07.165,What-A-Scan_AC,2022.2.5,None,
18,Second_Order,3.0,viswhat,stimulus/viswhat_stim/land_vehicle-pickuptruck.png,stimulus/viswhat_stim/water_vehicle-pirateship.png,stimulus/viswhat_stim/water_animal-jellyfish.png,stimulus/viswhat_stim/land_animal-snake.png,stimulus/audwhat_stim/match_blank.png,stimulus/audwhat_stim/match_box.png,stimulus/audwhat_stim/match_yes.png,stimulus/audwhat_stim/match_no.png,1.0,Match,Type,Type,1,5.125,0,5.125,0,5.125,0,5.125,0,0.625,0.625,1,0.5,1,2.125,1,0.5,1,2.125,0,0.0,0,0.0,0,0.0,0,0.0,0,,,,,0,23,23,23,,,,,,,,,230.3424662920006,235.46511437500067,230.82090725000035,231.81032100000084,232.4457744170004,233.44368058300006,230.3424662920006,230.3424662920006,230.353526583,230.3424662920006,230.3424662920006,230.3424662920006,230.353526583,230.3424662920006,235.46511437500067,236.14582545800022,238.22540341700005,242.28203100000064,236.14582545800022,236.14582545800022,241.2848536670008,236.61496483300016,237.6438295830003,238.22540341700005,239.2550015830002,236.14582545800022,236.14582545800022,236.13287975000077,236.14582545800022,236.14582545800022,236.14582545800022,236.13287975000077,236.14582545800022,236.14582545800022,241.2848536670008,236.14582545800022,241.2848536670008,241.35114137500022,241.99413995800023,236.14582545800022,1,1,2.5321492079992822,reldom2_s008,001,2025-02-06_12h36.07.165,What-A-Scan_AC,2022.2.5,None,
0,0.0,None,fixation,stimulus/audwhat_stim/blank_white.png,stimulus/audwhat_stim/blank_white.png,stimulus/viswhat_stim/blank_white.png,stimulus/viswhat_stim/blank_white.png,stimulus/audwhat_stim/blank_white.png,stimulus/audwhat_stim/blank_white.png,stimulus/audwhat_stim/blank_white.png,stimulus/audwhat_stim/blank_white.png,0.0,0.0,0.0,0.0,0,0.0,0,0.0,0,0.0,0,0.0,0,0.0,0.0,0,0.0,0,0.0,0,0.0,0,0.0,0,0.0,0,0.0,0,0.0,0,0.0,8,,,,,0,24,24,24,,,,,,,,,242.28203100000064,242.28203100000064,242.28203100000064,242.28203100000064,242.28203100000064,242.28203100000064,242.28203100000064,242.28203100000064,242.1819274580008,242.28203100000064,242.28203100000064,242.28203100000064,242.1819274580008,242.28203100000064,242.28203100000064,242.28203100000064,242.28203100000064,242.28203100000064,242.28203100000064,242.28203100000064,242.28203100000064,242.28203100000064,242.28203100000064,242.28203100000064,242.28203100000064,242.28203100000064,242.28203100000064,242.2319274580008,242.28203100000064,242.28203100000064,242.28203100000064,242.2319274580008,242.28203100000064,242.28203100000064,242.28203100000064,242.28203100000064,242.28203100000064,247.48606550000022,247.48606550000022,250.51113841700044,None,0,,reldom2_s008,001,2025-02-06_12h36.07.165,What-A-Scan_AC,2022.2.5,None,
19,First_Order,4.0,viswhat,stimulus/viswhat_stim/blank_white.png,stimulus/viswhat_stim/blank_white.png,stimulus/viswhat_stim/land_animal-wolf.png,stimulus/viswhat_stim/water_animal-squid.png,stimulus/viswhat_stim/blank_white.png,stimulus/viswhat_stim/location_box.png,stimulus/viswhat_stim/location_yes.png,stimulus/viswhat_stim/location_no.png,None,Location,None,Type,2,0.0,0,5.125,0,5.125,0,5.125,0,0.0,0.625,0,0.0,0,0.0,1,0.5,1,2.125,0,0.0,0,0.0,0,0.0,0,0.0,0,,,,,0,25,25,25,,,,,,,,,250.51113841700044,250.51113841700044,250.51113841700044,250.51113841700044,250.51113841700044,250.51113841700044,250.51113841700044,250.51113841700044,250.4670887086674,250.51113841700044,250.51113841700044,250.51113841700044,250.4670887086674,250.51113841700044,250.51113841700044,250.51113841700044,252.6017859170006,256.60002404200077,250.51113841700044,250.51113841700044,255.6543513330007,250.97199295800056,251.98773591700046,252.6017859170006,253.6241135420005,250.51113841700044,250.51113841700044,250.48375537533406,250.51113841700044,250.51113841700044,250.51113841700044,250.48375537533406,250.51113841700044,250.51113841700044,255.6543513330007,250.51113841700044,255.6543513330007,255.72928866700022,256.37736570800007,250.51113841700044,2,1,0.9236839579989464,reldom2_s008,001,2025-02-06_12h36.07.165,What-A-Scan_AC,2022.2.5,None,
20,First_Order,4.0,viswhat,stimulus/viswhat_stim/blank_white.png,stimulus/viswhat_stim/blank_white.png,stimulus/viswhat_stim/water_animal-jellyfish.png,stimulus/viswhat_stim/water_vehicle-motorboatraft.png,stimulus/viswhat_stim/blank_white.png,stimulus/viswhat_stim/location_box.png,stimulus/viswhat_stim/location_yes.png,stimulus/viswhat_stim/location_no.png,None,Location,None,Location,1,0.0,0,5.125,0,5.125,0,5.125,0,0.0,0.625,0,0.0,0,0.0,1,0.5,1,2.125,0,0.0,0,0.0,0,0.0,0,0.0,0,,,,,0,26,26,26,,,,,,,,,256.60002404200077,256.60002404200077,256.60002404200077,256.60002404200077,256.60002404200077,256.60002404200077,256.60002404200077,256.60002404200077,256.5523990420002,256.60002404200077,256.60002404200077,256.60002404200077,256.5523990420002,256.60002404200077,256.60002404200077,256.60002404200077,258.7035627080004,262.76818616700075,256.60002404200077,256.60002404200077,261.7561664170007,257.0691872080006,258.09617416700075,258.7035627080004,259.7311265420003,256.60002404200077,256.60002404200077,256.5857323753336,256.60002404200077,256.60002404200077,256.60002404200077,256.5857323753336,256.60002404200077,256.60002404200077,261.7561664170007,256.60002404200077,261.7561664170007,261.8215561670004,262.4551084580007,256.60002404200077,1,1,1.7175512079993496,reldom2_s008,001,2025-02-06_12h36.07.165,What-A-Scan_AC,2022.2.5,None,
21,First_Order,4.0,viswhat,stimulus/viswhat_stim/blank_white.png,stimulus/viswhat_stim/blank_white.png,stimulus/viswhat_stim/land_animal-elephant.png,stimulus/viswhat_stim/land_vehicle-buldozer.png,stimulus/viswhat_stim/blank_white.png,stimulus/viswhat_stim/type_box.png,stimulus/viswhat_stim/type_yes.png,stimulus/viswhat_stim/type_no.png,None,Type,None,Location,2,0.0,0,5.125,0,5.125,0,5.125,0,0.0,0.625,0,0.0,0,0.0,1,0.5,1,2.125,0,0.0,0,0.0,0,0.0,0,0.0,0,,,,,0,27,27,27,,,,,,,,,262.76818616700075,262.76818616700075,262.76818616700075,262.76818616700075,262.76818616700075,262.76818616700075,262.76818616700075,262.76818616700075,262.6424730000004,262.76818616700075,262.76818616700075,262.76818616700075,262.6424730000004,262.76818616700075,262.76818616700075,262.76818616700075,264.8823981250007,268.89922020800077,262.76818616700075,262.76818616700075,267.98046520800017,263.19029670800046,264.2498664580007,264.8823981250007,265.940531833,262.76818616700075,262.76818616700075,262.70913966666706,262.76818616700075,262.76818616700075,262.76818616700075,262.70913966666706,262.76818616700075,262.76818616700075,267.98046520800017,262.76818616700075,267.98046520800017,267.98046520800017,268.89922020800077,262.76818616700075,2,1,2.1877552489986556,reldom2_s008,001,2025-02-06_12h36.07.165,What-A-Scan_AC,2022.2.5,None,
22,First_Order,4.0,viswhat,stimulus/viswhat_stim/blank_white.png,stimulus/viswhat_stim/blank_white.png,stimulus/viswhat_stim/water_animal-shark.png,stimulus/viswhat_stim/water_vehicle-cabincruiser.png,stimulus/viswhat_stim/blank_white.png,stimulus/viswhat_stim/type_box.png,stimulus/viswhat_stim/type_yes.png,stimulus/viswhat_stim/type_no.png,None,Type,None,Location,2,0.0,0,5.125,0,5.125,0,5.125,0,0.0,0.625,0,0.0,0,0.0,1,0.5,1,2.125,0,0.0,0,0.0,0,0.0,0,0.0,0,,,,,0,28,28,28,,,,,,,,,268.89922020800077,268.89922020800077,268.89922020800077,268.89922020800077,268.89922020800077,268.89922020800077,268.89922020800077,268.89922020800077,268.8129464163339,268.89922020800077,268.89922020800077,268.89922020800077,268.8129464163339,268.89922020800077,268.89922020800077,268.89922020800077,270.9718561670006,,268.89922020800077,268.89922020800077,274.05849491700064,269.3797505830007,270.44153925000046,270.9718561670006,272.0346105000008,268.89922020800077,268.89922020800077,268.86294641633384,268.89922020800077,268.89922020800077,268.89922020800077,268.86294641633384,268.89922020800077,268.89922020800077,274.05849491700064,268.89922020800077,274.05849491700064,274.10159866700087,274.7803535000003,268.89922020800077,2,1,2.0429372079997847,reldom2_s008,001,2025-02-06_12h36.07.165,What-A-Scan_AC,2022.2.5,None,
0,0.0,None,fixation,stimulus/audwhat_stim/blank_white.png,stimulus/audwhat_stim/blank_white.png,stimulus/viswhat_stim/blank_white.png,stimulus/viswhat_stim/blank_white.png,stimulus/audwhat_stim/blank_white.png,stimulus/audwhat_stim/blank_white.png,stimulus/audwhat_stim/blank_white.png,stimulus/audwhat_stim/blank_white.png,0.0,0.0,0.0,0.0,0,0.0,0,0.0,0,0.0,0,0.0,0,0.0,0.0,0,0.0,0,0.0,0,0.0,0,0.0,0,0.0,0,0.0,0,0.0,0,0.0,9,,,,,0,29,29,29,,,,,,,,,275.02228941700014,275.02228941700014,275.02228941700014,275.02228941700014,275.02228941700014,275.02228941700014,275.02228941700014,275.02228941700014,274.9136868333336,275.02228941700014,275.02228941700014,275.02228941700014,274.9136868333336,275.02228941700014,275.02228941700014,275.02228941700014,275.02228941700014,275.02228941700014,275.02228941700014,275.02228941700014,275.02228941700014,275.02228941700014,275.02228941700014,275.02228941700014,275.02228941700014,275.02228941700014,275.02228941700014,274.98035350000026,275.02228941700014,275.02228941700014,275.02228941700014,274.98035350000026,275.02228941700014,275.02228941700014,275.02228941700014,275.02228941700014,275.02228941700014,280.2368939580001,280.2368939580001,284.1906609580001,None,0,,reldom2_s008,001,2025-02-06_12h36.07.165,What-A-Scan_AC,2022.2.5,None,
23,Second_Order,4.0,viswhat,stimulus/viswhat_stim/water_vehicle-canoe(1).png,stimulus/viswhat_stim/land_vehicle-vespa.png,stimulus/viswhat_stim/land_animal-dog.png,stimulus/viswhat_stim/water_animal-jellyfish.png,stimulus/audwhat_stim/match_blank.png,stimulus/audwhat_stim/match_box.png,stimulus/audwhat_stim/match_yes.png,stimulus/audwhat_stim/match_no.png,1.0,Match,Type,Type,1,5.125,0,5.125,0,5.125,0,5.125,0,0.75,0.75,1,0.5,1,2.125,1,0.5,1,2.125,0,0.0,0,0.0,0,0.0,0,0.0,0,,,,,0,30,30,30,,,,,,,,,284.1906609580001,289.3109004580001,284.6489678330008,285.6476671670007,286.28228008300084,287.2718424580007,284.1906609580001,284.1906609580001,284.20482387500067,284.1906609580001,284.1906609580001,284.1906609580001,284.20482387500067,284.1906609580001,289.3109004580001,290.1077249580003,292.1860576250001,296.10070283300047,290.1077249580003,290.1077249580003,295.25228408300063,290.5686783750007,291.58004504200017,292.1860576250001,293.1993606670003,290.1077249580003,290.1077249580003,290.0943520000008,290.1077249580003,290.1077249580003,290.1077249580003,290.0943520000008,290.1077249580003,290.1077249580003,295.25228408300063,290.1077249580003,295.25228408300063,295.3217074580007,,290.1077249580003,1,1,2.5757787080001435,reldom2_s008,001,2025-02-06_12h36.07.165,What-A-Scan_AC,2022.2.5,None,
24,Second_Order,4.0,viswhat,stimulus/viswhat_stim/land_vehicle-tank.png,stimulus/viswhat_stim/water_vehicle-canoe(1).png,stimulus/viswhat_stim/water_animal-orka.png,stimulus/viswhat_stim/water_vehicle-cabincruiser.png,stimulus/audwhat_stim/match_blank.png,stimulus/audwhat_stim/match_box.png,stimulus/audwhat_stim/match_yes.png,stimulus/audwhat_stim/match_no.png,2.0,Match,Type,Location,2,5.125,0,5.125,0,5.125,0,5.125,0,0.625,0.625,1,0.5,1,2.125,1,0.5,1,2.125,0,0.0,0,0.0,0,0.0,0,0.0,0,,,,,0,31,31,31,,,,,,,,,296.10070283300047,301.22170520800046,296.57563887500055,297.56208612500086,298.1990520830004,299.1954110000006,296.10070283300047,296.10070283300047,296.1084454166667,296.10070283300047,296.10070283300047,296.10070283300047,296.1084454166667,296.10070283300047,301.22170520800046,301.9964678330007,304.0984685000003,,301.9964678330007,301.9964678330007,307.22307637500035,302.4615790830003,303.55178295800033,304.0984685000003,305.19239970800027,301.9964678330007,301.9964678330007,301.9347362920003,301.9964678330007,301.9964678330007,301.9964678330007,301.9347362920003,301.9964678330007,301.9964678330007,307.22307637500035,301.9964678330007,307.22307637500035,307.150402792,308.1107952080001,301.9964678330007,1,0,2.9158628329996645,reldom2_s008,001,2025-02-06_12h36.07.165,What-A-Scan_AC,2022.2.5,None,
0,0.0,None,fixation,stimulus/audwhat_stim/blank_white.png,stimulus/audwhat_stim/blank_white.png,stimulus/viswhat_stim/blank_white.png,stimulus/viswhat_stim/blank_white.png,stimulus/audwhat_stim/blank_white.png,stimulus/audwhat_stim/blank_white.png,stimulus/audwhat_stim/blank_white.png,stimulus/audwhat_stim/blank_white.png,0.0,0.0,0.0,0.0,0,0.0,0,0.0,0,0.0,0,0.0,0,0.0,0.0,0,0.0,0,0.0,0,0.0,0,0.0,0,0.0,0,0.0,0,0.0,0,0.0,9,,,,,0,32,32,32,,,,,,,,,308.1107952080001,308.1107952080001,308.1107952080001,308.1107952080001,308.1107952080001,308.1107952080001,308.1107952080001,308.1107952080001,308.00652479200033,308.1107952080001,308.1107952080001,308.1107952080001,308.00652479200033,308.1107952080001,308.1107952080001,308.1107952080001,308.1107952080001,308.1107952080001,308.1107952080001,308.1107952080001,308.1107952080001,308.1107952080001,308.1107952080001,308.1107952080001,308.1107952080001,308.1107952080001,308.1107952080001,308.073191458667,308.1107952080001,308.1107952080001,308.1107952080001,308.073191458667,308.1107952080001,308.1107952080001,308.1107952080001,308.1107952080001,308.1107952080001,313.3235359170003,313.3235359170003,317.3490402080006,None,0,,reldom2_s008,001,2025-02-06_12h36.07.165,What-A-Scan_AC,2022.2.5,None,
25,First_Order,5.0,audwhat,stimulus/audwhat_stim/dummy.wav,stimulus/audwhat_stim/dummy.wav,stimulus/audwhat_stim/string cello_low-pitch_Dtri_loud.wav,stimulus/audwhat_stim/percussion mallet_low-pitch_Dtri_loud.wav,stimulus/audwhat_stim/blank_white.png,stimulus/audwhat_stim/pitch_box.png,stimulus/audwhat_stim/pitch_yes.png,stimulus/audwhat_stim/pitch_no.png,None,Pitch,None,Pitch,1,0.0,0,5.125,0,5.125,0,5.125,0,0.0,0.625,0,0.0,0,0.0,0,0.0,0,0.0,0,0.0,0,0.0,1,0.5,1,2.125,0,,,,,0,33,33,33,,,,,,,,,317.3490402080006,317.3490402080006,317.3490402080006,317.3490402080006,317.3490402080006,317.3490402080006,317.3490402080006,317.3490402080006,317.2761279996672,317.3490402080006,317.3490402080006,317.3490402080006,317.2761279996672,317.3490402080006,317.3490402080006,317.3490402080006,319.45077508300074,323.4757183750007,317.3490402080006,317.3490402080006,322.5234495000004,317.3490402080006,317.3490402080006,317.3490402080006,317.3490402080006,317.81956979200004,318.89128150000033,317.7896559996673,,319.45077508300074,320.5245952080004,319.42024937466726,,317.3490402080006,322.5234495000004,317.3490402080006,322.5234495000004,322.5649637920005,323.21898862500075,317.3490402080006,1,1,2.5712841239992485,reldom2_s008,001,2025-02-06_12h36.07.165,What-A-Scan_AC,2022.2.5,None,
26,First_Order,5.0,audwhat,stimulus/audwhat_stim/dummy.wav,stimulus/audwhat_stim/dummy.wav,stimulus/audwhat_stim/string cello_low-pitch_F_loud.wav,stimulus/audwhat_stim/percussion mallet_low-pitch_F_loud.wav,stimulus/audwhat_stim/blank_white.png,stimulus/audwhat_stim/pitch_box.png,stimulus/audwhat_stim/pitch_yes.png,stimulus/audwhat_stim/pitch_no.png,None,Pitch,None,Pitch,1,0.0,0,5.125,0,5.125,0,5.125,0,0.0,0.625,0,0.0,0,0.0,0,0.0,0,0.0,0,0.0,0,0.0,1,0.5,1,2.125,0,,,,,0,34,34,34,,,,,,,,,323.4757183750007,323.4757183750007,323.4757183750007,323.4757183750007,323.4757183750007,323.4757183750007,323.4757183750007,323.4757183750007,323.3924659583337,323.4757183750007,323.4757183750007,323.4757183750007,323.3924659583337,323.4757183750007,323.4757183750007,323.4757183750007,325.5744756670001,,323.4757183750007,323.4757183750007,328.6537050830002,323.4757183750007,323.4757183750007,323.4757183750007,323.4757183750007,323.94072895800036,325.01332275000004,323.9100955836668,,325.5744756670001,326.6475600420008,325.5442621666673,,323.4757183750007,328.6537050830002,323.4757183750007,328.6537050830002,328.6960019170001,329.3505503330007,323.4757183750007,1,1,1.130792291999569,reldom2_s008,001,2025-02-06_12h36.07.165,What-A-Scan_AC,2022.2.5,None,
27,First_Order,5.0,audwhat,stimulus/audwhat_stim/dummy.wav,stimulus/audwhat_stim/dummy.wav,stimulus/audwhat_stim/string cello_high-pitch_D_loud.wav,stimulus/audwhat_stim/percussion mallet_high-pitch_D_loud.wav,stimulus/audwhat_stim/blank_white.png,stimulus/audwhat_stim/category_box.png,stimulus/audwhat_stim/category_yes.png,stimulus/audwhat_stim/category_no.png,None,Category,None,Pitch,2,0.0,0,5.125,0,5.125,0,5.125,0,0.0,0.625,0,0.0,0,0.0,0,0.0,0,0.0,0,0.0,0,0.0,1,0.5,1,2.125,0,,,,,0,35,35,35,,,,,,,,,329.57017666700085,329.57017666700085,329.57017666700085,329.57017666700085,329.57017666700085,329.57017666700085,329.57017666700085,329.57017666700085,329.483883666334,329.57017666700085,329.57017666700085,329.57017666700085,329.483883666334,329.57017666700085,329.57017666700085,329.57017666700085,331.6829282920007,335.6969282500004,329.57017666700085,329.57017666700085,334.7384580000007,329.57017666700085,329.57017666700085,329.57017666700085,329.57017666700085,330.03932420800083,331.07211579200066,330.0086331666673,,331.6829282920007,332.72027250000065,331.65135316666715,,329.57017666700085,334.7384580000007,329.57017666700085,334.7384580000007,334.77976412500084,335.4386370830007,329.57017666700085,2,1,1.1017686249997496,reldom2_s008,001,2025-02-06_12h36.07.165,What-A-Scan_AC,2022.2.5,None,
28,First_Order,5.0,audwhat,stimulus/audwhat_stim/dummy.wav,stimulus/audwhat_stim/dummy.wav,stimulus/audwhat_stim/percussion mallet_low-pitch_Ftri_loud.wav,stimulus/audwhat_stim/percussion mallet_high-pitch_F_loud.wav,stimulus/audwhat_stim/blank_white.png,stimulus/audwhat_stim/category_box.png,stimulus/audwhat_stim/category_yes.png,stimulus/audwhat_stim/category_no.png,None,Category,None,Category,1,0.0,0,5.125,0,5.125,0,5.125,0,0.0,0.625,0,0.0,0,0.0,0,0.0,0,0.0,0,0.0,0,0.0,1,0.5,1,2.125,0,,,,,0,36,36,36,,,,,,,,,335.6969282500004,335.6969282500004,335.6969282500004,335.6969282500004,335.6969282500004,335.6969282500004,335.6969282500004,335.6969282500004,335.6145451253334,335.6969282500004,335.6969282500004,335.6969282500004,335.6145451253334,335.6969282500004,335.6969282500004,335.6969282500004,337.81220083300013,341.8484414170007,335.6969282500004,335.6969282500004,340.86548287500045,335.6969282500004,335.6969282500004,335.6969282500004,335.6969282500004,336.16595616700033,337.20061887500015,336.1353665416675,,337.81220083300013,338.84939833300086,337.7819611246671,,335.6969282500004,340.86548287500045,335.6969282500004,340.86548287500045,340.9073209170001,341.57179333300064,335.6969282500004,1,1,0.7136619999992035,reldom2_s008,001,2025-02-06_12h36.07.165,What-A-Scan_AC,2022.2.5,None,
0,0.0,None,fixation,stimulus/audwhat_stim/blank_white.png,stimulus/audwhat_stim/blank_white.png,stimulus/viswhat_stim/blank_white.png,stimulus/viswhat_stim/blank_white.png,stimulus/audwhat_stim/blank_white.png,stimulus/audwhat_stim/blank_white.png,stimulus/audwhat_stim/blank_white.png,stimulus/audwhat_stim/blank_white.png,0.0,0.0,0.0,0.0,0,0.0,0,0.0,0,0.0,0,0.0,0,0.0,0.0,0,0.0,0,0.0,0,0.0,0,0.0,0,0.0,0,0.0,0,0.0,0,0.0,8,,,,,0,37,37,37,,,,,,,,,341.8484414170007,341.8484414170007,341.8484414170007,341.8484414170007,341.8484414170007,341.8484414170007,341.8484414170007,341.8484414170007,341.74660616633366,341.8484414170007,341.8484414170007,341.8484414170007,341.74660616633366,341.8484414170007,341.8484414170007,341.8484414170007,341.8484414170007,341.8484414170007,341.8484414170007,341.8484414170007,341.8484414170007,341.8484414170007,341.8484414170007,341.8484414170007,341.8484414170007,341.8484414170007,341.8484414170007,341.7966061663337,341.8484414170007,341.8484414170007,341.8484414170007,341.7966061663337,341.8484414170007,341.8484414170007,341.8484414170007,341.8484414170007,341.8484414170007,347.0690714170005,347.0690714170005,350.01477758300007,None,0,,reldom2_s008,001,2025-02-06_12h36.07.165,What-A-Scan_AC,2022.2.5,None,
29,Second_Order,5.0,audwhat,stimulus/audwhat_stim/percussion xylophone_high-pitch_Dtri_loud.wav,stimulus/audwhat_stim/percussion mallet_low-pitch_Ftri_loud.wav,stimulus/audwhat_stim/string viola_high-pitch_Ftri_loud.wav,stimulus/audwhat_stim/string viola_low-pitch_Dtri_loud.wav,stimulus/audwhat_stim/match_blank.png,stimulus/audwhat_stim/match_box.png,stimulus/audwhat_stim/match_yes.png,stimulus/audwhat_stim/match_no.png,1.0,Match,Category,Category,1,5.125,0,5.125,0,5.125,0,5.125,0,0.75,0.75,0,0.0,0,0.0,0,0.0,0,0.0,1,0.5,1,2.125,1,0.5,1,2.125,0,,,,,0,38,38,38,,,,,,,,,350.01477758300007,355.12922595800046,350.01477758300007,350.01477758300007,350.01477758300007,350.01477758300007,350.468016625,351.46607416700044,350.48023058366675,351.47715954200066,352.08874070800084,353.08637866700064,352.1008446666667,353.0948315830001,355.12922595800046,355.953532042,358.04884262500036,,355.953532042,355.953532042,361.12559062500077,355.953532042,355.953532042,355.953532042,355.953532042,356.4187969170007,357.48954075000074,356.38917266666726,,358.04884262500036,359.0791649170005,358.018592624667,,355.953532042,361.12559062500077,355.953532042,361.12559062500077,361.1668569580006,,355.953532042,1,1,0.8595743749992835,reldom2_s008,001,2025-02-06_12h36.07.165,What-A-Scan_AC,2022.2.5,None,
30,Second_Order,5.0,audwhat,stimulus/audwhat_stim/percussion mallet_low-pitch_F_loud.wav,stimulus/audwhat_stim/percussion mallet_high-pitch_Ftri_loud.wav,stimulus/audwhat_stim/string viola_low-pitch_F_loud.wav,stimulus/audwhat_stim/string viola_high-pitch_Ftri_loud.wav,stimulus/audwhat_stim/match_blank.png,stimulus/audwhat_stim/match_box.png,stimulus/audwhat_stim/match_yes.png,stimulus/audwhat_stim/match_no.png,1.0,Match,Category,Category,1,5.125,0,5.125,0,5.125,0,5.125,0,0.625,0.625,0,0.0,0,0.0,0,0.0,0,0.0,1,0.5,1,2.125,1,0.5,1,2.125,0,,,,,0,39,39,39,,,,,,,,,361.94520891700085,367.0684447500007,361.94520891700085,361.94520891700085,361.94520891700085,361.94520891700085,362.39570916700086,363.393417667,362.40804733366735,363.4014114170004,364.0282726250007,365.01754345800055,364.031939374667,365.0304164580002,367.0684447500007,367.7810761670007,369.8642473330001,,367.7810761670007,367.7810761670007,372.9735371250008,367.7810761670007,367.7810761670007,367.7810761670007,367.7810761670007,368.2420842500005,369.30695670800014,368.2118591246674,,369.8642473330001,370.93335475000003,369.8344685416671,,367.7810761670007,372.9735371250008,367.7810761670007,372.9735371250008,372.9735371250008,373.62719520800056,367.7810761670007,1,1,0.9493517919991064,reldom2_s008,001,2025-02-06_12h36.07.165,What-A-Scan_AC,2022.2.5,None,
0,0.0,None,fixation,stimulus/audwhat_stim/blank_white.png,stimulus/audwhat_stim/blank_white.png,stimulus/viswhat_stim/blank_white.png,stimulus/viswhat_stim/blank_white.png,stimulus/audwhat_stim/blank_white.png,stimulus/audwhat_stim/blank_white.png,stimulus/audwhat_stim/blank_white.png,stimulus/audwhat_stim/blank_white.png,0.0,0.0,0.0,0.0,0,0.0,0,0.0,0,0.0,0,0.0,0,0.0,0.0,0,0.0,0,0.0,0,0.0,0,0.0,0,0.0,0,0.0,0,0.0,0,0.0,9,,,,,0,40,40,40,,,,,,,,,373.9057830420006,373.9057830420006,373.9057830420006,373.9057830420006,373.9057830420006,373.9057830420006,373.9057830420006,373.9057830420006,373.80076016633404,373.9057830420006,373.9057830420006,373.9057830420006,373.80076016633404,373.9057830420006,373.9057830420006,373.9057830420006,373.9057830420006,373.9057830420006,373.9057830420006,373.9057830420006,373.9057830420006,373.9057830420006,373.9057830420006,373.9057830420006,373.9057830420006,373.9057830420006,373.9057830420006,373.8674268330007,373.9057830420006,373.9057830420006,373.9057830420006,373.8674268330007,373.9057830420006,373.9057830420006,373.9057830420006,373.9057830420006,373.9057830420006,379.1287458750003,379.1287458750003,383.16561854200063,None,0,,reldom2_s008,001,2025-02-06_12h36.07.165,What-A-Scan_AC,2022.2.5,None,
31,First_Order,6.0,audwhat,stimulus/audwhat_stim/dummy.wav,stimulus/audwhat_stim/dummy.wav,stimulus/audwhat_stim/string viola_high-pitch_F_loud.wav,stimulus/audwhat_stim/percussion xylophone_high-pitch_F_loud.wav,stimulus/audwhat_stim/blank_white.png,stimulus/audwhat_stim/category_box.png,stimulus/audwhat_stim/category_yes.png,stimulus/audwhat_stim/category_no.png,None,Category,None,Pitch,2,0.0,0,5.125,0,5.125,0,5.125,0,0.0,0.625,0,0.0,0,0.0,0,0.0,0,0.0,0,0.0,0,0.0,1,0.5,1,2.125,0,,,,,0,41,41,41,,,,,,,,,383.16561854200063,383.16561854200063,383.16561854200063,383.16561854200063,383.16561854200063,383.16561854200063,383.16561854200063,383.16561854200063,383.0919062086674,383.16561854200063,383.16561854200063,383.16561854200063,383.0919062086674,383.16561854200063,383.16561854200063,383.16561854200063,385.2770930830002,389.2866877920005,383.16561854200063,383.16561854200063,388.3299167080004,383.16561854200063,383.16561854200063,383.16561854200063,383.16561854200063,383.63711395800055,384.6688913750004,383.6066907086672,,385.2770930830002,386.3159848330006,385.2465752916671,386.3159848330006,383.16561854200063,388.3299167080004,383.16561854200063,388.3299167080004,388.37134004200016,389.02972387500085,383.16561854200063,2,1,2.495025165999323,reldom2_s008,001,2025-02-06_12h36.07.165,What-A-Scan_AC,2022.2.5,None,
32,First_Order,6.0,audwhat,stimulus/audwhat_stim/dummy.wav,stimulus/audwhat_stim/dummy.wav,stimulus/audwhat_stim/percussion mallet_high-pitch_F_loud.wav,stimulus/audwhat_stim/percussion mallet_low-pitch_D_loud.wav,stimulus/audwhat_stim/blank_white.png,stimulus/audwhat_stim/pitch_box.png,stimulus/audwhat_stim/pitch_yes.png,stimulus/audwhat_stim/pitch_no.png,None,Pitch,None,Category,2,0.0,0,5.125,0,5.125,0,5.125,0,0.0,0.625,0,0.0,0,0.0,0,0.0,0,0.0,0,0.0,0,0.0,1,0.5,1,2.125,0,,,,,0,42,42,42,,,,,,,,,389.2866877920005,389.2866877920005,389.2866877920005,389.2866877920005,389.2866877920005,389.2866877920005,389.2866877920005,389.2866877920005,389.204127291334,389.2866877920005,389.2866877920005,389.2866877920005,389.204127291334,389.2866877920005,389.2866877920005,389.2866877920005,391.39399825000055,,389.2866877920005,389.2866877920005,394.44311437500073,389.2866877920005,389.2866877920005,389.2866877920005,389.2866877920005,389.7570836670002,390.7867677920003,389.7269557496668,,391.39399825000055,392.43169175,391.36360166666714,,389.2866877920005,394.44311437500073,389.2866877920005,394.44311437500073,394.4845844170004,395.1413541670008,389.2866877920005,2,1,1.2799914999995963,reldom2_s008,001,2025-02-06_12h36.07.165,What-A-Scan_AC,2022.2.5,None,
33,First_Order,6.0,audwhat,stimulus/audwhat_stim/dummy.wav,stimulus/audwhat_stim/dummy.wav,stimulus/audwhat_stim/string cello_high-pitch_D_loud.wav,stimulus/audwhat_stim/string cello_low-pitch_Dtri_loud.wav,stimulus/audwhat_stim/blank_white.png,stimulus/audwhat_stim/category_box.png,stimulus/audwhat_stim/category_yes.png,stimulus/audwhat_stim/category_no.png,None,Category,None,Category,1,0.0,0,5.125,0,5.125,0,5.125,0,0.0,0.625,0,0.0,0,0.0,0,0.0,0,0.0,0,0.0,0,0.0,1,0.5,1,2.125,0,,,,,0,43,43,43,,,,,,,,,395.39878037500057,395.39878037500057,395.39878037500057,395.39878037500057,395.39878037500057,395.39878037500057,395.39878037500057,395.39878037500057,395.3157037083339,395.39878037500057,395.39878037500057,395.39878037500057,395.3157037083339,395.39878037500057,395.39878037500057,395.39878037500057,397.4694031250001,,395.39878037500057,395.39878037500057,400.5745880000004,395.39878037500057,395.39878037500057,395.39878037500057,395.39878037500057,395.8718784170005,396.9040397080007,395.84101545866747,,397.4694031250001,398.51122600000053,397.4385605416667,,395.39878037500057,400.5745880000004,395.39878037500057,400.5745880000004,400.6161324580007,401.2761447080002,395.39878037500057,1,1,0.8503887489996487,reldom2_s008,001,2025-02-06_12h36.07.165,What-A-Scan_AC,2022.2.5,None,
34,First_Order,6.0,audwhat,stimulus/audwhat_stim/dummy.wav,stimulus/audwhat_stim/dummy.wav,stimulus/audwhat_stim/string cello_high-pitch_F_loud.wav,stimulus/audwhat_stim/string viola_low-pitch_Ftri_loud.wav,stimulus/audwhat_stim/blank_white.png,stimulus/audwhat_stim/pitch_box.png,stimulus/audwhat_stim/pitch_yes.png,stimulus/audwhat_stim/pitch_no.png,None,Pitch,None,Category,2,0.0,0,5.125,0,5.125,0,5.125,0,0.0,0.625,0,0.0,0,0.0,0,0.0,0,0.0,0,0.0,0,0.0,1,0.5,1,2.125,0,,,,,0,44,44,44,,,,,,,,,401.49884779200056,401.49884779200056,401.49884779200056,401.49884779200056,401.49884779200056,401.49884779200056,401.49884779200056,401.49884779200056,401.4094780413335,401.49884779200056,401.49884779200056,401.49884779200056,401.4094780413335,401.49884779200056,401.49884779200056,401.49884779200056,403.61146887500036,407.63547050000034,401.49884779200056,401.49884779200056,406.6558962500003,401.49884779200056,401.49884779200056,401.49884779200056,401.49884779200056,401.9693388750002,403.00043412500054,401.93864141666677,,403.61146887500036,404.64263179200043,403.58080208366687,,401.49884779200056,406.6558962500003,401.49884779200056,406.6558962500003,406.6975338330003,407.35687300000063,401.49884779200056,2,1,1.8685396659993785,reldom2_s008,001,2025-02-06_12h36.07.165,What-A-Scan_AC,2022.2.5,None,
0,0.0,None,fixation,stimulus/audwhat_stim/blank_white.png,stimulus/audwhat_stim/blank_white.png,stimulus/viswhat_stim/blank_white.png,stimulus/viswhat_stim/blank_white.png,stimulus/audwhat_stim/blank_white.png,stimulus/audwhat_stim/blank_white.png,stimulus/audwhat_stim/blank_white.png,stimulus/audwhat_stim/blank_white.png,0.0,0.0,0.0,0.0,0,0.0,0,0.0,0,0.0,0,0.0,0,0.0,0.0,0,0.0,0,0.0,0,0.0,0,0.0,0,0.0,0,0.0,0,0.0,0,0.0,10,,,,,0,45,45,45,,,,,,,,,407.63547050000034,407.63547050000034,407.63547050000034,407.63547050000034,407.63547050000034,407.63547050000034,407.63547050000034,407.63547050000034,407.531569916334,407.63547050000034,407.63547050000034,407.63547050000034,407.531569916334,407.63547050000034,407.63547050000034,407.63547050000034,407.63547050000034,407.63547050000034,407.63547050000034,407.63547050000034,407.63547050000034,407.63547050000034,407.63547050000034,407.63547050000034,407.63547050000034,407.63547050000034,407.63547050000034,407.581569916334,407.63547050000034,407.63547050000034,407.63547050000034,407.581569916334,407.63547050000034,407.63547050000034,407.63547050000034,407.63547050000034,407.63547050000034,412.8566787080008,412.8566787080008,417.7950943750002,None,0,,reldom2_s008,001,2025-02-06_12h36.07.165,What-A-Scan_AC,2022.2.5,None,
35,Second_Order,6.0,audwhat,stimulus/audwhat_stim/percussion xylophone_high-pitch_D_loud.wav,stimulus/audwhat_stim/string viola_high-pitch_D_loud.wav,stimulus/audwhat_stim/percussion mallet_high-pitch_Dtri_loud.wav,stimulus/audwhat_stim/percussion mallet_low-pitch_D_loud.wav,stimulus/audwhat_stim/match_blank.png,stimulus/audwhat_stim/match_box.png,stimulus/audwhat_stim/match_yes.png,stimulus/audwhat_stim/match_no.png,2.0,Match,Pitch,Category,2,5.125,0,5.125,0,5.125,0,5.125,0,0.75,0.75,0,0.0,0,0.0,0,0.0,0,0.0,1,0.5,1,2.125,1,0.5,1,2.125,0,,,,,0,46,46,46,,,,,,,,,417.7950943750002,422.91845529200054,417.7950943750002,417.7950943750002,417.7950943750002,417.7950943750002,418.2534935420008,419.2426948750008,418.2566663336668,419.2555745000009,419.878437458,420.87615062500026,419.8904019586673,,422.91845529200054,423.7497002500004,425.84515208300036,,423.7497002500004,423.7497002500004,428.9271977920007,423.7497002500004,423.7497002500004,423.7497002500004,423.7497002500004,424.2159925420001,425.2852739580003,424.18568808366695,,425.84515208300036,426.8774215420008,425.81524208366704,,423.7497002500004,428.9271977920007,423.7497002500004,428.9271977920007,428.96819929200046,,423.7497002500004,2,1,0.9182638329994006,reldom2_s008,001,2025-02-06_12h36.07.165,What-A-Scan_AC,2022.2.5,None,
36,Second_Order,6.0,audwhat,stimulus/audwhat_stim/percussion mallet_high-pitch_Dtri_loud.wav,stimulus/audwhat_stim/string viola_high-pitch_Dtri_loud.wav,stimulus/audwhat_stim/string cello_high-pitch_Dtri_loud.wav,stimulus/audwhat_stim/string viola_low-pitch_F_loud.wav,stimulus/audwhat_stim/match_blank.png,stimulus/audwhat_stim/match_box.png,stimulus/audwhat_stim/match_yes.png,stimulus/audwhat_stim/match_no.png,2.0,Match,Pitch,Category,2,5.125,0,5.125,0,5.125,0,5.125,0,0.625,0.625,0,0.0,0,0.0,0,0.0,0,0.0,1,0.5,1,2.125,1,0.5,1,2.125,0,,,,,0,47,47,47,,,,,,,,,429.7445924170006,434.8630481250002,429.7445924170006,429.7445924170006,429.7445924170006,429.7445924170006,430.2014178750005,431.2008287080007,430.2139128336669,431.20910704200014,431.823696292,432.8208891250006,431.8350939166669,,434.8630481250002,435.57211675000053,437.6528970830004,,435.57211675000053,435.57211675000053,440.7221008330007,435.57211675000053,435.57211675000053,435.57211675000053,435.57211675000053,436.03303100000085,437.09612775000005,436.0036224996668,,437.6528970830004,438.72413204200075,437.6226492086673,,435.57211675000053,440.7221008330007,435.57211675000053,440.7221008330007,440.7635378750001,441.41699029200026,435.57211675000053,2,1,2.3223578329989323,reldom2_s008,001,2025-02-06_12h36.07.165,What-A-Scan_AC,2022.2.5,None,
0,0.0,None,fixation,stimulus/audwhat_stim/blank_white.png,stimulus/audwhat_stim/blank_white.png,stimulus/viswhat_stim/blank_white.png,stimulus/viswhat_stim/blank_white.png,stimulus/audwhat_stim/blank_white.png,stimulus/audwhat_stim/blank_white.png,stimulus/audwhat_stim/blank_white.png,stimulus/audwhat_stim/blank_white.png,0.0,0.0,0.0,0.0,0,0.0,0,0.0,0,0.0,0,0.0,0,0.0,0.0,0,0.0,0,0.0,0,0.0,0,0.0,0,0.0,0,0.0,0,0.0,0,0.0,8,,,,,0,48,48,48,,,,,,,,,441.69362170800014,441.69362170800014,441.69362170800014,441.69362170800014,441.69362170800014,441.69362170800014,441.69362170800014,441.69362170800014,441.5910616663333,441.69362170800014,441.69362170800014,441.69362170800014,441.5910616663333,441.69362170800014,441.69362170800014,441.69362170800014,441.69362170800014,441.69362170800014,441.69362170800014,441.69362170800014,441.69362170800014,441.69362170800014,441.69362170800014,441.69362170800014,441.69362170800014,441.69362170800014,441.69362170800014,441.6410616663333,441.69362170800014,441.69362170800014,441.69362170800014,441.6410616663333,441.69362170800014,441.69362170800014,441.69362170800014,441.69362170800014,441.69362170800014,446.92682762500044,446.92682762500044,449.9239617920002,None,0,,reldom2_s008,001,2025-02-06_12h36.07.165,What-A-Scan_AC,2022.2.5,None,
37,First_Order,7.0,viswhat,stimulus/viswhat_stim/blank_white.png,stimulus/viswhat_stim/blank_white.png,stimulus/viswhat_stim/land_animal-zebra.png,stimulus/viswhat_stim/water_animal-squid.png,stimulus/viswhat_stim/blank_white.png,stimulus/viswhat_stim/type_box.png,stimulus/viswhat_stim/type_yes.png,stimulus/viswhat_stim/type_no.png,None,Type,None,Type,1,0.0,0,5.125,0,5.125,0,5.125,0,0.0,0.625,0,0.0,0,0.0,1,0.5,1,2.125,0,0.0,0,0.0,0,0.0,0,0.0,0,,,,,0,49,49,49,,,,,,,,,449.9239617920002,449.9239617920002,449.9239617920002,449.9239617920002,449.9239617920002,449.9239617920002,449.9239617920002,449.9239617920002,449.87363270866683,449.9239617920002,449.9239617920002,449.9239617920002,449.87363270866683,449.9239617920002,449.9239617920002,449.9239617920002,452.02090212500025,456.25466012500056,449.9239617920002,449.9239617920002,455.0663007080002,450.3825333750001,451.42869879200043,452.02090212500025,453.0378223330008,449.9239617920002,449.9239617920002,449.89029937533354,449.9239617920002,449.9239617920002,449.9239617920002,449.89029937533354,449.9239617920002,449.9239617920002,455.0663007080002,449.9239617920002,455.0663007080002,455.1471457080006,455.7963273330006,449.9239617920002,1,1,2.0699129989998255,reldom2_s008,001,2025-02-06_12h36.07.165,What-A-Scan_AC,2022.2.5,None,
38,First_Order,7.0,viswhat,stimulus/viswhat_stim/blank_white.png,stimulus/viswhat_stim/blank_white.png,stimulus/viswhat_stim/water_vehicle-submarine.png,stimulus/viswhat_stim/water_animal-lobster.png,stimulus/viswhat_stim/blank_white.png,stimulus/viswhat_stim/location_box.png,stimulus/viswhat_stim/location_yes.png,stimulus/viswhat_stim/location_no.png,None,Location,None,Location,1,0.0,0,5.125,0,5.125,0,5.125,0,0.0,0.625,0,0.0,0,0.0,1,0.5,1,2.125,0,0.0,0,0.0,0,0.0,0,0.0,0,,,,,0,50,50,50,,,,,,,,,456.25466012500056,456.25466012500056,456.25466012500056,456.25466012500056,456.25466012500056,456.25466012500056,456.25466012500056,456.25466012500056,455.9665266246674,456.25466012500056,456.25466012500056,456.25466012500056,455.9665266246674,456.25466012500056,456.25466012500056,456.25466012500056,458.24972550000075,,456.25466012500056,456.25466012500056,461.6097724580004,456.71280191700043,457.9433989170002,458.24972550000075,459.4741958750001,456.25466012500056,456.25466012500056,456.11652662466736,456.25466012500056,456.25466012500056,456.25466012500056,456.11652662466736,456.25466012500056,456.25466012500056,461.6097724580004,456.25466012500056,461.6097724580004,461.46137391700086,,456.25466012500056,1,1,1.5484273329993812,reldom2_s008,001,2025-02-06_12h36.07.165,What-A-Scan_AC,2022.2.5,None,
39,First_Order,7.0,viswhat,stimulus/viswhat_stim/blank_white.png,stimulus/viswhat_stim/blank_white.png,stimulus/viswhat_stim/land_vehicle-vespa.png,stimulus/viswhat_stim/water_vehicle-yacht.png,stimulus/viswhat_stim/blank_white.png,stimulus/viswhat_stim/location_box.png,stimulus/viswhat_stim/location_yes.png,stimulus/viswhat_stim/location_no.png,None,Location,None,Type,2,0.0,0,5.125,0,5.125,0,5.125,0,0.0,0.625,0,0.0,0,0.0,1,0.5,1,2.125,0,0.0,0,0.0,0,0.0,0,0.0,0,,,,,0,51,51,51,,,,,,,,,462.3259003330004,462.3259003330004,462.3259003330004,462.3259003330004,462.3259003330004,462.3259003330004,462.3259003330004,462.3259003330004,462.25333395800004,462.3259003330004,462.3259003330004,462.3259003330004,462.25333395800004,462.3259003330004,462.3259003330004,462.3259003330004,464.4136331670006,,462.3259003330004,462.3259003330004,467.4856892080006,462.79398958300044,463.861036583,464.4136331670006,465.4415738330008,462.3259003330004,462.3259003330004,462.2866672913334,462.3259003330004,462.3259003330004,462.3259003330004,462.2866672913334,462.3259003330004,462.3259003330004,467.4856892080006,462.3259003330004,467.4856892080006,467.5231500830005,468.1873527080006,462.3259003330004,2,1,0.7632305409997571,reldom2_s008,001,2025-02-06_12h36.07.165,What-A-Scan_AC,2022.2.5,None,
40,First_Order,7.0,viswhat,stimulus/viswhat_stim/blank_white.png,stimulus/viswhat_stim/blank_white.png,stimulus/viswhat_stim/water_vehicle-canoe.png,stimulus/viswhat_stim/water_animal-whale (1).png,stimulus/viswhat_stim/blank_white.png,stimulus/viswhat_stim/location_box.png,stimulus/viswhat_stim/location_yes.png,stimulus/viswhat_stim/location_no.png,None,Location,None,Location,1,0.0,0,5.125,0,5.125,0,5.125,0,0.0,0.625,0,0.0,0,0.0,1,0.5,1,2.125,0,0.0,0,0.0,0,0.0,0,0.0,0,,,,,0,52,52,52,,,,,,,,,468.4000410000008,468.4000410000008,468.4000410000008,468.4000410000008,468.4000410000008,468.4000410000008,468.4000410000008,468.4000410000008,468.357236791334,468.4000410000008,468.4000410000008,468.4000410000008,468.357236791334,468.4000410000008,468.4000410000008,468.4000410000008,470.510261208,474.54374050000024,468.4000410000008,468.4000410000008,473.5504109170006,468.87489283300056,469.91626387500037,470.510261208,471.52873745800025,468.4000410000008,468.4000410000008,468.37390345800065,468.4000410000008,468.4000410000008,468.4000410000008,468.37390345800065,468.4000410000008,468.4000410000008,473.5504109170006,468.4000410000008,473.5504109170006,473.6225587080007,474.26778300000024,468.4000410000008,1,1,0.9690340830002242,reldom2_s008,001,2025-02-06_12h36.07.165,What-A-Scan_AC,2022.2.5,None,
0,0.0,None,fixation,stimulus/audwhat_stim/blank_white.png,stimulus/audwhat_stim/blank_white.png,stimulus/viswhat_stim/blank_white.png,stimulus/viswhat_stim/blank_white.png,stimulus/audwhat_stim/blank_white.png,stimulus/audwhat_stim/blank_white.png,stimulus/audwhat_stim/blank_white.png,stimulus/audwhat_stim/blank_white.png,0.0,0.0,0.0,0.0,0,0.0,0,0.0,0,0.0,0,0.0,0,0.0,0.0,0,0.0,0,0.0,0,0.0,0,0.0,0,0.0,0,0.0,0,0.0,0,0.0,10,,,,,0,53,53,53,,,,,,,,,474.54374050000024,474.54374050000024,474.54374050000024,474.54374050000024,474.54374050000024,474.54374050000024,474.54374050000024,474.54374050000024,474.43908054200034,474.54374050000024,474.54374050000024,474.54374050000024,474.43908054200034,474.54374050000024,474.54374050000024,474.54374050000024,474.54374050000024,474.54374050000024,474.54374050000024,474.54374050000024,474.54374050000024,474.54374050000024,474.54374050000024,474.54374050000024,474.54374050000024,474.54374050000024,474.54374050000024,474.48908054200035,474.54374050000024,474.54374050000024,474.54374050000024,474.48908054200035,474.54374050000024,474.54374050000024,474.54374050000024,474.54374050000024,474.54374050000024,479.7302697920004,479.7302697920004,484.7135752080003,None,0,,reldom2_s008,001,2025-02-06_12h36.07.165,What-A-Scan_AC,2022.2.5,None,
41,Second_Order,7.0,viswhat,stimulus/viswhat_stim/water_vehicle-cruiser.png,stimulus/viswhat_stim/land_vehicle-bus.png,stimulus/viswhat_stim/land_animal-fox.png,stimulus/viswhat_stim/water_animal-dolphin.png,stimulus/audwhat_stim/match_blank.png,stimulus/audwhat_stim/match_box.png,stimulus/audwhat_stim/match_yes.png,stimulus/audwhat_stim/match_no.png,1.0,Match,Type,Type,1,5.125,0,5.125,0,5.125,0,5.125,0,0.75,0.75,1,0.5,1,2.125,1,0.5,1,2.125,0,0.0,0,0.0,0,0.0,0,0.0,0,,,,,0,54,54,54,,,,,,,,,484.7135752080003,489.8351341250009,485.141104542,486.1298309170006,486.76616979200026,487.76353737500085,484.7135752080003,484.7135752080003,484.72122375033354,484.7135752080003,484.7135752080003,484.7135752080003,484.72122375033354,484.7135752080003,489.8351341250009,490.6309356670008,492.7311876670001,496.63753304200054,490.6309356670008,490.6309356670008,495.7705599580004,491.1064347500005,492.1199524580006,492.7311876670001,493.74993579200054,490.6309356670008,490.6309356670008,490.603551208334,490.6309356670008,490.6309356670008,490.6309356670008,490.603551208334,490.6309356670008,490.6309356670008,495.7705599580004,490.6309356670008,495.7705599580004,495.83459312500054,,490.6309356670008,1,1,2.94167004099927,reldom2_s008,001,2025-02-06_12h36.07.165,What-A-Scan_AC,2022.2.5,None,
42,Second_Order,7.0,viswhat,stimulus/viswhat_stim/water_animal-whale.png,stimulus/viswhat_stim/water_vehicle-ferryboat.png,stimulus/viswhat_stim/land_vehicle-tank.png,stimulus/viswhat_stim/land_animal-wolf.png,stimulus/audwhat_stim/match_blank.png,stimulus/audwhat_stim/match_box.png,stimulus/audwhat_stim/match_yes.png,stimulus/audwhat_stim/match_no.png,1.0,Match,Location,Location,1,5.125,0,5.125,0,5.125,0,5.125,0,0.625,0.625,1,0.5,1,2.125,1,0.5,1,2.125,0,0.0,0,0.0,0,0.0,0,0.0,0,,,,,0,55,55,55,,,,,,,,,496.63753304200054,501.7511078330008,497.1018651250006,498.0909859170006,498.72703058300067,499.7247115,496.63753304200054,496.63753304200054,496.64989512533367,496.63753304200054,496.63753304200054,496.63753304200054,496.64989512533367,496.63753304200054,501.7511078330008,502.41039508300037,504.51216212500003,508.5533793750001,502.41039508300037,502.41039508300037,507.54839875000016,502.8813127080002,503.89139395800066,504.51216212500003,505.5259975000008,502.41039508300037,502.41039508300037,502.39722458333335,502.41039508300037,502.41039508300037,502.41039508300037,502.39722458333335,502.41039508300037,502.41039508300037,507.54839875000016,502.41039508300037,507.54839875000016,507.62779220800076,508.26237129200035,502.41039508300037,1,1,1.1049183749992153,reldom2_s008,001,2025-02-06_12h36.07.165,What-A-Scan_AC,2022.2.5,None,
0,0.0,None,fixation,stimulus/audwhat_stim/blank_white.png,stimulus/audwhat_stim/blank_white.png,stimulus/viswhat_stim/blank_white.png,stimulus/viswhat_stim/blank_white.png,stimulus/audwhat_stim/blank_white.png,stimulus/audwhat_stim/blank_white.png,stimulus/audwhat_stim/blank_white.png,stimulus/audwhat_stim/blank_white.png,0.0,0.0,0.0,0.0,0,0.0,0,0.0,0,0.0,0,0.0,0,0.0,0.0,0,0.0,0,0.0,0,0.0,0,0.0,0,0.0,0,0.0,0,0.0,0,0.0,9,,,,,0,56,56,56,,,,,,,,,508.5533793750001,508.5533793750001,508.5533793750001,508.5533793750001,508.5533793750001,508.5533793750001,508.5533793750001,508.5533793750001,508.4458272503337,508.5533793750001,508.5533793750001,508.5533793750001,508.4458272503337,508.5533793750001,508.5533793750001,508.5533793750001,508.5533793750001,508.5533793750001,508.5533793750001,508.5533793750001,508.5533793750001,508.5533793750001,508.5533793750001,508.5533793750001,508.5533793750001,508.5533793750001,508.5533793750001,508.51249391700037,508.5533793750001,508.5533793750001,508.5533793750001,508.51249391700037,508.5533793750001,508.5533793750001,508.5533793750001,508.5533793750001,508.5533793750001,513.7607008750001,513.7607008750001,517.7932955830001,None,0,,reldom2_s008,001,2025-02-06_12h36.07.165,What-A-Scan_AC,2022.2.5,None,
43,First_Order,8.0,viswhat,stimulus/viswhat_stim/blank_white.png,stimulus/viswhat_stim/blank_white.png,stimulus/viswhat_stim/water_vehicle-canoe.png,stimulus/viswhat_stim/water_animal-octopus.png,stimulus/viswhat_stim/blank_white.png,stimulus/viswhat_stim/type_box.png,stimulus/viswhat_stim/type_yes.png,stimulus/viswhat_stim/type_no.png,None,Type,None,Location,2,0.0,0,5.125,0,5.125,0,5.125,0,0.0,0.625,0,0.0,0,0.0,1,0.5,1,2.125,0,0.0,0,0.0,0,0.0,0,0.0,0,,,,,0,57,57,57,,,,,,,,,517.7932955830001,517.7932955830001,517.7932955830001,517.7932955830001,517.7932955830001,517.7932955830001,517.7932955830001,517.7932955830001,517.7392501246674,517.7932955830001,517.7932955830001,517.7932955830001,517.7392501246674,517.7932955830001,517.7932955830001,517.7932955830001,519.8743697080008,523.8788974170002,517.7932955830001,517.7932955830001,522.9621972500008,518.2796576670007,519.3192292080003,519.8743697080008,520.9193295000005,517.7932955830001,517.7932955830001,517.7725834580007,517.7932955830001,517.7932955830001,517.7932955830001,517.7725834580007,517.7932955830001,517.7932955830001,522.9621972500008,517.7932955830001,522.9621972500008,522.9914444580008,523.6299532080002,517.7932955830001,2,1,1.775864957999147,reldom2_s008,001,2025-02-06_12h36.07.165,What-A-Scan_AC,2022.2.5,None,
44,First_Order,8.0,viswhat,stimulus/viswhat_stim/blank_white.png,stimulus/viswhat_stim/blank_white.png,stimulus/viswhat_stim/water_animal-octopus.png,stimulus/viswhat_stim/land_animal-snake.png,stimulus/viswhat_stim/blank_white.png,stimulus/viswhat_stim/type_box.png,stimulus/viswhat_stim/type_yes.png,stimulus/viswhat_stim/type_no.png,None,Type,None,Type,1,0.0,0,5.125,0,5.125,0,5.125,0,0.0,0.625,0,0.0,0,0.0,1,0.5,1,2.125,0,0.0,0,0.0,0,0.0,0,0.0,0,,,,,0,58,58,58,,,,,,,,,523.8788974170002,523.8788974170002,523.8788974170002,523.8788974170002,523.8788974170002,523.8788974170002,523.8788974170002,523.8788974170002,523.8332982086675,523.8788974170002,523.8788974170002,523.8788974170002,523.8332982086675,523.8788974170002,523.8788974170002,523.8788974170002,525.9768152080005,529.9709973750005,523.8788974170002,523.8788974170002,529.0196113330003,524.3539331250004,525.3735805830001,525.9768152080005,526.992436083,523.8788974170002,523.8788974170002,523.8499648753342,523.8788974170002,523.8788974170002,523.8788974170002,523.8499648753342,523.8788974170002,523.8788974170002,529.0196113330003,523.8788974170002,529.0196113330003,529.0972681250005,529.7461936670006,523.8788974170002,1,1,1.2476352079993376,reldom2_s008,001,2025-02-06_12h36.07.165,What-A-Scan_AC,2022.2.5,None,
45,First_Order,8.0,viswhat,stimulus/viswhat_stim/blank_white.png,stimulus/viswhat_stim/blank_white.png,stimulus/viswhat_stim/land_vehicle-schoolbus.png,stimulus/viswhat_stim/land_animal-pig.png,stimulus/viswhat_stim/blank_white.png,stimulus/viswhat_stim/type_box.png,stimulus/viswhat_stim/type_yes.png,stimulus/viswhat_stim/type_no.png,None,Type,None,Location,2,0.0,0,5.125,0,5.125,0,5.125,0,0.0,0.625,0,0.0,0,0.0,1,0.5,1,2.125,0,0.0,0,0.0,0,0.0,0,0.0,0,,,,,0,59,59,59,,,,,,,,,529.9709973750005,529.9709973750005,529.9709973750005,529.9709973750005,529.9709973750005,529.9709973750005,529.9709973750005,529.9709973750005,529.9242365420001,529.9709973750005,529.9709973750005,529.9709973750005,529.9242365420001,529.9709973750005,529.9709973750005,529.9709973750005,532.0658492920002,536.0765230420002,529.9709973750005,529.9709973750005,535.1057624170007,530.4546701250001,531.4745754580008,532.0658492920002,533.0902220000007,529.9709973750005,529.9709973750005,529.9575698753334,529.9709973750005,529.9709973750005,529.9709973750005,529.9575698753334,529.9709973750005,529.9709973750005,535.1057624170007,529.9709973750005,535.1057624170007,535.1898804170005,535.8249989170008,529.9709973750005,2,1,2.576534790999176,reldom2_s008,001,2025-02-06_12h36.07.165,What-A-Scan_AC,2022.2.5,None,
46,First_Order,8.0,viswhat,stimulus/viswhat_stim/blank_white.png,stimulus/viswhat_stim/blank_white.png,stimulus/viswhat_stim/land_vehicle-oldcar.png,stimulus/viswhat_stim/water_vehicle-powercruiser.png,stimulus/viswhat_stim/blank_white.png,stimulus/viswhat_stim/location_box.png,stimulus/viswhat_stim/location_yes.png,stimulus/viswhat_stim/location_no.png,None,Location,None,Type,2,0.0,0,5.125,0,5.125,0,5.125,0,0.0,0.625,0,0.0,0,0.0,1,0.5,1,2.125,0,0.0,0,0.0,0,0.0,0,0.0,0,,,,,0,60,60,60,,,,,,,,,536.0765230420002,536.0765230420002,536.0765230420002,536.0765230420002,536.0765230420002,536.0765230420002,536.0765230420002,536.0765230420002,536.0089384170002,536.0765230420002,536.0765230420002,536.0765230420002,536.0089384170002,536.0765230420002,536.0765230420002,536.0765230420002,538.1714424580005,542.2143607920007,536.0765230420002,536.0765230420002,541.2262947500003,536.5374500830003,537.5851947500005,538.1714424580005,539.2190589580005,536.0765230420002,536.0765230420002,536.0422717503335,536.0765230420002,536.0765230420002,536.0765230420002,536.0422717503335,536.0765230420002,536.0765230420002,541.2262947500003,536.0765230420002,541.2262947500003,541.2983771670006,541.9489416250008,536.0765230420002,2,1,1.3680321669999103,reldom2_s008,001,2025-02-06_12h36.07.165,What-A-Scan_AC,2022.2.5,None,
0,0.0,None,fixation,stimulus/audwhat_stim/blank_white.png,stimulus/audwhat_stim/blank_white.png,stimulus/viswhat_stim/blank_white.png,stimulus/viswhat_stim/blank_white.png,stimulus/audwhat_stim/blank_white.png,stimulus/audwhat_stim/blank_white.png,stimulus/audwhat_stim/blank_white.png,stimulus/audwhat_stim/blank_white.png,0.0,0.0,0.0,0.0,0,0.0,0,0.0,0,0.0,0,0.0,0,0.0,0.0,0,0.0,0,0.0,0,0.0,0,0.0,0,0.0,0,0.0,0,0.0,0,0.0,9,,,,,0,61,61,61,,,,,,,,,542.2143607920007,542.2143607920007,542.2143607920007,542.2143607920007,542.2143607920007,542.2143607920007,542.2143607920007,542.2143607920007,542.1183245833337,542.2143607920007,542.2143607920007,542.2143607920007,542.1183245833337,542.2143607920007,542.2143607920007,542.2143607920007,542.2143607920007,542.2143607920007,542.2143607920007,542.2143607920007,542.2143607920007,542.2143607920007,542.2143607920007,542.2143607920007,542.2143607920007,542.2143607920007,542.2143607920007,542.1683245833336,542.2143607920007,542.2143607920007,542.2143607920007,542.1683245833336,542.2143607920007,542.2143607920007,542.2143607920007,542.2143607920007,542.2143607920007,547.408974125,547.408974125,551.4045417920006,None,0,,reldom2_s008,001,2025-02-06_12h36.07.165,What-A-Scan_AC,2022.2.5,None,
47,Second_Order,8.0,viswhat,stimulus/viswhat_stim/water_animal-dolphin.png,stimulus/viswhat_stim/water_vehicle-cruiseship.png,stimulus/viswhat_stim/land_vehicle-oldcar.png,stimulus/viswhat_stim/land_animal-giraffe.png,stimulus/audwhat_stim/match_blank.png,stimulus/audwhat_stim/match_box.png,stimulus/audwhat_stim/match_yes.png,stimulus/audwhat_stim/match_no.png,1.0,Match,Location,Location,1,5.125,0,5.125,0,5.125,0,5.125,0,0.75,0.75,1,0.5,1,2.125,1,0.5,1,2.125,0,0.0,0,0.0,0,0.0,0,0.0,0,,,,,0,62,62,62,,,,,,,,,551.4045417920006,556.526649208,551.7987222500005,552.7968595000002,553.4217473750005,554.4207852920008,551.4045417920006,551.4045417920006,551.4156662916671,551.4045417920006,551.4045417920006,551.4045417920006,551.4156662916671,551.4045417920006,556.526649208,557.4028373330002,559.4900357500001,563.4183895830001,557.4028373330002,557.4028373330002,562.5863613750007,557.8756528330005,558.9511148750007,559.4900357500001,560.5708918750006,557.4028373330002,557.4028373330002,557.344382208334,557.4028373330002,557.4028373330002,557.4028373330002,557.344382208334,557.4028373330002,557.4028373330002,562.5863613750007,557.4028373330002,562.5863613750007,562.5863613750007,,557.4028373330002,1,1,0.8225589989988293,reldom2_s008,001,2025-02-06_12h36.07.165,What-A-Scan_AC,2022.2.5,None,
48,Second_Order,8.0,viswhat,stimulus/viswhat_stim/land_animal-ostrich.png,stimulus/viswhat_stim/water_animal-shark.png,stimulus/viswhat_stim/water_animal-whale.png,stimulus/viswhat_stim/water_vehicle-cargoboat.png,stimulus/audwhat_stim/match_blank.png,stimulus/audwhat_stim/match_box.png,stimulus/audwhat_stim/match_yes.png,stimulus/audwhat_stim/match_no.png,2.0,Match,Type,Location,2,5.125,0,5.125,0,5.125,0,5.125,0,0.625,0.625,1,0.5,1,2.125,1,0.5,1,2.125,0,0.0,0,0.0,0,0.0,0,0.0,0,,,,,0,63,63,63,,,,,,,,,563.4183895830001,568.538445917,563.8760137500003,564.8747458750004,565.4982298330006,566.4952902920004,563.4183895830001,563.4183895830001,563.4284167916672,563.4183895830001,563.4183895830001,563.4183895830001,563.4284167916672,563.4183895830001,568.538445917,569.2146700830008,571.2950713750006,,569.2146700830008,569.2146700830008,574.3629060830008,569.6734705420004,570.70109675,571.2950713750006,572.3044181670002,569.2146700830008,569.2146700830008,569.2015450420001,569.2146700830008,569.2146700830008,569.2146700830008,569.2015450420001,569.2146700830008,569.2146700830008,574.3629060830008,569.2146700830008,574.3629060830008,574.4271468330007,575.0688284580001,569.2146700830008,2,1,1.284011290998933,reldom2_s008,001,2025-02-06_12h36.07.165,What-A-Scan_AC,2022.2.5,None,
0,0.0,None,fixation,stimulus/audwhat_stim/blank_white.png,stimulus/audwhat_stim/blank_white.png,stimulus/viswhat_stim/blank_white.png,stimulus/viswhat_stim/blank_white.png,stimulus/audwhat_stim/blank_white.png,stimulus/audwhat_stim/blank_white.png,stimulus/audwhat_stim/blank_white.png,stimulus/audwhat_stim/blank_white.png,0.0,0.0,0.0,0.0,0,0.0,0,0.0,0,0.0,0,0.0,0,0.0,0.0,0,0.0,0,0.0,0,0.0,0,0.0,0,0.0,0,0.0,0,0.0,0,0.0,16,,,,,0,64,64,64,,,,,,,,,575.3355370000008,575.3355370000008,575.3355370000008,575.3355370000008,575.3355370000008,575.3355370000008,575.3355370000008,575.3355370000008,575.2325255830007,575.3355370000008,575.3355370000008,575.3355370000008,575.2325255830007,575.3355370000008,575.3355370000008,575.3355370000008,575.3355370000008,575.3355370000008,575.3355370000008,575.3355370000008,575.3355370000008,575.3355370000008,575.3355370000008,575.3355370000008,575.3355370000008,575.3355370000008,575.3355370000008,575.2825255830006,575.3355370000008,575.3355370000008,575.3355370000008,575.2825255830006,575.3355370000008,575.3355370000008,575.3355370000008,575.3355370000008,575.3355370000008,580.549628625,580.549628625,591.5052060420003,None,0,,reldom2_s008,001,2025-02-06_12h36.07.165,What-A-Scan_AC,2022.2.5,None,
