Trial,Order,Block,Type,Stimuli_File1,Stimuli_File2,Stimuli_File3,Stimuli_File4,Cue_File1,Cue_File2,Response_File_Yes,Response_File_No,Match,Cue_Dimension,Pair1_Dimension,Pair2_Dimension,Key,Cue1_Duration,Cue1_Onset,Cue2_Duration,Cue2_Onset,ResponseYes_Duration,ResponseYes_Onset,ResponseNo_Duration,ResponseNo_Onset,ITI_Within,ITI_Between,Image1_Duration,Image1_Onset,Image2_Duration,Image2_Onset,Image3_Duration,Image3_Onset,Image4_Duration,Image4_Onset,Sound1_Duration,Sound1_Onset,Sound2_Duration,Sound2_Onset,Sound3_Duration,Sound3_Onset,Sound4_Duration,Sound4_Onset,Fixation_Duration,trials_2.thisRepN,trials_2.thisTrialN,trials_2.thisN,trials_2.thisIndex,trials.thisRepN,trials.thisTrialN,trials.thisN,trials.thisIndex,text_start.started,key_resp_start.started,key_resp_start.keys,key_resp_start.rt,text2.started,key_resp_2.started,key_resp_2.keys,key_resp_2.rt,cue_file1.started,cue_file1.stopped,image_1.started,image_1.stopped,image_2.started,image_2.stopped,sound_icon1.started,sound_icon1.stopped,sound_1.started,sound_1.stopped,sound_icon2.started,sound_icon2.stopped,sound_2.started,sound_2.stopped,image_blank_1.started,image_blank_1.stopped,key_press.started,key_press.stopped,fixation_text.started,cue_file2.started,cue_file2.stopped,image_3.started,image_3.stopped,image_4.started,image_4.stopped,sound_icon3.started,sound_icon3.stopped,sound_3.started,sound_3.stopped,sound_icon4.started,sound_icon4.stopped,sound_4.started,sound_4.stopped,response_yes.started,response_yes.stopped,response_no.started,response_no.stopped,iti_blank.started,iti_blank.stopped,fixation_text.stopped,key_press.keys,key_press.corr,key_press.rt,participant,session,date,expName,psychopyVersion,frameRate,
,,,,,,,,,,,,,,,,,,,,,,,,,,,,,,,,,,,,,,,,,,,,,,,,,,,,9.064143167000111,9.064143167000111,2,0.8124211240001387,,,,,,,,,,,,,,,,,,,,,,,,,,,,,,,,,,,,,,,,,,,,,,,,reldom2_s008,001,2025-02-06_12h47.17.787,Where-A-Scan_AC,2022.2.5,None,
,,,,,,,,,,,,,,,,,,,,,,,,,,,,,,,,,,,,,,,,,,,,0,0,0,0,,,,,,,,,9.895004209000035,9.895004209000035,5,17.553415166000377,,,,,,,,,,,,,,,,,,,,,,,,,,,,,,,,,,,,,,,,,,,,reldom2_s008,001,2025-02-06_12h47.17.787,Where-A-Scan_AC,2022.2.5,None,
,,,,,,,,,,,,,,,,,,,,,,,,,,,,,,,,,,,,,,,,,,,,1,0,1,0,,,,,,,,,27.46148437500051,27.46148437500051,5,1.9874021659998107,,,,,,,,,,,,,,,,,,,,,,,,,,,,,,,,,,,,,,,,,,,,reldom2_s008,001,2025-02-06_12h47.17.787,Where-A-Scan_AC,2022.2.5,None,
,,,,,,,,,,,,,,,,,,,,,,,,,,,,,,,,,,,,,,,,,,,,2,0,2,0,,,,,,,,,29.460046042000613,29.460046042000613,5,1.9887782909991074,,,,,,,,,,,,,,,,,,,,,,,,,,,,,,,,,,,,,,,,,,,,reldom2_s008,001,2025-02-06_12h47.17.787,Where-A-Scan_AC,2022.2.5,None,
,,,,,,,,,,,,,,,,,,,,,,,,,,,,,,,,,,,,,,,,,,,,3,0,3,0,,,,,,,,,31.463555125000312,31.463555125000312,5,1.9842067489998954,,,,,,,,,,,,,,,,,,,,,,,,,,,,,,,,,,,,,,,,,,,,reldom2_s008,001,2025-02-06_12h47.17.787,Where-A-Scan_AC,2022.2.5,None,
0,0.0,None,fixation,stimulus/viswhere_stim/blank_white.png,stimulus/viswhere_stim/blank_white.png,stimulus/audwhere_stim/blank_white.png,stimulus/audwhere_stim/blank_white.png,stimulus/viswhere_stim/blank_white.png,stimulus/viswhere_stim/blank_white.png,stimulus/viswhere_stim/blank_white.png,stimulus/viswhere_stim/blank_white.png,0.0,0.0,0.0,0.0,0,0.0,0,0.0,0,0.0,0,0.0,0,0.0,0.0,0,0.0,0,0.0,0,0.0,0,0.0,0,0.0,0,0.0,0,0.0,0,0.0,16,,,,,0,0,0,0,,,,,,,,,33.65031095900031,33.65031095900031,33.65031095900031,33.65031095900031,33.65031095900031,33.65031095900031,33.65031095900031,33.65031095900031,33.54742241700078,33.65031095900031,33.65031095900031,33.65031095900031,33.54742241700078,33.65031095900031,33.65031095900031,33.65031095900031,33.65031095900031,33.65031095900031,33.65031095900031,33.65031095900031,33.65031095900031,33.65031095900031,33.65031095900031,33.65031095900031,33.65031095900031,33.65031095900031,33.65031095900031,33.614089083667444,33.65031095900031,33.65031095900031,33.65031095900031,33.614089083667444,33.65031095900031,33.65031095900031,33.65031095900031,33.65031095900031,33.65031095900031,38.82669858400004,38.82669858400004,49.84717675000047,None,0,,reldom2_s008,001,2025-02-06_12h47.17.787,Where-A-Scan_AC,2022.2.5,None,
1,First_Order,1.0,viswhere,stimulus/viswhere_stim/blank_white.png,stimulus/viswhere_stim/blank_white.png,stimulus/viswhere_stim/60-deg_dot-left_peru.png,stimulus/viswhere_stim/60-deg_dot-right_turquoise.png,stimulus/viswhere_stim/blank_white.png,stimulus/viswhere_stim/dot_box.png,stimulus/viswhere_stim/dot_yes.png,stimulus/viswhere_stim/dot_no.png,None,Dot,None,Line,2,0.0,0,5.125,0,5.125,0,5.125,0,0.0,0.625,0,0.0,0,0.0,1,0.5,1,2.125,0,0.0,0,0.0,0,0.0,0,0.0,0,,,,,0,1,1,1,,,,,,,,,49.84717675000047,49.84717675000047,49.84717675000047,49.84717675000047,49.84717675000047,49.84717675000047,49.84717675000047,49.84717675000047,49.81987691700069,49.84717675000047,49.84717675000047,49.84717675000047,49.81987691700069,49.84717675000047,49.84717675000047,49.84717675000047,51.95265704200028,55.90983858400068,49.84717675000047,49.84717675000047,54.96916495900041,50.32648125000014,51.34090775000004,51.95265704200028,52.972264792000715,49.84717675000047,49.84717675000047,49.83654358366736,49.84717675000047,49.84717675000047,49.84717675000047,49.83654358366736,49.84717675000047,49.84717675000047,54.96916495900041,49.84717675000047,54.96916495900041,55.06622683400019,55.69316000000072,49.84717675000047,1,0,1.6887210830000186,reldom2_s008,001,2025-02-06_12h47.17.787,Where-A-Scan_AC,2022.2.5,None,
2,First_Order,1.0,viswhere,stimulus/viswhere_stim/blank_white.png,stimulus/viswhere_stim/blank_white.png,stimulus/viswhere_stim/60-deg_dot-right_turquoise.png,stimulus/viswhere_stim/60-deg_dot-left_turquoise.png,stimulus/viswhere_stim/blank_white.png,stimulus/viswhere_stim/line_box.png,stimulus/viswhere_stim/line_yes.png,stimulus/viswhere_stim/line_no.png,None,Line,None,Line,1,0.0,0,5.125,0,5.125,0,5.125,0,0.0,0.625,0,0.0,0,0.0,1,0.5,1,2.125,0,0.0,0,0.0,0,0.0,0,0.0,0,,,,,0,2,2,2,,,,,,,,,55.90983858400068,55.90983858400068,55.90983858400068,55.90983858400068,55.90983858400068,55.90983858400068,55.90983858400068,55.90983858400068,55.88735604233383,55.90983858400068,55.90983858400068,55.90983858400068,55.88735604233383,55.90983858400068,55.90983858400068,55.90983858400068,58.023003625000456,61.96978354200019,55.90983858400068,55.90983858400068,61.044586084,56.38991362500019,57.408751334000044,58.023003625000456,59.02628470900072,55.90983858400068,55.90983858400068,55.90402270900049,55.90983858400068,55.90983858400068,55.90983858400068,55.90402270900049,55.90983858400068,55.90983858400068,61.044586084,55.90983858400068,61.044586084,61.126896334000776,61.75424958400072,55.90983858400068,1,1,2.7636809989999165,reldom2_s008,001,2025-02-06_12h47.17.787,Where-A-Scan_AC,2022.2.5,None,
3,First_Order,1.0,viswhere,stimulus/viswhere_stim/blank_white.png,stimulus/viswhere_stim/blank_white.png,stimulus/viswhere_stim/30-deg_dot-left_salmon.png,stimulus/viswhere_stim/120-deg_dot-left_royalblue.png,stimulus/viswhere_stim/blank_white.png,stimulus/viswhere_stim/line_box.png,stimulus/viswhere_stim/line_yes.png,stimulus/viswhere_stim/line_no.png,None,Line,None,Dot,2,0.0,0,5.125,0,5.125,0,5.125,0,0.0,0.625,0,0.0,0,0.0,1,0.5,1,2.125,0,0.0,0,0.0,0,0.0,0,0.0,0,,,,,0,3,3,3,,,,,,,,,61.96978354200019,61.96978354200019,61.96978354200019,61.96978354200019,61.96978354200019,61.96978354200019,61.96978354200019,61.96978354200019,61.947700125333846,61.96978354200019,61.96978354200019,61.96978354200019,61.947700125333846,61.96978354200019,61.96978354200019,61.96978354200019,64.06689095900038,68.03198545900068,61.96978354200019,61.96978354200019,67.09553062500072,62.450437542000145,63.47188770900084,64.06689095900038,65.07237029200041,61.96978354200019,61.96978354200019,61.96436679200051,61.96978354200019,61.96978354200019,61.96978354200019,61.96436679200051,61.96978354200019,61.96978354200019,67.09553062500072,61.96978354200019,67.09553062500072,67.19727029200021,67.82851320900045,61.96978354200019,None,0,,reldom2_s008,001,2025-02-06_12h47.17.787,Where-A-Scan_AC,2022.2.5,None,
4,First_Order,1.0,viswhere,stimulus/viswhere_stim/blank_white.png,stimulus/viswhere_stim/blank_white.png,stimulus/viswhere_stim/150-deg_dot-right_salmon.png,stimulus/viswhere_stim/90-deg_dot-right_goldenrod.png,stimulus/viswhere_stim/blank_white.png,stimulus/viswhere_stim/line_box.png,stimulus/viswhere_stim/line_yes.png,stimulus/viswhere_stim/line_no.png,None,Line,None,Dot,2,0.0,0,5.125,0,5.125,0,5.125,0,0.0,0.625,0,0.0,0,0.0,1,0.5,1,2.125,0,0.0,0,0.0,0,0.0,0,0.0,0,,,,,0,4,4,4,,,,,,,,,68.03198545900068,68.03198545900068,68.03198545900068,68.03198545900068,68.03198545900068,68.03198545900068,68.03198545900068,68.03198545900068,68.00868929233395,68.03198545900068,68.03198545900068,68.03198545900068,68.00868929233395,68.03198545900068,68.03198545900068,68.03198545900068,70.12921575000018,74.17748587500046,68.03198545900068,68.03198545900068,73.17102400000022,68.51573391700003,69.52772962500057,70.12921575000018,71.14757270900009,68.03198545900068,68.03198545900068,68.02535595900062,68.03198545900068,68.03198545900068,68.03198545900068,68.02535595900062,68.03198545900068,68.03198545900068,73.17102400000022,68.03198545900068,73.17102400000022,73.25631545900069,73.88216541700058,68.03198545900068,2,1,0.9052751239996724,reldom2_s008,001,2025-02-06_12h47.17.787,Where-A-Scan_AC,2022.2.5,None,
0,0.0,None,fixation,stimulus/viswhere_stim/blank_white.png,stimulus/viswhere_stim/blank_white.png,stimulus/audwhere_stim/blank_white.png,stimulus/audwhere_stim/blank_white.png,stimulus/viswhere_stim/blank_white.png,stimulus/viswhere_stim/blank_white.png,stimulus/viswhere_stim/blank_white.png,stimulus/viswhere_stim/blank_white.png,0.0,0.0,0.0,0.0,0,0.0,0,0.0,0,0.0,0,0.0,0,0.0,0.0,0,0.0,0,0.0,0,0.0,0,0.0,0,0.0,0,0.0,0,0.0,0,0.0,9,,,,,0,5,5,5,,,,,,,,,74.17748587500046,74.17748587500046,74.17748587500046,74.17748587500046,74.17748587500046,74.17748587500046,74.17748587500046,74.17748587500046,74.0766690833337,74.17748587500046,74.17748587500046,74.17748587500046,74.0766690833337,74.17748587500046,74.17748587500046,74.17748587500046,74.17748587500046,74.17748587500046,74.17748587500046,74.17748587500046,74.17748587500046,74.17748587500046,74.17748587500046,74.17748587500046,74.17748587500046,74.17748587500046,74.17748587500046,74.1266690833337,74.17748587500046,74.17748587500046,74.17748587500046,74.1266690833337,74.17748587500046,74.17748587500046,74.17748587500046,74.17748587500046,74.17748587500046,79.38260241700027,79.38260241700027,83.31467316700036,None,0,,reldom2_s008,001,2025-02-06_12h47.17.787,Where-A-Scan_AC,2022.2.5,None,
5,Second_Order,1.0,viswhere,stimulus/viswhere_stim/90-deg_dot-right_mediumslateblue.png,stimulus/viswhere_stim/90-deg_dot-left_peru.png,stimulus/viswhere_stim/150-deg_dot-left_seagreen.png,stimulus/viswhere_stim/120-deg_dot-left_mediumslateblue.png,stimulus/viswhere_stim/match_blank.png,stimulus/viswhere_stim/match_box.png,stimulus/viswhere_stim/match_yes.png,stimulus/viswhere_stim/match_no.png,2.0,Match,Line,Dot,2,5.125,0,5.125,0,5.125,0,5.125,0,0.75,0.75,1,0.5,1,2.125,1,0.5,1,2.125,0,0.0,0,0.0,0,0.0,0,0.0,0,,,,,0,6,6,6,,,,,,,,,83.31467316700036,88.43624987500061,83.79663750000054,84.7943854590003,85.41717708400029,86.41488704200037,83.31467316700036,83.31467316700036,83.3270836673338,83.31467316700036,83.31467316700036,83.31467316700036,83.3270836673338,83.31467316700036,88.43624987500061,89.2196602920003,91.30290579200027,95.17272616700029,89.2196602920003,89.2196602920003,94.35530708400074,89.68886066699997,90.70157466700039,91.30290579200027,92.32215020900003,89.2196602920003,89.2196602920003,89.20499445833369,89.2196602920003,89.2196602920003,89.2196602920003,89.20499445833369,89.2196602920003,89.2196602920003,94.35530708400074,89.2196602920003,94.35530708400074,94.42982666700027,95.21039070900042,89.2196602920003,2,1,2.3707082909995734,reldom2_s008,001,2025-02-06_12h47.17.787,Where-A-Scan_AC,2022.2.5,None,
6,Second_Order,1.0,viswhere,stimulus/viswhere_stim/60-deg_dot-right_salmon.png,stimulus/viswhere_stim/150-deg_dot-right_cyan.png,stimulus/viswhere_stim/120-deg_dot-left_lightsseagreen.png,stimulus/viswhere_stim/90-deg_dot-left_goldenrod.png,stimulus/viswhere_stim/match_blank.png,stimulus/viswhere_stim/match_box.png,stimulus/viswhere_stim/match_yes.png,stimulus/viswhere_stim/match_no.png,1.0,Match,Dot,Dot,1,5.125,0,5.125,0,5.125,0,5.125,0,0.625,0.625,1,0.5,1,2.125,1,0.5,1,2.125,0,0.0,0,0.0,0,0.0,0,0.0,0,,,,,0,7,7,7,,,,,,,,,95.21039070900042,100.33077066700025,95.69042679200084,96.68866558400077,97.31258116700064,98.30909087500004,95.21039070900042,95.21039070900042,95.22272616700029,95.21039070900042,95.21039070900042,95.21039070900042,95.22272616700029,95.21039070900042,100.33077066700025,100.99079179199998,103.08027891700021,107.1237250840004,100.99079179199998,100.99079179199998,106.11246179200043,101.45530633400085,102.46231075000014,103.08027891700021,104.09431295900049,100.99079179199998,100.99079179199998,100.98167575033361,100.99079179199998,100.99079179199998,100.99079179199998,100.98167575033361,100.99079179199998,100.99079179199998,106.11246179200043,100.99079179199998,106.11246179200043,106.22648387500067,106.85494862500036,100.99079179199998,2,0,1.2129295410004488,reldom2_s008,001,2025-02-06_12h47.17.787,Where-A-Scan_AC,2022.2.5,None,
0,0.0,None,fixation,stimulus/viswhere_stim/blank_white.png,stimulus/viswhere_stim/blank_white.png,stimulus/audwhere_stim/blank_white.png,stimulus/audwhere_stim/blank_white.png,stimulus/viswhere_stim/blank_white.png,stimulus/viswhere_stim/blank_white.png,stimulus/viswhere_stim/blank_white.png,stimulus/viswhere_stim/blank_white.png,0.0,0.0,0.0,0.0,0,0.0,0,0.0,0,0.0,0,0.0,0,0.0,0.0,0,0.0,0,0.0,0,0.0,0,0.0,0,0.0,0,0.0,0,0.0,0,0.0,8,,,,,0,8,8,8,,,,,,,,,107.1237250840004,107.1237250840004,107.1237250840004,107.1237250840004,107.1237250840004,107.1237250840004,107.1237250840004,107.1237250840004,107.02195241733382,107.1237250840004,107.1237250840004,107.1237250840004,107.02195241733382,107.1237250840004,107.1237250840004,107.1237250840004,107.1237250840004,107.1237250840004,107.1237250840004,107.1237250840004,107.1237250840004,107.1237250840004,107.1237250840004,107.1237250840004,107.1237250840004,107.1237250840004,107.1237250840004,107.07195241733382,107.1237250840004,107.1237250840004,107.1237250840004,107.07195241733382,107.1237250840004,107.1237250840004,107.1237250840004,107.1237250840004,107.1237250840004,112.30919570900005,112.30919570900005,115.33504341700063,None,0,,reldom2_s008,001,2025-02-06_12h47.17.787,Where-A-Scan_AC,2022.2.5,None,
7,First_Order,2.0,viswhere,stimulus/viswhere_stim/blank_white.png,stimulus/viswhere_stim/blank_white.png,stimulus/viswhere_stim/30-deg_dot-right_cyan.png,stimulus/viswhere_stim/30-deg_dot-left_cyan.png,stimulus/viswhere_stim/blank_white.png,stimulus/viswhere_stim/line_box.png,stimulus/viswhere_stim/line_yes.png,stimulus/viswhere_stim/line_no.png,None,Line,None,Line,1,0.0,0,5.125,0,5.125,0,5.125,0,0.0,0.625,0,0.0,0,0.0,1,0.5,1,2.125,0,0.0,0,0.0,0,0.0,0,0.0,0,,,,,0,9,9,9,,,,,,,,,115.33504341700063,115.33504341700063,115.33504341700063,115.33504341700063,115.33504341700063,115.33504341700063,115.33504341700063,115.33504341700063,115.31093945866694,115.33504341700063,115.33504341700063,115.33504341700063,115.31093945866694,115.33504341700063,115.33504341700063,115.33504341700063,117.42877554200004,121.39862841700051,115.33504341700063,115.33504341700063,120.47018354200009,115.82126525000058,116.82993895900017,117.42877554200004,118.44051412500085,115.33504341700063,115.33504341700063,115.3276061253336,115.33504341700063,115.33504341700063,115.33504341700063,115.3276061253336,115.33504341700063,115.33504341700063,120.47018354200009,115.33504341700063,120.47018354200009,120.55359733400019,121.1799715420002,115.33504341700063,None,0,,reldom2_s008,001,2025-02-06_12h47.17.787,Where-A-Scan_AC,2022.2.5,None,
8,First_Order,2.0,viswhere,stimulus/viswhere_stim/blank_white.png,stimulus/viswhere_stim/blank_white.png,stimulus/viswhere_stim/60-deg_dot-right_slateblue.png,stimulus/viswhere_stim/60-deg_dot-left_goldenrod.png,stimulus/viswhere_stim/blank_white.png,stimulus/viswhere_stim/dot_box.png,stimulus/viswhere_stim/dot_yes.png,stimulus/viswhere_stim/dot_no.png,None,Dot,None,Line,2,0.0,0,5.125,0,5.125,0,5.125,0,0.0,0.625,0,0.0,0,0.0,1,0.5,1,2.125,0,0.0,0,0.0,0,0.0,0,0.0,0,,,,,0,10,10,10,,,,,,,,,121.39862841700051,121.39862841700051,121.39862841700051,121.39862841700051,121.39862841700051,121.39862841700051,121.39862841700051,121.39862841700051,121.37474833333393,121.39862841700051,121.39862841700051,121.39862841700051,121.37474833333393,121.39862841700051,121.39862841700051,121.39862841700051,123.50246762500046,127.46332366700062,121.39862841700051,121.39862841700051,126.53365029200086,121.8816474590003,122.88474662500084,123.50246762500046,124.50804616700043,121.39862841700051,121.39862841700051,121.39141500000059,121.39862841700051,121.39862841700051,121.39862841700051,121.39141500000059,121.39862841700051,121.39862841700051,126.53365029200086,121.39862841700051,126.53365029200086,126.61768641700019,127.2443868750006,121.39862841700051,2,1,2.2584026239992454,reldom2_s008,001,2025-02-06_12h47.17.787,Where-A-Scan_AC,2022.2.5,None,
9,First_Order,2.0,viswhere,stimulus/viswhere_stim/blank_white.png,stimulus/viswhere_stim/blank_white.png,stimulus/viswhere_stim/90-deg_dot-right_cyan.png,stimulus/viswhere_stim/60-deg_dot-right_slateblue.png,stimulus/viswhere_stim/blank_white.png,stimulus/viswhere_stim/dot_box.png,stimulus/viswhere_stim/dot_yes.png,stimulus/viswhere_stim/dot_no.png,None,Dot,None,Dot,1,0.0,0,5.125,0,5.125,0,5.125,0,0.0,0.625,0,0.0,0,0.0,1,0.5,1,2.125,0,0.0,0,0.0,0,0.0,0,0.0,0,,,,,0,11,11,11,,,,,,,,,127.46332366700062,127.46332366700062,127.46332366700062,127.46332366700062,127.46332366700062,127.46332366700062,127.46332366700062,127.46332366700062,127.43868820833389,127.46332366700062,127.46332366700062,127.46332366700062,127.43868820833389,127.46332366700062,127.46332366700062,127.46332366700062,129.57060758400075,133.52496120900014,127.46332366700062,127.46332366700062,132.59601483400002,127.9470181250008,128.95239262500036,129.57060758400075,130.58119312500003,127.46332366700062,127.46332366700062,127.45535487500055,127.46332366700062,127.46332366700062,127.46332366700062,127.45535487500055,127.46332366700062,127.46332366700062,132.59601483400002,127.46332366700062,132.59601483400002,132.69233966700085,133.31921420900017,127.46332366700062,2,0,1.8188917069992385,reldom2_s008,001,2025-02-06_12h47.17.787,Where-A-Scan_AC,2022.2.5,None,
10,First_Order,2.0,viswhere,stimulus/viswhere_stim/blank_white.png,stimulus/viswhere_stim/blank_white.png,stimulus/viswhere_stim/60-deg_dot-left_mediumslateblue.png,stimulus/viswhere_stim/150-deg_dot-left_peru.png,stimulus/viswhere_stim/blank_white.png,stimulus/viswhere_stim/dot_box.png,stimulus/viswhere_stim/dot_yes.png,stimulus/viswhere_stim/dot_no.png,None,Dot,None,Dot,1,0.0,0,5.125,0,5.125,0,5.125,0,0.0,0.625,0,0.0,0,0.0,1,0.5,1,2.125,0,0.0,0,0.0,0,0.0,0,0.0,0,,,,,0,12,12,12,,,,,,,,,133.52496120900014,133.52496120900014,133.52496120900014,133.52496120900014,133.52496120900014,133.52496120900014,133.52496120900014,133.52496120900014,133.49948862533378,133.52496120900014,133.52496120900014,133.52496120900014,133.49948862533378,133.52496120900014,133.52496120900014,133.52496120900014,135.62241079200066,139.668725042,133.52496120900014,133.52496120900014,138.65717800000039,134.01111241700073,135.0206610840005,135.62241079200066,136.63670108400038,133.52496120900014,133.52496120900014,133.51615529200046,133.52496120900014,133.52496120900014,133.52496120900014,133.51615529200046,133.52496120900014,133.52496120900014,138.65717800000039,133.52496120900014,138.65717800000039,138.7401362090004,139.3720425420006,133.52496120900014,2,0,2.4063512489992718,reldom2_s008,001,2025-02-06_12h47.17.787,Where-A-Scan_AC,2022.2.5,None,
0,0.0,None,fixation,stimulus/viswhere_stim/blank_white.png,stimulus/viswhere_stim/blank_white.png,stimulus/audwhere_stim/blank_white.png,stimulus/audwhere_stim/blank_white.png,stimulus/viswhere_stim/blank_white.png,stimulus/viswhere_stim/blank_white.png,stimulus/viswhere_stim/blank_white.png,stimulus/viswhere_stim/blank_white.png,0.0,0.0,0.0,0.0,0,0.0,0,0.0,0,0.0,0,0.0,0,0.0,0.0,0,0.0,0,0.0,0,0.0,0,0.0,0,0.0,0,0.0,0,0.0,0,0.0,10,,,,,0,13,13,13,,,,,,,,,139.668725042,139.668725042,139.668725042,139.668725042,139.668725042,139.668725042,139.668725042,139.668725042,139.5672135423341,139.668725042,139.668725042,139.668725042,139.5672135423341,139.668725042,139.668725042,139.668725042,139.668725042,139.668725042,139.668725042,139.668725042,139.668725042,139.668725042,139.668725042,139.668725042,139.668725042,139.668725042,139.668725042,139.6172135423341,139.668725042,139.668725042,139.668725042,139.6172135423341,139.668725042,139.668725042,139.668725042,139.668725042,139.668725042,144.86562845900062,144.86562845900062,149.8061734590001,None,0,,reldom2_s008,001,2025-02-06_12h47.17.787,Where-A-Scan_AC,2022.2.5,None,
11,Second_Order,2.0,viswhere,stimulus/viswhere_stim/120-deg_dot-right_turquoise.png,stimulus/viswhere_stim/120-deg_dot-left_goldenrod.png,stimulus/viswhere_stim/60-deg_dot-left_turquoise.png,stimulus/viswhere_stim/150-deg_dot-left_seagreen.png,stimulus/viswhere_stim/match_blank.png,stimulus/viswhere_stim/match_box.png,stimulus/viswhere_stim/match_yes.png,stimulus/viswhere_stim/match_no.png,2.0,Match,Line,Dot,2,5.125,0,5.125,0,5.125,0,5.125,0,0.75,0.75,1,0.5,1,2.125,1,0.5,1,2.125,0,0.0,0,0.0,0,0.0,0,0.0,0,,,,,0,14,14,14,,,,,,,,,149.8061734590001,154.9282037920002,150.2828401250008,151.28128595900034,151.90410358400004,152.90145529200072,149.8061734590001,149.8061734590001,149.8180822503338,149.8061734590001,149.8061734590001,149.8061734590001,149.8180822503338,149.8061734590001,154.9282037920002,155.70515295900077,157.79240212500008,161.65960058400015,155.70515295900077,155.70515295900077,160.8450320840002,156.1739218340008,157.18779383400033,157.79240212500008,158.8130377920006,155.70515295900077,155.70515295900077,155.6945348753339,155.70515295900077,155.70515295900077,155.70515295900077,155.6945348753339,155.70515295900077,155.70515295900077,160.8450320840002,155.70515295900077,160.8450320840002,160.9192801250001,161.69762512500074,155.70515295900077,1,0,0.7900832489995082,reldom2_s008,001,2025-02-06_12h47.17.787,Where-A-Scan_AC,2022.2.5,None,
12,Second_Order,2.0,viswhere,stimulus/viswhere_stim/30-deg_dot-right_mediumslateblue.png,stimulus/viswhere_stim/30-deg_dot-left_seagreen.png,stimulus/viswhere_stim/120-deg_dot-right_goldenrod.png,stimulus/viswhere_stim/120-deg_dot-left_salmon.png,stimulus/viswhere_stim/match_blank.png,stimulus/viswhere_stim/match_box.png,stimulus/viswhere_stim/match_yes.png,stimulus/viswhere_stim/match_no.png,1.0,Match,Line,Line,1,5.125,0,5.125,0,5.125,0,5.125,0,0.625,0.625,1,0.5,1,2.125,1,0.5,1,2.125,0,0.0,0,0.0,0,0.0,0,0.0,0,,,,,0,15,15,15,,,,,,,,,161.69762512500074,166.82374929200068,162.17701229200065,163.1754335000005,163.79774925000038,164.79586879199996,161.69762512500074,161.69762512500074,161.70960058400016,161.69762512500074,161.69762512500074,161.69762512500074,161.70960058400016,161.69762512500074,166.82374929200068,167.47880525000073,169.56720654200035,173.6066527920002,167.47880525000073,167.47880525000073,172.6128409590001,167.94328100000075,168.9488242920006,169.56720654200035,170.57960183400064,167.47880525000073,167.47880525000073,167.46849395833357,167.47880525000073,167.47880525000073,167.47880525000073,167.46849395833357,167.47880525000073,167.47880525000073,172.6128409590001,167.47880525000073,172.6128409590001,172.69641000000047,173.32201837499997,167.47880525000073,1,1,0.6819420820002051,reldom2_s008,001,2025-02-06_12h47.17.787,Where-A-Scan_AC,2022.2.5,None,
0,0.0,None,fixation,stimulus/viswhere_stim/blank_white.png,stimulus/viswhere_stim/blank_white.png,stimulus/audwhere_stim/blank_white.png,stimulus/audwhere_stim/blank_white.png,stimulus/viswhere_stim/blank_white.png,stimulus/viswhere_stim/blank_white.png,stimulus/viswhere_stim/blank_white.png,stimulus/viswhere_stim/blank_white.png,0.0,0.0,0.0,0.0,0,0.0,0,0.0,0,0.0,0,0.0,0,0.0,0.0,0,0.0,0,0.0,0,0.0,0,0.0,0,0.0,0,0.0,0,0.0,0,0.0,8,,,,,0,16,16,16,,,,,,,,,173.6066527920002,173.6066527920002,173.6066527920002,173.6066527920002,173.6066527920002,173.6066527920002,173.6066527920002,173.6066527920002,173.50210912533416,173.6066527920002,173.6066527920002,173.6066527920002,173.50210912533416,173.6066527920002,173.6066527920002,173.6066527920002,173.6066527920002,173.6066527920002,173.6066527920002,173.6066527920002,173.6066527920002,173.6066527920002,173.6066527920002,173.6066527920002,173.6066527920002,173.6066527920002,173.6066527920002,173.55210912533417,173.6066527920002,173.6066527920002,173.6066527920002,173.55210912533417,173.6066527920002,173.6066527920002,173.6066527920002,173.6066527920002,173.6066527920002,178.8122234170005,178.8122234170005,181.8597029170005,None,0,,reldom2_s008,001,2025-02-06_12h47.17.787,Where-A-Scan_AC,2022.2.5,None,
13,First_Order,3.0,audwhere,stimulus/audwhere_stim/dummy.wav,stimulus/audwhere_stim/dummy.wav,stimulus/audwhere_stim/right_away_290h.wav,stimulus/audwhere_stim/right_toward_280h.wav,stimulus/audwhere_stim/blank_white.png,stimulus/audwhere_stim/side_box.png,stimulus/audwhere_stim/side_yes.png,stimulus/audwhere_stim/side_no.png,None,Side,None,Side,1,0.0,0,5.125,0,5.125,0,5.125,0,0.0,0.625,0,0.0,0,0.0,0,0.0,0,0.0,0,0.0,0,0.0,1,0.5,1,2.125,0,,,,,0,17,17,17,,,,,,,,,181.8597029170005,181.8597029170005,181.8597029170005,181.8597029170005,181.8597029170005,181.8597029170005,181.8597029170005,181.8597029170005,181.7813160006669,181.8597029170005,181.8597029170005,181.8597029170005,181.7813160006669,181.8597029170005,181.8597029170005,181.8597029170005,183.96795025000029,187.98433387500063,181.8597029170005,181.8597029170005,187.02051020900035,181.8597029170005,181.8597029170005,181.8597029170005,181.8597029170005,182.32673225000053,183.4029824170002,182.29679212566705,,183.96795025000029,185.00372045900076,183.93754108366673,,181.8597029170005,187.02051020900035,181.8597029170005,187.02051020900035,187.06190495900046,187.72248745900015,181.8597029170005,1,1,1.4351095829997575,reldom2_s008,001,2025-02-06_12h47.17.787,Where-A-Scan_AC,2022.2.5,None,
14,First_Order,3.0,audwhere,stimulus/audwhere_stim/dummy.wav,stimulus/audwhere_stim/dummy.wav,stimulus/audwhere_stim/right_away_300h.wav,stimulus/audwhere_stim/left_away_300h.wav,stimulus/audwhere_stim/blank_white.png,stimulus/audwhere_stim/side_box.png,stimulus/audwhere_stim/side_yes.png,stimulus/audwhere_stim/side_no.png,None,Side,None,Direction,2,0.0,0,5.125,0,5.125,0,5.125,0,0.0,0.625,0,0.0,0,0.0,0,0.0,0,0.0,0,0.0,0,0.0,1,0.5,1,2.125,0,,,,,0,18,18,18,,,,,,,,,187.98433387500063,187.98433387500063,187.98433387500063,187.98433387500063,187.98433387500063,187.98433387500063,187.98433387500063,187.98433387500063,187.89692862533335,187.98433387500063,187.98433387500063,187.98433387500063,187.89692862533335,187.98433387500063,187.98433387500063,187.98433387500063,190.10041079200073,194.11311370900057,187.98433387500063,187.98433387500063,193.15518320900082,187.98433387500063,187.98433387500063,187.98433387500063,187.98433387500063,188.45431045900023,189.49043970900038,188.4247436256667,,190.10041079200073,191.13588458400045,190.07001191666703,,187.98433387500063,193.15518320900082,187.98433387500063,193.15518320900082,193.19656016700083,193.85720700000002,187.98433387500063,2,1,0.8028503739997177,reldom2_s008,001,2025-02-06_12h47.17.787,Where-A-Scan_AC,2022.2.5,None,
15,First_Order,3.0,audwhere,stimulus/audwhere_stim/dummy.wav,stimulus/audwhere_stim/dummy.wav,stimulus/audwhere_stim/left_away_290h.wav,stimulus/audwhere_stim/right_away_280h.wav,stimulus/audwhere_stim/blank_white.png,stimulus/audwhere_stim/direction_box.png,stimulus/audwhere_stim/direction_yes.png,stimulus/audwhere_stim/direction_no.png,None,Direction,None,Direction,1,0.0,0,5.125,0,5.125,0,5.125,0,0.0,0.625,0,0.0,0,0.0,0,0.0,0,0.0,0,0.0,0,0.0,1,0.5,1,2.125,0,,,,,0,19,19,19,,,,,,,,,194.11311370900057,194.11311370900057,194.11311370900057,194.11311370900057,194.11311370900057,194.11311370900057,194.11311370900057,194.11311370900057,194.0314653333336,194.11311370900057,194.11311370900057,194.11311370900057,194.0314653333336,194.11311370900057,194.11311370900057,194.11311370900057,196.19658079200053,200.23343041700082,194.11311370900057,194.11311370900057,199.26841412500016,194.11311370900057,194.11311370900057,194.11311370900057,194.11311370900057,194.5860527090008,195.62838908400045,194.5549497916675,,196.19658079200053,197.23948145900067,196.1655129166668,,194.11311370900057,199.26841412500016,194.11311370900057,199.26841412500016,199.3104155840001,199.9767829170005,194.11311370900057,1,1,1.249007165999501,reldom2_s008,001,2025-02-06_12h47.17.787,Where-A-Scan_AC,2022.2.5,None,
16,First_Order,3.0,audwhere,stimulus/audwhere_stim/dummy.wav,stimulus/audwhere_stim/dummy.wav,stimulus/audwhere_stim/right_toward_270h.wav,stimulus/audwhere_stim/right_away_300h.wav,stimulus/audwhere_stim/blank_white.png,stimulus/audwhere_stim/direction_box.png,stimulus/audwhere_stim/direction_yes.png,stimulus/audwhere_stim/direction_no.png,None,Direction,None,Side,2,0.0,0,5.125,0,5.125,0,5.125,0,0.0,0.625,0,0.0,0,0.0,0,0.0,0,0.0,0,0.0,0,0.0,1,0.5,1,2.125,0,,,,,0,20,20,20,,,,,,,,,200.23343041700082,200.23343041700082,200.23343041700082,200.23343041700082,200.23343041700082,200.23343041700082,200.23343041700082,200.23343041700082,200.15146287533403,200.23343041700082,200.23343041700082,200.23343041700082,200.15146287533403,200.23343041700082,200.23343041700082,200.23343041700082,202.3129416670008,206.38150525000037,200.23343041700082,200.23343041700082,205.39225737500055,200.23343041700082,200.23343041700082,200.23343041700082,200.23343041700082,200.70651912500034,201.7468450840006,200.6754897916674,,202.3129416670008,203.36298908400022,202.28202562566665,203.31588395900053,200.23343041700082,205.39225737500055,200.23343041700082,205.39225737500055,205.4343184170002,206.10155141700034,200.23343041700082,2,1,1.7754946239992933,reldom2_s008,001,2025-02-06_12h47.17.787,Where-A-Scan_AC,2022.2.5,None,
0,0.0,None,fixation,stimulus/viswhere_stim/blank_white.png,stimulus/viswhere_stim/blank_white.png,stimulus/audwhere_stim/blank_white.png,stimulus/audwhere_stim/blank_white.png,stimulus/viswhere_stim/blank_white.png,stimulus/viswhere_stim/blank_white.png,stimulus/viswhere_stim/blank_white.png,stimulus/viswhere_stim/blank_white.png,0.0,0.0,0.0,0.0,0,0.0,0,0.0,0,0.0,0,0.0,0,0.0,0.0,0,0.0,0,0.0,0,0.0,0,0.0,0,0.0,0,0.0,0,0.0,0,0.0,9,,,,,0,21,21,21,,,,,,,,,206.38150525000037,206.38150525000037,206.38150525000037,206.38150525000037,206.38150525000037,206.38150525000037,206.38150525000037,206.38150525000037,206.27644166733367,206.38150525000037,206.38150525000037,206.38150525000037,206.27644166733367,206.38150525000037,206.38150525000037,206.38150525000037,206.38150525000037,206.38150525000037,206.38150525000037,206.38150525000037,206.38150525000037,206.38150525000037,206.38150525000037,206.38150525000037,206.38150525000037,206.38150525000037,206.38150525000037,206.32644166733365,206.38150525000037,206.38150525000037,206.38150525000037,206.32644166733365,206.38150525000037,206.38150525000037,206.38150525000037,206.38150525000037,206.38150525000037,211.58216979200006,211.58216979200006,215.52717008400032,None,0,,reldom2_s008,001,2025-02-06_12h47.17.787,Where-A-Scan_AC,2022.2.5,None,
17,Second_Order,3.0,audwhere,stimulus/audwhere_stim/right_away_270h.wav,stimulus/audwhere_stim/left_away_270h.wav,stimulus/audwhere_stim/right_toward_280h.wav,stimulus/audwhere_stim/left_toward_280h.wav,stimulus/viswhere_stim/match_blank.png,stimulus/audwhere_stim/match_box.png,stimulus/viswhere_stim/match_yes.png,stimulus/viswhere_stim/match_no.png,1.0,Match,Direction,Direction,1,5.125,0,5.125,0,5.125,0,5.125,0,0.75,0.75,0,0.0,0,0.0,0,0.0,0,0.0,1,0.5,1,2.125,1,0.5,1,2.125,0,,,,,0,22,22,22,,,,,,,,,215.52717008400032,220.64737325000078,215.52717008400032,215.52717008400032,215.52717008400032,215.52717008400032,215.9805612500004,216.96979012500015,215.9841467086674,216.98275916700004,217.60568383400005,218.60304329200062,217.61756225066736,218.61111733400048,220.64737325000078,221.47728225000083,223.5392071670003,227.49826754200058,221.47728225000083,221.47728225000083,226.6332873750007,221.47728225000083,221.47728225000083,221.47728225000083,221.47728225000083,221.9454064170004,222.9755648750006,221.91471454166665,,223.5392071670003,224.57068354200055,223.50865712566727,,221.47728225000083,226.6332873750007,221.47728225000083,226.6332873750007,226.6747940840005,,221.47728225000083,1,1,1.1560959999997067,reldom2_s008,001,2025-02-06_12h47.17.787,Where-A-Scan_AC,2022.2.5,None,
18,Second_Order,3.0,audwhere,stimulus/audwhere_stim/left_away_300h.wav,stimulus/audwhere_stim/right_away_290h.wav,stimulus/audwhere_stim/left_toward_300h.wav,stimulus/audwhere_stim/left_away_290h.wav,stimulus/viswhere_stim/match_blank.png,stimulus/audwhere_stim/match_box.png,stimulus/viswhere_stim/match_yes.png,stimulus/viswhere_stim/match_no.png,2.0,Match,Direction,Side,2,5.125,0,5.125,0,5.125,0,5.125,0,0.625,0.625,0,0.0,0,0.0,0,0.0,0,0.0,1,0.5,1,2.125,1,0.5,1,2.125,0,,,,,0,23,23,23,,,,,,,,,227.49826754200058,232.61896983400038,227.49826754200058,227.49826754200058,227.49826754200058,227.49826754200058,227.94568954200076,228.9435841250006,227.95807720866677,228.95153358400057,229.5784560000002,230.56793200000084,229.58223900066722,230.5807855840003,232.61896983400038,233.33480037500067,235.4279883750005,239.46519137500036,233.33480037500067,233.33480037500067,238.51477820900072,233.33480037500067,233.33480037500067,233.33480037500067,233.33480037500067,233.7996014170003,234.86979520900059,233.76966100066718,,235.4279883750005,236.46054979200017,235.3977898336673,,233.33480037500067,238.51477820900072,233.33480037500067,238.51477820900072,238.51477820900072,239.18363245900036,233.33480037500067,2,1,1.5853521659992111,reldom2_s008,001,2025-02-06_12h47.17.787,Where-A-Scan_AC,2022.2.5,None,
0,0.0,None,fixation,stimulus/viswhere_stim/blank_white.png,stimulus/viswhere_stim/blank_white.png,stimulus/audwhere_stim/blank_white.png,stimulus/audwhere_stim/blank_white.png,stimulus/viswhere_stim/blank_white.png,stimulus/viswhere_stim/blank_white.png,stimulus/viswhere_stim/blank_white.png,stimulus/viswhere_stim/blank_white.png,0.0,0.0,0.0,0.0,0,0.0,0,0.0,0,0.0,0,0.0,0,0.0,0.0,0,0.0,0,0.0,0,0.0,0,0.0,0,0.0,0,0.0,0,0.0,0,0.0,9,,,,,0,24,24,24,,,,,,,,,239.46519137500036,239.46519137500036,239.46519137500036,239.46519137500036,239.46519137500036,239.46519137500036,239.46519137500036,239.46519137500036,239.358859375334,239.46519137500036,239.46519137500036,239.46519137500036,239.358859375334,239.46519137500036,239.46519137500036,239.46519137500036,239.46519137500036,239.46519137500036,239.46519137500036,239.46519137500036,239.46519137500036,239.46519137500036,239.46519137500036,239.46519137500036,239.46519137500036,239.46519137500036,239.46519137500036,239.42552604200066,239.46519137500036,239.46519137500036,239.46519137500036,239.42552604200066,239.46519137500036,239.46519137500036,239.46519137500036,239.46519137500036,239.46519137500036,244.68306550000034,244.68306550000034,248.74387620900052,None,0,,reldom2_s008,001,2025-02-06_12h47.17.787,Where-A-Scan_AC,2022.2.5,None,
19,First_Order,4.0,audwhere,stimulus/audwhere_stim/dummy.wav,stimulus/audwhere_stim/dummy.wav,stimulus/audwhere_stim/right_away_300h.wav,stimulus/audwhere_stim/left_away_280h.wav,stimulus/audwhere_stim/blank_white.png,stimulus/audwhere_stim/direction_box.png,stimulus/audwhere_stim/direction_yes.png,stimulus/audwhere_stim/direction_no.png,None,Direction,None,Direction,1,0.0,0,5.125,0,5.125,0,5.125,0,0.0,0.625,0,0.0,0,0.0,0,0.0,0,0.0,0,0.0,0,0.0,1,0.5,1,2.125,0,,,,,0,25,25,25,,,,,,,,,248.74387620900052,248.74387620900052,248.74387620900052,248.74387620900052,248.74387620900052,248.74387620900052,248.74387620900052,248.74387620900052,248.66687508366675,248.74387620900052,248.74387620900052,248.74387620900052,248.66687508366675,248.74387620900052,248.74387620900052,248.74387620900052,250.82218329200077,254.85690408400023,248.74387620900052,248.74387620900052,253.9353415000005,248.74387620900052,248.74387620900052,248.74387620900052,248.74387620900052,249.21479325000018,250.25530587499998,249.18389820866676,,250.82218329200077,251.8656627090004,250.79139770866666,,248.74387620900052,253.9353415000005,248.74387620900052,253.9353415000005,253.9353415000005,254.59787366700039,248.74387620900052,2,0,3.0001469159997214,reldom2_s008,001,2025-02-06_12h47.17.787,Where-A-Scan_AC,2022.2.5,None,
20,First_Order,4.0,audwhere,stimulus/audwhere_stim/dummy.wav,stimulus/audwhere_stim/dummy.wav,stimulus/audwhere_stim/right_toward_270h.wav,stimulus/audwhere_stim/right_away_280h.wav,stimulus/audwhere_stim/blank_white.png,stimulus/audwhere_stim/direction_box.png,stimulus/audwhere_stim/direction_yes.png,stimulus/audwhere_stim/direction_no.png,None,Direction,None,Side,2,0.0,0,5.125,0,5.125,0,5.125,0,0.0,0.625,0,0.0,0,0.0,0,0.0,0,0.0,0,0.0,0,0.0,1,0.5,1,2.125,0,,,,,0,26,26,26,,,,,,,,,254.85690408400023,254.85690408400023,254.85690408400023,254.85690408400023,254.85690408400023,254.85690408400023,254.85690408400023,254.85690408400023,254.77283479233407,254.85690408400023,254.85690408400023,254.85690408400023,254.77283479233407,254.85690408400023,254.85690408400023,254.85690408400023,256.9339468340004,,254.85690408400023,254.85690408400023,260.0495619170006,254.85690408400023,254.85690408400023,254.85690408400023,254.85690408400023,255.32954925000013,256.3702476670005,255.29888887566747,,256.9339468340004,257.97535070900085,256.9037267506667,,254.85690408400023,260.0495619170006,254.85690408400023,260.0495619170006,260.0495619170006,260.71252579200063,254.85690408400023,2,1,2.879456458000277,reldom2_s008,001,2025-02-06_12h47.17.787,Where-A-Scan_AC,2022.2.5,None,
21,First_Order,4.0,audwhere,stimulus/audwhere_stim/dummy.wav,stimulus/audwhere_stim/dummy.wav,stimulus/audwhere_stim/left_toward_300h.wav,stimulus/audwhere_stim/left_away_300h.wav,stimulus/audwhere_stim/blank_white.png,stimulus/audwhere_stim/side_box.png,stimulus/audwhere_stim/side_yes.png,stimulus/audwhere_stim/side_no.png,None,Side,None,Side,1,0.0,0,5.125,0,5.125,0,5.125,0,0.0,0.625,0,0.0,0,0.0,0,0.0,0,0.0,0,0.0,0,0.0,1,0.5,1,2.125,0,,,,,0,27,27,27,,,,,,,,,260.97033979200023,260.97033979200023,260.97033979200023,260.97033979200023,260.97033979200023,260.97033979200023,260.97033979200023,260.97033979200023,260.887371875334,260.97033979200023,260.97033979200023,260.97033979200023,260.887371875334,260.97033979200023,260.97033979200023,260.97033979200023,263.08541375000004,267.10471520900046,260.97033979200023,260.97033979200023,266.1433822500003,260.97033979200023,260.97033979200023,260.97033979200023,260.97033979200023,261.4405597920004,262.4733893340008,261.4095235836669,,263.08541375000004,264.12355745900004,263.05406358366713,,260.97033979200023,266.1433822500003,260.97033979200023,266.1433822500003,266.18517379200057,266.84637416700025,260.97033979200023,1,1,1.2881331660000797,reldom2_s008,001,2025-02-06_12h47.17.787,Where-A-Scan_AC,2022.2.5,None,
22,First_Order,4.0,audwhere,stimulus/audwhere_stim/dummy.wav,stimulus/audwhere_stim/dummy.wav,stimulus/audwhere_stim/right_away_270h.wav,stimulus/audwhere_stim/left_away_300h.wav,stimulus/audwhere_stim/blank_white.png,stimulus/audwhere_stim/side_box.png,stimulus/audwhere_stim/side_yes.png,stimulus/audwhere_stim/side_no.png,None,Side,None,Direction,2,0.0,0,5.125,0,5.125,0,5.125,0,0.0,0.625,0,0.0,0,0.0,0,0.0,0,0.0,0,0.0,0,0.0,1,0.5,1,2.125,0,,,,,0,28,28,28,,,,,,,,,267.10471520900046,267.10471520900046,267.10471520900046,267.10471520900046,267.10471520900046,267.10471520900046,267.10471520900046,267.10471520900046,267.02051845833387,267.10471520900046,267.10471520900046,267.10471520900046,267.02051845833387,267.10471520900046,267.10471520900046,267.10471520900046,269.2214760420002,273.2527363750005,267.10471520900046,267.10471520900046,272.27055029200073,267.10471520900046,267.10471520900046,267.10471520900046,267.10471520900046,267.57793587500055,268.6108845840008,267.5470609166671,,269.2214760420002,270.2557987500004,269.19080200066696,,267.10471520900046,272.27055029200073,267.10471520900046,272.27055029200073,272.3120977920007,272.9717310420001,267.10471520900046,2,1,1.262192082999718,reldom2_s008,001,2025-02-06_12h47.17.787,Where-A-Scan_AC,2022.2.5,None,
0,0.0,None,fixation,stimulus/viswhere_stim/blank_white.png,stimulus/viswhere_stim/blank_white.png,stimulus/audwhere_stim/blank_white.png,stimulus/audwhere_stim/blank_white.png,stimulus/viswhere_stim/blank_white.png,stimulus/viswhere_stim/blank_white.png,stimulus/viswhere_stim/blank_white.png,stimulus/viswhere_stim/blank_white.png,0.0,0.0,0.0,0.0,0,0.0,0,0.0,0,0.0,0,0.0,0,0.0,0.0,0,0.0,0,0.0,0,0.0,0,0.0,0,0.0,0,0.0,0,0.0,0,0.0,9,,,,,0,29,29,29,,,,,,,,,273.2527363750005,273.2527363750005,273.2527363750005,273.2527363750005,273.2527363750005,273.2527363750005,273.2527363750005,273.2527363750005,273.1462828753339,273.2527363750005,273.2527363750005,273.2527363750005,273.1462828753339,273.2527363750005,273.2527363750005,273.2527363750005,273.2527363750005,273.2527363750005,273.2527363750005,273.2527363750005,273.2527363750005,273.2527363750005,273.2527363750005,273.2527363750005,273.2527363750005,273.2527363750005,273.2527363750005,273.21294954200056,273.2527363750005,273.2527363750005,273.2527363750005,273.21294954200056,273.2527363750005,273.2527363750005,273.2527363750005,273.2527363750005,273.2527363750005,278.44659958400007,278.44659958400007,282.3898250840002,None,0,,reldom2_s008,001,2025-02-06_12h47.17.787,Where-A-Scan_AC,2022.2.5,None,
23,Second_Order,4.0,audwhere,stimulus/audwhere_stim/left_away_270h.wav,stimulus/audwhere_stim/left_toward_290h.wav,stimulus/audwhere_stim/left_toward_300h.wav,stimulus/audwhere_stim/right_toward_280h.wav,stimulus/viswhere_stim/match_blank.png,stimulus/audwhere_stim/match_box.png,stimulus/viswhere_stim/match_yes.png,stimulus/viswhere_stim/match_no.png,2.0,Match,Side,Direction,2,5.125,0,5.125,0,5.125,0,5.125,0,0.75,0.75,0,0.0,0,0.0,0,0.0,0,0.0,1,0.5,1,2.125,1,0.5,1,2.125,0,,,,,0,30,30,30,,,,,,,,,282.3898250840002,287.5121655840003,282.3898250840002,282.3898250840002,282.3898250840002,282.3898250840002,282.8385938750007,283.83710854200035,282.85115437566697,283.84495866700036,284.4717989590008,285.4660452920007,284.4763573756675,285.4775732500002,287.5121655840003,288.34427433400015,290.4474551250005,294.3623386670006,288.34427433400015,288.34427433400015,293.494550292,288.34427433400015,288.34427433400015,288.34427433400015,288.34427433400015,288.81090954200045,289.8394297500008,288.78014741666743,,290.4474551250005,291.4817577090007,290.4171739586675,,288.34427433400015,293.494550292,288.34427433400015,293.494550292,293.5364735840003,,288.34427433400015,2,1,1.1308039159994223,reldom2_s008,001,2025-02-06_12h47.17.787,Where-A-Scan_AC,2022.2.5,None,
24,Second_Order,4.0,audwhere,stimulus/audwhere_stim/right_toward_290h.wav,stimulus/audwhere_stim/right_away_290h.wav,stimulus/audwhere_stim/left_away_300h.wav,stimulus/audwhere_stim/left_toward_270h.wav,stimulus/viswhere_stim/match_blank.png,stimulus/audwhere_stim/match_box.png,stimulus/viswhere_stim/match_yes.png,stimulus/viswhere_stim/match_no.png,1.0,Match,Side,Side,1,5.125,0,5.125,0,5.125,0,5.125,0,0.625,0.625,0,0.0,0,0.0,0,0.0,0,0.0,1,0.5,1,2.125,1,0.5,1,2.125,0,,,,,0,31,31,31,,,,,,,,,294.3623386670006,299.47820387499996,294.3623386670006,294.3623386670006,294.3623386670006,294.3623386670006,294.8163929170005,295.8143911670004,294.828968916667,295.82232400000066,296.4374643750007,297.43468108400066,296.4494859166673,297.44265183400057,299.47820387499996,300.19063379199997,302.29021954200016,,300.19063379199997,300.19063379199997,305.3757732920003,300.19063379199997,300.19063379199997,300.19063379199997,300.19063379199997,300.655970625,301.73017583399997,300.62609070866733,,302.29021954200016,303.36463000000003,302.25972279166695,,300.19063379199997,305.3757732920003,300.19063379199997,305.3757732920003,305.3757732920003,306.03131550000035,300.19063379199997,1,1,1.4993221660006384,reldom2_s008,001,2025-02-06_12h47.17.787,Where-A-Scan_AC,2022.2.5,None,
0,0.0,None,fixation,stimulus/viswhere_stim/blank_white.png,stimulus/viswhere_stim/blank_white.png,stimulus/audwhere_stim/blank_white.png,stimulus/audwhere_stim/blank_white.png,stimulus/viswhere_stim/blank_white.png,stimulus/viswhere_stim/blank_white.png,stimulus/viswhere_stim/blank_white.png,stimulus/viswhere_stim/blank_white.png,0.0,0.0,0.0,0.0,0,0.0,0,0.0,0,0.0,0,0.0,0,0.0,0.0,0,0.0,0,0.0,0,0.0,0,0.0,0,0.0,0,0.0,0,0.0,0,0.0,10,,,,,0,32,32,32,,,,,,,,,306.309879292,306.309879292,306.309879292,306.309879292,306.309879292,306.309879292,306.309879292,306.309879292,306.2059953753334,306.309879292,306.309879292,306.309879292,306.2059953753334,306.309879292,306.309879292,306.309879292,306.309879292,306.309879292,306.309879292,306.309879292,306.309879292,306.309879292,306.309879292,306.309879292,306.309879292,306.309879292,306.309879292,306.2559953753334,306.309879292,306.309879292,306.309879292,306.2559953753334,306.309879292,306.309879292,306.309879292,306.309879292,306.309879292,311.52269883400004,311.52269883400004,316.50759058400035,None,0,,reldom2_s008,001,2025-02-06_12h47.17.787,Where-A-Scan_AC,2022.2.5,None,
25,First_Order,5.0,viswhere,stimulus/viswhere_stim/blank_white.png,stimulus/viswhere_stim/blank_white.png,stimulus/viswhere_stim/120-deg_dot-right_goldenrod.png,stimulus/viswhere_stim/150-deg_dot-right_turquoise.png,stimulus/viswhere_stim/blank_white.png,stimulus/viswhere_stim/dot_box.png,stimulus/viswhere_stim/dot_yes.png,stimulus/viswhere_stim/dot_no.png,None,Dot,None,Dot,1,0.0,0,5.125,0,5.125,0,5.125,0,0.0,0.625,0,0.0,0,0.0,1,0.5,1,2.125,0,0.0,0,0.0,0,0.0,0,0.0,0,,,,,0,33,33,33,,,,,,,,,316.50759058400035,316.50759058400035,316.50759058400035,316.50759058400035,316.50759058400035,316.50759058400035,316.50759058400035,316.50759058400035,316.4830353336671,316.50759058400035,316.50759058400035,316.50759058400035,316.4830353336671,316.50759058400035,316.50759058400035,316.50759058400035,318.6071106670006,322.5740617500005,316.50759058400035,316.50759058400035,321.6444561670005,316.99369895900054,318.0055664170004,318.6071106670006,319.6249928750003,316.50759058400035,316.50759058400035,316.4997020003338,316.50759058400035,316.50759058400035,316.50759058400035,316.4997020003338,316.50759058400035,316.50759058400035,321.6444561670005,316.50759058400035,321.6444561670005,321.72916191700006,322.35518887500075,316.50759058400035,None,0,,reldom2_s008,001,2025-02-06_12h47.17.787,Where-A-Scan_AC,2022.2.5,None,
26,First_Order,5.0,viswhere,stimulus/viswhere_stim/blank_white.png,stimulus/viswhere_stim/blank_white.png,stimulus/viswhere_stim/90-deg_dot-right_royalblue.png,stimulus/viswhere_stim/120-deg_dot-right_seagreen.png,stimulus/viswhere_stim/blank_white.png,stimulus/viswhere_stim/line_box.png,stimulus/viswhere_stim/line_yes.png,stimulus/viswhere_stim/line_no.png,None,Line,None,Dot,2,0.0,0,5.125,0,5.125,0,5.125,0,0.0,0.625,0,0.0,0,0.0,1,0.5,1,2.125,0,0.0,0,0.0,0,0.0,0,0.0,0,,,,,0,34,34,34,,,,,,,,,322.5740617500005,322.5740617500005,322.5740617500005,322.5740617500005,322.5740617500005,322.5740617500005,322.5740617500005,322.5740617500005,322.5498162503339,322.5740617500005,322.5740617500005,322.5740617500005,322.5498162503339,322.5740617500005,322.5740617500005,322.5740617500005,324.67533641700084,328.6417982090006,322.5740617500005,322.5740617500005,327.6959516250008,323.0589127920002,324.0749357500008,324.67533641700084,325.69221254200056,322.5740617500005,322.5740617500005,322.56648291700054,322.5740617500005,322.5740617500005,322.5740617500005,322.56648291700054,322.5740617500005,322.5740617500005,327.6959516250008,322.5740617500005,327.6959516250008,327.79284262500005,328.41919300000063,322.5740617500005,2,1,1.6374432909997267,reldom2_s008,001,2025-02-06_12h47.17.787,Where-A-Scan_AC,2022.2.5,None,
27,First_Order,5.0,viswhere,stimulus/viswhere_stim/blank_white.png,stimulus/viswhere_stim/blank_white.png,stimulus/viswhere_stim/60-deg_dot-left_lightsseagreen.png,stimulus/viswhere_stim/60-deg_dot-right_slateblue.png,stimulus/viswhere_stim/blank_white.png,stimulus/viswhere_stim/line_box.png,stimulus/viswhere_stim/line_yes.png,stimulus/viswhere_stim/line_no.png,None,Line,None,Line,1,0.0,0,5.125,0,5.125,0,5.125,0,0.0,0.625,0,0.0,0,0.0,1,0.5,1,2.125,0,0.0,0,0.0,0,0.0,0,0.0,0,,,,,0,35,35,35,,,,,,,,,328.6417982090006,328.6417982090006,328.6417982090006,328.6417982090006,328.6417982090006,328.6417982090006,328.6417982090006,328.6417982090006,328.6134961673336,328.6417982090006,328.6417982090006,328.6417982090006,328.6134961673336,328.6417982090006,328.6417982090006,328.6417982090006,330.7503014590002,334.7074172090006,328.6417982090006,328.6417982090006,333.77765795900086,329.12548612500086,330.13376229200003,330.7503014590002,331.762024959,328.6417982090006,328.6417982090006,328.63016283400026,328.6417982090006,328.6417982090006,328.6417982090006,328.63016283400026,328.6417982090006,328.6417982090006,333.77765795900086,328.6417982090006,333.77765795900086,333.86229637500037,334.4884050840001,328.6417982090006,1,1,1.6533590409999306,reldom2_s008,001,2025-02-06_12h47.17.787,Where-A-Scan_AC,2022.2.5,None,
28,First_Order,5.0,viswhere,stimulus/viswhere_stim/blank_white.png,stimulus/viswhere_stim/blank_white.png,stimulus/viswhere_stim/120-deg_dot-right_slateblue.png,stimulus/viswhere_stim/90-deg_dot-right_cyan.png,stimulus/viswhere_stim/blank_white.png,stimulus/viswhere_stim/dot_box.png,stimulus/viswhere_stim/dot_yes.png,stimulus/viswhere_stim/dot_no.png,None,Dot,None,Dot,1,0.0,0,5.125,0,5.125,0,5.125,0,0.0,0.625,0,0.0,0,0.0,1,0.5,1,2.125,0,0.0,0,0.0,0,0.0,0,0.0,0,,,,,0,36,36,36,,,,,,,,,334.7074172090006,334.7074172090006,334.7074172090006,334.7074172090006,334.7074172090006,334.7074172090006,334.7074172090006,334.7074172090006,334.68339462533396,334.7074172090006,334.7074172090006,334.7074172090006,334.68339462533396,334.7074172090006,334.7074172090006,334.7074172090006,336.8212777920007,340.85690629200053,334.7074172090006,334.7074172090006,339.83629004200066,335.19228187500084,336.2024255000006,336.8212777920007,337.83568008400016,334.7074172090006,334.7074172090006,334.7000612920006,334.7074172090006,334.7074172090006,334.7074172090006,334.7000612920006,334.7074172090006,334.7074172090006,339.83629004200066,334.7074172090006,339.83629004200066,339.934789334,340.560994167,334.7074172090006,2,0,1.460110915999394,reldom2_s008,001,2025-02-06_12h47.17.787,Where-A-Scan_AC,2022.2.5,None,
0,0.0,None,fixation,stimulus/viswhere_stim/blank_white.png,stimulus/viswhere_stim/blank_white.png,stimulus/audwhere_stim/blank_white.png,stimulus/audwhere_stim/blank_white.png,stimulus/viswhere_stim/blank_white.png,stimulus/viswhere_stim/blank_white.png,stimulus/viswhere_stim/blank_white.png,stimulus/viswhere_stim/blank_white.png,0.0,0.0,0.0,0.0,0,0.0,0,0.0,0,0.0,0,0.0,0,0.0,0.0,0,0.0,0,0.0,0,0.0,0,0.0,0,0.0,0,0.0,0,0.0,0,0.0,9,,,,,0,37,37,37,,,,,,,,,340.85690629200053,340.85690629200053,340.85690629200053,340.85690629200053,340.85690629200053,340.85690629200053,340.85690629200053,340.85690629200053,340.75538158333376,340.85690629200053,340.85690629200053,340.85690629200053,340.75538158333376,340.85690629200053,340.85690629200053,340.85690629200053,340.85690629200053,340.85690629200053,340.85690629200053,340.85690629200053,340.85690629200053,340.85690629200053,340.85690629200053,340.85690629200053,340.85690629200053,340.85690629200053,340.85690629200053,340.80538158333377,340.85690629200053,340.85690629200053,340.85690629200053,340.80538158333377,340.85690629200053,340.85690629200053,340.85690629200053,340.85690629200053,340.85690629200053,346.06678779200047,346.06678779200047,349.9802069590005,None,0,,reldom2_s008,001,2025-02-06_12h47.17.787,Where-A-Scan_AC,2022.2.5,None,
29,Second_Order,5.0,viswhere,stimulus/viswhere_stim/150-deg_dot-right_cyan.png,stimulus/viswhere_stim/150-deg_dot-left_peru.png,stimulus/viswhere_stim/90-deg_dot-left_goldenrod.png,stimulus/viswhere_stim/90-deg_dot-right_mediumslateblue.png,stimulus/viswhere_stim/match_blank.png,stimulus/viswhere_stim/match_box.png,stimulus/viswhere_stim/match_yes.png,stimulus/viswhere_stim/match_no.png,1.0,Match,Line,Line,1,5.125,0,5.125,0,5.125,0,5.125,0,0.75,0.75,1,0.5,1,2.125,1,0.5,1,2.125,0,0.0,0,0.0,0,0.0,0,0.0,0,,,,,0,38,38,38,,,,,,,,,349.9802069590005,355.10134033400027,350.4603556250004,351.45978879200084,352.08271550000063,353.08016466700064,349.9802069590005,349.9802069590005,349.99276658333395,349.9802069590005,349.9802069590005,349.9802069590005,349.99276658333395,349.9802069590005,355.10134033400027,355.88218512500043,357.9702126250004,361.8674072500007,355.88218512500043,355.88218512500043,361.0226562500002,356.35080170900073,357.365637334,357.9702126250004,358.9721049590007,355.88218512500043,355.88218512500043,355.87029008333366,355.88218512500043,355.88218512500043,355.88218512500043,355.87029008333366,355.88218512500043,355.88218512500043,361.0226562500002,355.88218512500043,361.0226562500002,361.09226975,361.8674072500007,355.88218512500043,1,1,0.6112837079999736,reldom2_s008,001,2025-02-06_12h47.17.787,Where-A-Scan_AC,2022.2.5,None,
30,Second_Order,5.0,viswhere,stimulus/viswhere_stim/90-deg_dot-right_royalblue.png,stimulus/viswhere_stim/60-deg_dot-right_peru.png,stimulus/viswhere_stim/30-deg_dot-left_slateblue.png,stimulus/viswhere_stim/90-deg_dot-left_seagreen.png,stimulus/viswhere_stim/match_blank.png,stimulus/viswhere_stim/match_box.png,stimulus/viswhere_stim/match_yes.png,stimulus/viswhere_stim/match_no.png,1.0,Match,Dot,Dot,1,5.125,0,5.125,0,5.125,0,5.125,0,0.625,0.625,1,0.5,1,2.125,1,0.5,1,2.125,0,0.0,0,0.0,0,0.0,0,0.0,0,,,,,0,39,39,39,,,,,,,,,361.8674072500007,366.9836425000003,362.35119725000004,363.3415005420002,363.9760637500003,364.97432445900085,361.8674072500007,361.8674072500007,361.879594459,361.8674072500007,361.8674072500007,361.8674072500007,361.879594459,361.8674072500007,366.9836425000003,367.63473554200027,369.7349747920007,373.77485154200076,367.63473554200027,367.63473554200027,372.76061412500076,368.10185433400056,369.11205554200023,369.7349747920007,370.7515025420007,367.63473554200027,367.63473554200027,367.6300397923337,367.63473554200027,367.63473554200027,367.63473554200027,367.6300397923337,367.63473554200027,367.63473554200027,372.76061412500076,367.63473554200027,372.76061412500076,372.8441324590003,373.4715648340007,367.63473554200027,1,1,1.043411374000243,reldom2_s008,001,2025-02-06_12h47.17.787,Where-A-Scan_AC,2022.2.5,None,
0,0.0,None,fixation,stimulus/viswhere_stim/blank_white.png,stimulus/viswhere_stim/blank_white.png,stimulus/audwhere_stim/blank_white.png,stimulus/audwhere_stim/blank_white.png,stimulus/viswhere_stim/blank_white.png,stimulus/viswhere_stim/blank_white.png,stimulus/viswhere_stim/blank_white.png,stimulus/viswhere_stim/blank_white.png,0.0,0.0,0.0,0.0,0,0.0,0,0.0,0,0.0,0,0.0,0,0.0,0.0,0,0.0,0,0.0,0,0.0,0,0.0,0,0.0,0,0.0,0,0.0,0,0.0,8,,,,,0,40,40,40,,,,,,,,,373.77485154200076,373.77485154200076,373.77485154200076,373.77485154200076,373.77485154200076,373.77485154200076,373.77485154200076,373.77485154200076,373.67071720833366,373.77485154200076,373.77485154200076,373.77485154200076,373.67071720833366,373.77485154200076,373.77485154200076,373.77485154200076,373.77485154200076,373.77485154200076,373.77485154200076,373.77485154200076,373.77485154200076,373.77485154200076,373.77485154200076,373.77485154200076,373.77485154200076,373.77485154200076,373.77485154200076,373.72071720833367,373.77485154200076,373.77485154200076,373.77485154200076,373.72071720833367,373.77485154200076,373.77485154200076,373.77485154200076,373.77485154200076,373.77485154200076,378.9584760000007,378.9584760000007,381.95994837500075,None,0,,reldom2_s008,001,2025-02-06_12h47.17.787,Where-A-Scan_AC,2022.2.5,None,
31,First_Order,6.0,viswhere,stimulus/viswhere_stim/blank_white.png,stimulus/viswhere_stim/blank_white.png,stimulus/viswhere_stim/90-deg_dot-right_lightsseagreen.png,stimulus/viswhere_stim/90-deg_dot-left_turquoise.png,stimulus/viswhere_stim/blank_white.png,stimulus/viswhere_stim/line_box.png,stimulus/viswhere_stim/line_yes.png,stimulus/viswhere_stim/line_no.png,None,Line,None,Line,1,0.0,0,5.125,0,5.125,0,5.125,0,0.0,0.625,0,0.0,0,0.0,1,0.5,1,2.125,0,0.0,0,0.0,0,0.0,0,0.0,0,,,,,0,41,41,41,,,,,,,,,381.95994837500075,381.95994837500075,381.95994837500075,381.95994837500075,381.95994837500075,381.95994837500075,381.95994837500075,381.95994837500075,381.9347467506674,381.95994837500075,381.95994837500075,381.95994837500075,381.9347467506674,381.95994837500075,381.95994837500075,381.95994837500075,384.0656635840005,388.02717670900074,381.95994837500075,381.95994837500075,387.09082295900043,382.4460060420006,383.46350358400014,384.0656635840005,385.0838934170006,381.95994837500075,381.95994837500075,381.9514134173341,381.95994837500075,381.95994837500075,381.95994837500075,381.9514134173341,381.95994837500075,381.95994837500075,387.09082295900043,381.95994837500075,387.09082295900043,387.17430866700033,387.8092158750005,381.95994837500075,1,1,1.1655376660000911,reldom2_s008,001,2025-02-06_12h47.17.787,Where-A-Scan_AC,2022.2.5,None,
32,First_Order,6.0,viswhere,stimulus/viswhere_stim/blank_white.png,stimulus/viswhere_stim/blank_white.png,stimulus/viswhere_stim/30-deg_dot-right_goldenrod.png,stimulus/viswhere_stim/30-deg_dot-left_seagreen.png,stimulus/viswhere_stim/blank_white.png,stimulus/viswhere_stim/dot_box.png,stimulus/viswhere_stim/dot_yes.png,stimulus/viswhere_stim/dot_no.png,None,Dot,None,Line,2,0.0,0,5.125,0,5.125,0,5.125,0,0.0,0.625,0,0.0,0,0.0,1,0.5,1,2.125,0,0.0,0,0.0,0,0.0,0,0.0,0,,,,,0,42,42,42,,,,,,,,,388.02717670900074,388.02717670900074,388.02717670900074,388.02717670900074,388.02717670900074,388.02717670900074,388.02717670900074,388.02717670900074,388.00353083333385,388.02717670900074,388.02717670900074,388.02717670900074,388.00353083333385,388.02717670900074,388.02717670900074,388.02717670900074,390.13718116700056,394.09477375000006,388.02717670900074,388.02717670900074,393.1606099590008,388.5113814590004,389.51948633400025,390.13718116700056,391.1467709590006,388.02717670900074,388.02717670900074,388.0201975000005,388.02717670900074,388.02717670900074,388.02717670900074,388.0201975000005,388.02717670900074,388.02717670900074,393.1606099590008,388.02717670900074,393.1606099590008,393.2435457920001,393.8732479170003,388.02717670900074,2,1,1.884636999000577,reldom2_s008,001,2025-02-06_12h47.17.787,Where-A-Scan_AC,2022.2.5,None,
33,First_Order,6.0,viswhere,stimulus/viswhere_stim/blank_white.png,stimulus/viswhere_stim/blank_white.png,stimulus/viswhere_stim/150-deg_dot-left_lightsseagreen.png,stimulus/viswhere_stim/150-deg_dot-right_royalblue.png,stimulus/viswhere_stim/blank_white.png,stimulus/viswhere_stim/dot_box.png,stimulus/viswhere_stim/dot_yes.png,stimulus/viswhere_stim/dot_no.png,None,Dot,None,Line,2,0.0,0,5.125,0,5.125,0,5.125,0,0.0,0.625,0,0.0,0,0.0,1,0.5,1,2.125,0,0.0,0,0.0,0,0.0,0,0.0,0,,,,,0,43,43,43,,,,,,,,,394.09477375000006,394.09477375000006,394.09477375000006,394.09477375000006,394.09477375000006,394.09477375000006,394.09477375000006,394.09477375000006,394.06744066733364,394.09477375000006,394.09477375000006,394.09477375000006,394.06744066733364,394.09477375000006,394.09477375000006,394.09477375000006,396.2064625840003,400.15897779200077,394.09477375000006,394.09477375000006,399.22585037500085,394.56442004200017,395.58133754200026,396.2064625840003,397.20966483400025,394.09477375000006,394.09477375000006,394.0841073340003,394.09477375000006,394.09477375000006,394.09477375000006,394.0841073340003,394.09477375000006,394.09477375000006,399.22585037500085,394.09477375000006,399.22585037500085,399.3111481250007,399.9539168750007,394.09477375000006,1,0,0.9771530819998588,reldom2_s008,001,2025-02-06_12h47.17.787,Where-A-Scan_AC,2022.2.5,None,
34,First_Order,6.0,viswhere,stimulus/viswhere_stim/blank_white.png,stimulus/viswhere_stim/blank_white.png,stimulus/viswhere_stim/120-deg_dot-left_peru.png,stimulus/viswhere_stim/90-deg_dot-left_royalblue.png,stimulus/viswhere_stim/blank_white.png,stimulus/viswhere_stim/line_box.png,stimulus/viswhere_stim/line_yes.png,stimulus/viswhere_stim/line_no.png,None,Line,None,Dot,2,0.0,0,5.125,0,5.125,0,5.125,0,0.0,0.625,0,0.0,0,0.0,1,0.5,1,2.125,0,0.0,0,0.0,0,0.0,0,0.0,0,,,,,0,44,44,44,,,,,,,,,400.15897779200077,400.15897779200077,400.15897779200077,400.15897779200077,400.15897779200077,400.15897779200077,400.15897779200077,400.15897779200077,400.13485020833406,400.15897779200077,400.15897779200077,400.15897779200077,400.13485020833406,400.15897779200077,400.15897779200077,400.15897779200077,402.2598337090003,406.3065087920004,400.15897779200077,400.15897779200077,405.2996817500007,400.6454380840005,401.659070834,402.2598337090003,403.27455350000037,400.15897779200077,400.15897779200077,400.1515168750007,400.15897779200077,400.15897779200077,400.15897779200077,400.1515168750007,400.15897779200077,400.15897779200077,405.2996817500007,400.15897779200077,405.2996817500007,405.38314962500044,406.00884495900027,400.15897779200077,2,1,1.9611517080002159,reldom2_s008,001,2025-02-06_12h47.17.787,Where-A-Scan_AC,2022.2.5,None,
0,0.0,None,fixation,stimulus/viswhere_stim/blank_white.png,stimulus/viswhere_stim/blank_white.png,stimulus/audwhere_stim/blank_white.png,stimulus/audwhere_stim/blank_white.png,stimulus/viswhere_stim/blank_white.png,stimulus/viswhere_stim/blank_white.png,stimulus/viswhere_stim/blank_white.png,stimulus/viswhere_stim/blank_white.png,0.0,0.0,0.0,0.0,0,0.0,0,0.0,0,0.0,0,0.0,0,0.0,0.0,0,0.0,0,0.0,0,0.0,0,0.0,0,0.0,0,0.0,0,0.0,0,0.0,10,,,,,0,45,45,45,,,,,,,,,406.3065087920004,406.3065087920004,406.3065087920004,406.3065087920004,406.3065087920004,406.3065087920004,406.3065087920004,406.3065087920004,406.2040730423335,406.3065087920004,406.3065087920004,406.3065087920004,406.2040730423335,406.3065087920004,406.3065087920004,406.3065087920004,406.3065087920004,406.3065087920004,406.3065087920004,406.3065087920004,406.3065087920004,406.3065087920004,406.3065087920004,406.3065087920004,406.3065087920004,406.3065087920004,406.3065087920004,406.2540730423335,406.3065087920004,406.3065087920004,406.3065087920004,406.2540730423335,406.3065087920004,406.3065087920004,406.3065087920004,406.3065087920004,406.3065087920004,411.52091045900033,411.52091045900033,416.41878945900044,None,0,,reldom2_s008,001,2025-02-06_12h47.17.787,Where-A-Scan_AC,2022.2.5,None,
35,Second_Order,6.0,viswhere,stimulus/viswhere_stim/60-deg_dot-right_mediumslateblue.png,stimulus/viswhere_stim/150-deg_dot-right_turquoise.png,stimulus/viswhere_stim/90-deg_dot-right_slateblue.png,stimulus/viswhere_stim/90-deg_dot-left_seagreen.png,stimulus/viswhere_stim/match_blank.png,stimulus/viswhere_stim/match_box.png,stimulus/viswhere_stim/match_yes.png,stimulus/viswhere_stim/match_no.png,2.0,Match,Dot,Line,2,5.125,0,5.125,0,5.125,0,5.125,0,0.75,0.75,1,0.5,1,2.125,1,0.5,1,2.125,0,0.0,0,0.0,0,0.0,0,0.0,0,,,,,0,46,46,46,,,,,,,,,416.41878945900044,421.542767209,416.89585029200043,417.8825957500003,418.51947279200067,419.51653683400036,416.41878945900044,416.41878945900044,416.43021558333396,416.41878945900044,416.41878945900044,416.41878945900044,416.43021558333396,416.41878945900044,421.542767209,422.32354850000047,424.4134242500004,428.30968416700034,422.32354850000047,422.32354850000047,427.46220095900026,422.79281029200047,423.80950050000047,424.4134242500004,425.43339450000076,422.32354850000047,422.32354850000047,422.31017850033413,422.32354850000047,422.32354850000047,422.32354850000047,422.31017850033413,422.32354850000047,422.32354850000047,427.46220095900026,422.32354850000047,427.46220095900026,427.5341553340004,428.30968416700034,422.32354850000047,2,1,3.132735000000139,reldom2_s008,001,2025-02-06_12h47.17.787,Where-A-Scan_AC,2022.2.5,None,
36,Second_Order,6.0,viswhere,stimulus/viswhere_stim/120-deg_dot-left_royalblue.png,stimulus/viswhere_stim/120-deg_dot-right_cyan.png,stimulus/viswhere_stim/90-deg_dot-left_slateblue.png,stimulus/viswhere_stim/90-deg_dot-right_turquoise.png,stimulus/viswhere_stim/match_blank.png,stimulus/viswhere_stim/match_box.png,stimulus/viswhere_stim/match_yes.png,stimulus/viswhere_stim/match_no.png,1.0,Match,Line,Line,1,5.125,0,5.125,0,5.125,0,5.125,0,0.625,0.625,1,0.5,1,2.125,1,0.5,1,2.125,0,0.0,0,0.0,0,0.0,0,0.0,0,,,,,0,47,47,47,,,,,,,,,428.30968416700034,433.432370042,428.7919945000003,429.79044816700025,430.4129246250004,431.4108140840008,428.30968416700034,428.30968416700034,428.32191979200053,428.30968416700034,428.30968416700034,428.30968416700034,428.32191979200053,428.30968416700034,433.432370042,434.0948455000007,436.1792777090004,440.23143679200075,434.0948455000007,434.0948455000007,439.22801354200055,434.56240645900016,435.57631737500014,436.1792777090004,437.1990462500007,434.0948455000007,434.0948455000007,434.08359620833335,434.0948455000007,434.0948455000007,434.0948455000007,434.08359620833335,434.0948455000007,434.0948455000007,439.22801354200055,434.0948455000007,439.22801354200055,439.3111557500006,439.9460692500006,434.0948455000007,1,1,0.4545289990001038,reldom2_s008,001,2025-02-06_12h47.17.787,Where-A-Scan_AC,2022.2.5,None,
0,0.0,None,fixation,stimulus/viswhere_stim/blank_white.png,stimulus/viswhere_stim/blank_white.png,stimulus/audwhere_stim/blank_white.png,stimulus/audwhere_stim/blank_white.png,stimulus/viswhere_stim/blank_white.png,stimulus/viswhere_stim/blank_white.png,stimulus/viswhere_stim/blank_white.png,stimulus/viswhere_stim/blank_white.png,0.0,0.0,0.0,0.0,0,0.0,0,0.0,0,0.0,0,0.0,0,0.0,0.0,0,0.0,0,0.0,0,0.0,0,0.0,0,0.0,0,0.0,0,0.0,0,0.0,9,,,,,0,48,48,48,,,,,,,,,440.23143679200075,440.23143679200075,440.23143679200075,440.23143679200075,440.23143679200075,440.23143679200075,440.23143679200075,440.23143679200075,440.1269651253336,440.23143679200075,440.23143679200075,440.23143679200075,440.1269651253336,440.23143679200075,440.23143679200075,440.23143679200075,440.23143679200075,440.23143679200075,440.23143679200075,440.23143679200075,440.23143679200075,440.23143679200075,440.23143679200075,440.23143679200075,440.23143679200075,440.23143679200075,440.23143679200075,440.1769651253336,440.23143679200075,440.23143679200075,440.23143679200075,440.1769651253336,440.23143679200075,440.23143679200075,440.23143679200075,440.23143679200075,440.23143679200075,445.4306046670008,445.4306046670008,449.46391520900033,None,0,,reldom2_s008,001,2025-02-06_12h47.17.787,Where-A-Scan_AC,2022.2.5,None,
37,First_Order,7.0,audwhere,stimulus/audwhere_stim/dummy.wav,stimulus/audwhere_stim/dummy.wav,stimulus/audwhere_stim/left_toward_280h.wav,stimulus/audwhere_stim/left_away_290h.wav,stimulus/audwhere_stim/blank_white.png,stimulus/audwhere_stim/direction_box.png,stimulus/audwhere_stim/direction_yes.png,stimulus/audwhere_stim/direction_no.png,None,Direction,None,Side,2,0.0,0,5.125,0,5.125,0,5.125,0,0.0,0.625,0,0.0,0,0.0,0,0.0,0,0.0,0,0.0,0,0.0,1,0.5,1,2.125,0,,,,,0,49,49,49,,,,,,,,,449.46391520900033,449.46391520900033,449.46391520900033,449.46391520900033,449.46391520900033,449.46391520900033,449.46391520900033,449.46391520900033,449.387290250667,449.46391520900033,449.46391520900033,449.46391520900033,449.387290250667,449.46391520900033,449.46391520900033,449.46391520900033,451.54617308400066,455.5829665420006,449.46391520900033,449.46391520900033,454.61868462500024,449.46391520900033,449.46391520900033,449.46391520900033,449.46391520900033,449.93853145900084,450.97810904200014,449.9074744166667,,451.54617308400066,452.59031125,451.5152816666671,,449.46391520900033,454.61868462500024,449.46391520900033,454.61868462500024,454.66077179200056,455.3242621670006,449.46391520900033,2,1,1.492312206999486,reldom2_s008,001,2025-02-06_12h47.17.787,Where-A-Scan_AC,2022.2.5,None,
38,First_Order,7.0,audwhere,stimulus/audwhere_stim/dummy.wav,stimulus/audwhere_stim/dummy.wav,stimulus/audwhere_stim/left_away_300h.wav,stimulus/audwhere_stim/right_away_280h.wav,stimulus/audwhere_stim/blank_white.png,stimulus/audwhere_stim/side_box.png,stimulus/audwhere_stim/side_yes.png,stimulus/audwhere_stim/side_no.png,None,Side,None,Direction,2,0.0,0,5.125,0,5.125,0,5.125,0,0.0,0.625,0,0.0,0,0.0,0,0.0,0,0.0,0,0.0,0,0.0,1,0.5,1,2.125,0,,,,,0,50,50,50,,,,,,,,,455.5829665420006,455.5829665420006,455.5829665420006,455.5829665420006,455.5829665420006,455.5829665420006,455.5829665420006,455.5829665420006,455.4996924583339,455.5829665420006,455.5829665420006,455.5829665420006,455.4996924583339,455.5829665420006,455.5829665420006,455.5829665420006,457.653785167,,455.5829665420006,455.5829665420006,460.7558933750006,455.5829665420006,455.5829665420006,455.5829665420006,455.5829665420006,456.0545642920006,457.0889940420002,456.02369395866685,,457.653785167,458.6905415420006,457.6233512916672,,455.5829665420006,460.7558933750006,455.5829665420006,460.7558933750006,460.7974920000006,461.4594396250004,455.5829665420006,2,1,0.6873350819996631,reldom2_s008,001,2025-02-06_12h47.17.787,Where-A-Scan_AC,2022.2.5,None,
39,First_Order,7.0,audwhere,stimulus/audwhere_stim/dummy.wav,stimulus/audwhere_stim/dummy.wav,stimulus/audwhere_stim/right_toward_280h.wav,stimulus/audwhere_stim/right_away_300h.wav,stimulus/audwhere_stim/blank_white.png,stimulus/audwhere_stim/side_box.png,stimulus/audwhere_stim/side_yes.png,stimulus/audwhere_stim/side_no.png,None,Side,None,Side,1,0.0,0,5.125,0,5.125,0,5.125,0,0.0,0.625,0,0.0,0,0.0,0,0.0,0,0.0,0,0.0,0,0.0,1,0.5,1,2.125,0,,,,,0,51,51,51,,,,,,,,,461.6764805840003,461.6764805840003,461.6764805840003,461.6764805840003,461.6764805840003,461.6764805840003,461.6764805840003,461.6764805840003,461.59277295833374,461.6764805840003,461.6764805840003,461.6764805840003,461.59277295833374,461.6764805840003,461.6764805840003,461.6764805840003,463.79335995900055,,461.6764805840003,461.6764805840003,466.85395441700075,461.6764805840003,461.6764805840003,461.6764805840003,461.6764805840003,462.14583041700007,463.1810452920008,462.1155939586672,,463.79335995900055,464.832970292,463.762648541667,,461.6764805840003,466.85395441700075,461.6764805840003,466.85395441700075,466.8954617090003,467.55902116700054,461.6764805840003,1,1,0.8951033319999624,reldom2_s008,001,2025-02-06_12h47.17.787,Where-A-Scan_AC,2022.2.5,None,
40,First_Order,7.0,audwhere,stimulus/audwhere_stim/dummy.wav,stimulus/audwhere_stim/dummy.wav,stimulus/audwhere_stim/left_away_280h.wav,stimulus/audwhere_stim/left_toward_300h.wav,stimulus/audwhere_stim/blank_white.png,stimulus/audwhere_stim/side_box.png,stimulus/audwhere_stim/side_yes.png,stimulus/audwhere_stim/side_no.png,None,Side,None,Side,1,0.0,0,5.125,0,5.125,0,5.125,0,0.0,0.625,0,0.0,0,0.0,0,0.0,0,0.0,0,0.0,0,0.0,1,0.5,1,2.125,0,,,,,0,52,52,52,,,,,,,,,467.78059416700034,467.78059416700034,467.78059416700034,467.78059416700034,467.78059416700034,467.78059416700034,467.78059416700034,467.78059416700034,467.69235450033386,467.78059416700034,467.78059416700034,467.78059416700034,467.69235450033386,467.78059416700034,467.78059416700034,467.78059416700034,469.8550785000007,,467.78059416700034,467.78059416700034,472.96435170900077,467.78059416700034,467.78059416700034,467.78059416700034,467.78059416700034,468.2498298750006,469.28891075000047,468.21939808366665,,469.8550785000007,470.8952036670007,469.82419500066703,,467.78059416700034,472.96435170900077,467.78059416700034,472.96435170900077,473.00597966700025,473.6720426670008,467.78059416700034,1,1,1.0142635820002397,reldom2_s008,001,2025-02-06_12h47.17.787,Where-A-Scan_AC,2022.2.5,None,
0,0.0,None,fixation,stimulus/viswhere_stim/blank_white.png,stimulus/viswhere_stim/blank_white.png,stimulus/audwhere_stim/blank_white.png,stimulus/audwhere_stim/blank_white.png,stimulus/viswhere_stim/blank_white.png,stimulus/viswhere_stim/blank_white.png,stimulus/viswhere_stim/blank_white.png,stimulus/viswhere_stim/blank_white.png,0.0,0.0,0.0,0.0,0,0.0,0,0.0,0,0.0,0,0.0,0,0.0,0.0,0,0.0,0,0.0,0,0.0,0,0.0,0,0.0,0,0.0,0,0.0,0,0.0,8,,,,,0,53,53,53,,,,,,,,,473.9101187920005,473.9101187920005,473.9101187920005,473.9101187920005,473.9101187920005,473.9101187920005,473.9101187920005,473.9101187920005,473.80537600033415,473.9101187920005,473.9101187920005,473.9101187920005,473.80537600033415,473.9101187920005,473.9101187920005,473.9101187920005,473.9101187920005,473.9101187920005,473.9101187920005,473.9101187920005,473.9101187920005,473.9101187920005,473.9101187920005,473.9101187920005,473.9101187920005,473.9101187920005,473.9101187920005,473.85537600033416,473.9101187920005,473.9101187920005,473.9101187920005,473.85537600033416,473.9101187920005,473.9101187920005,473.9101187920005,473.9101187920005,473.9101187920005,479.12070108400076,479.12070108400076,482.0901066250008,None,0,,reldom2_s008,001,2025-02-06_12h47.17.787,Where-A-Scan_AC,2022.2.5,None,
41,Second_Order,7.0,audwhere,stimulus/audwhere_stim/left_away_300h.wav,stimulus/audwhere_stim/left_toward_300h.wav,stimulus/audwhere_stim/right_away_290h.wav,stimulus/audwhere_stim/right_toward_290h.wav,stimulus/viswhere_stim/match_blank.png,stimulus/audwhere_stim/match_box.png,stimulus/viswhere_stim/match_yes.png,stimulus/viswhere_stim/match_no.png,1.0,Match,Side,Side,1,5.125,0,5.125,0,5.125,0,5.125,0,0.75,0.75,0,0.0,0,0.0,0,0.0,0,0.0,1,0.5,1,2.125,1,0.5,1,2.125,0,,,,,0,54,54,54,,,,,,,,,482.0901066250008,487.2121010000001,482.0901066250008,482.0901066250008,482.0901066250008,482.0901066250008,482.549463542,483.5478082090003,482.56202683366723,483.5560855420008,484.170272542,485.16790675000084,484.18228395866686,485.17683750000015,487.2121010000001,488.044248917,490.148131209,,488.044248917,488.044248917,493.20418812500066,488.044248917,488.044248917,488.044248917,488.044248917,488.5144907920003,489.58509945900005,488.4833358336666,,490.148131209,491.18672716700075,490.1173995416668,,488.044248917,493.20418812500066,488.044248917,493.20418812500066,493.24620700000014,,488.044248917,1,1,0.9160794999997961,reldom2_s008,001,2025-02-06_12h47.17.787,Where-A-Scan_AC,2022.2.5,None,
42,Second_Order,7.0,audwhere,stimulus/audwhere_stim/left_away_280h.wav,stimulus/audwhere_stim/right_away_270h.wav,stimulus/audwhere_stim/right_toward_270h.wav,stimulus/audwhere_stim/left_toward_280h.wav,stimulus/viswhere_stim/match_blank.png,stimulus/audwhere_stim/match_box.png,stimulus/viswhere_stim/match_yes.png,stimulus/viswhere_stim/match_no.png,1.0,Match,Direction,Direction,1,5.125,0,5.125,0,5.125,0,5.125,0,0.625,0.625,0,0.0,0,0.0,0,0.0,0,0.0,1,0.5,1,2.125,1,0.5,1,2.125,0,,,,,0,55,55,55,,,,,,,,,494.02858208400085,499.1500895420004,494.02858208400085,494.02858208400085,494.02858208400085,494.02858208400085,494.47696950000045,495.4752130420002,494.489872041667,495.48356429200066,496.11038816700056,497.09887550000076,496.113902250667,497.112080375,499.1500895420004,499.8682417500004,501.9240131250008,506.00590962500064,499.8682417500004,499.8682417500004,505.0214595000007,499.8682417500004,499.8682417500004,499.8682417500004,499.8682417500004,500.33462775000044,501.40715583400015,500.3038475416672,,501.9240131250008,502.9546098340006,501.8937802916673,,499.8682417500004,505.0214595000007,499.8682417500004,505.0214595000007,505.06268908400034,505.7266709170008,499.8682417500004,1,1,1.4554133740002726,reldom2_s008,001,2025-02-06_12h47.17.787,Where-A-Scan_AC,2022.2.5,None,
0,0.0,None,fixation,stimulus/viswhere_stim/blank_white.png,stimulus/viswhere_stim/blank_white.png,stimulus/audwhere_stim/blank_white.png,stimulus/audwhere_stim/blank_white.png,stimulus/viswhere_stim/blank_white.png,stimulus/viswhere_stim/blank_white.png,stimulus/viswhere_stim/blank_white.png,stimulus/viswhere_stim/blank_white.png,0.0,0.0,0.0,0.0,0,0.0,0,0.0,0,0.0,0,0.0,0,0.0,0.0,0,0.0,0,0.0,0,0.0,0,0.0,0,0.0,0,0.0,0,0.0,0,0.0,10,,,,,0,56,56,56,,,,,,,,,506.00590962500064,506.00590962500064,506.00590962500064,506.00590962500064,506.00590962500064,506.00590962500064,506.00590962500064,506.00590962500064,505.90117525033395,506.00590962500064,506.00590962500064,506.00590962500064,505.90117525033395,506.00590962500064,506.00590962500064,506.00590962500064,506.00590962500064,506.00590962500064,506.00590962500064,506.00590962500064,506.00590962500064,506.00590962500064,506.00590962500064,506.00590962500064,506.00590962500064,506.00590962500064,506.00590962500064,505.95117525033396,506.00590962500064,506.00590962500064,506.00590962500064,505.95117525033396,506.00590962500064,506.00590962500064,506.00590962500064,506.00590962500064,506.00590962500064,511.19159800000034,511.19159800000034,516.2470718750001,None,0,,reldom2_s008,001,2025-02-06_12h47.17.787,Where-A-Scan_AC,2022.2.5,None,
43,First_Order,8.0,audwhere,stimulus/audwhere_stim/dummy.wav,stimulus/audwhere_stim/dummy.wav,stimulus/audwhere_stim/left_away_270h.wav,stimulus/audwhere_stim/right_away_300h.wav,stimulus/audwhere_stim/blank_white.png,stimulus/audwhere_stim/direction_box.png,stimulus/audwhere_stim/direction_yes.png,stimulus/audwhere_stim/direction_no.png,None,Direction,None,Direction,1,0.0,0,5.125,0,5.125,0,5.125,0,0.0,0.625,0,0.0,0,0.0,0,0.0,0,0.0,0,0.0,0,0.0,1,0.5,1,2.125,0,,,,,0,57,57,57,,,,,,,,,516.2470718750001,516.2470718750001,516.2470718750001,516.2470718750001,516.2470718750001,516.2470718750001,516.2470718750001,516.2470718750001,516.1694001666671,516.2470718750001,516.2470718750001,516.2470718750001,516.1694001666671,516.2470718750001,516.2470718750001,516.2470718750001,518.3279588750001,522.3672648340007,516.2470718750001,516.2470718750001,521.4018107500005,516.2470718750001,516.2470718750001,516.2470718750001,516.2470718750001,516.719856875,517.7615300420002,516.6894814166674,,518.3279588750001,519.3693602500007,518.2968667916668,,516.2470718750001,521.4018107500005,516.2470718750001,521.4018107500005,521.4438888340001,522.1105073750005,516.2470718750001,2,0,2.3387375829997836,reldom2_s008,001,2025-02-06_12h47.17.787,Where-A-Scan_AC,2022.2.5,None,
44,First_Order,8.0,audwhere,stimulus/audwhere_stim/dummy.wav,stimulus/audwhere_stim/dummy.wav,stimulus/audwhere_stim/left_toward_300h.wav,stimulus/audwhere_stim/left_away_280h.wav,stimulus/audwhere_stim/blank_white.png,stimulus/audwhere_stim/direction_box.png,stimulus/audwhere_stim/direction_yes.png,stimulus/audwhere_stim/direction_no.png,None,Direction,None,Side,2,0.0,0,5.125,0,5.125,0,5.125,0,0.0,0.625,0,0.0,0,0.0,0,0.0,0,0.0,0,0.0,0,0.0,1,0.5,1,2.125,0,,,,,0,58,58,58,,,,,,,,,522.3672648340007,522.3672648340007,522.3672648340007,522.3672648340007,522.3672648340007,522.3672648340007,522.3672648340007,522.3672648340007,522.2847857923335,522.3672648340007,522.3672648340007,522.3672648340007,522.2847857923335,522.3672648340007,522.3672648340007,522.3672648340007,524.4528414590004,528.4946020840007,522.3672648340007,522.3672648340007,527.5308767500001,522.3672648340007,522.3672648340007,522.3672648340007,522.3672648340007,522.8400093340006,523.8844678750002,522.8094831256669,,524.4528414590004,525.4968422920001,524.4219152916669,,522.3672648340007,527.5308767500001,522.3672648340007,527.5308767500001,527.5724514590001,528.2366376250002,522.3672648340007,2,1,2.4042723330003355,reldom2_s008,001,2025-02-06_12h47.17.787,Where-A-Scan_AC,2022.2.5,None,
45,First_Order,8.0,audwhere,stimulus/audwhere_stim/dummy.wav,stimulus/audwhere_stim/dummy.wav,stimulus/audwhere_stim/right_away_290h.wav,stimulus/audwhere_stim/left_away_280h.wav,stimulus/audwhere_stim/blank_white.png,stimulus/audwhere_stim/side_box.png,stimulus/audwhere_stim/side_yes.png,stimulus/audwhere_stim/side_no.png,None,Side,None,Direction,2,0.0,0,5.125,0,5.125,0,5.125,0,0.0,0.625,0,0.0,0,0.0,0,0.0,0,0.0,0,0.0,0,0.0,1,0.5,1,2.125,0,,,,,0,59,59,59,,,,,,,,,528.4946020840007,528.4946020840007,528.4946020840007,528.4946020840007,528.4946020840007,528.4946020840007,528.4946020840007,528.4946020840007,528.4112237923338,528.4946020840007,528.4946020840007,528.4946020840007,528.4112237923338,528.4946020840007,528.4946020840007,528.4946020840007,530.5697680000003,,528.4946020840007,528.4946020840007,533.6769957500001,528.4946020840007,528.4946020840007,528.4946020840007,528.4946020840007,528.9678969590004,530.0054173340004,528.9369963756674,,530.5697680000003,531.6088253340004,530.5391535836673,,528.4946020840007,533.6769957500001,528.4946020840007,533.6769957500001,533.7185084590001,534.3802064170004,528.4946020840007,2,1,0.7000581239999519,reldom2_s008,001,2025-02-06_12h47.17.787,Where-A-Scan_AC,2022.2.5,None,
46,First_Order,8.0,audwhere,stimulus/audwhere_stim/dummy.wav,stimulus/audwhere_stim/dummy.wav,stimulus/audwhere_stim/left_away_270h.wav,stimulus/audwhere_stim/right_away_290h.wav,stimulus/audwhere_stim/blank_white.png,stimulus/audwhere_stim/direction_box.png,stimulus/audwhere_stim/direction_yes.png,stimulus/audwhere_stim/direction_no.png,None,Direction,None,Direction,1,0.0,0,5.125,0,5.125,0,5.125,0,0.0,0.625,0,0.0,0,0.0,0,0.0,0,0.0,0,0.0,0,0.0,1,0.5,1,2.125,0,,,,,0,60,60,60,,,,,,,,,534.5989347920004,534.5989347920004,534.5989347920004,534.5989347920004,534.5989347920004,534.5989347920004,534.5989347920004,534.5989347920004,534.5302064170004,534.5989347920004,534.5989347920004,534.5989347920004,534.5302064170004,534.5989347920004,534.5989347920004,534.5989347920004,536.686723709,540.7531726670004,534.5989347920004,534.5989347920004,539.7654152090008,534.5989347920004,534.5989347920004,534.5989347920004,534.5989347920004,535.0725146250006,536.1159927920007,535.0416955836674,,536.686723709,537.7304301670001,536.6561699166671,,534.5989347920004,539.7654152090008,534.5989347920004,539.7654152090008,539.8070366250004,540.4725768750004,534.5989347920004,1,1,1.1542196660002446,reldom2_s008,001,2025-02-06_12h47.17.787,Where-A-Scan_AC,2022.2.5,None,
0,0.0,None,fixation,stimulus/viswhere_stim/blank_white.png,stimulus/viswhere_stim/blank_white.png,stimulus/audwhere_stim/blank_white.png,stimulus/audwhere_stim/blank_white.png,stimulus/viswhere_stim/blank_white.png,stimulus/viswhere_stim/blank_white.png,stimulus/viswhere_stim/blank_white.png,stimulus/viswhere_stim/blank_white.png,0.0,0.0,0.0,0.0,0,0.0,0,0.0,0,0.0,0,0.0,0,0.0,0.0,0,0.0,0,0.0,0,0.0,0,0.0,0,0.0,0,0.0,0,0.0,0,0.0,9,,,,,0,61,61,61,,,,,,,,,540.7531726670004,540.7531726670004,540.7531726670004,540.7531726670004,540.7531726670004,540.7531726670004,540.7531726670004,540.7531726670004,540.6473132923339,540.7531726670004,540.7531726670004,540.7531726670004,540.6473132923339,540.7531726670004,540.7531726670004,540.7531726670004,540.7531726670004,540.7531726670004,540.7531726670004,540.7531726670004,540.7531726670004,540.7531726670004,540.7531726670004,540.7531726670004,540.7531726670004,540.7531726670004,540.7531726670004,540.7139799590005,540.7531726670004,540.7531726670004,540.7531726670004,540.7139799590005,540.7531726670004,540.7531726670004,540.7531726670004,540.7531726670004,540.7531726670004,545.9789896250004,545.9789896250004,549.8852863750008,None,0,,reldom2_s008,001,2025-02-06_12h47.17.787,Where-A-Scan_AC,2022.2.5,None,
47,Second_Order,8.0,audwhere,stimulus/audwhere_stim/right_away_280h.wav,stimulus/audwhere_stim/left_away_290h.wav,stimulus/audwhere_stim/right_toward_300h.wav,stimulus/audwhere_stim/right_away_300h.wav,stimulus/viswhere_stim/match_blank.png,stimulus/audwhere_stim/match_box.png,stimulus/viswhere_stim/match_yes.png,stimulus/viswhere_stim/match_no.png,2.0,Match,Direction,Side,2,5.125,0,5.125,0,5.125,0,5.125,0,0.75,0.75,0,0.0,0,0.0,0,0.0,0,0.0,1,0.5,1,2.125,1,0.5,1,2.125,0,,,,,0,62,62,62,,,,,,,,,549.8852863750008,555.00065275,549.8852863750008,549.8852863750008,549.8852863750008,549.8852863750008,550.339152042,551.3369536250002,550.3517370416669,551.3450077920006,551.9601697090002,552.9576336250002,551.9721333756672,552.9653978340002,555.00065275,555.8334093340009,557.8995197090007,,555.8334093340009,555.8334093340009,561.004310667,555.8334093340009,555.8334093340009,555.8334093340009,555.8334093340009,556.3014531250001,557.3338521670003,556.2706585416674,,557.8995197090007,558.9346829170008,557.8688044166668,,555.8334093340009,561.004310667,555.8334093340009,561.004310667,561.0458213750007,,555.8334093340009,2,1,2.156882790999589,reldom2_s008,001,2025-02-06_12h47.17.787,Where-A-Scan_AC,2022.2.5,None,
48,Second_Order,8.0,audwhere,stimulus/audwhere_stim/left_away_280h.wav,stimulus/audwhere_stim/right_away_290h.wav,stimulus/audwhere_stim/left_toward_280h.wav,stimulus/audwhere_stim/right_toward_300h.wav,stimulus/viswhere_stim/match_blank.png,stimulus/audwhere_stim/match_box.png,stimulus/viswhere_stim/match_yes.png,stimulus/viswhere_stim/match_no.png,1.0,Match,Direction,Direction,1,5.125,0,5.125,0,5.125,0,5.125,0,0.625,0.625,0,0.0,0,0.0,0,0.0,0,0.0,1,0.5,1,2.125,1,0.5,1,2.125,0,,,,,0,63,63,63,,,,,,,,,561.8286190000008,566.944441959,561.8286190000008,561.8286190000008,561.8286190000008,561.8286190000008,562.2834317920006,563.2822138750007,562.2957415836674,563.2914931250007,563.9041135840007,564.9020577500005,563.9162233336667,564.9105611670002,566.944441959,567.6537277090001,569.7142364170004,573.7963169170007,567.6537277090001,567.6537277090001,572.8100760420002,567.6537277090001,567.6537277090001,567.6537277090001,567.6537277090001,568.1221391250001,569.1528221670005,568.0916096256672,,569.7142364170004,570.7492546670001,569.6842444586666,,567.6537277090001,572.8100760420002,567.6537277090001,572.8100760420002,572.851339625,573.5139170420007,567.6537277090001,1,1,1.0153882079994219,reldom2_s008,001,2025-02-06_12h47.17.787,Where-A-Scan_AC,2022.2.5,None,
0,0.0,None,fixation,stimulus/viswhere_stim/blank_white.png,stimulus/viswhere_stim/blank_white.png,stimulus/audwhere_stim/blank_white.png,stimulus/audwhere_stim/blank_white.png,stimulus/viswhere_stim/blank_white.png,stimulus/viswhere_stim/blank_white.png,stimulus/viswhere_stim/blank_white.png,stimulus/viswhere_stim/blank_white.png,0.0,0.0,0.0,0.0,0,0.0,0,0.0,0,0.0,0,0.0,0,0.0,0.0,0,0.0,0,0.0,0,0.0,0,0.0,0,0.0,0,0.0,0,0.0,0,0.0,16,,,,,0,64,64,64,,,,,,,,,573.7963169170007,573.7963169170007,573.7963169170007,573.7963169170007,573.7963169170007,573.7963169170007,573.7963169170007,573.7963169170007,573.6883600833336,573.7963169170007,573.7963169170007,573.7963169170007,573.6883600833336,573.7963169170007,573.7963169170007,573.7963169170007,573.7963169170007,573.7963169170007,573.7963169170007,573.7963169170007,573.7963169170007,573.7963169170007,573.7963169170007,573.7963169170007,573.7963169170007,573.7963169170007,573.7963169170007,573.7550267500002,573.7963169170007,573.7963169170007,573.7963169170007,573.7550267500002,573.7963169170007,573.7963169170007,573.7963169170007,573.7963169170007,573.7963169170007,578.977966292,578.977966292,589.9483049170003,None,0,,reldom2_s008,001,2025-02-06_12h47.17.787,Where-A-Scan_AC,2022.2.5,None,
