Trial,Order,Block,Type,Stimuli_File1,Stimuli_File2,Stimuli_File3,Stimuli_File4,Cue_File1,Cue_File2,Response_File_Yes,Response_File_No,Match,Cue_Dimension,Pair1_Dimension,Pair2_Dimension,Key,Cue1_Duration,Cue1_Onset,Cue2_Duration,Cue2_Onset,ResponseYes_Duration,ResponseYes_Onset,ResponseNo_Duration,ResponseNo_Onset,ITI_Within,ITI_Between,Image1_Duration,Image1_Onset,Image2_Duration,Image2_Onset,Image3_Duration,Image3_Onset,Image4_Duration,Image4_Onset,Sound1_Duration,Sound1_Onset,Sound2_Duration,Sound2_Onset,Sound3_Duration,Sound3_Onset,Sound4_Duration,Sound4_Onset,Fixation_Duration,trials_2.thisRepN,trials_2.thisTrialN,trials_2.thisN,trials_2.thisIndex,trials.thisRepN,trials.thisTrialN,trials.thisN,trials.thisIndex,text_start.started,key_resp_start.started,key_resp_start.keys,key_resp_start.rt,cue_file1.started,cue_file1.stopped,image_1.started,image_1.stopped,image_2.started,image_2.stopped,sound_icon1.started,sound_icon1.stopped,sound_1.started,sound_1.stopped,sound_icon2.started,sound_icon2.stopped,sound_2.started,sound_2.stopped,image_blank_1.started,image_blank_1.stopped,key_press.started,key_press.stopped,fixation_text.started,cue_file2.started,cue_file2.stopped,image_3.started,image_3.stopped,image_4.started,image_4.stopped,sound_icon3.started,sound_icon3.stopped,sound_3.started,sound_3.stopped,sound_icon4.started,sound_icon4.stopped,sound_4.started,sound_4.stopped,response_yes.started,response_yes.stopped,response_no.started,response_no.stopped,iti_blank.started,iti_blank.stopped,fixation_text.stopped,key_press.keys,key_press.corr,key_press.rt,text_score.started,participant,session,date,expName,psychopyVersion,frameRate,
,,,,,,,,,,,,,,,,,,,,,,,,,,,,,,,,,,,,,,,,,,,,,,,,,,,,25.677011993000633,25.677011993000633,2,2.453246388999105,,,,,,,,,,,,,,,,,,,,,,,,,,,,,,,,,,,,,,,,,,,,,reldom2_s008,001,2025-02-06_11h27.30.607,practice_test1_AC,2022.2.5,None,
,,,,,,,,,,,,,,,,,,,,,,,,,,,,,,,,,,,,,,,,,,,,0,0,0,0,,,,,,,,,,,,,,,,,,,,,,,,,,,,,,,,,,,,,,,,,,,,,,,,,,,,,reldom2_s008,001,2025-02-06_11h27.30.607,practice_test1_AC,2022.2.5,None,
,,,,,,,,,,,,,,,,,,,,,,,,,,,,,,,,,,,,,,,,,,,,1,0,1,0,,,,,,,,,,,,,,,,,,,,,,,,,,,,,,,,,,,,,,,,,,,,,,,,,,,,,reldom2_s008,001,2025-02-06_11h27.30.607,practice_test1_AC,2022.2.5,None,
,,,,,,,,,,,,,,,,,,,,,,,,,,,,,,,,,,,,,,,,,,,,2,0,2,0,,,,,,,,,,,,,,,,,,,,,,,,,,,,,,,,,,,,,,,,,,,,,,,,,,,,,reldom2_s008,001,2025-02-06_11h27.30.607,practice_test1_AC,2022.2.5,None,
,,,,,,,,,,,,,,,,,,,,,,,,,,,,,,,,,,,,,,,,,,,,3,0,3,0,,,,,,,,,,,,,,,,,,,,,,,,,,,,,,,,,,,,,,,,,,,,,,,,,,,,,reldom2_s008,001,2025-02-06_11h27.30.607,practice_test1_AC,2022.2.5,None,
0,0.0,None,fixation,stimulus/viswhere_stim/blank_white.png,stimulus/viswhere_stim/blank_white.png,stimulus/audwhere_stim/blank_white.png,stimulus/audwhere_stim/blank_white.png,stimulus/viswhere_stim/blank_white.png,stimulus/viswhere_stim/blank_white.png,stimulus/viswhere_stim/blank_white.png,stimulus/viswhere_stim/blank_white.png,0.0,0.0,0.0,0.0,0,0.0,0,0.0,0,0.0,0,0.0,0,0.0,0.0,0,0.0,0,0.0,0,0.0,0,0.0,0,0.0,0,0.0,0,0.0,0,0.0,6,,,,,0,0,0,0,,,,,28.741241575997265,28.741241575997265,28.741241575997265,28.741241575997265,28.741241575997265,28.741241575997265,28.741241575997265,28.741241575997265,28.408732394331793,28.741241575997265,28.741241575997265,28.741241575997265,28.408732394331793,28.741241575997265,28.741241575997265,28.741241575997265,28.741241575997265,28.741241575997265,28.741241575997265,28.741241575997265,28.741241575997265,28.741241575997265,28.741241575997265,28.741241575997265,28.741241575997265,28.741241575997265,28.741241575997265,28.57539906099846,28.741241575997265,28.741241575997265,28.741241575997265,28.57539906099846,28.741241575997265,28.741241575997265,28.741241575997265,28.741241575997265,28.741241575997265,33.807548835997295,33.807548835997295,35.38381395099714,None,0,,,reldom2_s008,001,2025-02-06_11h27.30.607,practice_test1_AC,2022.2.5,None,
1,First_Order,1.0,viswhere,stimulus/viswhere_stim/blank_white.png,stimulus/viswhere_stim/blank_white.png,stimulus/viswhere_stim/90-deg_dot-right_peru.png,stimulus/viswhere_stim/120-deg_dot-right_slateblue.png,stimulus/viswhere_stim/blank_white.png,stimulus/viswhere_stim/dot_box.png,stimulus/viswhere_stim/dot_yes.png,stimulus/viswhere_stim/dot_no.png,None,Dot,None,Dot,1,0.0,0,5.25,0,5.25,0,5.25,0,0.0,0.75,0,0.0,0,0.0,1,0.5,1,2.125,0,0.0,0,0.0,0,0.0,0,0.0,0,,,,,0,1,1,1,,,,,35.38381395099714,35.38381395099714,35.38381395099714,35.38381395099714,35.38381395099714,35.38381395099714,35.38381395099714,35.38381395099714,35.235904488333226,35.38381395099714,35.38381395099714,35.38381395099714,35.235904488333226,35.38381395099714,35.38381395099714,35.38381395099714,37.490917712995724,41.328489152001566,35.38381395099714,35.38381395099714,40.726253592998546,35.88480143000197,36.99521468600142,37.490917712995724,38.615573948998644,35.38381395099714,35.38381395099714,35.28590448833323,35.38381395099714,35.38381395099714,35.38381395099714,35.28590448833323,35.38381395099714,35.38381395099714,40.726253592998546,35.38381395099714,40.726253592998546,40.558910888001265,41.72424540099746,35.38381395099714,None,0,,,reldom2_s008,001,2025-02-06_11h27.30.607,practice_test1_AC,2022.2.5,None,
2,First_Order,1.0,viswhere,stimulus/viswhere_stim/blank_white.png,stimulus/viswhere_stim/blank_white.png,stimulus/viswhere_stim/30-deg_dot-right_turquoise.png,stimulus/viswhere_stim/60-deg_dot-right_seagreen.png,stimulus/viswhere_stim/blank_white.png,stimulus/viswhere_stim/line_box.png,stimulus/viswhere_stim/line_yes.png,stimulus/viswhere_stim/line_no.png,None,Line,None,Dot,2,0.0,0,5.25,0,5.25,0,5.25,0,0.0,0.75,0,0.0,0,0.0,1,0.5,1,2.125,0,0.0,0,0.0,0,0.0,0,0.0,0,,,,,0,2,2,2,,,,,41.72424540099746,41.72424540099746,41.72424540099746,41.72424540099746,41.72424540099746,41.72424540099746,41.72424540099746,41.72424540099746,41.578489152001566,41.72424540099746,41.72424540099746,41.72424540099746,41.578489152001566,41.72424540099746,41.72424540099746,41.72424540099746,43.853395785998146,47.632972086001246,41.72424540099746,41.72424540099746,47.050509836000856,42.22647305999999,43.347731527996075,43.853395785998146,44.993911215999105,41.72424540099746,41.72424540099746,41.6118224853349,41.72424540099746,41.72424540099746,41.72424540099746,41.6118224853349,41.72424540099746,41.72424540099746,47.050509836000856,41.72424540099746,47.050509836000856,46.985520565001934,48.123002357002406,41.72424540099746,2,1,0.7972329499971238,,reldom2_s008,001,2025-02-06_11h27.30.607,practice_test1_AC,2022.2.5,None,
3,First_Order,1.0,viswhere,stimulus/viswhere_stim/blank_white.png,stimulus/viswhere_stim/blank_white.png,stimulus/viswhere_stim/120-deg_dot-left_goldenrod.png,stimulus/viswhere_stim/90-deg_dot-left_seagreen.png,stimulus/viswhere_stim/blank_white.png,stimulus/viswhere_stim/line_box.png,stimulus/viswhere_stim/line_yes.png,stimulus/viswhere_stim/line_no.png,None,Line,None,Dot,2,0.0,0,5.25,0,5.25,0,5.25,0,0.0,0.75,0,0.0,0,0.0,1,0.5,1,2.125,0,0.0,0,0.0,0,0.0,0,0.0,0,,,,,0,3,3,3,,,,,48.123002357002406,48.123002357002406,48.123002357002406,48.123002357002406,48.123002357002406,48.123002357002406,48.123002357002406,48.123002357002406,47.99157453933343,48.123002357002406,48.123002357002406,48.123002357002406,47.99157453933343,48.123002357002406,48.123002357002406,48.123002357002406,50.213141936998,54.05898067000089,48.123002357002406,48.123002357002406,53.46997733099852,48.613718738997704,49.7198958739973,50.213141936998,51.31361115499749,48.123002357002406,48.123002357002406,48.02490787266676,48.123002357002406,48.123002357002406,48.123002357002406,48.02490787266676,48.123002357002406,48.123002357002406,53.46997733099852,48.123002357002406,53.46997733099852,53.405617718999565,54.55486949099577,48.123002357002406,2,1,2.8110401060039294,,reldom2_s008,001,2025-02-06_11h27.30.607,practice_test1_AC,2022.2.5,None,
4,First_Order,1.0,viswhere,stimulus/viswhere_stim/blank_white.png,stimulus/viswhere_stim/blank_white.png,stimulus/viswhere_stim/150-deg_dot-right_royalblue.png,stimulus/viswhere_stim/150-deg_dot-left_slateblue.png,stimulus/viswhere_stim/blank_white.png,stimulus/viswhere_stim/dot_box.png,stimulus/viswhere_stim/dot_yes.png,stimulus/viswhere_stim/dot_no.png,None,Dot,None,Line,2,0.0,0,5.25,0,5.25,0,5.25,0,0.0,0.75,0,0.0,0,0.0,1,0.5,1,2.125,0,0.0,0,0.0,0,0.0,0,0.0,0,,,,,0,4,4,4,,,,,54.55486949099577,54.55486949099577,54.55486949099577,54.55486949099577,54.55486949099577,54.55486949099577,54.55486949099577,54.55486949099577,54.42471297933274,54.55486949099577,54.55486949099577,54.55486949099577,54.42471297933274,54.55486949099577,54.55486949099577,54.55486949099577,56.6735665160013,60.51505826399807,54.55486949099577,54.55486949099577,59.85756272800063,55.07854514299834,56.17882885599829,56.6735665160013,57.904342986999836,54.55486949099577,54.55486949099577,54.45804631266607,54.55486949099577,54.55486949099577,54.55486949099577,54.45804631266607,54.55486949099577,54.55486949099577,59.85756272800063,54.55486949099577,59.85756272800063,59.79252893800003,61.141190034999454,54.55486949099577,1,0,0.9054565620026551,,reldom2_s008,001,2025-02-06_11h27.30.607,practice_test1_AC,2022.2.5,None,
0,0.0,None,fixation,stimulus/viswhere_stim/blank_white.png,stimulus/viswhere_stim/blank_white.png,stimulus/audwhere_stim/blank_white.png,stimulus/audwhere_stim/blank_white.png,stimulus/viswhere_stim/blank_white.png,stimulus/viswhere_stim/blank_white.png,stimulus/viswhere_stim/blank_white.png,stimulus/viswhere_stim/blank_white.png,0.0,0.0,0.0,0.0,0,0.0,0,0.0,0,0.0,0,0.0,0,0.0,0.0,0,0.0,0,0.0,0,0.0,0,0.0,0,0.0,0,0.0,0,0.0,0,0.0,5,,,,,0,5,5,5,,,,,61.141190034999454,61.141190034999454,61.141190034999454,61.141190034999454,61.141190034999454,61.141190034999454,61.141190034999454,61.141190034999454,60.813606173334605,61.141190034999454,61.141190034999454,61.141190034999454,60.813606173334605,61.141190034999454,61.141190034999454,61.141190034999454,61.141190034999454,61.141190034999454,61.141190034999454,61.141190034999454,61.141190034999454,61.141190034999454,61.141190034999454,61.141190034999454,61.141190034999454,61.141190034999454,61.141190034999454,60.963606173334604,61.141190034999454,61.141190034999454,61.141190034999454,60.963606173334604,61.141190034999454,61.141190034999454,61.141190034999454,61.141190034999454,61.141190034999454,66.6224768739994,66.6224768739994,66.6224768739994,None,0,,,reldom2_s008,001,2025-02-06_11h27.30.607,practice_test1_AC,2022.2.5,None,
5,Second_Order,1.0,viswhere,stimulus/viswhere_stim/150-deg_dot-right_slateblue.png,stimulus/viswhere_stim/150-deg_dot-left_turquoise.png,stimulus/viswhere_stim/90-deg_dot-left_mediumslateblue.png,stimulus/viswhere_stim/90-deg_dot-right_peru.png,stimulus/viswhere_stim/match_blank.png,stimulus/viswhere_stim/match_box.png,stimulus/viswhere_stim/match_yes.png,stimulus/viswhere_stim/match_no.png,1.0,Match,Line,Line,1,5.25,0,5.25,0,5.25,0,5.25,0,0.75,0.75,1,0.5,1,2.125,1,0.5,1,2.125,0,0.0,0,0.0,0,0.0,0,0.0,0,,,,,0,6,6,6,,,,,66.6224768739994,71.8838472339994,67.05033361399546,68.05165706499974,68.6819244579965,69.68734153999685,66.6224768739994,66.6224768739994,66.60516079633283,66.6224768739994,66.6224768739994,66.6224768739994,66.60516079633283,66.6224768739994,71.8838472339994,72.76338540299912,74.90137325199612,78.71066121399781,72.76338540299912,72.76338540299912,78.13186965599743,73.21030235700164,74.30551212299906,74.90137325199612,76.02175918199646,72.76338540299912,72.76338540299912,72.67069926899858,72.76338540299912,72.76338540299912,72.76338540299912,72.67069926899858,72.76338540299912,72.76338540299912,78.13186965599743,72.76338540299912,78.13186965599743,77.96670477400039,78.85480936800013,72.76338540299912,1,1,2.0784131590044126,,reldom2_s008,001,2025-02-06_11h27.30.607,practice_test1_AC,2022.2.5,None,
6,Second_Order,1.0,viswhere,stimulus/viswhere_stim/150-deg_dot-right_mediumslateblue.png,stimulus/viswhere_stim/30-deg_dot-right_salmon.png,stimulus/viswhere_stim/120-deg_dot-right_royalblue.png,stimulus/viswhere_stim/120-deg_dot-left_salmon.png,stimulus/viswhere_stim/match_blank.png,stimulus/viswhere_stim/match_box.png,stimulus/viswhere_stim/match_yes.png,stimulus/viswhere_stim/match_no.png,2.0,Match,Dot,Line,2,5.25,0,5.25,0,5.25,0,5.25,0,0.75,0.75,1,0.5,1,2.125,1,0.5,1,2.125,0,0.0,0,0.0,0,0.0,0,0.0,0,,,,,0,7,7,7,,,,,78.85480936800013,84.11159501600196,79.30237831400154,80.3138430350009,80.93831461999798,81.9426554160018,78.85480936800013,78.85480936800013,78.84399454733114,78.85480936800013,78.85480936800013,78.85480936800013,78.84399454733114,78.85480936800013,84.11159501600196,85.00617667299957,87.09398943999986,90.9470204409954,85.00617667299957,85.00617667299957,90.30939865799883,85.49035962299968,86.60102537099738,87.09398943999986,88.2305437440009,85.00617667299957,85.00617667299957,84.91359288699896,85.00617667299957,85.00617667299957,85.00617667299957,84.91359288699896,85.00617667299957,85.00617667299957,90.30939865799883,85.00617667299957,90.30939865799883,90.24497083899769,91.58393844399689,85.00617667299957,2,1,2.146223870004178,,reldom2_s008,001,2025-02-06_11h27.30.607,practice_test1_AC,2022.2.5,None,
0,0.0,None,fixation,stimulus/viswhere_stim/blank_white.png,stimulus/viswhere_stim/blank_white.png,stimulus/audwhere_stim/blank_white.png,stimulus/audwhere_stim/blank_white.png,stimulus/viswhere_stim/blank_white.png,stimulus/viswhere_stim/blank_white.png,stimulus/viswhere_stim/blank_white.png,stimulus/viswhere_stim/blank_white.png,0.0,0.0,0.0,0.0,0,0.0,0,0.0,0,0.0,0,0.0,0,0.0,0.0,0,0.0,0,0.0,0,0.0,0,0.0,0,0.0,0,0.0,0,0.0,0,0.0,7,,,,,0,8,8,8,,,,,91.58393844399689,91.58393844399689,91.58393844399689,91.58393844399689,91.58393844399689,91.58393844399689,91.58393844399689,91.58393844399689,91.26495185599924,91.58393844399689,91.58393844399689,91.58393844399689,91.26495185599924,91.58393844399689,91.58393844399689,91.58393844399689,91.58393844399689,91.58393844399689,91.58393844399689,91.58393844399689,91.58393844399689,91.58393844399689,91.58393844399689,91.58393844399689,91.58393844399689,91.58393844399689,91.58393844399689,91.41495185599925,91.58393844399689,91.58393844399689,91.58393844399689,91.41495185599925,91.58393844399689,91.58393844399689,91.58393844399689,91.58393844399689,91.58393844399689,96.81652905199735,96.81652905199735,99.36318883900094,None,0,,,reldom2_s008,001,2025-02-06_11h27.30.607,practice_test1_AC,2022.2.5,None,
7,First_Order,2.0,audwhere,stimulus/audwhere_stim/dummy.wav,stimulus/audwhere_stim/dummy.wav,stimulus/audwhere_stim/left_toward_270h.wav,stimulus/audwhere_stim/right_toward_270h.wav,stimulus/audwhere_stim/blank_white.png,stimulus/audwhere_stim/direction_box.png,stimulus/audwhere_stim/direction_yes.png,stimulus/audwhere_stim/direction_no.png,None,Direction,None,Direction,1,0.0,0,5.25,0,5.25,0,5.25,0,0.0,0.75,0,0.0,0,0.0,0,0.0,0,0.0,0,0.0,0,0.0,1,0.5,1,2.125,0,,,,,0,9,9,9,,,,,99.36318883900094,99.36318883900094,99.36318883900094,99.36318883900094,99.36318883900094,99.36318883900094,99.36318883900094,99.36318883900094,99.06430704666806,99.36318883900094,99.36318883900094,99.36318883900094,99.06430704666806,99.36318883900094,99.36318883900094,99.36318883900094,101.436434215997,105.23551836499973,99.36318883900094,99.36318883900094,104.79199052199692,99.36318883900094,99.36318883900094,99.36318883900094,99.36318883900094,99.89929348499572,101.2082006290002,99.73545815566855,,101.436434215997,102.78393137000239,101.22486729566687,102.41006391299743,99.36318883900094,104.79199052199692,99.36318883900094,104.79199052199692,104.64084621700022,106.11175107899908,99.36318883900094,None,0,,,reldom2_s008,001,2025-02-06_11h27.30.607,practice_test1_AC,2022.2.5,None,
8,First_Order,2.0,audwhere,stimulus/audwhere_stim/dummy.wav,stimulus/audwhere_stim/dummy.wav,stimulus/audwhere_stim/right_away_280h.wav,stimulus/audwhere_stim/right_toward_290h.wav,stimulus/audwhere_stim/blank_white.png,stimulus/audwhere_stim/side_box.png,stimulus/audwhere_stim/side_yes.png,stimulus/audwhere_stim/side_no.png,None,Side,None,Side,1,0.0,0,5.25,0,5.25,0,5.25,0,0.0,0.75,0,0.0,0,0.0,0,0.0,0,0.0,0,0.0,0,0.0,1,0.5,1,2.125,0,,,,,0,10,10,10,,,,,106.11175107899908,106.11175107899908,106.11175107899908,106.11175107899908,106.11175107899908,106.11175107899908,106.11175107899908,106.11175107899908,105.81580680033125,106.11175107899908,106.11175107899908,106.11175107899908,105.81580680033125,106.11175107899908,106.11175107899908,106.11175107899908,108.13185494099889,112.05367973599641,106.11175107899908,106.11175107899908,111.60552086900134,106.11175107899908,106.11175107899908,106.11175107899908,106.11175107899908,106.48118808699655,107.75887398199848,106.31725346666305,,108.13185494099889,109.42498289099603,107.96152621766329,,106.11175107899908,111.60552086900134,106.11175107899908,111.60552086900134,111.26556116199936,112.76061604700226,106.11175107899908,2,0,2.00866124600725,,reldom2_s008,001,2025-02-06_11h27.30.607,practice_test1_AC,2022.2.5,None,
9,First_Order,2.0,audwhere,stimulus/audwhere_stim/dummy.wav,stimulus/audwhere_stim/dummy.wav,stimulus/audwhere_stim/right_away_270h.wav,stimulus/audwhere_stim/right_toward_300h.wav,stimulus/audwhere_stim/blank_white.png,stimulus/audwhere_stim/side_box.png,stimulus/audwhere_stim/side_yes.png,stimulus/audwhere_stim/side_no.png,None,Side,None,Side,1,0.0,0,5.25,0,5.25,0,5.25,0,0.0,0.75,0,0.0,0,0.0,0,0.0,0,0.0,0,0.0,0,0.0,1,0.5,1,2.125,0,,,,,0,11,11,11,,,,,112.76061604700226,112.76061604700226,112.76061604700226,112.76061604700226,112.76061604700226,112.76061604700226,112.76061604700226,112.76061604700226,112.47034640266308,112.76061604700226,112.76061604700226,112.76061604700226,112.47034640266308,112.76061604700226,112.76061604700226,112.76061604700226,114.79623606999667,118.71559674899618,112.76061604700226,112.76061604700226,118.27282045500033,112.76061604700226,112.76061604700226,112.76061604700226,112.76061604700226,113.13257765999879,114.43115708800178,112.9590936796633,,114.79623606999667,116.10302800899808,114.62905056866681,,112.76061604700226,118.27282045500033,112.76061604700226,118.27282045500033,117.93787673299812,119.40516452399606,112.76061604700226,2,0,1.834818114999507,,reldom2_s008,001,2025-02-06_11h27.30.607,practice_test1_AC,2022.2.5,None,
10,First_Order,2.0,audwhere,stimulus/audwhere_stim/dummy.wav,stimulus/audwhere_stim/dummy.wav,stimulus/audwhere_stim/right_toward_300h.wav,stimulus/audwhere_stim/right_away_290h.wav,stimulus/audwhere_stim/blank_white.png,stimulus/audwhere_stim/direction_box.png,stimulus/audwhere_stim/direction_yes.png,stimulus/audwhere_stim/direction_no.png,None,Direction,None,Side,2,0.0,0,5.25,0,5.25,0,5.25,0,0.0,0.75,0,0.0,0,0.0,0,0.0,0,0.0,0,0.0,0,0.0,1,0.5,1,2.125,0,,,,,0,12,12,12,,,,,119.40516452399606,119.40516452399606,119.40516452399606,119.40516452399606,119.40516452399606,119.40516452399606,119.40516452399606,119.40516452399606,119.11559674899618,119.40516452399606,119.40516452399606,119.40516452399606,119.11559674899618,119.40516452399606,119.40516452399606,119.40516452399606,121.41610762100026,125.34059074099787,119.40516452399606,119.40516452399606,124.89505575099611,119.40516452399606,119.40516452399606,119.40516452399606,119.40516452399606,119.95098379199771,121.23489545800112,119.7858296626621,,121.41610762100026,122.70921248899685,121.25156212466779,,119.40516452399606,124.89505575099611,119.40516452399606,124.89505575099611,124.56695090099674,126.07966844600014,119.40516452399606,1,0,1.8499495400028536,,reldom2_s008,001,2025-02-06_11h27.30.607,practice_test1_AC,2022.2.5,None,
0,0.0,None,fixation,stimulus/viswhere_stim/blank_white.png,stimulus/viswhere_stim/blank_white.png,stimulus/audwhere_stim/blank_white.png,stimulus/audwhere_stim/blank_white.png,stimulus/viswhere_stim/blank_white.png,stimulus/viswhere_stim/blank_white.png,stimulus/viswhere_stim/blank_white.png,stimulus/viswhere_stim/blank_white.png,0.0,0.0,0.0,0.0,0,0.0,0,0.0,0,0.0,0,0.0,0,0.0,0.0,0,0.0,0,0.0,0,0.0,0,0.0,0,0.0,0,0.0,0,0.0,0,0.0,5,,,,,0,13,13,13,,,,,126.07966844600014,126.07966844600014,126.07966844600014,126.07966844600014,126.07966844600014,126.07966844600014,126.07966844600014,126.07966844600014,125.74059074099787,126.07966844600014,126.07966844600014,126.07966844600014,125.74059074099787,126.07966844600014,126.07966844600014,126.07966844600014,126.07966844600014,126.07966844600014,126.07966844600014,126.07966844600014,126.07966844600014,126.07966844600014,126.07966844600014,126.07966844600014,126.07966844600014,126.07966844600014,126.07966844600014,125.90725740766453,126.07966844600014,126.07966844600014,126.07966844600014,125.90725740766453,126.07966844600014,126.07966844600014,126.07966844600014,126.07966844600014,126.07966844600014,131.57662915199762,131.57662915199762,131.57662915199762,None,0,,,reldom2_s008,001,2025-02-06_11h27.30.607,practice_test1_AC,2022.2.5,None,
11,Second_Order,2.0,audwhere,stimulus/audwhere_stim/right_toward_270h.wav,stimulus/audwhere_stim/left_toward_290h.wav,stimulus/audwhere_stim/left_away_270h.wav,stimulus/audwhere_stim/left_toward_290h.wav,stimulus/viswhere_stim/match_blank.png,stimulus/viswhere_stim/match_box.png,stimulus/viswhere_stim/match_yes.png,stimulus/viswhere_stim/match_no.png,2.0,Match,Direction,Side,2,5.25,0,5.25,0,5.25,0,5.25,0,0.75,0.75,0,0.0,0,0.0,0,0.0,0,0.0,1,0.5,1,2.125,1,0.5,1,2.125,0,,,,,0,14,14,14,,,,,131.57662915199762,136.83008286100085,131.57662915199762,131.57662915199762,131.57662915199762,131.57662915199762,131.94494820499676,132.95069323699863,131.9443808806648,,133.56276341500052,134.56751142800204,133.55721176666364,,136.83008286100085,137.88175601099647,139.88141730799543,143.8514077430009,137.88175601099647,137.88175601099647,143.38718086000154,137.88175601099647,137.88175601099647,137.88175601099647,137.88175601099647,138.40099643999565,139.69991571600258,138.244069650664,,139.88141730799543,141.1836528319982,139.71658238266926,,137.88175601099647,143.38718086000154,137.88175601099647,143.38718086000154,143.04017945099622,144.24904797499767,137.88175601099647,2,1,3.197536140003649,,reldom2_s008,001,2025-02-06_11h27.30.607,practice_test1_AC,2022.2.5,None,
12,Second_Order,2.0,audwhere,stimulus/audwhere_stim/left_toward_270h.wav,stimulus/audwhere_stim/right_toward_300h.wav,stimulus/audwhere_stim/right_toward_300h.wav,stimulus/audwhere_stim/right_away_270h.wav,stimulus/viswhere_stim/match_blank.png,stimulus/viswhere_stim/match_box.png,stimulus/viswhere_stim/match_yes.png,stimulus/viswhere_stim/match_no.png,2.0,Match,Direction,Side,2,5.25,0,5.25,0,5.25,0,5.25,0,0.75,0.75,0,0.0,0,0.0,0,0.0,0,0.0,1,0.5,1,2.125,1,0.5,1,2.125,0,,,,,0,15,15,15,,,,,144.24904797499767,149.49898394599586,144.24904797499767,144.24904797499767,144.24904797499767,144.24904797499767,144.61015134199988,145.6209083290014,144.6095137056657,,146.2477830450007,147.24858928399772,146.2438385186654,,149.49898394599586,150.53640278599778,152.61866611000005,156.40434337999613,150.53640278599778,150.53640278599778,155.95088511300128,150.53640278599778,150.53640278599778,150.53640278599778,150.53640278599778,151.06615036499716,152.4145497540012,150.89910170866304,,152.61866611000005,153.9383912819976,152.43121642066788,,150.53640278599778,155.95088511300128,150.53640278599778,155.95088511300128,155.80225938100193,157.42180040999665,150.53640278599778,2,1,1.7820718200018746,,reldom2_s008,001,2025-02-06_11h27.30.607,practice_test1_AC,2022.2.5,None,
0,0.0,None,fixation,stimulus/viswhere_stim/blank_white.png,stimulus/viswhere_stim/blank_white.png,stimulus/audwhere_stim/blank_white.png,stimulus/audwhere_stim/blank_white.png,stimulus/viswhere_stim/blank_white.png,stimulus/viswhere_stim/blank_white.png,stimulus/viswhere_stim/blank_white.png,stimulus/viswhere_stim/blank_white.png,0.0,0.0,0.0,0.0,0,0.0,0,0.0,0,0.0,0,0.0,0,0.0,0.0,0,0.0,0,0.0,0,0.0,0,0.0,0,0.0,0,0.0,0,0.0,0,0.0,5,,,,,0,16,16,16,,,,,157.42180040999665,157.42180040999665,157.42180040999665,157.42180040999665,157.42180040999665,157.42180040999665,157.42180040999665,157.42180040999665,157.03825674033192,157.42180040999665,157.42180040999665,157.42180040999665,157.03825674033192,157.42180040999665,157.42180040999665,157.42180040999665,157.42180040999665,157.42180040999665,157.42180040999665,157.42180040999665,157.42180040999665,157.42180040999665,157.42180040999665,157.42180040999665,157.42180040999665,157.42180040999665,157.42180040999665,157.25492340699859,157.42180040999665,157.42180040999665,157.42180040999665,157.25492340699859,157.42180040999665,157.42180040999665,157.42180040999665,157.42180040999665,157.42180040999665,162.47942118399806,162.47942118399806,163.12305923100212,None,0,,,reldom2_s008,001,2025-02-06_11h27.30.607,practice_test1_AC,2022.2.5,None,
13,First_Order,3.0,viswhat,stimulus/viswhat_stim/blank_white.png,stimulus/viswhat_stim/blank_white.png,stimulus/viswhat_stim/land_animal-ostrich.png,stimulus/viswhat_stim/land_vehicle-trolley.png,stimulus/viswhat_stim/blank_white.png,stimulus/viswhat_stim/location_box.png,stimulus/viswhat_stim/location_yes.png,stimulus/viswhat_stim/location_no.png,None,Location,None,Location,1,0.0,0,5.25,0,5.25,0,5.25,0,0.0,0.75,0,0.0,0,0.0,1,0.5,1,2.125,0,0.0,0,0.0,0,0.0,0,0.0,0,,,,,0,17,17,17,,,,,163.12305923100212,163.12305923100212,163.12305923100212,163.12305923100212,163.12305923100212,163.12305923100212,163.12305923100212,163.12305923100212,162.94608785066472,163.12305923100212,163.12305923100212,163.12305923100212,162.94608785066472,163.12305923100212,163.12305923100212,163.12305923100212,165.24655303699546,169.00445756599947,163.12305923100212,163.12305923100212,168.43848633699963,163.59168923599645,164.7876629090024,165.24655303699546,166.4018949989986,163.12305923100212,163.12305923100212,163.01275451733142,163.12305923100212,163.12305923100212,163.12305923100212,163.01275451733142,163.12305923100212,163.12305923100212,168.43848633699963,163.12305923100212,168.43848633699963,168.3576022049965,169.87596199299878,163.12305923100212,None,0,,,reldom2_s008,001,2025-02-06_11h27.30.607,practice_test1_AC,2022.2.5,None,
14,First_Order,3.0,viswhat,stimulus/viswhat_stim/blank_white.png,stimulus/viswhat_stim/blank_white.png,stimulus/viswhat_stim/water_vehicle-cruiser.png,stimulus/viswhat_stim/water_animal-stingray.png,stimulus/viswhat_stim/blank_white.png,stimulus/viswhat_stim/location_box.png,stimulus/viswhat_stim/location_yes.png,stimulus/viswhat_stim/location_no.png,None,Location,None,Location,1,0.0,0,5.25,0,5.25,0,5.25,0,0.0,0.75,0,0.0,0,0.0,1,0.5,1,2.125,0,0.0,0,0.0,0,0.0,0,0.0,0,,,,,0,18,18,18,,,,,169.87596199299878,169.87596199299878,169.87596199299878,169.87596199299878,169.87596199299878,169.87596199299878,169.87596199299878,169.87596199299878,169.4305172736679,169.87596199299878,169.87596199299878,169.87596199299878,169.4305172736679,169.87596199299878,169.87596199299878,169.87596199299878,171.9777672919954,175.7580520010015,169.87596199299878,169.87596199299878,175.51810475399543,170.3926383309954,171.7337456719979,171.9777672919954,173.22374631500134,169.87596199299878,169.87596199299878,169.6305172736679,169.87596199299878,169.87596199299878,169.87596199299878,169.6305172736679,169.87596199299878,169.87596199299878,175.51810475399543,169.87596199299878,175.51810475399543,175.06563250900217,176.76601505299914,169.87596199299878,1,1,1.8876048940001056,,reldom2_s008,001,2025-02-06_11h27.30.607,practice_test1_AC,2022.2.5,None,
15,First_Order,3.0,viswhat,stimulus/viswhat_stim/blank_white.png,stimulus/viswhat_stim/blank_white.png,stimulus/viswhat_stim/water_vehicle-cargoboat.png,stimulus/viswhat_stim/water_animal-squid.png,stimulus/viswhat_stim/blank_white.png,stimulus/viswhat_stim/type_box.png,stimulus/viswhat_stim/type_yes.png,stimulus/viswhat_stim/type_no.png,None,Type,None,Location,2,0.0,0,5.25,0,5.25,0,5.25,0,0.0,0.75,0,0.0,0,0.0,1,0.5,1,2.125,0,0.0,0,0.0,0,0.0,0,0.0,0,,,,,0,19,19,19,,,,,176.76601505299914,176.76601505299914,176.76601505299914,176.76601505299914,176.76601505299914,176.76601505299914,176.76601505299914,176.76601505299914,176.51781690133117,176.76601505299914,176.76601505299914,176.76601505299914,176.51781690133117,176.76601505299914,176.76601505299914,176.76601505299914,178.7959488159977,182.6782226419964,176.76601505299914,176.76601505299914,182.12915179899574,177.2067517089963,178.37123602400243,178.7959488159977,179.9879182329969,176.76601505299914,176.76601505299914,176.61781690133117,176.76601505299914,176.76601505299914,176.76601505299914,176.61781690133117,176.76601505299914,176.76601505299914,182.12915179899574,176.76601505299914,182.12915179899574,182.00295947300037,183.49486628299928,176.76601505299914,None,0,,,reldom2_s008,001,2025-02-06_11h27.30.607,practice_test1_AC,2022.2.5,None,
16,First_Order,3.0,viswhat,stimulus/viswhat_stim/blank_white.png,stimulus/viswhat_stim/blank_white.png,stimulus/viswhat_stim/water_vehicle-ferryboat.png,stimulus/viswhat_stim/water_animal-seaturtle.png,stimulus/viswhat_stim/blank_white.png,stimulus/viswhat_stim/type_box.png,stimulus/viswhat_stim/type_yes.png,stimulus/viswhat_stim/type_no.png,None,Type,None,Location,2,0.0,0,5.25,0,5.25,0,5.25,0,0.0,0.75,0,0.0,0,0.0,1,0.5,1,2.125,0,0.0,0,0.0,0,0.0,0,0.0,0,,,,,0,20,20,20,,,,,183.49486628299928,183.49486628299928,183.49486628299928,183.49486628299928,183.49486628299928,183.49486628299928,183.49486628299928,183.49486628299928,183.20661398799567,183.49486628299928,183.49486628299928,183.49486628299928,183.20661398799567,183.49486628299928,183.49486628299928,183.49486628299928,185.49916157499683,189.33650543399563,183.49486628299928,183.49486628299928,188.87056526599918,184.01635658799933,185.1843260780006,185.49916157499683,186.7107335940018,183.49486628299928,183.49486628299928,183.32328065466234,183.49486628299928,183.49486628299928,183.49486628299928,183.32328065466234,183.49486628299928,183.49486628299928,188.87056526599918,183.49486628299928,188.87056526599918,188.6037565480001,190.00766093499988,183.49486628299928,2,1,1.9692129020040738,,reldom2_s008,001,2025-02-06_11h27.30.607,practice_test1_AC,2022.2.5,None,
0,0.0,None,fixation,stimulus/viswhat_stim/blank_white.png,stimulus/viswhat_stim/blank_white.png,stimulus/audwhat_stim/blank_white.png,stimulus/audwhat_stim/blank_white.png,stimulus/viswhat_stim/blank_white.png,stimulus/viswhat_stim/blank_white.png,stimulus/viswhere_stim/blank_white.png,stimulus/viswhere_stim/blank_white.png,0.0,0.0,0.0,0.0,0,0.0,0,0.0,0,0.0,0,0.0,0,0.0,0.0,0,0.0,0,0.0,0,0.0,0,0.0,0,0.0,0,0.0,0,0.0,0,0.0,5,,,,,0,21,21,21,,,,,190.00766093499988,190.00766093499988,190.00766093499988,190.00766093499988,190.00766093499988,190.00766093499988,190.00766093499988,190.00766093499988,189.68650543399565,190.00766093499988,190.00766093499988,190.00766093499988,189.68650543399565,190.00766093499988,190.00766093499988,190.00766093499988,190.00766093499988,190.00766093499988,190.00766093499988,190.00766093499988,190.00766093499988,190.00766093499988,190.00766093499988,190.00766093499988,190.00766093499988,190.00766093499988,190.00766093499988,189.83650543399563,190.00766093499988,190.00766093499988,190.00766093499988,189.83650543399563,190.00766093499988,190.00766093499988,190.00766093499988,190.00766093499988,190.00766093499988,195.4866150989983,195.4866150989983,195.4866150989983,None,0,,,reldom2_s008,001,2025-02-06_11h27.30.607,practice_test1_AC,2022.2.5,None,
17,Second_Order,3.0,viswhat,stimulus/viswhat_stim/land_vehicle-motorcycle.png,stimulus/viswhat_stim/land_animal-dog.png,stimulus/viswhat_stim/water_animal-seahorse.png,stimulus/viswhat_stim/water_vehicle-cargoboat.png,stimulus/viswhere_stim/match_blank.png,stimulus/viswhere_stim/match_box.png,stimulus/viswhere_stim/match_yes.png,stimulus/viswhere_stim/match_no.png,1.0,Match,Location,Location,1,5.25,0,5.25,0,5.25,0,5.25,0,0.75,0.75,1,0.5,1,2.125,1,0.5,1,2.125,0,0.0,0,0.0,0,0.0,0,0.0,0,,,,,0,22,22,22,,,,,195.4866150989983,200.7421852519983,195.88754122200044,196.901544180997,197.48968085199886,198.50665035600105,195.4866150989983,195.4866150989983,195.46976056033503,195.4866150989983,195.4866150989983,195.4866150989983,195.46976056033503,195.4866150989983,200.7421852519983,201.6868816999995,203.76054312199994,207.59952604399587,201.6868816999995,201.6868816999995,207.06544631400175,202.12810657500086,203.29475072400237,203.76054312199994,204.9597831919964,201.6868816999995,201.6868816999995,201.57171092732946,201.6868816999995,201.6868816999995,201.6868816999995,201.57171092732946,201.6868816999995,201.6868816999995,207.06544631400175,201.6868816999995,207.06544631400175,206.85614309299854,207.84637707100046,201.6868816999995,1,1,0.9861978080007248,,reldom2_s008,001,2025-02-06_11h27.30.607,practice_test1_AC,2022.2.5,None,
18,Second_Order,3.0,viswhat,stimulus/viswhat_stim/water_animal-squid.png,stimulus/viswhat_stim/land_animal-snake.png,stimulus/viswhat_stim/land_animal-fox.png,stimulus/viswhat_stim/land_vehicle-oldcar.png,stimulus/viswhere_stim/match_blank.png,stimulus/viswhere_stim/match_box.png,stimulus/viswhere_stim/match_yes.png,stimulus/viswhere_stim/match_no.png,2.0,Match,Type,Location,2,5.25,0,5.25,0,5.25,0,5.25,0,0.75,0.75,1,0.5,1,2.125,1,0.5,1,2.125,0,0.0,0,0.0,0,0.0,0,0.0,0,,,,,0,23,23,23,,,,,207.84637707100046,213.11030341799778,208.2478487920016,209.260823755998,209.87874113999715,210.88308172400139,207.84637707100046,207.84637707100046,207.81619271066253,207.84637707100046,207.84637707100046,207.84637707100046,207.81619271066253,207.84637707100046,213.11030341799778,214.14106961699872,216.2359330190011,220.07038130799629,214.14106961699872,214.14106961699872,219.51205535900226,214.63733336199948,215.91998332799994,216.2359330190011,217.537564131002,214.14106961699872,214.14106961699872,213.9853156073315,214.14106961699872,214.14106961699872,214.14106961699872,213.9853156073315,214.14106961699872,214.14106961699872,219.51205535900226,214.14106961699872,219.51205535900226,219.3861873709975,220.9942900410024,214.14106961699872,2,1,0.8987348300070153,,reldom2_s008,001,2025-02-06_11h27.30.607,practice_test1_AC,2022.2.5,None,
0,0.0,None,fixation,stimulus/viswhat_stim/blank_white.png,stimulus/viswhat_stim/blank_white.png,stimulus/audwhat_stim/blank_white.png,stimulus/audwhat_stim/blank_white.png,stimulus/viswhat_stim/blank_white.png,stimulus/viswhat_stim/blank_white.png,stimulus/viswhere_stim/blank_white.png,stimulus/viswhere_stim/blank_white.png,0.0,0.0,0.0,0.0,0,0.0,0,0.0,0,0.0,0,0.0,0,0.0,0.0,0,0.0,0,0.0,0,0.0,0,0.0,0,0.0,0,0.0,0,0.0,0,0.0,6,,,,,0,24,24,24,,,,,220.9942900410024,220.9942900410024,220.9942900410024,220.9942900410024,220.9942900410024,220.9942900410024,220.9942900410024,220.9942900410024,220.62936427066842,220.9942900410024,220.9942900410024,220.9942900410024,220.62936427066842,220.9942900410024,220.9942900410024,220.9942900410024,220.9942900410024,220.9942900410024,220.9942900410024,220.9942900410024,220.9942900410024,220.9942900410024,220.9942900410024,220.9942900410024,220.9942900410024,220.9942900410024,220.9942900410024,220.79603093733508,220.9942900410024,220.9942900410024,220.9942900410024,220.79603093733508,220.9942900410024,220.9942900410024,220.9942900410024,220.9942900410024,220.9942900410024,226.1731496239954,226.1731496239954,227.8805643759988,None,0,,,reldom2_s008,001,2025-02-06_11h27.30.607,practice_test1_AC,2022.2.5,None,
19,First_Order,4.0,audwhat,stimulus/audwhat_stim/dummy.wav,stimulus/audwhat_stim/dummy.wav,stimulus/audwhat_stim/percussion xylophone_high-pitch_D_loud.wav,stimulus/audwhat_stim/string viola_high-pitch_D_loud.wav,stimulus/audwhat_stim/blank_white.png,stimulus/audwhat_stim/pitch_box.png,stimulus/audwhat_stim/pitch_yes.png,stimulus/audwhat_stim/pitch_no.png,None,Pitch,None,Pitch,1,0.0,0,5.25,0,5.25,0,5.25,0,0.0,0.75,0,0.0,0,0.0,0,0.0,0,0.0,0,0.0,0,0.0,1,0.5,1,2.125,0,,,,,0,25,25,25,,,,,227.8805643759988,227.8805643759988,227.8805643759988,227.8805643759988,227.8805643759988,227.8805643759988,227.8805643759988,227.8805643759988,227.57334794332905,227.8805643759988,227.8805643759988,227.8805643759988,227.57334794332905,227.8805643759988,227.8805643759988,227.8805643759988,229.93223900999874,233.76675370799785,227.8805643759988,227.8805643759988,233.44265382800222,227.8805643759988,227.8805643759988,227.8805643759988,227.8805643759988,228.25594119299785,229.5675424489964,228.08246134666504,229.38502788900223,229.93223900999874,231.23368450099952,229.76628165666287,,227.8805643759988,233.44265382800222,227.8805643759988,233.44265382800222,233.09987159499724,234.62012263199722,227.8805643759988,1,1,3.0715210069975,,reldom2_s008,001,2025-02-06_11h27.30.607,practice_test1_AC,2022.2.5,None,
20,First_Order,4.0,audwhat,stimulus/audwhat_stim/dummy.wav,stimulus/audwhat_stim/dummy.wav,stimulus/audwhat_stim/string cello_high-pitch_Ftri_loud.wav,stimulus/audwhat_stim/string viola_low-pitch_F_loud.wav,stimulus/audwhat_stim/blank_white.png,stimulus/audwhat_stim/pitch_box.png,stimulus/audwhat_stim/pitch_yes.png,stimulus/audwhat_stim/pitch_no.png,None,Pitch,None,Category,2,0.0,0,5.25,0,5.25,0,5.25,0,0.0,0.75,0,0.0,0,0.0,0,0.0,0,0.0,0,0.0,0,0.0,1,0.5,1,2.125,0,,,,,0,26,26,26,,,,,234.62012263199722,234.62012263199722,234.62012263199722,234.62012263199722,234.62012263199722,234.62012263199722,234.62012263199722,234.62012263199722,234.31694623299555,234.62012263199722,234.62012263199722,234.62012263199722,234.31694623299555,234.62012263199722,234.62012263199722,234.62012263199722,236.68049317999976,240.4739167509979,234.62012263199722,234.62012263199722,240.1770631199979,234.62012263199722,234.62012263199722,234.62012263199722,234.62012263199722,234.99830005200056,236.31512585299788,234.82520239466638,,236.68049317999976,237.97402748400054,236.5148916436631,,234.62012263199722,240.1770631199979,234.62012263199722,240.1770631199979,239.8446773359974,241.31978924800205,234.62012263199722,1,0,1.685632117005298,,reldom2_s008,001,2025-02-06_11h27.30.607,practice_test1_AC,2022.2.5,None,
21,First_Order,4.0,audwhat,stimulus/audwhat_stim/dummy.wav,stimulus/audwhat_stim/dummy.wav,stimulus/audwhat_stim/string viola_high-pitch_D_loud.wav,stimulus/audwhat_stim/percussion xylophone_high-pitch_D_loud.wav,stimulus/audwhat_stim/blank_white.png,stimulus/audwhat_stim/pitch_box.png,stimulus/audwhat_stim/pitch_yes.png,stimulus/audwhat_stim/pitch_no.png,None,Pitch,None,Pitch,1,0.0,0,5.25,0,5.25,0,5.25,0,0.0,0.75,0,0.0,0,0.0,0,0.0,0,0.0,0,0.0,0,0.0,1,0.5,1,2.125,0,,,,,0,27,27,27,,,,,241.31978924800205,241.31978924800205,241.31978924800205,241.31978924800205,241.31978924800205,241.31978924800205,241.31978924800205,241.31978924800205,241.0203700440019,241.31978924800205,241.31978924800205,241.31978924800205,241.0203700440019,241.31978924800205,241.31978924800205,241.31978924800205,243.38254657999641,247.2379538469977,241.31978924800205,241.31978924800205,246.76917361199594,241.31978924800205,241.31978924800205,241.31978924800205,241.31978924800205,241.69339206499717,243.01043175799714,241.52856054266547,,243.38254657999641,244.67693862700253,243.21556597366387,244.49414272500144,241.31978924800205,246.76917361199594,241.31978924800205,246.76917361199594,246.60887884000113,248.12338012099644,241.31978924800205,2,0,1.8263197080013924,,reldom2_s008,001,2025-02-06_11h27.30.607,practice_test1_AC,2022.2.5,None,
22,First_Order,4.0,audwhat,stimulus/audwhat_stim/dummy.wav,stimulus/audwhat_stim/dummy.wav,stimulus/audwhat_stim/string cello_low-pitch_F_loud.wav,stimulus/audwhat_stim/string viola_high-pitch_Ftri_loud.wav,stimulus/audwhat_stim/blank_white.png,stimulus/audwhat_stim/category_box.png,stimulus/audwhat_stim/category_yes.png,stimulus/audwhat_stim/category_no.png,None,Category,None,Category,1,0.0,0,5.25,0,5.25,0,5.25,0,0.0,0.75,0,0.0,0,0.0,0,0.0,0,0.0,0,0.0,0,0.0,1,0.5,1,2.125,0,,,,,0,28,28,28,,,,,248.12338012099644,248.12338012099644,248.12338012099644,248.12338012099644,248.12338012099644,248.12338012099644,248.12338012099644,248.12338012099644,247.82583548132874,248.12338012099644,248.12338012099644,248.12338012099644,247.82583548132874,248.12338012099644,248.12338012099644,248.12338012099644,250.19925800200144,253.97973772200203,248.12338012099644,248.12338012099644,253.68188327700045,248.12338012099644,248.12338012099644,248.12338012099644,248.12338012099644,248.49502288900112,249.8310294059993,248.32913639866845,,250.19925800200144,251.4896818319976,250.03626140366785,,248.12338012099644,253.68188327700045,248.12338012099644,253.68188327700045,253.34328862099937,254.85463010700187,248.12338012099644,1,1,1.8671077570033958,,reldom2_s008,001,2025-02-06_11h27.30.607,practice_test1_AC,2022.2.5,None,
0,0.0,None,fixation,stimulus/viswhat_stim/blank_white.png,stimulus/viswhat_stim/blank_white.png,stimulus/audwhat_stim/blank_white.png,stimulus/audwhat_stim/blank_white.png,stimulus/viswhat_stim/blank_white.png,stimulus/viswhat_stim/blank_white.png,stimulus/viswhere_stim/blank_white.png,stimulus/viswhere_stim/blank_white.png,0.0,0.0,0.0,0.0,0,0.0,0,0.0,0,0.0,0,0.0,0,0.0,0.0,0,0.0,0,0.0,0,0.0,0,0.0,0,0.0,0,0.0,0,0.0,0,0.0,5,,,,,0,29,29,29,,,,,254.85463010700187,254.85463010700187,254.85463010700187,254.85463010700187,254.85463010700187,254.85463010700187,254.85463010700187,254.85463010700187,254.53254027000222,254.85463010700187,254.85463010700187,254.85463010700187,254.53254027000222,254.85463010700187,254.85463010700187,254.85463010700187,254.85463010700187,254.85463010700187,254.85463010700187,254.85463010700187,254.85463010700187,254.85463010700187,254.85463010700187,254.85463010700187,254.85463010700187,254.85463010700187,254.85463010700187,254.68254027000222,254.85463010700187,254.85463010700187,254.85463010700187,254.68254027000222,254.85463010700187,254.85463010700187,254.85463010700187,254.85463010700187,254.85463010700187,260.3958912070011,260.3958912070011,260.3958912070011,None,0,,,reldom2_s008,001,2025-02-06_11h27.30.607,practice_test1_AC,2022.2.5,None,
23,Second_Order,4.0,audwhat,stimulus/audwhat_stim/percussion mallet_high-pitch_D_loud.wav,stimulus/audwhat_stim/string cello_high-pitch_D_loud.wav,stimulus/audwhat_stim/percussion mallet_low-pitch_F_loud.wav,stimulus/audwhat_stim/percussion xylophone_high-pitch_Ftri_loud.wav,stimulus/viswhere_stim/match_blank.png,stimulus/viswhere_stim/match_box.png,stimulus/viswhere_stim/match_yes.png,stimulus/viswhere_stim/match_no.png,2.0,Match,Pitch,Category,2,5.25,0,5.25,0,5.25,0,5.25,0,0.75,0.75,0,0.0,0,0.0,0,0.0,0,0.0,1,0.5,1,2.125,1,0.5,1,2.125,0,,,,,0,30,30,30,,,,,260.3958912070011,265.6472007639968,260.3958912070011,260.3958912070011,260.3958912070011,260.3958912070011,260.7523843279996,261.7631209789979,260.7513744236678,,262.3662379419984,263.36608459399577,262.36617878266793,,265.6472007639968,266.69944748799753,268.70812484199996,272.66838953200204,266.69944748799753,266.69944748799753,272.2211646299984,266.69944748799753,266.69944748799753,266.69944748799753,266.69944748799753,267.0441926010026,268.33653536199563,266.8914534176622,,268.70812484199996,270.0332258119961,268.5335442926628,269.84472789999563,266.69944748799753,272.2211646299984,266.69944748799753,272.2211646299984,271.88830356900144,273.0690232859997,266.69944748799753,2,1,2.2654116800040356,,reldom2_s008,001,2025-02-06_11h27.30.607,practice_test1_AC,2022.2.5,None,
24,Second_Order,4.0,audwhat,stimulus/audwhat_stim/percussion mallet_low-pitch_Ftri_loud.wav,stimulus/audwhat_stim/percussion xylophone_high-pitch_F_loud.wav,stimulus/audwhat_stim/string cello_low-pitch_F_loud.wav,stimulus/audwhat_stim/string cello_high-pitch_Ftri_loud.wav,stimulus/viswhere_stim/match_blank.png,stimulus/viswhere_stim/match_box.png,stimulus/viswhere_stim/match_yes.png,stimulus/viswhere_stim/match_no.png,1.0,Match,Category,Category,1,5.25,0,5.25,0,5.25,0,5.25,0,0.75,0.75,0,0.0,0,0.0,0,0.0,0,0.0,1,0.5,1,2.125,1,0.5,1,2.125,0,,,,,0,31,31,31,,,,,273.0690232859997,278.33448581599805,273.0690232859997,273.0690232859997,273.0690232859997,273.0690232859997,273.43290035099926,274.43242288799956,273.42807955966805,,275.0525611970006,276.0557005390001,275.0491422176676,276.0557005390001,278.33448581599805,279.3715892140026,281.408572772998,285.2180485139979,279.3715892140026,279.3715892140026,284.9196645609991,279.3715892140026,279.3715892140026,279.3715892140026,279.3715892140026,279.89425628299796,281.2164889350024,279.7280919626685,,281.408572772998,282.7329395589986,281.23315560166907,,279.3715892140026,284.9196645609991,279.3715892140026,284.9196645609991,284.58946893399843,286.085252320001,279.3715892140026,1,1,1.3160820600023726,,reldom2_s008,001,2025-02-06_11h27.30.607,practice_test1_AC,2022.2.5,None,
0,0.0,None,fixation,stimulus/viswhat_stim/blank_white.png,stimulus/viswhat_stim/blank_white.png,stimulus/audwhat_stim/blank_white.png,stimulus/audwhat_stim/blank_white.png,stimulus/viswhat_stim/blank_white.png,stimulus/viswhat_stim/blank_white.png,stimulus/viswhere_stim/blank_white.png,stimulus/viswhere_stim/blank_white.png,0.0,0.0,0.0,0.0,0,0.0,0,0.0,0,0.0,0,0.0,0,0.0,0.0,0,0.0,0,0.0,0,0.0,0,0.0,0,0.0,0,0.0,0,0.0,0,0.0,5,,,,,0,32,32,32,,,,,286.085252320001,286.085252320001,286.085252320001,286.085252320001,286.085252320001,286.085252320001,286.085252320001,286.085252320001,285.7663339630002,286.085252320001,286.085252320001,286.085252320001,285.7663339630002,286.085252320001,286.085252320001,286.085252320001,286.085252320001,286.085252320001,286.085252320001,286.085252320001,286.085252320001,286.085252320001,286.085252320001,286.085252320001,286.085252320001,286.085252320001,286.085252320001,285.9163339630002,286.085252320001,286.085252320001,286.085252320001,285.9163339630002,286.085252320001,286.085252320001,286.085252320001,286.085252320001,286.085252320001,291.74446069999976,291.74446069999976,291.74446069999976,None,0,,,reldom2_s008,001,2025-02-06_11h27.30.607,practice_test1_AC,2022.2.5,None,
,,,,,,,,,,,,,,,,,,,,,,,,,,,,,,,,,,,,,,,,,,,,,,,,,,,,,,,,,,,,,,,,,,,,,,,,,,,,,,,,,,,,,,,,,,,,,,,,,,,291.74446069999976,,,,,,,
