Trial,Order,Block,Type,Stimuli_File1,Stimuli_File2,Stimuli_File3,Stimuli_File4,Cue_File1,Cue_File2,Response_File_Yes,Response_File_No,Match,Cue_Dimension,Pair1_Dimension,Pair2_Dimension,Key,Cue1_Duration,Cue1_Onset,Cue2_Duration,Cue2_Onset,ResponseYes_Duration,ResponseYes_Onset,ResponseNo_Duration,ResponseNo_Onset,ITI_Within,ITI_Between,Image1_Duration,Image1_Onset,Image2_Duration,Image2_Onset,Image3_Duration,Image3_Onset,Image4_Duration,Image4_Onset,Sound1_Duration,Sound1_Onset,Sound2_Duration,Sound2_Onset,Sound3_Duration,Sound3_Onset,Sound4_Duration,Sound4_Onset,Fixation_Duration,trials_2.thisRepN,trials_2.thisTrialN,trials_2.thisN,trials_2.thisIndex,trials.thisRepN,trials.thisTrialN,trials.thisN,trials.thisIndex,text_start.started,key_resp_start.started,key_resp_start.keys,key_resp_start.rt,cue_file1.started,cue_file1.stopped,image_1.started,image_1.stopped,image_2.started,image_2.stopped,sound_icon1.started,sound_icon1.stopped,sound_1.started,sound_1.stopped,sound_icon2.started,sound_icon2.stopped,sound_2.started,sound_2.stopped,image_blank_1.started,image_blank_1.stopped,key_press.started,key_press.stopped,fixation_text.started,cue_file2.started,cue_file2.stopped,image_3.started,image_3.stopped,image_4.started,image_4.stopped,sound_icon3.started,sound_icon3.stopped,sound_3.started,sound_3.stopped,sound_icon4.started,sound_icon4.stopped,sound_4.started,sound_4.stopped,response_yes.started,response_yes.stopped,response_no.started,response_no.stopped,iti_blank.started,iti_blank.stopped,fixation_text.stopped,key_press.keys,key_press.corr,key_press.rt,text_score.started,participant,session,date,expName,psychopyVersion,frameRate,
,,,,,,,,,,,,,,,,,,,,,,,,,,,,,,,,,,,,,,,,,,,,,,,,,,,,17.88282235999941,17.88282235999941,2,1.0114721970021492,,,,,,,,,,,,,,,,,,,,,,,,,,,,,,,,,,,,,,,,,,,,,reldom2_s008,001,2025-02-06_11h46.28.412,practice_test2_AC,2022.2.5,87.96148166879348,
,,,,,,,,,,,,,,,,,,,,,,,,,,,,,,,,,,,,,,,,,,,,0,0,0,0,,,,,,,,,,,,,,,,,,,,,,,,,,,,,,,,,,,,,,,,,,,,,,,,,,,,,reldom2_s008,001,2025-02-06_11h46.28.412,practice_test2_AC,2022.2.5,87.96148166879348,
,,,,,,,,,,,,,,,,,,,,,,,,,,,,,,,,,,,,,,,,,,,,1,0,1,0,,,,,,,,,,,,,,,,,,,,,,,,,,,,,,,,,,,,,,,,,,,,,,,,,,,,,reldom2_s008,001,2025-02-06_11h46.28.412,practice_test2_AC,2022.2.5,87.96148166879348,
,,,,,,,,,,,,,,,,,,,,,,,,,,,,,,,,,,,,,,,,,,,,2,0,2,0,,,,,,,,,,,,,,,,,,,,,,,,,,,,,,,,,,,,,,,,,,,,,,,,,,,,,reldom2_s008,001,2025-02-06_11h46.28.412,practice_test2_AC,2022.2.5,87.96148166879348,
,,,,,,,,,,,,,,,,,,,,,,,,,,,,,,,,,,,,,,,,,,,,3,0,3,0,,,,,,,,,,,,,,,,,,,,,,,,,,,,,,,,,,,,,,,,,,,,,,,,,,,,,reldom2_s008,001,2025-02-06_11h46.28.412,practice_test2_AC,2022.2.5,87.96148166879348,
0,0.0,None,fixation,stimulus/viswhat_stim/blank_white.png,stimulus/viswhat_stim/blank_white.png,stimulus/audwhat_stim/blank_white.png,stimulus/audwhat_stim/blank_white.png,stimulus/viswhat_stim/blank_white.png,stimulus/viswhat_stim/blank_white.png,stimulus/viswhat_stim/blank_white.png,stimulus/viswhat_stim/blank_white.png,0.0,0.0,0.0,0.0,0,0.0,0,0.0,0,0.0,0,0.0,0,0.0,0.0,0,0.0,0,0.0,0,0.0,0,0.0,0,0.0,0,0.0,0,0.0,0,0.0,6,,,,,0,0,0,0,,,,,19.44755338599498,19.44755338599498,19.44755338599498,19.44755338599498,19.44755338599498,19.44755338599498,19.44755338599498,19.44755338599498,19.146855109996977,19.44755338599498,19.44755338599498,19.44755338599498,19.146855109996977,19.44755338599498,19.44755338599498,19.44755338599498,19.44755338599498,19.44755338599498,19.44755338599498,19.44755338599498,19.44755338599498,19.44755338599498,19.44755338599498,19.44755338599498,19.44755338599498,19.44755338599498,19.44755338599498,19.28018844333031,19.44755338599498,19.44755338599498,19.44755338599498,19.28018844333031,19.44755338599498,19.44755338599498,19.44755338599498,19.44755338599498,19.44755338599498,24.585444659998757,24.585444659998757,26.275906998998835,None,0,,,reldom2_s008,001,2025-02-06_11h46.28.412,practice_test2_AC,2022.2.5,87.96148166879348,
1,First_Order,1.0,viswhat,stimulus/viswhat_stim/blank_white.png,stimulus/viswhat_stim/blank_white.png,stimulus/viswhat_stim/land_vehicle-vespa.png,stimulus/viswhat_stim/water_vehicle-yacht.png,stimulus/viswhat_stim/blank_white.png,stimulus/viswhat_stim/type_box.png,stimulus/viswhat_stim/type_yes.png,stimulus/viswhat_stim/type_no.png,None,Type,None,Type,1,0.0,0,5.25,0,5.25,0,5.25,0,0.0,0.75,0,0.0,0,0.0,1,0.5,1,2.125,0,0.0,0,0.0,0,0.0,0,0.0,0,,,,,0,1,1,1,,,,,26.275906998998835,26.275906998998835,26.275906998998835,26.275906998998835,26.275906998998835,26.275906998998835,26.275906998998835,26.275906998998835,25.987688366330016,26.275906998998835,26.275906998998835,26.275906998998835,25.987688366330016,26.275906998998835,26.275906998998835,26.275906998998835,28.25448976000189,32.10635189899767,26.275906998998835,26.275906998998835,31.716322364001826,26.76734052199754,27.927104419999523,28.25448976000189,29.41338736999751,26.275906998998835,26.275906998998835,26.104355032996683,26.275906998998835,26.275906998998835,26.275906998998835,26.104355032996683,26.275906998998835,26.275906998998835,31.716322364001826,26.275906998998835,31.716322364001826,31.423223186997348,32.87599733300158,26.275906998998835,1,1,2.186981287995877,,reldom2_s008,001,2025-02-06_11h46.28.412,practice_test2_AC,2022.2.5,87.96148166879348,
2,First_Order,1.0,viswhat,stimulus/viswhat_stim/blank_white.png,stimulus/viswhat_stim/blank_white.png,stimulus/viswhat_stim/water_vehicle-cargoboat.png,stimulus/viswhat_stim/land_vehicle-oldcar.png,stimulus/viswhat_stim/blank_white.png,stimulus/viswhat_stim/location_box.png,stimulus/viswhat_stim/location_yes.png,stimulus/viswhat_stim/location_no.png,None,Location,None,Type,2,0.0,0,5.25,0,5.25,0,5.25,0,0.0,0.75,0,0.0,0,0.0,1,0.5,1,2.125,0,0.0,0,0.0,0,0.0,0,0.0,0,,,,,0,2,2,2,,,,,32.87599733300158,32.87599733300158,32.87599733300158,32.87599733300158,32.87599733300158,32.87599733300158,32.87599733300158,32.87599733300158,32.60006990166391,32.87599733300158,32.87599733300158,32.87599733300158,32.60006990166391,32.87599733300158,32.87599733300158,32.87599733300158,34.924310071000946,38.72742583799845,32.87599733300158,32.87599733300158,38.32186378000188,33.38182799099741,34.582755932999135,34.924310071000946,36.118672543001594,32.87599733300158,32.87599733300158,32.716736568330575,32.87599733300158,32.87599733300158,32.87599733300158,32.716736568330575,32.87599733300158,32.87599733300158,38.32186378000188,32.87599733300158,38.32186378000188,38.003160670996294,39.663394966999476,32.87599733300158,2,1,1.1625395410010242,,reldom2_s008,001,2025-02-06_11h46.28.412,practice_test2_AC,2022.2.5,87.96148166879348,
3,First_Order,1.0,viswhat,stimulus/viswhat_stim/blank_white.png,stimulus/viswhat_stim/blank_white.png,stimulus/viswhat_stim/land_vehicle-vespa.png,stimulus/viswhat_stim/water_vehicle-sailboat.png,stimulus/viswhat_stim/blank_white.png,stimulus/viswhat_stim/type_box.png,stimulus/viswhat_stim/type_yes.png,stimulus/viswhat_stim/type_no.png,None,Type,None,Type,1,0.0,0,5.25,0,5.25,0,5.25,0,0.0,0.75,0,0.0,0,0.0,1,0.5,1,2.125,0,0.0,0,0.0,0,0.0,0,0.0,0,,,,,0,3,3,3,,,,,39.663394966999476,39.663394966999476,39.663394966999476,39.663394966999476,39.663394966999476,39.663394966999476,39.663394966999476,39.663394966999476,39.227733611665705,39.663394966999476,39.663394966999476,39.663394966999476,39.227733611665705,39.663394966999476,39.663394966999476,39.663394966999476,41.61052052699961,45.619374756999605,39.663394966999476,39.663394966999476,45.198123866997776,40.147716882995155,41.61052052699961,41.61052052699961,43.06106106899824,39.663394966999476,39.663394966999476,39.411066944999035,39.663394966999476,39.663394966999476,39.663394966999476,39.411066944999035,39.663394966999476,39.663394966999476,45.198123866997776,39.663394966999476,45.198123866997776,44.74553067499801,47.254862123998464,39.663394966999476,2,0,2.809190510000917,,reldom2_s008,001,2025-02-06_11h46.28.412,practice_test2_AC,2022.2.5,87.96148166879348,
4,First_Order,1.0,viswhat,stimulus/viswhat_stim/blank_white.png,stimulus/viswhat_stim/blank_white.png,stimulus/viswhat_stim/land_animal-elephant.png,stimulus/viswhat_stim/water_animal-lobster.png,stimulus/viswhat_stim/blank_white.png,stimulus/viswhat_stim/location_box.png,stimulus/viswhat_stim/location_yes.png,stimulus/viswhat_stim/location_no.png,None,Location,None,Type,2,0.0,0,5.25,0,5.25,0,5.25,0,0.0,0.75,0,0.0,0,0.0,1,0.5,1,2.125,0,0.0,0,0.0,0,0.0,0,0.0,0,,,,,0,4,4,4,,,,,47.254862123998464,47.254862123998464,47.254862123998464,47.254862123998464,47.254862123998464,47.254862123998464,47.254862123998464,47.254862123998464,46.13604142366627,47.254862123998464,47.254862123998464,47.254862123998464,46.13604142366627,47.254862123998464,47.254862123998464,47.254862123998464,49.05314010499569,53.15481166999962,47.254862123998464,47.254862123998464,53.15481166999962,47.254862123998464,49.05314010499569,49.05314010499569,50.831701486000384,47.254862123998464,47.254862123998464,46.652708090332936,47.254862123998464,47.254862123998464,47.254862123998464,46.652708090332936,47.254862123998464,47.254862123998464,53.15481166999962,47.254862123998464,53.15481166999962,52.02481730799627,54.69834435699886,47.254862123998464,2,1,2.4228120730040246,,reldom2_s008,001,2025-02-06_11h46.28.412,practice_test2_AC,2022.2.5,87.96148166879348,
0,0.0,None,fixation,stimulus/viswhat_stim/blank_white.png,stimulus/viswhat_stim/blank_white.png,stimulus/audwhat_stim/blank_white.png,stimulus/audwhat_stim/blank_white.png,stimulus/viswhat_stim/blank_white.png,stimulus/viswhat_stim/blank_white.png,stimulus/viswhat_stim/blank_white.png,stimulus/viswhat_stim/blank_white.png,0.0,0.0,0.0,0.0,0,0.0,0,0.0,0,0.0,0,0.0,0,0.0,0.0,0,0.0,0,0.0,0,0.0,0,0.0,0,0.0,0,0.0,0,0.0,0,0.0,6,,,,,0,5,5,5,,,,,54.69834435699886,54.69834435699886,54.69834435699886,54.69834435699886,54.69834435699886,54.69834435699886,54.69834435699886,54.69834435699886,54.33814500333295,54.69834435699886,54.69834435699886,54.69834435699886,54.33814500333295,54.69834435699886,54.69834435699886,54.69834435699886,54.69834435699886,54.69834435699886,54.69834435699886,54.69834435699886,54.69834435699886,54.69834435699886,54.69834435699886,54.69834435699886,54.69834435699886,54.69834435699886,54.69834435699886,54.521478336666284,54.69834435699886,54.69834435699886,54.69834435699886,54.521478336666284,54.69834435699886,54.69834435699886,54.69834435699886,54.69834435699886,54.69834435699886,59.769520100999216,59.769520100999216,61.36422320800193,None,0,,,reldom2_s008,001,2025-02-06_11h46.28.412,practice_test2_AC,2022.2.5,87.96148166879348,
5,Second_Order,1.0,viswhat,stimulus/viswhat_stim/land_animal-giraffe.png,stimulus/viswhat_stim/water_animal-stingray.png,stimulus/viswhat_stim/land_vehicle-trolley.png,stimulus/viswhat_stim/land_animal-elephant.png,stimulus/viswhat_stim/match_blank.png,stimulus/viswhat_stim/match_box.png,stimulus/viswhat_stim/match_yes.png,stimulus/viswhat_stim/match_no.png,2.0,Match,Type,Location,2,5.25,0,5.25,0,5.25,0,5.25,0,0.75,0.75,1,0.5,1,2.125,1,0.5,1,2.125,0,0.0,0,0.0,0,0.0,0,0.0,0,,,,,0,6,6,6,,,,,61.36422320800193,66.61561708799854,61.68816290099494,62.691465443997004,63.310064550998504,64.32500275799975,61.36422320800193,61.36422320800193,61.32061582733198,61.36422320800193,61.36422320800193,61.36422320800193,61.32061582733198,61.36422320800193,66.61561708799854,67.8415891869954,69.69324412199785,73.64102558299783,67.8415891869954,67.8415891869954,73.45253499200044,68.34396160199685,69.69324412199785,69.69324412199785,71.06625304599584,67.8415891869954,67.8415891869954,67.61035663099756,67.8415891869954,67.8415891869954,67.8415891869954,67.61035663099756,67.8415891869954,67.8415891869954,73.45253499200044,67.8415891869954,73.45253499200044,73.04483795199485,74.42354257999978,67.8415891869954,2,1,0.9870913710037712,,reldom2_s008,001,2025-02-06_11h46.28.412,practice_test2_AC,2022.2.5,87.96148166879348,
6,Second_Order,1.0,viswhat,stimulus/viswhat_stim/land_vehicle-scooter.png,stimulus/viswhat_stim/land_animal-moose.png,stimulus/viswhat_stim/water_vehicle-powercruiser.png,stimulus/viswhat_stim/land_vehicle-truck.png,stimulus/viswhat_stim/match_blank.png,stimulus/viswhat_stim/match_box.png,stimulus/viswhat_stim/match_yes.png,stimulus/viswhat_stim/match_no.png,2.0,Match,Location,Type,2,5.25,0,5.25,0,5.25,0,5.25,0,0.75,0.75,1,0.5,1,2.125,1,0.5,1,2.125,0,0.0,0,0.0,0,0.0,0,0.0,0,,,,,0,7,7,7,,,,,74.42354257999978,79.68985245999647,74.71927426599723,75.72837807799806,76.33052895299625,77.33872199300095,74.42354257999978,74.42354257999978,74.39354874466613,74.42354257999978,74.42354257999978,74.42354257999978,74.39354874466613,74.42354257999978,79.68985245999647,80.61277982300089,82.75002599800064,86.50619883299805,80.61277982300089,80.61277982300089,86.02018532800139,81.05354304600041,82.169888643999,82.75002599800064,83.94125203799922,80.61277982300089,80.61277982300089,80.5065014473342,80.61277982300089,80.61277982300089,80.61277982300089,80.5065014473342,80.61277982300089,80.61277982300089,86.02018532800139,80.61277982300089,86.02018532800139,85.82459485899744,87.1982284639962,80.61277982300089,2,1,1.2358077299941215,,reldom2_s008,001,2025-02-06_11h46.28.412,practice_test2_AC,2022.2.5,87.96148166879348,
0,0.0,None,fixation,stimulus/viswhat_stim/blank_white.png,stimulus/viswhat_stim/blank_white.png,stimulus/audwhat_stim/blank_white.png,stimulus/audwhat_stim/blank_white.png,stimulus/viswhat_stim/blank_white.png,stimulus/viswhat_stim/blank_white.png,stimulus/viswhat_stim/blank_white.png,stimulus/viswhat_stim/blank_white.png,0.0,0.0,0.0,0.0,0,0.0,0,0.0,0,0.0,0,0.0,0,0.0,0.0,0,0.0,0,0.0,0,0.0,0,0.0,0,0.0,0,0.0,0,0.0,0,0.0,7,,,,,0,8,8,8,,,,,87.1982284639962,87.1982284639962,87.1982284639962,87.1982284639962,87.1982284639962,87.1982284639962,87.1982284639962,87.1982284639962,86.85136147866821,87.1982284639962,87.1982284639962,87.1982284639962,86.85136147866821,87.1982284639962,87.1982284639962,87.1982284639962,87.1982284639962,87.1982284639962,87.1982284639962,87.1982284639962,87.1982284639962,87.1982284639962,87.1982284639962,87.1982284639962,87.1982284639962,87.1982284639962,87.1982284639962,87.01802814533488,87.1982284639962,87.1982284639962,87.1982284639962,87.01802814533488,87.1982284639962,87.1982284639962,87.1982284639962,87.1982284639962,87.1982284639962,92.38743679400068,92.38743679400068,95.14164392800012,None,0,,,reldom2_s008,001,2025-02-06_11h46.28.412,practice_test2_AC,2022.2.5,87.96148166879348,
7,First_Order,2.0,audwhat,stimulus/audwhat_stim/dummy.wav,stimulus/audwhat_stim/dummy.wav,stimulus/audwhat_stim/percussion xylophone_high-pitch_Ftri_loud.wav,stimulus/audwhat_stim/percussion mallet_low-pitch_F_loud.wav,stimulus/audwhat_stim/blank_white.png,stimulus/audwhat_stim/category_box.png,stimulus/audwhat_stim/category_yes.png,stimulus/audwhat_stim/category_no.png,None,Category,None,Category,1,0.0,0,5.25,0,5.25,0,5.25,0,0.0,0.75,0,0.0,0,0.0,0,0.0,0,0.0,0,0.0,0,0.0,1,0.5,1,2.125,0,,,,,0,9,9,9,,,,,95.14164392800012,95.14164392800012,95.14164392800012,95.14164392800012,95.14164392800012,95.14164392800012,95.14164392800012,95.14164392800012,94.81939754266156,95.14164392800012,95.14164392800012,95.14164392800012,94.81939754266156,95.14164392800012,95.14164392800012,95.14164392800012,97.25804227499611,101.0449273799968,95.14164392800012,95.14164392800012,100.54543861899583,95.14164392800012,95.14164392800012,95.14164392800012,95.14164392800012,95.52079549100017,96.69413918099599,95.35230469866316,96.69413918099599,97.25804227499611,98.577967170997,97.08184641166396,,95.14164392800012,100.54543861899583,95.14164392800012,100.54543861899583,100.37872389699623,102.218536235996,95.14164392800012,2,0,3.411093939001148,,reldom2_s008,001,2025-02-06_11h46.28.412,practice_test2_AC,2022.2.5,87.96148166879348,
8,First_Order,2.0,audwhat,stimulus/audwhat_stim/dummy.wav,stimulus/audwhat_stim/dummy.wav,stimulus/audwhat_stim/percussion xylophone_high-pitch_F_loud.wav,stimulus/audwhat_stim/percussion mallet_low-pitch_D_loud.wav,stimulus/audwhat_stim/blank_white.png,stimulus/audwhat_stim/pitch_box.png,stimulus/audwhat_stim/pitch_yes.png,stimulus/audwhat_stim/pitch_no.png,None,Pitch,None,Category,2,0.0,0,5.25,0,5.25,0,5.25,0,0.0,0.75,0,0.0,0,0.0,0,0.0,0,0.0,0,0.0,0,0.0,1,0.5,1,2.125,0,,,,,0,10,10,10,,,,,102.218536235996,102.218536235996,102.218536235996,102.218536235996,102.218536235996,102.218536235996,102.218536235996,102.218536235996,101.8427802739956,102.218536235996,102.218536235996,102.218536235996,101.8427802739956,102.218536235996,102.218536235996,102.218536235996,104.27014818199677,108.06413471899577,102.218536235996,102.218536235996,107.75808553300158,102.218536235996,102.218536235996,102.218536235996,102.218536235996,102.62001043299824,103.90236262699909,102.44487160866653,103.72133391699754,104.27014818199677,105.54618123600085,104.10156394866159,,102.218536235996,107.75808553300158,102.218536235996,107.75808553300158,107.40557665099914,108.92905128400162,102.218536235996,1,0,1.7219304569953238,,reldom2_s008,001,2025-02-06_11h46.28.412,practice_test2_AC,2022.2.5,87.96148166879348,
9,First_Order,2.0,audwhat,stimulus/audwhat_stim/dummy.wav,stimulus/audwhat_stim/dummy.wav,stimulus/audwhat_stim/percussion mallet_low-pitch_Dtri_loud.wav,stimulus/audwhat_stim/string viola_low-pitch_Dtri_loud.wav,stimulus/audwhat_stim/blank_white.png,stimulus/audwhat_stim/category_box.png,stimulus/audwhat_stim/category_yes.png,stimulus/audwhat_stim/category_no.png,None,Category,None,Pitch,2,0.0,0,5.25,0,5.25,0,5.25,0,0.0,0.75,0,0.0,0,0.0,0,0.0,0,0.0,0,0.0,0,0.0,1,0.5,1,2.125,0,,,,,0,11,11,11,,,,,108.92905128400162,108.92905128400162,108.92905128400162,108.92905128400162,108.92905128400162,108.92905128400162,108.92905128400162,108.92905128400162,108.6291783246658,108.92905128400162,108.92905128400162,108.92905128400162,108.6291783246658,108.92905128400162,108.92905128400162,108.92905128400162,111.03531581100106,114.83880949900049,108.92905128400162,108.92905128400162,114.53304467099952,108.92905128400162,108.92905128400162,108.92905128400162,108.92905128400162,109.3169104080007,110.65118094199715,109.13564078266451,,111.03531581100106,112.21238276299846,110.85679370866661,,108.92905128400162,114.53304467099952,108.92905128400162,114.53304467099952,114.1355401510009,115.68944081100199,108.92905128400162,2,1,2.3310434710001573,,reldom2_s008,001,2025-02-06_11h46.28.412,practice_test2_AC,2022.2.5,87.96148166879348,
10,First_Order,2.0,audwhat,stimulus/audwhat_stim/dummy.wav,stimulus/audwhat_stim/dummy.wav,stimulus/audwhat_stim/percussion mallet_low-pitch_F_loud.wav,stimulus/audwhat_stim/percussion mallet_high-pitch_Ftri_loud.wav,stimulus/audwhat_stim/blank_white.png,stimulus/audwhat_stim/category_box.png,stimulus/audwhat_stim/category_yes.png,stimulus/audwhat_stim/category_no.png,None,Category,None,Category,1,0.0,0,5.25,0,5.25,0,5.25,0,0.0,0.75,0,0.0,0,0.0,0,0.0,0,0.0,0,0.0,0,0.0,1,0.5,1,2.125,0,,,,,0,12,12,12,,,,,115.68944081100199,115.68944081100199,115.68944081100199,115.68944081100199,115.68944081100199,115.68944081100199,115.68944081100199,115.68944081100199,115.38366023800191,115.68944081100199,115.68944081100199,115.68944081100199,115.38366023800191,115.68944081100199,115.68944081100199,115.68944081100199,117.72424847499497,121.53523157799646,115.68944081100199,115.68944081100199,121.23790763600118,115.68944081100199,115.68944081100199,115.68944081100199,115.68944081100199,116.05523495899979,117.35588395599916,115.89183355166848,,117.72424847499497,119.03026778699859,117.55255328066802,,115.68944081100199,121.23790763600118,115.68944081100199,121.23790763600118,120.90369059799559,122.39350946899503,115.68944081100199,1,1,1.5352672730004997,,reldom2_s008,001,2025-02-06_11h46.28.412,practice_test2_AC,2022.2.5,87.96148166879348,
0,0.0,None,fixation,stimulus/viswhat_stim/blank_white.png,stimulus/viswhat_stim/blank_white.png,stimulus/audwhat_stim/blank_white.png,stimulus/audwhat_stim/blank_white.png,stimulus/viswhat_stim/blank_white.png,stimulus/viswhat_stim/blank_white.png,stimulus/viswhat_stim/blank_white.png,stimulus/viswhat_stim/blank_white.png,0.0,0.0,0.0,0.0,0,0.0,0,0.0,0,0.0,0,0.0,0,0.0,0.0,0,0.0,0,0.0,0,0.0,0,0.0,0,0.0,0,0.0,0,0.0,0,0.0,6,,,,,0,13,13,13,,,,,122.39350946899503,122.39350946899503,122.39350946899503,122.39350946899503,122.39350946899503,122.39350946899503,122.39350946899503,122.39350946899503,122.08146355800127,122.39350946899503,122.39350946899503,122.39350946899503,122.08146355800127,122.39350946899503,122.39350946899503,122.39350946899503,122.39350946899503,122.39350946899503,122.39350946899503,122.39350946899503,122.39350946899503,122.39350946899503,122.39350946899503,122.39350946899503,122.39350946899503,122.39350946899503,122.39350946899503,122.23146355800127,122.39350946899503,122.39350946899503,122.39350946899503,122.23146355800127,122.39350946899503,122.39350946899503,122.39350946899503,122.39350946899503,122.39350946899503,127.58207440000115,127.58207440000115,128.9676814389968,None,0,,,reldom2_s008,001,2025-02-06_11h46.28.412,practice_test2_AC,2022.2.5,87.96148166879348,
11,Second_Order,2.0,audwhat,stimulus/audwhat_stim/string cello_low-pitch_D_loud.wav,stimulus/audwhat_stim/string viola_high-pitch_Dtri_loud.wav,stimulus/audwhat_stim/percussion mallet_high-pitch_F_loud.wav,stimulus/audwhat_stim/percussion mallet_low-pitch_Dtri_loud.wav,stimulus/viswhat_stim/match_blank.png,stimulus/viswhat_stim/match_box.png,stimulus/viswhat_stim/match_yes.png,stimulus/viswhat_stim/match_no.png,1.0,Match,Category,Category,1,5.25,0,5.25,0,5.25,0,5.25,0,0.75,0.75,0,0.0,0,0.0,0,0.0,0,0.0,1,0.5,1,2.125,1,0.5,1,2.125,0,,,,,0,14,14,14,,,,,128.9676814389968,134.21961716900114,128.9676814389968,128.9676814389968,128.9676814389968,128.9676814389968,129.31433203999768,130.32587366499502,129.3105481346686,,130.94381588100077,131.95651952800108,130.94306212566542,,134.21961716900114,135.27251357599744,137.27137730999675,141.22507236900128,135.27251357599744,135.27251357599744,140.77315101999557,135.27251357599744,135.27251357599744,135.27251357599744,135.27251357599744,135.6244299819955,136.90667741099605,135.46539148766558,,137.27137730999675,138.52121142499527,137.1053314276617,,135.27251357599744,140.77315101999557,135.27251357599744,140.77315101999557,140.43510160400183,141.62708018899866,135.27251357599744,2,0,1.2160775209995336,,reldom2_s008,001,2025-02-06_11h46.28.412,practice_test2_AC,2022.2.5,87.96148166879348,
12,Second_Order,2.0,audwhat,stimulus/audwhat_stim/string viola_high-pitch_Dtri_loud.wav,stimulus/audwhat_stim/percussion xylophone_high-pitch_Dtri_loud.wav,stimulus/audwhat_stim/string viola_low-pitch_Ftri_loud.wav,stimulus/audwhat_stim/percussion mallet_low-pitch_Ftri_loud.wav,stimulus/viswhat_stim/match_blank.png,stimulus/viswhat_stim/match_box.png,stimulus/viswhat_stim/match_yes.png,stimulus/viswhat_stim/match_no.png,1.0,Match,Pitch,Pitch,1,5.25,0,5.25,0,5.25,0,5.25,0,0.75,0.75,0,0.0,0,0.0,0,0.0,0,0.0,1,0.5,1,2.125,1,0.5,1,2.125,0,,,,,0,15,15,15,,,,,141.62708018899866,146.8912061509982,141.62708018899866,141.62708018899866,141.62708018899866,141.62708018899866,141.9901232350021,142.9921233060013,141.98569267766678,,143.60692917599954,144.60807637799735,143.6066944166635,144.60807637799735,146.8912061509982,147.97788169099658,150.00087203500152,153.83184456099843,147.97788169099658,147.97788169099658,153.53472918499756,147.97788169099658,147.97788169099658,147.97788169099658,147.97788169099658,148.36569001099997,149.6359392489976,148.2049795556634,,150.00087203500152,151.31630130700069,149.83364533866214,,147.97788169099658,153.53472918499756,147.97788169099658,153.53472918499756,153.18505733500206,154.74223321799946,147.97788169099658,1,1,2.141006976002245,,reldom2_s008,001,2025-02-06_11h46.28.412,practice_test2_AC,2022.2.5,87.96148166879348,
0,0.0,None,fixation,stimulus/viswhat_stim/blank_white.png,stimulus/viswhat_stim/blank_white.png,stimulus/audwhat_stim/blank_white.png,stimulus/audwhat_stim/blank_white.png,stimulus/viswhat_stim/blank_white.png,stimulus/viswhat_stim/blank_white.png,stimulus/viswhat_stim/blank_white.png,stimulus/viswhat_stim/blank_white.png,0.0,0.0,0.0,0.0,0,0.0,0,0.0,0,0.0,0,0.0,0,0.0,0.0,0,0.0,0,0.0,0,0.0,0,0.0,0,0.0,0,0.0,0,0.0,0,0.0,6,,,,,0,16,16,16,,,,,154.74223321799946,154.74223321799946,154.74223321799946,154.74223321799946,154.74223321799946,154.74223321799946,154.74223321799946,154.74223321799946,154.43117732699758,154.74223321799946,154.74223321799946,154.74223321799946,154.43117732699758,154.74223321799946,154.74223321799946,154.74223321799946,154.74223321799946,154.74223321799946,154.74223321799946,154.74223321799946,154.74223321799946,154.74223321799946,154.74223321799946,154.74223321799946,154.74223321799946,154.74223321799946,154.74223321799946,154.5811773269976,154.74223321799946,154.74223321799946,154.74223321799946,154.5811773269976,154.74223321799946,154.74223321799946,154.74223321799946,154.74223321799946,154.74223321799946,159.91434202100208,159.91434202100208,161.58560359299736,None,0,,,reldom2_s008,001,2025-02-06_11h46.28.412,practice_test2_AC,2022.2.5,87.96148166879348,
13,First_Order,3.0,audwhere,stimulus/audwhere_stim/dummy.wav,stimulus/audwhere_stim/dummy.wav,stimulus/audwhere_stim/left_toward_270h.wav,stimulus/audwhere_stim/right_toward_270h.wav,stimulus/audwhere_stim/blank_white.png,stimulus/audwhere_stim/direction_box.png,stimulus/audwhere_stim/direction_yes.png,stimulus/audwhere_stim/direction_no.png,None,Direction,None,Direction,1,0.0,0,5.25,0,5.25,0,5.25,0,0.0,0.75,0,0.0,0,0.0,0,0.0,0,0.0,0,0.0,0,0.0,1,0.5,1,2.125,0,,,,,0,17,17,17,,,,,161.58560359299736,161.58560359299736,161.58560359299736,161.58560359299736,161.58560359299736,161.58560359299736,161.58560359299736,161.58560359299736,161.29048490866214,161.58560359299736,161.58560359299736,161.58560359299736,161.29048490866214,161.58560359299736,161.58560359299736,161.58560359299736,163.59108538599685,167.43724655499682,161.58560359299736,161.58560359299736,166.99265418099822,161.58560359299736,161.58560359299736,161.58560359299736,161.58560359299736,161.95300041500013,163.2306765819958,161.7810195366658,,163.59108538599685,164.87071954699786,163.42582861866347,,161.58560359299736,166.99265418099822,161.58560359299736,166.99265418099822,166.8443593539996,168.29888725699857,161.58560359299736,2,0,1.6239709190049325,,reldom2_s008,001,2025-02-06_11h46.28.412,practice_test2_AC,2022.2.5,87.96148166879348,
14,First_Order,3.0,audwhere,stimulus/audwhere_stim/dummy.wav,stimulus/audwhere_stim/dummy.wav,stimulus/audwhere_stim/right_away_280h.wav,stimulus/audwhere_stim/right_toward_290h.wav,stimulus/audwhere_stim/blank_white.png,stimulus/audwhere_stim/side_box.png,stimulus/audwhere_stim/side_yes.png,stimulus/audwhere_stim/side_no.png,None,Side,None,Side,1,0.0,0,5.25,0,5.25,0,5.25,0,0.0,0.75,0,0.0,0,0.0,0,0.0,0,0.0,0,0.0,0,0.0,1,0.5,1,2.125,0,,,,,0,18,18,18,,,,,168.29888725699857,168.29888725699857,168.29888725699857,168.29888725699857,168.29888725699857,168.29888725699857,168.29888725699857,168.29888725699857,167.99069544299564,168.29888725699857,168.29888725699857,168.29888725699857,167.99069544299564,168.29888725699857,168.29888725699857,168.29888725699857,170.33387326700176,174.12440643599984,168.29888725699857,168.29888725699857,173.68445279799926,168.29888725699857,168.29888725699857,168.29888725699857,168.29888725699857,168.66503253099654,169.94964161900134,168.4983121116641,,170.33387326700176,171.67700869200053,170.1625881746625,,168.29888725699857,173.68445279799926,168.29888725699857,173.68445279799926,173.53155238099862,174.97901885899773,168.29888725699857,1,1,1.6507304789993213,,reldom2_s008,001,2025-02-06_11h46.28.412,practice_test2_AC,2022.2.5,87.96148166879348,
15,First_Order,3.0,audwhere,stimulus/audwhere_stim/dummy.wav,stimulus/audwhere_stim/dummy.wav,stimulus/audwhere_stim/right_away_270h.wav,stimulus/audwhere_stim/right_toward_300h.wav,stimulus/audwhere_stim/blank_white.png,stimulus/audwhere_stim/side_box.png,stimulus/audwhere_stim/side_yes.png,stimulus/audwhere_stim/side_no.png,None,Side,None,Side,1,0.0,0,5.25,0,5.25,0,5.25,0,0.0,0.75,0,0.0,0,0.0,0,0.0,0,0.0,0,0.0,0,0.0,1,0.5,1,2.125,0,,,,,0,19,19,19,,,,,174.97901885899773,174.97901885899773,174.97901885899773,174.97901885899773,174.97901885899773,174.97901885899773,174.97901885899773,174.97901885899773,174.67049297199847,174.97901885899773,174.97901885899773,174.97901885899773,174.67049297199847,174.97901885899773,174.97901885899773,174.97901885899773,177.0220088720016,180.97119765699608,174.97901885899773,174.97901885899773,180.4952277179982,174.97901885899773,174.97901885899773,174.97901885899773,174.97901885899773,175.3489215879963,176.64462777500012,175.18449189766787,,177.0220088720016,178.31284669900197,176.84818156866484,,174.97901885899773,180.4952277179982,174.97901885899773,180.4952277179982,180.1652927699979,181.66245047799748,174.97901885899773,1,1,1.4293051400018157,,reldom2_s008,001,2025-02-06_11h46.28.412,practice_test2_AC,2022.2.5,87.96148166879348,
16,First_Order,3.0,audwhere,stimulus/audwhere_stim/dummy.wav,stimulus/audwhere_stim/dummy.wav,stimulus/audwhere_stim/right_toward_300h.wav,stimulus/audwhere_stim/right_away_290h.wav,stimulus/audwhere_stim/blank_white.png,stimulus/audwhere_stim/direction_box.png,stimulus/audwhere_stim/direction_yes.png,stimulus/audwhere_stim/direction_no.png,None,Direction,None,Side,2,0.0,0,5.25,0,5.25,0,5.25,0,0.0,0.75,0,0.0,0,0.0,0,0.0,0,0.0,0,0.0,0,0.0,1,0.5,1,2.125,0,,,,,0,20,20,20,,,,,181.66245047799748,181.66245047799748,181.66245047799748,181.66245047799748,181.66245047799748,181.66245047799748,181.66245047799748,181.66245047799748,181.3711976569961,181.66245047799748,181.66245047799748,181.66245047799748,181.3711976569961,181.66245047799748,181.66245047799748,181.66245047799748,183.7080614229999,187.64862247999554,181.66245047799748,181.66245047799748,187.20000936400174,181.66245047799748,181.66245047799748,181.66245047799748,181.66245047799748,182.0370284419987,183.34113243899628,181.86721646066533,,183.7080614229999,185.00577989599697,183.5442192926678,,181.66245047799748,187.20000936400174,181.66245047799748,187.20000936400174,186.86119677299575,188.37851950599725,181.66245047799748,1,0,1.466216082997562,,reldom2_s008,001,2025-02-06_11h46.28.412,practice_test2_AC,2022.2.5,87.96148166879348,
0,0.0,None,fixation,stimulus/viswhere_stim/blank_white.png,stimulus/viswhere_stim/blank_white.png,stimulus/audwhere_stim/blank_white.png,stimulus/audwhere_stim/blank_white.png,stimulus/viswhere_stim/blank_white.png,stimulus/viswhere_stim/blank_white.png,stimulus/viswhat_stim/blank_white.png,stimulus/viswhat_stim/blank_white.png,0.0,0.0,0.0,0.0,0,0.0,0,0.0,0,0.0,0,0.0,0,0.0,0.0,0,0.0,0,0.0,0,0.0,0,0.0,0,0.0,0,0.0,0,0.0,0,0.0,5,,,,,0,21,21,21,,,,,188.37851950599725,188.37851950599725,188.37851950599725,188.37851950599725,188.37851950599725,188.37851950599725,188.37851950599725,188.37851950599725,188.06528914666222,188.37851950599725,188.37851950599725,188.37851950599725,188.06528914666222,188.37851950599725,188.37851950599725,188.37851950599725,188.37851950599725,188.37851950599725,188.37851950599725,188.37851950599725,188.37851950599725,188.37851950599725,188.37851950599725,188.37851950599725,188.37851950599725,188.37851950599725,188.37851950599725,188.21528914666223,188.37851950599725,188.37851950599725,188.37851950599725,188.21528914666223,188.37851950599725,188.37851950599725,188.37851950599725,188.37851950599725,188.37851950599725,193.88450557599572,193.88450557599572,193.88450557599572,None,0,,,reldom2_s008,001,2025-02-06_11h46.28.412,practice_test2_AC,2022.2.5,87.96148166879348,
17,Second_Order,3.0,audwhere,stimulus/audwhere_stim/right_toward_270h.wav,stimulus/audwhere_stim/left_toward_290h.wav,stimulus/audwhere_stim/left_away_270h.wav,stimulus/audwhere_stim/left_toward_290h.wav,stimulus/viswhat_stim/match_blank.png,stimulus/viswhat_stim/match_box.png,stimulus/viswhat_stim/match_yes.png,stimulus/viswhat_stim/match_no.png,2.0,Match,Direction,Side,2,5.25,0,5.25,0,5.25,0,5.25,0,0.75,0.75,0,0.0,0,0.0,0,0.0,0,0.0,1,0.5,1,2.125,1,0.5,1,2.125,0,,,,,0,22,22,22,,,,,193.88450557599572,199.161582763998,193.88450557599572,193.88450557599572,193.88450557599572,193.88450557599572,194.2457470779991,195.25693188900186,194.24255037366336,195.24162946100114,195.86810482700093,196.87539205099893,195.86704349366872,,199.161582763998,200.22193860799598,202.25520831000176,206.02957148299902,200.22193860799598,200.22193860799598,205.72957890299585,200.22193860799598,200.22193860799598,200.22193860799598,200.22193860799598,200.5675170780014,201.8918169460012,200.4111073416682,,202.25520831000176,203.54344891599612,202.08765910266473,,200.22193860799598,205.72957890299585,200.22193860799598,205.72957890299585,205.39293383999757,206.57516210399626,200.22193860799598,1,0,1.6213424259985914,,reldom2_s008,001,2025-02-06_11h46.28.412,practice_test2_AC,2022.2.5,87.96148166879348,
18,Second_Order,3.0,audwhere,stimulus/audwhere_stim/left_toward_270h.wav,stimulus/audwhere_stim/right_toward_300h.wav,stimulus/audwhere_stim/right_toward_300h.wav,stimulus/audwhere_stim/right_away_270h.wav,stimulus/viswhat_stim/match_blank.png,stimulus/viswhat_stim/match_box.png,stimulus/viswhat_stim/match_yes.png,stimulus/viswhat_stim/match_no.png,2.0,Match,Direction,Side,2,5.25,0,5.25,0,5.25,0,5.25,0,0.75,0.75,0,0.0,0,0.0,0,0.0,0,0.0,1,0.5,1,2.125,1,0.5,1,2.125,0,,,,,0,23,23,23,,,,,206.57516210399626,211.82337127799838,206.57516210399626,206.57516210399626,206.57516210399626,206.57516210399626,206.94477438399917,207.95780672399997,206.9434575776652,,208.57093397399876,209.57450892299676,208.56997904066182,,211.82337127799838,212.86159752399544,214.97780284599867,218.78626403499948,212.86159752399544,212.86159752399544,218.34082599799876,212.86159752399544,212.86159752399544,212.86159752399544,212.86159752399544,213.36660949199722,214.62090271399939,213.21494357066356,,214.97780284599867,216.31080406399997,214.81513468266738,,212.86159752399544,218.34082599799876,212.86159752399544,218.34082599799876,218.1751098359964,219.65993047899974,212.86159752399544,1,0,1.4681125749993953,,reldom2_s008,001,2025-02-06_11h46.28.412,practice_test2_AC,2022.2.5,87.96148166879348,
0,0.0,None,fixation,stimulus/viswhere_stim/blank_white.png,stimulus/viswhere_stim/blank_white.png,stimulus/audwhere_stim/blank_white.png,stimulus/audwhere_stim/blank_white.png,stimulus/viswhere_stim/blank_white.png,stimulus/viswhere_stim/blank_white.png,stimulus/viswhat_stim/blank_white.png,stimulus/viswhat_stim/blank_white.png,0.0,0.0,0.0,0.0,0,0.0,0,0.0,0,0.0,0,0.0,0,0.0,0.0,0,0.0,0,0.0,0,0.0,0,0.0,0,0.0,0,0.0,0,0.0,0,0.0,5,,,,,0,24,24,24,,,,,219.65993047899974,219.65993047899974,219.65993047899974,219.65993047899974,219.65993047899974,219.65993047899974,219.65993047899974,219.65993047899974,219.33718501599506,219.65993047899974,219.65993047899974,219.65993047899974,219.33718501599506,219.65993047899974,219.65993047899974,219.65993047899974,219.65993047899974,219.65993047899974,219.65993047899974,219.65993047899974,219.65993047899974,219.65993047899974,219.65993047899974,219.65993047899974,219.65993047899974,219.65993047899974,219.65993047899974,219.48718501599507,219.65993047899974,219.65993047899974,219.65993047899974,219.48718501599507,219.65993047899974,219.65993047899974,219.65993047899974,219.65993047899974,219.65993047899974,225.3248814979961,225.3248814979961,225.3248814979961,None,0,,,reldom2_s008,001,2025-02-06_11h46.28.412,practice_test2_AC,2022.2.5,87.96148166879348,
19,First_Order,4.0,viswhere,stimulus/viswhere_stim/blank_white.png,stimulus/viswhere_stim/blank_white.png,stimulus/viswhere_stim/90-deg_dot-right_peru.png,stimulus/viswhere_stim/120-deg_dot-right_slateblue.png,stimulus/viswhere_stim/blank_white.png,stimulus/viswhere_stim/dot_box.png,stimulus/viswhere_stim/dot_yes.png,stimulus/viswhere_stim/dot_no.png,None,Dot,None,Dot,1,0.0,0,5.25,0,5.25,0,5.25,0,0.0,0.75,0,0.0,0,0.0,1,0.5,1,2.125,0,0.0,0,0.0,0,0.0,0,0.0,0,,,,,0,25,25,25,,,,,225.3248814979961,225.3248814979961,225.3248814979961,225.3248814979961,225.3248814979961,225.3248814979961,225.3248814979961,225.3248814979961,225.17789598766782,225.3248814979961,225.3248814979961,225.3248814979961,225.17789598766782,225.3248814979961,225.3248814979961,225.3248814979961,227.47168981199502,231.2796291689956,225.3248814979961,225.3248814979961,230.6381420329999,225.80734530699556,226.88866106500063,227.47168981199502,228.5643663239971,225.3248814979961,225.3248814979961,225.22789598766784,225.3248814979961,225.3248814979961,225.3248814979961,225.22789598766784,225.3248814979961,225.3248814979961,230.6381420329999,225.3248814979961,230.6381420329999,230.57194552399596,231.71469152499776,225.3248814979961,1,1,1.0591443730008905,,reldom2_s008,001,2025-02-06_11h46.28.412,practice_test2_AC,2022.2.5,87.96148166879348,
20,First_Order,4.0,viswhere,stimulus/viswhere_stim/blank_white.png,stimulus/viswhere_stim/blank_white.png,stimulus/viswhere_stim/30-deg_dot-right_turquoise.png,stimulus/viswhere_stim/60-deg_dot-right_seagreen.png,stimulus/viswhere_stim/blank_white.png,stimulus/viswhere_stim/line_box.png,stimulus/viswhere_stim/line_yes.png,stimulus/viswhere_stim/line_no.png,None,Line,None,Dot,2,0.0,0,5.25,0,5.25,0,5.25,0,0.0,0.75,0,0.0,0,0.0,1,0.5,1,2.125,0,0.0,0,0.0,0,0.0,0,0.0,0,,,,,0,26,26,26,,,,,231.71469152499776,231.71469152499776,231.71469152499776,231.71469152499776,231.71469152499776,231.71469152499776,231.71469152499776,231.71469152499776,231.57655333033085,231.71469152499776,231.71469152499776,231.71469152499776,231.57655333033085,231.71469152499776,231.71469152499776,231.71469152499776,233.7909479480004,237.67370505500003,231.71469152499776,231.71469152499776,237.0335652099966,232.21796007300145,233.3028239319974,233.7909479480004,234.88414538600045,231.71469152499776,231.71469152499776,231.62655333033086,231.71469152499776,231.71469152499776,231.71469152499776,231.62655333033086,231.71469152499776,231.71469152499776,237.0335652099966,231.71469152499776,237.0335652099966,236.97105065199867,238.10830291599996,231.71469152499776,2,1,1.5139461270009633,,reldom2_s008,001,2025-02-06_11h46.28.412,practice_test2_AC,2022.2.5,87.96148166879348,
21,First_Order,4.0,viswhere,stimulus/viswhere_stim/blank_white.png,stimulus/viswhere_stim/blank_white.png,stimulus/viswhere_stim/120-deg_dot-left_goldenrod.png,stimulus/viswhere_stim/90-deg_dot-left_seagreen.png,stimulus/viswhere_stim/blank_white.png,stimulus/viswhere_stim/line_box.png,stimulus/viswhere_stim/line_yes.png,stimulus/viswhere_stim/line_no.png,None,Line,None,Dot,2,0.0,0,5.25,0,5.25,0,5.25,0,0.0,0.75,0,0.0,0,0.0,1,0.5,1,2.125,0,0.0,0,0.0,0,0.0,0,0.0,0,,,,,0,27,27,27,,,,,238.10830291599996,238.10830291599996,238.10830291599996,238.10830291599996,238.10830291599996,238.10830291599996,238.10830291599996,238.10830291599996,237.97619557832854,238.10830291599996,238.10830291599996,238.10830291599996,237.97619557832854,238.10830291599996,238.10830291599996,238.10830291599996,240.19479803300055,244.0724094899997,238.10830291599996,238.10830291599996,243.45323514299525,238.59877904300083,239.69493573399814,240.19479803300055,241.29746096999588,238.10830291599996,238.10830291599996,238.02619557832855,238.10830291599996,238.10830291599996,238.10830291599996,238.02619557832855,238.10830291599996,238.10830291599996,243.45323514299525,238.10830291599996,243.45323514299525,243.38812686000165,244.50484817999677,238.10830291599996,2,1,2.5030402900010813,,reldom2_s008,001,2025-02-06_11h46.28.412,practice_test2_AC,2022.2.5,87.96148166879348,
22,First_Order,4.0,viswhere,stimulus/viswhere_stim/blank_white.png,stimulus/viswhere_stim/blank_white.png,stimulus/viswhere_stim/150-deg_dot-right_royalblue.png,stimulus/viswhere_stim/150-deg_dot-left_slateblue.png,stimulus/viswhere_stim/blank_white.png,stimulus/viswhere_stim/dot_box.png,stimulus/viswhere_stim/dot_yes.png,stimulus/viswhere_stim/dot_no.png,None,Dot,None,Line,2,0.0,0,5.25,0,5.25,0,5.25,0,0.0,0.75,0,0.0,0,0.0,1,0.5,1,2.125,0,0.0,0,0.0,0,0.0,0,0.0,0,,,,,0,28,28,28,,,,,244.50484817999677,244.50484817999677,244.50484817999677,244.50484817999677,244.50484817999677,244.50484817999677,244.50484817999677,244.50484817999677,244.3687210563328,244.50484817999677,244.50484817999677,244.50484817999677,244.3687210563328,244.50484817999677,244.50484817999677,244.50484817999677,246.58551481399627,250.46871919000114,244.50484817999677,244.50484817999677,249.81807312699675,244.99878928299586,246.09187715799635,246.58551481399627,247.67912148899632,244.50484817999677,244.50484817999677,244.40205438966612,244.50484817999677,244.50484817999677,244.50484817999677,244.40205438966612,244.50484817999677,244.50484817999677,249.81807312699675,244.50484817999677,249.81807312699675,249.75332775599963,251.10656748699694,244.50484817999677,1,0,1.7440393549986766,,reldom2_s008,001,2025-02-06_11h46.28.412,practice_test2_AC,2022.2.5,87.96148166879348,
0,0.0,None,fixation,stimulus/viswhere_stim/blank_white.png,stimulus/viswhere_stim/blank_white.png,stimulus/audwhere_stim/blank_white.png,stimulus/audwhere_stim/blank_white.png,stimulus/viswhere_stim/blank_white.png,stimulus/viswhere_stim/blank_white.png,stimulus/viswhat_stim/blank_white.png,stimulus/viswhat_stim/blank_white.png,0.0,0.0,0.0,0.0,0,0.0,0,0.0,0,0.0,0,0.0,0,0.0,0.0,0,0.0,0,0.0,0,0.0,0,0.0,0,0.0,0,0.0,0,0.0,0,0.0,5,,,,,0,29,29,29,,,,,251.10656748699694,251.10656748699694,251.10656748699694,251.10656748699694,251.10656748699694,251.10656748699694,251.10656748699694,251.10656748699694,250.76692030033496,251.10656748699694,251.10656748699694,251.10656748699694,250.76692030033496,251.10656748699694,251.10656748699694,251.10656748699694,251.10656748699694,251.10656748699694,251.10656748699694,251.10656748699694,251.10656748699694,251.10656748699694,251.10656748699694,251.10656748699694,251.10656748699694,251.10656748699694,251.10656748699694,250.91692030033497,251.10656748699694,251.10656748699694,251.10656748699694,250.91692030033497,251.10656748699694,251.10656748699694,251.10656748699694,251.10656748699694,251.10656748699694,256.56378436199884,256.56378436199884,256.56378436199884,None,0,,,reldom2_s008,001,2025-02-06_11h46.28.412,practice_test2_AC,2022.2.5,87.96148166879348,
23,Second_Order,4.0,viswhere,stimulus/viswhere_stim/150-deg_dot-right_slateblue.png,stimulus/viswhere_stim/150-deg_dot-left_turquoise.png,stimulus/viswhere_stim/90-deg_dot-left_mediumslateblue.png,stimulus/viswhere_stim/90-deg_dot-right_peru.png,stimulus/viswhat_stim/match_blank.png,stimulus/viswhat_stim/match_box.png,stimulus/viswhat_stim/match_yes.png,stimulus/viswhat_stim/match_no.png,1.0,Match,Line,Line,1,5.25,0,5.25,0,5.25,0,5.25,0,0.75,0.75,1,0.5,1,2.125,1,0.5,1,2.125,0,0.0,0,0.0,0,0.0,0,0.0,0,,,,,0,30,30,30,,,,,256.56378436199884,261.82701441199606,256.9876346079982,257.98802710200107,258.60895059299946,259.61368249599764,256.56378436199884,256.56378436199884,256.54048343600005,256.56378436199884,256.56378436199884,256.56378436199884,256.54048343600005,256.56378436199884,261.82701441199606,262.76121478500136,264.8771299939981,268.6516002959979,262.76121478500136,262.76121478500136,268.1371516989966,263.22667731999536,264.3814553209959,264.8771299939981,265.9870879459995,262.76121478500136,262.76121478500136,262.64428898266584,262.76121478500136,262.76121478500136,262.76121478500136,262.64428898266584,262.76121478500136,262.76121478500136,268.1371516989966,262.76121478500136,268.1371516989966,267.9706552689968,268.86297835499863,262.76121478500136,1,1,0.7301753680003458,,reldom2_s008,001,2025-02-06_11h46.28.412,practice_test2_AC,2022.2.5,87.96148166879348,
24,Second_Order,4.0,viswhere,stimulus/viswhere_stim/150-deg_dot-right_mediumslateblue.png,stimulus/viswhere_stim/30-deg_dot-right_salmon.png,stimulus/viswhere_stim/120-deg_dot-right_royalblue.png,stimulus/viswhere_stim/120-deg_dot-left_salmon.png,stimulus/viswhat_stim/match_blank.png,stimulus/viswhat_stim/match_box.png,stimulus/viswhat_stim/match_yes.png,stimulus/viswhat_stim/match_no.png,2.0,Match,Dot,Line,2,5.25,0,5.25,0,5.25,0,5.25,0,0.75,0.75,1,0.5,1,2.125,1,0.5,1,2.125,0,0.0,0,0.0,0,0.0,0,0.0,0,,,,,0,31,31,31,,,,,268.86297835499863,274.11385044399503,269.3195902689986,270.3244437769972,270.94124983299844,271.95306946300116,268.86297835499863,268.86297835499863,268.8494466223293,268.86297835499863,268.86297835499863,268.86297835499863,268.8494466223293,268.86297835499863,274.11385044399503,274.9896601729997,277.14306633600063,280.93613897699834,274.9896601729997,274.9896601729997,280.29067163299624,275.51124105399504,276.6708527689989,277.14306633600063,278.2298544899968,274.9896601729997,274.9896601729997,274.9102750499995,274.9896601729997,274.9896601729997,274.9896601729997,274.9102750499995,274.9896601729997,274.9896601729997,280.29067163299624,274.9896601729997,280.29067163299624,280.2265894660013,281.5633213619949,274.9896601729997,1,0,0.7250832089994219,,reldom2_s008,001,2025-02-06_11h46.28.412,practice_test2_AC,2022.2.5,87.96148166879348,
0,0.0,None,fixation,stimulus/viswhere_stim/blank_white.png,stimulus/viswhere_stim/blank_white.png,stimulus/audwhere_stim/blank_white.png,stimulus/audwhere_stim/blank_white.png,stimulus/viswhere_stim/blank_white.png,stimulus/viswhere_stim/blank_white.png,stimulus/viswhat_stim/blank_white.png,stimulus/viswhat_stim/blank_white.png,0.0,0.0,0.0,0.0,0,0.0,0,0.0,0,0.0,0,0.0,0,0.0,0.0,0,0.0,0,0.0,0,0.0,0,0.0,0,0.0,0,0.0,0,0.0,0,0.0,7,,,,,0,32,32,32,,,,,281.5633213619949,281.5633213619949,281.5633213619949,281.5633213619949,281.5633213619949,281.5633213619949,281.5633213619949,281.5633213619949,281.2328793803351,281.5633213619949,281.5633213619949,281.5633213619949,281.2328793803351,281.5633213619949,281.5633213619949,281.5633213619949,281.5633213619949,281.5633213619949,281.5633213619949,281.5633213619949,281.5633213619949,281.5633213619949,281.5633213619949,281.5633213619949,281.5633213619949,281.5633213619949,281.5633213619949,281.3828793803351,281.5633213619949,281.5633213619949,281.5633213619949,281.3828793803351,281.5633213619949,281.5633213619949,281.5633213619949,281.5633213619949,281.5633213619949,286.8023652560005,286.8023652560005,289.22368029099744,None,0,,,reldom2_s008,001,2025-02-06_11h46.28.412,practice_test2_AC,2022.2.5,87.96148166879348,
,,,,,,,,,,,,,,,,,,,,,,,,,,,,,,,,,,,,,,,,,,,,,,,,,,,,,,,,,,,,,,,,,,,,,,,,,,,,,,,,,,,,,,,,,,,,,,,,,,,289.22368029099744,,,,,,,
