Trial,Order,Block,Type,Stimuli_File1,Stimuli_File2,Stimuli_File3,Stimuli_File4,Cue_File1,Cue_File2,Response_File_Yes,Response_File_No,Match,Cue_Dimension,Pair1_Dimension,Pair2_Dimension,Key,Cue1_Duration,Cue1_Onset,Cue2_Duration,Cue2_Onset,ResponseYes_Duration,ResponseYes_Onset,ResponseNo_Duration,ResponseNo_Onset,ITI_Within,ITI_Between,Image1_Duration,Image1_Onset,Image2_Duration,Image2_Onset,Image3_Duration,Image3_Onset,Image4_Duration,Image4_Onset,Sound1_Duration,Sound1_Onset,Sound2_Duration,Sound2_Onset,Sound3_Duration,Sound3_Onset,Sound4_Duration,Sound4_Onset,Fixation_Duration,trials_2.thisRepN,trials_2.thisTrialN,trials_2.thisN,trials_2.thisIndex,trials.thisRepN,trials.thisTrialN,trials.thisN,trials.thisIndex,text_start.started,key_resp_start.started,key_resp_start.keys,key_resp_start.rt,text2.started,key_resp_2.started,key_resp_2.keys,key_resp_2.rt,cue_file1.started,cue_file1.stopped,image_1.started,image_1.stopped,image_2.started,image_2.stopped,sound_icon1.started,sound_icon1.stopped,sound_1.started,sound_1.stopped,sound_icon2.started,sound_icon2.stopped,sound_2.started,sound_2.stopped,image_blank_1.started,image_blank_1.stopped,key_press.started,key_press.stopped,fixation_text.started,cue_file2.started,cue_file2.stopped,image_3.started,image_3.stopped,image_4.started,image_4.stopped,sound_icon3.started,sound_icon3.stopped,sound_3.started,sound_3.stopped,sound_icon4.started,sound_icon4.stopped,sound_4.started,sound_4.stopped,response_yes.started,response_yes.stopped,response_no.started,response_no.stopped,iti_blank.started,iti_blank.stopped,fixation_text.stopped,key_press.keys,key_press.corr,key_press.rt,participant,session,date,expName,psychopyVersion,frameRate,
,,,,,,,,,,,,,,,,,,,,,,,,,,,,,,,,,,,,,,,,,,,,,,,,,,,,6.71825729199918,6.71825729199918,2,1.1080042500034324,,,,,,,,,,,,,,,,,,,,,,,,,,,,,,,,,,,,,,,,,,,,,,,,reldom2_s035,001,2025-03-13_17h20.17.244,Aud-B-Scan_AC,2022.2.5,None,
,,,,,,,,,,,,,,,,,,,,,,,,,,,,,,,,,,,,,,,,,,,,0,0,0,0,,,,,,,,,7.8566706249985145,7.8566706249985145,5,15.412974250000843,,,,,,,,,,,,,,,,,,,,,,,,,,,,,,,,,,,,,,,,,,,,reldom2_s035,001,2025-03-13_17h20.17.244,Aud-B-Scan_AC,2022.2.5,None,
,,,,,,,,,,,,,,,,,,,,,,,,,,,,,,,,,,,,,,,,,,,,1,0,1,0,,,,,,,,,23.290493166998203,23.290493166998203,5,1.9811496260044805,,,,,,,,,,,,,,,,,,,,,,,,,,,,,,,,,,,,,,,,,,,,reldom2_s035,001,2025-03-13_17h20.17.244,Aud-B-Scan_AC,2022.2.5,None,
,,,,,,,,,,,,,,,,,,,,,,,,,,,,,,,,,,,,,,,,,,,,2,0,2,0,,,,,,,,,25.288335249999363,25.288335249999363,5,1.9818269580027845,,,,,,,,,,,,,,,,,,,,,,,,,,,,,,,,,,,,,,,,,,,,reldom2_s035,001,2025-03-13_17h20.17.244,Aud-B-Scan_AC,2022.2.5,None,
,,,,,,,,,,,,,,,,,,,,,,,,,,,,,,,,,,,,,,,,,,,,3,0,3,0,,,,,,,,,27.28303387499909,27.28303387499909,5,1.9872966670009191,,,,,,,,,,,,,,,,,,,,,,,,,,,,,,,,,,,,,,,,,,,,reldom2_s035,001,2025-03-13_17h20.17.244,Aud-B-Scan_AC,2022.2.5,None,
0,0.0,None,fixation,stimulus/audwhat_stim/blank_white.png,stimulus/audwhat_stim/blank_white.png,stimulus/audwhere_stim/blank_white.png,stimulus/audwhere_stim/blank_white.png,stimulus/audwhat_stim/blank_white.png,stimulus/audwhat_stim/blank_white.png,stimulus/audwhat_stim/blank_white.png,stimulus/audwhat_stim/blank_white.png,0.0,0.0,0.0,0.0,0,0.0,0,0.0,0,0.0,0,0.0,0,0.0,0.0,0,0,0,0,0,0,0,0,0,0.0,0,0.0,0,0.0,0,0.0,16,,,,,0,0,0,0,,,,,,,,,29.49096195799939,29.49096195799939,29.49096195799939,29.49096195799939,29.49096195799939,29.49096195799939,29.49096195799939,29.49096195799939,29.39509399966652,29.49096195799939,29.49096195799939,29.49096195799939,29.39509399966652,29.49096195799939,29.49096195799939,29.49096195799939,29.49096195799939,29.49096195799939,29.49096195799939,29.49096195799939,29.49096195799939,29.49096195799939,29.49096195799939,29.49096195799939,29.49096195799939,29.49096195799939,29.49096195799939,29.44509399966652,29.49096195799939,29.49096195799939,29.49096195799939,29.44509399966652,29.49096195799939,29.49096195799939,29.49096195799939,29.49096195799939,29.49096195799939,34.66983679199984,34.66983679199984,45.70655708299819,None,0,,reldom2_s035,001,2025-03-13_17h20.17.244,Aud-B-Scan_AC,2022.2.5,None,
1,First_Order,1.0,audwhat,stimulus/audwhat_stim/dummy.wav,stimulus/audwhat_stim/dummy.wav,stimulus/audwhat_stim/string viola_low-pitch_F_loud.wav,stimulus/audwhat_stim/string cello_high-pitch_Dtri_loud.wav,stimulus/audwhat_stim/blank_white.png,stimulus/audwhat_stim/pitch_box.png,stimulus/audwhat_stim/pitch_yes.png,stimulus/audwhat_stim/pitch_no.png,None,Pitch,None,Category,2,0.0,0,5.125,0,5.125,0,5.125,0,0.0,0.625,0,0,0,0,0,0,0,0,0,0.0,0,0.0,1,0.5,1,2.125,0,,,,,0,1,1,1,,,,,,,,,45.70655708299819,45.70655708299819,45.70655708299819,45.70655708299819,45.70655708299819,45.70655708299819,45.70655708299819,45.70655708299819,45.63286999999982,45.70655708299819,45.70655708299819,45.70655708299819,45.63286999999982,45.70655708299819,45.70655708299819,45.70655708299819,47.79460558299979,,45.70655708299819,45.70655708299819,50.87658270799875,45.70655708299819,45.70655708299819,45.70655708299819,45.70655708299819,46.16227395799797,47.204515792000166,46.133396916666484,,47.79460558299979,48.840353499999765,47.76559970866607,,45.70655708299819,50.87658270799875,45.70655708299819,50.87658270799875,50.91695916699973,51.599475207996875,45.70655708299819,2,1,1.8952869590029877,reldom2_s035,001,2025-03-13_17h20.17.244,Aud-B-Scan_AC,2022.2.5,None,
2,First_Order,1.0,audwhat,stimulus/audwhat_stim/dummy.wav,stimulus/audwhat_stim/dummy.wav,stimulus/audwhat_stim/percussion xylophone_high-pitch_Ftri_loud.wav,stimulus/audwhat_stim/string viola_high-pitch_Ftri_loud.wav,stimulus/audwhat_stim/blank_white.png,stimulus/audwhat_stim/pitch_box.png,stimulus/audwhat_stim/pitch_yes.png,stimulus/audwhat_stim/pitch_no.png,None,Pitch,None,Pitch,1,0.0,0,5.125,0,5.125,0,5.125,0,0.0,0.625,0,0,0,0,0,0,0,0,0,0.0,0,0.0,1,0.5,1,2.125,0,,,,,0,2,2,2,,,,,,,,,51.80903387499711,51.80903387499711,51.80903387499711,51.80903387499711,51.80903387499711,51.80903387499711,51.80903387499711,51.80903387499711,51.73280854133021,51.80903387499711,51.80903387499711,51.80903387499711,51.73280854133021,51.80903387499711,51.80903387499711,51.80903387499711,53.901277082997694,57.93324304199996,51.80903387499711,51.80903387499711,56.9597248329992,51.80903387499711,51.80903387499711,51.80903387499711,51.80903387499711,52.262737499997456,53.309604707999824,52.23365570866396,53.26293249999799,53.901277082997694,54.95258449999892,53.87242949966482,,51.80903387499711,56.9597248329992,51.80903387499711,56.9597248329992,56.99995741699968,57.683829333000176,51.80903387499711,2,0,1.3814948340041155,reldom2_s035,001,2025-03-13_17h20.17.244,Aud-B-Scan_AC,2022.2.5,None,
3,First_Order,1.0,audwhat,stimulus/audwhat_stim/dummy.wav,stimulus/audwhat_stim/dummy.wav,stimulus/audwhat_stim/string viola_low-pitch_Dtri_loud.wav,stimulus/audwhat_stim/percussion mallet_low-pitch_Dtri_loud.wav,stimulus/audwhat_stim/blank_white.png,stimulus/audwhat_stim/category_box.png,stimulus/audwhat_stim/category_yes.png,stimulus/audwhat_stim/category_no.png,None,Category,None,Pitch,2,0.0,0,5.125,0,5.125,0,5.125,0,0.0,0.625,0,0,0,0,0,0,0,0,0,0.0,0,0.0,1,0.5,1,2.125,0,,,,,0,3,3,3,,,,,,,,,57.93324304199996,57.93324304199996,57.93324304199996,57.93324304199996,57.93324304199996,57.93324304199996,57.93324304199996,57.93324304199996,57.857479916330824,57.93324304199996,57.93324304199996,57.93324304199996,57.857479916330824,57.93324304199996,57.93324304199996,57.93324304199996,60.01489945799767,,57.93324304199996,57.93324304199996,63.09937499999796,57.93324304199996,57.93324304199996,57.93324304199996,57.93324304199996,58.39679358299691,59.45873354200012,58.367547541664194,,60.01489945799767,61.07942045799791,59.98509570866396,,57.93324304199996,63.09937499999796,57.93324304199996,63.09937499999796,63.139899166999385,63.78836791699723,57.93324304199996,2,1,0.8005542500031879,reldom2_s035,001,2025-03-13_17h20.17.244,Aud-B-Scan_AC,2022.2.5,None,
4,First_Order,1.0,audwhat,stimulus/audwhat_stim/dummy.wav,stimulus/audwhat_stim/dummy.wav,stimulus/audwhat_stim/percussion mallet_low-pitch_D_loud.wav,stimulus/audwhat_stim/percussion xylophone_high-pitch_Dtri_loud.wav,stimulus/audwhat_stim/blank_white.png,stimulus/audwhat_stim/pitch_box.png,stimulus/audwhat_stim/pitch_yes.png,stimulus/audwhat_stim/pitch_no.png,None,Pitch,None,Category,2,0.0,0,5.125,0,5.125,0,5.125,0,0.0,0.625,0,0,0,0,0,0,0,0,0,0.0,0,0.0,1,0.5,1,2.125,0,,,,,0,4,4,4,,,,,,,,,64.04018054199696,64.04018054199696,64.04018054199696,64.04018054199696,64.04018054199696,64.04018054199696,64.04018054199696,64.04018054199696,63.96244570833199,64.04018054199696,64.04018054199696,64.04018054199696,63.96244570833199,64.04018054199696,64.04018054199696,64.04018054199696,66.11299787499956,,64.04018054199696,64.04018054199696,69.19671516699964,64.04018054199696,64.04018054199696,64.04018054199696,64.04018054199696,64.5003497079997,65.56052308299695,64.47162520866574,,66.11299787499956,67.17557770799976,66.08298733366634,67.12948675000007,64.04018054199696,69.19671516699964,64.04018054199696,69.19671516699964,69.23719745799826,69.8881795419984,64.04018054199696,2,1,0.8646655000011378,reldom2_s035,001,2025-03-13_17h20.17.244,Aud-B-Scan_AC,2022.2.5,None,
0,0.0,None,fixation,stimulus/audwhat_stim/blank_white.png,stimulus/audwhat_stim/blank_white.png,stimulus/audwhere_stim/blank_white.png,stimulus/audwhere_stim/blank_white.png,stimulus/audwhat_stim/blank_white.png,stimulus/audwhat_stim/blank_white.png,stimulus/audwhat_stim/blank_white.png,stimulus/audwhat_stim/blank_white.png,0.0,0.0,0.0,0.0,0,0.0,0,0.0,0,0.0,0,0.0,0,0.0,0.0,0,0,0,0,0,0,0,0,0,0.0,0,0.0,0,0.0,0,0.0,8,,,,,0,5,5,5,,,,,,,,,70.15939891699963,70.15939891699963,70.15939891699963,70.15939891699963,70.15939891699963,70.15939891699963,70.15939891699963,70.15939891699963,70.06206808333275,70.15939891699963,70.15939891699963,70.15939891699963,70.06206808333275,70.15939891699963,70.15939891699963,70.15939891699963,70.15939891699963,70.15939891699963,70.15939891699963,70.15939891699963,70.15939891699963,70.15939891699963,70.15939891699963,70.15939891699963,70.15939891699963,70.15939891699963,70.15939891699963,70.11206808333276,70.15939891699963,70.15939891699963,70.15939891699963,70.11206808333276,70.15939891699963,70.15939891699963,70.15939891699963,70.15939891699963,70.15939891699963,75.34526783299953,75.34526783299953,78.29235249999692,None,0,,reldom2_s035,001,2025-03-13_17h20.17.244,Aud-B-Scan_AC,2022.2.5,None,
5,Second_Order,1.0,audwhat,stimulus/audwhat_stim/percussion mallet_high-pitch_Dtri_loud.wav,stimulus/audwhat_stim/string cello_high-pitch_Dtri_loud.wav,stimulus/audwhat_stim/string viola_low-pitch_F_loud.wav,stimulus/audwhat_stim/percussion mallet_low-pitch_F_loud.wav,stimulus/audwhat_stim/match_blank.png,stimulus/audwhat_stim/match_box.png,stimulus/audwhat_stim/match_yes.png,stimulus/audwhat_stim/match_no.png,1.0,Match,Pitch,Pitch,1,5.125,0,5.125,0,5.125,0,5.125,0,0.75,0.75,0,0,0,0,0,0,0,0,1,0.5,1,2.125,1,0.5,1,2.125,0,,,,,0,6,6,6,,,,,,,,,78.29235249999692,83.40728270799809,78.29235249999692,78.29235249999692,78.29235249999692,78.29235249999692,78.74475029199675,79.73138541699882,78.758759499666,,80.36705741699916,81.36429700000008,80.37912741666538,,83.40728270799809,84.25806308299798,86.31067237499883,,84.25806308299798,84.25806308299798,89.42321058299785,84.25806308299798,84.25806308299798,84.25806308299798,84.25806308299798,84.71281899999667,85.7616085419977,84.68377166666347,,86.31067237499883,87.36534491699786,86.2815442086651,,84.25806308299798,89.42321058299785,84.25806308299798,89.42321058299785,89.42321058299785,,84.25806308299798,1,1,1.9007504590044846,reldom2_s035,001,2025-03-13_17h20.17.244,Aud-B-Scan_AC,2022.2.5,None,
6,Second_Order,1.0,audwhat,stimulus/audwhat_stim/percussion mallet_low-pitch_F_loud.wav,stimulus/audwhat_stim/percussion mallet_high-pitch_Dtri_loud.wav,stimulus/audwhat_stim/string viola_low-pitch_Ftri_loud.wav,stimulus/audwhat_stim/percussion mallet_low-pitch_Ftri_loud.wav,stimulus/audwhat_stim/match_blank.png,stimulus/audwhat_stim/match_box.png,stimulus/audwhat_stim/match_yes.png,stimulus/audwhat_stim/match_no.png,2.0,Match,Category,Pitch,2,5.125,0,5.125,0,5.125,0,5.125,0,0.625,0.625,0,0,0,0,0,0,0,0,1,0.5,1,2.125,1,0.5,1,2.125,0,,,,,0,7,7,7,,,,,,,,,90.22418374999688,95.3468576669984,90.22418374999688,90.22418374999688,90.22418374999688,90.22418374999688,90.67447574999824,91.6716833749997,90.68674633366415,,92.30691145799938,93.29559541699928,92.31028887466552,93.30871345799824,95.3468576669984,96.08226954199927,98.12240433299667,,96.08226954199927,96.08226954199927,101.25952158299697,96.08226954199927,96.08226954199927,96.08226954199927,96.08226954199927,96.53429512499861,97.576321499997,96.50550462466369,,98.12240433299667,99.17151629199725,98.09318216666385,,96.08226954199927,101.25952158299697,96.08226954199927,101.25952158299697,101.25952158299697,101.94180816699736,96.08226954199927,2,1,0.8213172920004581,reldom2_s035,001,2025-03-13_17h20.17.244,Aud-B-Scan_AC,2022.2.5,None,
0,0.0,None,fixation,stimulus/audwhat_stim/blank_white.png,stimulus/audwhat_stim/blank_white.png,stimulus/audwhere_stim/blank_white.png,stimulus/audwhere_stim/blank_white.png,stimulus/audwhat_stim/blank_white.png,stimulus/audwhat_stim/blank_white.png,stimulus/audwhat_stim/blank_white.png,stimulus/audwhat_stim/blank_white.png,0.0,0.0,0.0,0.0,0,0.0,0,0.0,0,0.0,0,0.0,0,0.0,0.0,0,0,0,0,0,0,0,0,0,0.0,0,0.0,0,0.0,0,0.0,10,,,,,0,8,8,8,,,,,,,,,102.17147987499993,102.17147987499993,102.17147987499993,102.17147987499993,102.17147987499993,102.17147987499993,102.17147987499993,102.17147987499993,102.07514150033069,102.17147987499993,102.17147987499993,102.17147987499993,102.07514150033069,102.17147987499993,102.17147987499993,102.17147987499993,102.17147987499993,102.17147987499993,102.17147987499993,102.17147987499993,102.17147987499993,102.17147987499993,102.17147987499993,102.17147987499993,102.17147987499993,102.17147987499993,102.17147987499993,102.1251415003307,102.17147987499993,102.17147987499993,102.17147987499993,102.1251415003307,102.17147987499993,102.17147987499993,102.17147987499993,102.17147987499993,102.17147987499993,107.36773399999947,107.36773399999947,112.3905842919994,None,0,,reldom2_s035,001,2025-03-13_17h20.17.244,Aud-B-Scan_AC,2022.2.5,None,
7,First_Order,2.0,audwhat,stimulus/audwhat_stim/dummy.wav,stimulus/audwhat_stim/dummy.wav,stimulus/audwhat_stim/percussion xylophone_high-pitch_F_loud.wav,stimulus/audwhat_stim/percussion mallet_low-pitch_D_loud.wav,stimulus/audwhat_stim/blank_white.png,stimulus/audwhat_stim/category_box.png,stimulus/audwhat_stim/category_yes.png,stimulus/audwhat_stim/category_no.png,None,Category,None,Category,1,0.0,0,5.125,0,5.125,0,5.125,0,0.0,0.625,0,0,0,0,0,0,0,0,0,0.0,0,0.0,1,0.5,1,2.125,0,,,,,0,9,9,9,,,,,,,,,112.3905842919994,112.3905842919994,112.3905842919994,112.3905842919994,112.3905842919994,112.3905842919994,112.3905842919994,112.3905842919994,112.3207545836655,112.3905842919994,112.3905842919994,112.3905842919994,112.3207545836655,112.3905842919994,112.3905842919994,112.3905842919994,114.47305295799742,118.50816312499956,112.3905842919994,112.3905842919994,117.56584029199803,112.3905842919994,112.3905842919994,112.3905842919994,112.3905842919994,112.85221216699938,113.91670266700021,112.82260254166637,113.87043783299669,114.47305295799742,115.53833454199776,114.44253266666443,,112.3905842919994,117.56584029199803,112.3905842919994,117.56584029199803,117.60680858299747,118.25589170799867,112.3905842919994,1,1,2.1350956670030428,reldom2_s035,001,2025-03-13_17h20.17.244,Aud-B-Scan_AC,2022.2.5,None,
8,First_Order,2.0,audwhat,stimulus/audwhat_stim/dummy.wav,stimulus/audwhat_stim/dummy.wav,stimulus/audwhat_stim/percussion mallet_low-pitch_D_loud.wav,stimulus/audwhat_stim/string viola_low-pitch_D_loud.wav,stimulus/audwhat_stim/blank_white.png,stimulus/audwhat_stim/pitch_box.png,stimulus/audwhat_stim/pitch_yes.png,stimulus/audwhat_stim/pitch_no.png,None,Pitch,None,Pitch,1,0.0,0,5.125,0,5.125,0,5.125,0,0.0,0.625,0,0,0,0,0,0,0,0,0,0.0,0,0.0,1,0.5,1,2.125,0,,,,,0,10,10,10,,,,,,,,,118.50816312499956,118.50816312499956,118.50816312499956,118.50816312499956,118.50816312499956,118.50816312499956,118.50816312499956,118.50816312499956,118.4294236663319,118.50816312499956,118.50816312499956,118.50816312499956,118.4294236663319,118.50816312499956,118.50816312499956,118.50816312499956,120.59058149999692,124.62919158299701,118.50816312499956,118.50816312499956,123.68682875000013,118.50816312499956,118.50816312499956,118.50816312499956,118.50816312499956,118.96944249999797,120.03631333299927,118.93953158366664,,120.59058149999692,121.65530866699919,120.56109008366572,,118.50816312499956,123.68682875000013,118.50816312499956,123.68682875000013,123.72735487499813,124.3767081249971,118.50816312499956,1,1,1.230604125001264,reldom2_s035,001,2025-03-13_17h20.17.244,Aud-B-Scan_AC,2022.2.5,None,
9,First_Order,2.0,audwhat,stimulus/audwhat_stim/dummy.wav,stimulus/audwhat_stim/dummy.wav,stimulus/audwhat_stim/percussion mallet_low-pitch_D_loud.wav,stimulus/audwhat_stim/percussion mallet_high-pitch_Ftri_loud.wav,stimulus/audwhat_stim/blank_white.png,stimulus/audwhat_stim/category_box.png,stimulus/audwhat_stim/category_yes.png,stimulus/audwhat_stim/category_no.png,None,Category,None,Category,1,0.0,0,5.125,0,5.125,0,5.125,0,0.0,0.625,0,0,0,0,0,0,0,0,0,0.0,0,0.0,1,0.5,1,2.125,0,,,,,0,11,11,11,,,,,,,,,124.62919158299701,124.62919158299701,124.62919158299701,124.62919158299701,124.62919158299701,124.62919158299701,124.62919158299701,124.62919158299701,124.55083462533196,124.62919158299701,124.62919158299701,124.62919158299701,124.55083462533196,124.62919158299701,124.62919158299701,124.62919158299701,126.71446345799995,,124.62919158299701,124.62919158299701,129.82226245799757,124.62919158299701,124.62919158299701,124.62919158299701,124.62919158299701,125.09372399999847,126.15906783299943,125.06345133366655,,126.71446345799995,127.78639145799752,126.68470024966543,,124.62919158299701,129.82226245799757,124.62919158299701,129.82226245799757,129.82226245799757,130.47350004199689,124.62919158299701,1,1,0.7180268750053074,reldom2_s035,001,2025-03-13_17h20.17.244,Aud-B-Scan_AC,2022.2.5,None,
10,First_Order,2.0,audwhat,stimulus/audwhat_stim/dummy.wav,stimulus/audwhat_stim/dummy.wav,stimulus/audwhat_stim/string cello_high-pitch_F_loud.wav,stimulus/audwhat_stim/percussion mallet_high-pitch_F_loud.wav,stimulus/audwhat_stim/blank_white.png,stimulus/audwhat_stim/category_box.png,stimulus/audwhat_stim/category_yes.png,stimulus/audwhat_stim/category_no.png,None,Category,None,Pitch,2,0.0,0,5.125,0,5.125,0,5.125,0,0.0,0.625,0,0,0,0,0,0,0,0,0,0.0,0,0.0,1,0.5,1,2.125,0,,,,,0,12,12,12,,,,,,,,,130.72857724999994,130.72857724999994,130.72857724999994,130.72857724999994,130.72857724999994,130.72857724999994,130.72857724999994,130.72857724999994,130.64759633333065,130.72857724999994,130.72857724999994,130.72857724999994,130.64759633333065,130.72857724999994,130.72857724999994,130.72857724999994,132.81411670799935,,130.72857724999994,130.72857724999994,135.87771329199677,130.72857724999994,130.72857724999994,130.72857724999994,130.72857724999994,131.19197016699763,132.25971199999913,131.16210679166423,,132.81411670799935,133.88477041699662,132.78393770866413,,130.72857724999994,135.87771329199677,130.72857724999994,135.87771329199677,135.91874074999942,136.57064179199733,130.72857724999994,2,1,1.9403429590020096,reldom2_s035,001,2025-03-13_17h20.17.244,Aud-B-Scan_AC,2022.2.5,None,
0,0.0,None,fixation,stimulus/audwhat_stim/blank_white.png,stimulus/audwhat_stim/blank_white.png,stimulus/audwhere_stim/blank_white.png,stimulus/audwhere_stim/blank_white.png,stimulus/audwhat_stim/blank_white.png,stimulus/audwhat_stim/blank_white.png,stimulus/audwhat_stim/blank_white.png,stimulus/audwhat_stim/blank_white.png,0.0,0.0,0.0,0.0,0,0.0,0,0.0,0,0.0,0,0.0,0,0.0,0.0,0,0,0,0,0,0,0,0,0,0.0,0,0.0,0,0.0,0,0.0,8,,,,,0,13,13,13,,,,,,,,,136.84401983299904,136.84401983299904,136.84401983299904,136.84401983299904,136.84401983299904,136.84401983299904,136.84401983299904,136.84401983299904,136.7446776253329,136.84401983299904,136.84401983299904,136.84401983299904,136.7446776253329,136.84401983299904,136.84401983299904,136.84401983299904,136.84401983299904,136.84401983299904,136.84401983299904,136.84401983299904,136.84401983299904,136.84401983299904,136.84401983299904,136.84401983299904,136.84401983299904,136.84401983299904,136.84401983299904,136.7946776253329,136.84401983299904,136.84401983299904,136.84401983299904,136.7946776253329,136.84401983299904,136.84401983299904,136.84401983299904,136.84401983299904,136.84401983299904,142.0689809999967,142.0689809999967,144.98589416699906,None,0,,reldom2_s035,001,2025-03-13_17h20.17.244,Aud-B-Scan_AC,2022.2.5,None,
11,Second_Order,2.0,audwhat,stimulus/audwhat_stim/string viola_high-pitch_Dtri_loud.wav,stimulus/audwhat_stim/string cello_low-pitch_D_loud.wav,stimulus/audwhat_stim/percussion mallet_high-pitch_Dtri_loud.wav,stimulus/audwhat_stim/percussion mallet_low-pitch_Ftri_loud.wav,stimulus/audwhat_stim/match_blank.png,stimulus/audwhat_stim/match_box.png,stimulus/audwhat_stim/match_yes.png,stimulus/audwhat_stim/match_no.png,1.0,Match,Category,Category,1,5.125,0,5.125,0,5.125,0,5.125,0,0.75,0.75,0,0,0,0,0,0,0,0,1,0.5,1,2.125,1,0.5,1,2.125,0,,,,,0,14,14,14,,,,,,,,,144.98589416699906,150.10699341699728,144.98589416699906,144.98589416699906,144.98589416699906,144.98589416699906,145.43340991699733,146.4318001669999,145.44598683366374,,147.0717156669998,148.06886158299676,147.0833686246663,,150.10699341699728,150.95912633299668,153.02265658299802,156.9551412499968,150.95912633299668,150.95912633299668,156.10889624999982,150.95912633299668,150.95912633299668,150.95912633299668,150.95912633299668,151.37071324999852,152.42609241699756,151.34202329166536,,153.02265658299802,154.08527883299757,152.99319608366594,,150.95912633299668,156.10889624999982,150.95912633299668,156.10889624999982,156.1494352919981,,150.95912633299668,1,1,0.7112488760030828,reldom2_s035,001,2025-03-13_17h20.17.244,Aud-B-Scan_AC,2022.2.5,None,
12,Second_Order,2.0,audwhat,stimulus/audwhat_stim/string viola_low-pitch_F_loud.wav,stimulus/audwhat_stim/string viola_high-pitch_Ftri_loud.wav,stimulus/audwhat_stim/percussion mallet_low-pitch_Ftri_loud.wav,stimulus/audwhat_stim/percussion xylophone_high-pitch_Dtri_loud.wav,stimulus/audwhat_stim/match_blank.png,stimulus/audwhat_stim/match_box.png,stimulus/audwhat_stim/match_yes.png,stimulus/audwhat_stim/match_no.png,1.0,Match,Category,Category,1,5.125,0,5.125,0,5.125,0,5.125,0,0.625,0.625,0,0,0,0,0,0,0,0,1,0.5,1,2.125,1,0.5,1,2.125,0,,,,,0,15,15,15,,,,,,,,,156.9551412499968,162.0732578749994,156.9551412499968,156.9551412499968,156.9551412499968,156.9551412499968,157.40949524999814,158.39581774999897,157.42337487466673,,159.0325442079993,160.02947429199776,159.04444158366485,,162.0732578749994,162.80040754199945,164.84966862500005,168.91127729199798,162.80040754199945,162.80040754199945,167.96216158300012,162.80040754199945,162.80040754199945,162.80040754199945,162.80040754199945,163.25452591700014,164.30433541699676,163.22563745866526,,164.84966862500005,165.9057006669973,164.82095154166407,165.8602304579981,162.80040754199945,167.96216158300012,162.80040754199945,167.96216158300012,167.96216158300012,168.64276491700002,162.80040754199945,1,1,0.6899702090049686,reldom2_s035,001,2025-03-13_17h20.17.244,Aud-B-Scan_AC,2022.2.5,None,
0,0.0,None,fixation,stimulus/audwhat_stim/blank_white.png,stimulus/audwhat_stim/blank_white.png,stimulus/audwhere_stim/blank_white.png,stimulus/audwhere_stim/blank_white.png,stimulus/audwhat_stim/blank_white.png,stimulus/audwhat_stim/blank_white.png,stimulus/audwhat_stim/blank_white.png,stimulus/audwhat_stim/blank_white.png,0.0,0.0,0.0,0.0,0,0.0,0,0.0,0,0.0,0,0.0,0,0.0,0.0,0,0,0,0,0,0,0,0,0,0.0,0,0.0,0,0.0,0,0.0,9,,,,,0,16,16,16,,,,,,,,,168.91127729199798,168.91127729199798,168.91127729199798,168.91127729199798,168.91127729199798,168.91127729199798,168.91127729199798,168.91127729199798,168.81584162533014,168.91127729199798,168.91127729199798,168.91127729199798,168.81584162533014,168.91127729199798,168.91127729199798,168.91127729199798,168.91127729199798,168.91127729199798,168.91127729199798,168.91127729199798,168.91127729199798,168.91127729199798,168.91127729199798,168.91127729199798,168.91127729199798,168.91127729199798,168.91127729199798,168.86584162533012,168.91127729199798,168.91127729199798,168.91127729199798,168.86584162533012,168.91127729199798,168.91127729199798,168.91127729199798,168.91127729199798,168.91127729199798,174.1356735829977,174.1356735829977,178.13813970799674,None,0,,reldom2_s035,001,2025-03-13_17h20.17.244,Aud-B-Scan_AC,2022.2.5,None,
13,First_Order,3.0,audwhere,stimulus/audwhere_stim/dummy.wav,stimulus/audwhere_stim/dummy.wav,stimulus/audwhere_stim/left_toward_290h.wav,stimulus/audwhere_stim/right_toward_280h.wav,stimulus/audwhere_stim/blank_white.png,stimulus/audwhere_stim/direction_box.png,stimulus/audwhere_stim/direction_yes.png,stimulus/audwhere_stim/direction_no.png,None,Direction,None,Direction,1,0.0,0,5.125,0,5.125,0,5.125,0,0.0,0.625,0,0,0,0,0,0,0,0,0,0.0,0,0.0,1,0.5,1,2.125,0,,,,,0,17,17,17,,,,,,,,,178.13813970799674,178.13813970799674,178.13813970799674,178.13813970799674,178.13813970799674,178.13813970799674,178.13813970799674,178.13813970799674,178.06815154166424,178.13813970799674,178.13813970799674,178.13813970799674,178.06815154166424,178.13813970799674,178.13813970799674,178.13813970799674,180.2272493749988,,178.13813970799674,178.13813970799674,183.29286212499937,178.13813970799674,178.13813970799674,178.13813970799674,178.13813970799674,178.60095195800022,179.66878733299745,178.57088199966554,,180.2272493749988,181.29756808299862,180.19715866666618,,178.13813970799674,183.29286212499937,178.13813970799674,183.29286212499937,183.33438483299688,183.98600949999673,178.13813970799674,1,1,1.6545314590039197,reldom2_s035,001,2025-03-13_17h20.17.244,Aud-B-Scan_AC,2022.2.5,None,
14,First_Order,3.0,audwhere,stimulus/audwhere_stim/dummy.wav,stimulus/audwhere_stim/dummy.wav,stimulus/audwhere_stim/left_toward_270h.wav,stimulus/audwhere_stim/right_toward_290h.wav,stimulus/audwhere_stim/blank_white.png,stimulus/audwhere_stim/direction_box.png,stimulus/audwhere_stim/direction_yes.png,stimulus/audwhere_stim/direction_no.png,None,Direction,None,Direction,1,0.0,0,5.125,0,5.125,0,5.125,0,0.0,0.625,0,0,0,0,0,0,0,0,0,0.0,0,0.0,1,0.5,1,2.125,0,,,,,0,18,18,18,,,,,,,,,184.23866729200017,184.23866729200017,184.23866729200017,184.23866729200017,184.23866729200017,184.23866729200017,184.23866729200017,184.23866729200017,184.1600515833326,184.23866729200017,184.23866729200017,184.23866729200017,184.1600515833326,184.23866729200017,184.23866729200017,184.23866729200017,186.3251527499997,,184.23866729200017,184.23866729200017,189.39153195799736,184.23866729200017,184.23866729200017,184.23866729200017,184.23866729200017,184.7013515419967,185.76885033299914,184.67103587466434,,186.3251527499997,187.3976622079972,186.2950453336637,,184.23866729200017,189.39153195799736,184.23866729200017,189.39153195799736,189.43272470800002,190.08275308299926,184.23866729200017,1,1,1.056068417005008,reldom2_s035,001,2025-03-13_17h20.17.244,Aud-B-Scan_AC,2022.2.5,None,
15,First_Order,3.0,audwhere,stimulus/audwhere_stim/dummy.wav,stimulus/audwhere_stim/dummy.wav,stimulus/audwhere_stim/left_away_290h.wav,stimulus/audwhere_stim/left_toward_280h.wav,stimulus/audwhere_stim/blank_white.png,stimulus/audwhere_stim/direction_box.png,stimulus/audwhere_stim/direction_yes.png,stimulus/audwhere_stim/direction_no.png,None,Direction,None,Side,2,0.0,0,5.125,0,5.125,0,5.125,0,0.0,0.625,0,0,0,0,0,0,0,0,0,0.0,0,0.0,1,0.5,1,2.125,0,,,,,0,19,19,19,,,,,,,,,190.33471499999723,190.33471499999723,190.33471499999723,190.33471499999723,190.33471499999723,190.33471499999723,190.33471499999723,190.33471499999723,190.25683562533064,190.33471499999723,190.33471499999723,190.33471499999723,190.25683562533064,190.33471499999723,190.33471499999723,190.33471499999723,192.42063533299734,,190.33471499999723,190.33471499999723,195.48353312499967,190.33471499999723,190.33471499999723,190.33471499999723,190.33471499999723,190.79867466699943,191.86482512499788,190.76890783366642,,192.42063533299734,193.49001224999665,192.390429958665,,190.33471499999723,195.48353312499967,190.33471499999723,195.48353312499967,195.56499362499744,196.21915112499846,190.33471499999723,2,1,1.279618250002386,reldom2_s035,001,2025-03-13_17h20.17.244,Aud-B-Scan_AC,2022.2.5,None,
16,First_Order,3.0,audwhere,stimulus/audwhere_stim/dummy.wav,stimulus/audwhere_stim/dummy.wav,stimulus/audwhere_stim/left_toward_300h.wav,stimulus/audwhere_stim/left_away_290h.wav,stimulus/audwhere_stim/blank_white.png,stimulus/audwhere_stim/direction_box.png,stimulus/audwhere_stim/direction_yes.png,stimulus/audwhere_stim/direction_no.png,None,Direction,None,Side,2,0.0,0,5.125,0,5.125,0,5.125,0,0.0,0.625,0,0,0,0,0,0,0,0,0,0.0,0,0.0,1,0.5,1,2.125,0,,,,,0,20,20,20,,,,,,,,,196.43143833299837,196.43143833299837,196.43143833299837,196.43143833299837,196.43143833299837,196.43143833299837,196.43143833299837,196.43143833299837,196.35248445833182,196.43143833299837,196.43143833299837,196.43143833299837,196.35248445833182,196.43143833299837,196.43143833299837,196.43143833299837,198.51904029199795,,196.43143833299837,196.43143833299837,201.59084529199754,196.43143833299837,196.43143833299837,196.43143833299837,196.43143833299837,196.89525087499715,197.96446541699697,196.86522641666332,,198.51904029199795,199.58841862499685,198.48862108366328,,196.43143833299837,201.59084529199754,196.43143833299837,201.59084529199754,201.63198566699793,202.28632008299974,196.43143833299837,2,1,1.1545807500042429,reldom2_s035,001,2025-03-13_17h20.17.244,Aud-B-Scan_AC,2022.2.5,None,
0,0.0,None,fixation,stimulus/audwhat_stim/blank_white.png,stimulus/audwhat_stim/blank_white.png,stimulus/audwhere_stim/blank_white.png,stimulus/audwhere_stim/blank_white.png,stimulus/audwhat_stim/blank_white.png,stimulus/audwhat_stim/blank_white.png,stimulus/audwhat_stim/blank_white.png,stimulus/audwhat_stim/blank_white.png,0.0,0.0,0.0,0.0,0,0.0,0,0.0,0,0.0,0,0.0,0,0.0,0.0,0,0,0,0,0,0,0,0,0,0.0,0,0.0,0,0.0,0,0.0,10,,,,,0,21,21,21,,,,,,,,,202.5598261669984,202.5598261669984,202.5598261669984,202.5598261669984,202.5598261669984,202.5598261669984,202.5598261669984,202.5598261669984,202.46046179133023,202.5598261669984,202.5598261669984,202.5598261669984,202.46046179133023,202.5598261669984,202.5598261669984,202.5598261669984,202.5598261669984,202.5598261669984,202.5598261669984,202.5598261669984,202.5598261669984,202.5598261669984,202.5598261669984,202.5598261669984,202.5598261669984,202.5598261669984,202.5598261669984,202.51046179133021,202.5598261669984,202.5598261669984,202.5598261669984,202.51046179133021,202.5598261669984,202.5598261669984,202.5598261669984,202.5598261669984,202.5598261669984,207.78890908299945,207.78890908299945,212.73420966699996,None,0,,reldom2_s035,001,2025-03-13_17h20.17.244,Aud-B-Scan_AC,2022.2.5,None,
17,Second_Order,3.0,audwhere,stimulus/audwhere_stim/right_toward_290h.wav,stimulus/audwhere_stim/right_away_290h.wav,stimulus/audwhere_stim/right_away_280h.wav,stimulus/audwhere_stim/left_away_300h.wav,stimulus/audwhat_stim/match_blank.png,stimulus/audwhat_stim/match_box.png,stimulus/audwhat_stim/match_yes.png,stimulus/audwhat_stim/match_no.png,2.0,Match,Side,Direction,2,5.125,0,5.125,0,5.125,0,5.125,0,0.75,0.75,0,0,0,0,0,0,0,0,1,0.5,1,2.125,1,0.5,1,2.125,0,,,,,0,22,22,22,,,,,,,,,212.73420966699996,217.85115808299815,212.73420966699996,212.73420966699996,212.73420966699996,212.73420966699996,213.18953291700018,214.1879818749985,213.202751291665,,214.81063616699976,215.80849212499743,214.82315145866622,,217.85115808299815,218.7010141669998,220.77085837499908,,218.7010141669998,218.7010141669998,223.86656420799773,218.7010141669998,218.7010141669998,218.7010141669998,218.7010141669998,219.15760916699946,220.219102791998,219.1281030836656,,220.77085837499908,221.8359383749994,220.7413761666651,,218.7010141669998,223.86656420799773,218.7010141669998,223.86656420799773,223.86656420799773,,218.7010141669998,2,1,0.8893265000042447,reldom2_s035,001,2025-03-13_17h20.17.244,Aud-B-Scan_AC,2022.2.5,None,
18,Second_Order,3.0,audwhere,stimulus/audwhere_stim/right_toward_270h.wav,stimulus/audwhere_stim/left_toward_270h.wav,stimulus/audwhere_stim/right_away_300h.wav,stimulus/audwhere_stim/left_away_280h.wav,stimulus/audwhat_stim/match_blank.png,stimulus/audwhat_stim/match_box.png,stimulus/audwhat_stim/match_yes.png,stimulus/audwhat_stim/match_no.png,1.0,Match,Direction,Direction,1,5.125,0,5.125,0,5.125,0,5.125,0,0.625,0.625,0,0,0,0,0,0,0,0,1,0.5,1,2.125,1,0.5,1,2.125,0,,,,,0,23,23,23,,,,,,,,,224.66982041699885,229.79087066699867,224.66982041699885,224.66982041699885,224.66982041699885,224.66982041699885,225.13011449999976,226.11910720800006,225.13311674966488,226.11910720800006,226.7544091669988,227.75659158299823,226.76686237466518,,229.79087066699867,230.52386962499804,232.57750983299775,,230.52386962499804,230.52386962499804,235.69489720799902,230.52386962499804,230.52386962499804,230.52386962499804,230.52386962499804,230.97790429199813,232.02919225000005,230.94909329166356,,232.57750983299775,233.63321045799967,232.54856145866532,,230.52386962499804,235.69489720799902,230.52386962499804,235.69489720799902,235.69489720799902,236.37786524999683,230.52386962499804,1,1,1.0541512080017128,reldom2_s035,001,2025-03-13_17h20.17.244,Aud-B-Scan_AC,2022.2.5,None,
0,0.0,None,fixation,stimulus/audwhat_stim/blank_white.png,stimulus/audwhat_stim/blank_white.png,stimulus/audwhere_stim/blank_white.png,stimulus/audwhere_stim/blank_white.png,stimulus/audwhat_stim/blank_white.png,stimulus/audwhat_stim/blank_white.png,stimulus/audwhat_stim/blank_white.png,stimulus/audwhat_stim/blank_white.png,0.0,0.0,0.0,0.0,0,0.0,0,0.0,0,0.0,0,0.0,0,0.0,0.0,0,0,0,0,0,0,0,0,0,0.0,0,0.0,0,0.0,0,0.0,8,,,,,0,24,24,24,,,,,,,,,236.60802049999984,236.60802049999984,236.60802049999984,236.60802049999984,236.60802049999984,236.60802049999984,236.60802049999984,236.60802049999984,236.51119858333018,236.60802049999984,236.60802049999984,236.60802049999984,236.51119858333018,236.60802049999984,236.60802049999984,236.60802049999984,236.60802049999984,236.60802049999984,236.60802049999984,236.60802049999984,236.60802049999984,236.60802049999984,236.60802049999984,236.60802049999984,236.60802049999984,236.60802049999984,236.60802049999984,236.56119858333017,236.60802049999984,236.60802049999984,236.60802049999984,236.56119858333017,236.60802049999984,236.60802049999984,236.60802049999984,236.60802049999984,236.60802049999984,241.794917332998,241.794917332998,244.83623833299862,None,0,,reldom2_s035,001,2025-03-13_17h20.17.244,Aud-B-Scan_AC,2022.2.5,None,
19,First_Order,4.0,audwhere,stimulus/audwhere_stim/dummy.wav,stimulus/audwhere_stim/dummy.wav,stimulus/audwhere_stim/right_toward_280h.wav,stimulus/audwhere_stim/left_toward_280h.wav,stimulus/audwhere_stim/blank_white.png,stimulus/audwhere_stim/side_box.png,stimulus/audwhere_stim/side_yes.png,stimulus/audwhere_stim/side_no.png,None,Side,None,Direction,2,0.0,0,5.125,0,5.125,0,5.125,0,0.0,0.625,0,0,0,0,0,0,0,0,0,0.0,0,0.0,1,0.5,1,2.125,0,,,,,0,25,25,25,,,,,,,,,244.83623833299862,244.83623833299862,244.83623833299862,244.83623833299862,244.83623833299862,244.83623833299862,244.83623833299862,244.83623833299862,244.76686566666348,244.83623833299862,244.83623833299862,244.83623833299862,244.76686566666348,244.83623833299862,244.83623833299862,244.83623833299862,246.90825137499996,,244.83623833299862,244.83623833299862,249.99990499999694,244.83623833299862,244.83623833299862,244.83623833299862,244.83623833299862,245.2978195830001,246.35656591699808,245.26693141666354,,246.90825137499996,247.97067479199904,246.87893583366557,,244.83623833299862,249.99990499999694,244.83623833299862,249.99990499999694,250.0409417919982,250.69057512499785,244.83623833299862,2,1,1.3621223340051074,reldom2_s035,001,2025-03-13_17h20.17.244,Aud-B-Scan_AC,2022.2.5,None,
20,First_Order,4.0,audwhere,stimulus/audwhere_stim/dummy.wav,stimulus/audwhere_stim/dummy.wav,stimulus/audwhere_stim/left_toward_290h.wav,stimulus/audwhere_stim/right_toward_270h.wav,stimulus/audwhere_stim/blank_white.png,stimulus/audwhere_stim/side_box.png,stimulus/audwhere_stim/side_yes.png,stimulus/audwhere_stim/side_no.png,None,Side,None,Direction,2,0.0,0,5.125,0,5.125,0,5.125,0,0.0,0.625,0,0,0,0,0,0,0,0,0,0.0,0,0.0,1,0.5,1,2.125,0,,,,,0,26,26,26,,,,,,,,,250.9429332499967,250.9429332499967,250.9429332499967,250.9429332499967,250.9429332499967,250.9429332499967,250.9429332499967,250.9429332499967,250.86477725033015,250.9429332499967,250.9429332499967,250.9429332499967,250.86477725033015,250.9429332499967,250.9429332499967,250.9429332499967,253.0210331249982,257.0599537079979,250.9429332499967,250.9429332499967,256.118539957999,250.9429332499967,250.9429332499967,250.9429332499967,250.9429332499967,251.40442237499883,252.46442379200016,251.37494974966492,,253.0210331249982,254.08460920799916,252.99142804166357,,250.9429332499967,256.118539957999,250.9429332499967,256.118539957999,256.1594753749996,256.80847749999884,250.9429332499967,2,1,1.0051195830019424,reldom2_s035,001,2025-03-13_17h20.17.244,Aud-B-Scan_AC,2022.2.5,None,
21,First_Order,4.0,audwhere,stimulus/audwhere_stim/dummy.wav,stimulus/audwhere_stim/dummy.wav,stimulus/audwhere_stim/left_toward_270h.wav,stimulus/audwhere_stim/left_away_300h.wav,stimulus/audwhere_stim/blank_white.png,stimulus/audwhere_stim/side_box.png,stimulus/audwhere_stim/side_yes.png,stimulus/audwhere_stim/side_no.png,None,Side,None,Side,1,0.0,0,5.125,0,5.125,0,5.125,0,0.0,0.625,0,0,0,0,0,0,0,0,0,0.0,0,0.0,1,0.5,1,2.125,0,,,,,0,27,27,27,,,,,,,,,257.0599537079979,257.0599537079979,257.0599537079979,257.0599537079979,257.0599537079979,257.0599537079979,257.0599537079979,257.0599537079979,256.98231641633004,257.0599537079979,257.0599537079979,257.0599537079979,256.98231641633004,257.0599537079979,257.0599537079979,257.0599537079979,259.13259237499733,263.17190195799776,257.0599537079979,257.0599537079979,262.22814166699754,257.0599537079979,257.0599537079979,257.0599537079979,257.0599537079979,257.52273966699795,258.5800826249979,257.4934331246661,,259.13259237499733,260.199711792,259.1028352496653,,257.0599537079979,262.22814166699754,257.0599537079979,262.22814166699754,262.26910291699824,262.9203639169973,257.0599537079979,1,1,0.9410176250021323,reldom2_s035,001,2025-03-13_17h20.17.244,Aud-B-Scan_AC,2022.2.5,None,
22,First_Order,4.0,audwhere,stimulus/audwhere_stim/dummy.wav,stimulus/audwhere_stim/dummy.wav,stimulus/audwhere_stim/left_away_290h.wav,stimulus/audwhere_stim/left_toward_270h.wav,stimulus/audwhere_stim/blank_white.png,stimulus/audwhere_stim/side_box.png,stimulus/audwhere_stim/side_yes.png,stimulus/audwhere_stim/side_no.png,None,Side,None,Side,1,0.0,0,5.125,0,5.125,0,5.125,0,0.0,0.625,0,0,0,0,0,0,0,0,0,0.0,0,0.0,1,0.5,1,2.125,0,,,,,0,28,28,28,,,,,,,,,263.17190195799776,263.17190195799776,263.17190195799776,263.17190195799776,263.17190195799776,263.17190195799776,263.17190195799776,263.17190195799776,263.0944878333304,263.17190195799776,263.17190195799776,263.17190195799776,263.0944878333304,263.17190195799776,263.17190195799776,263.17190195799776,265.25278566699853,269.31983491699793,263.17190195799776,263.17190195799776,268.35374304200013,263.17190195799776,263.17190195799776,263.17190195799776,263.17190195799776,263.63683679199676,264.69763037499797,263.6070057086656,,265.25278566699853,266.3199980829995,265.2229724166648,,263.17190195799776,268.35374304200013,263.17190195799776,268.35374304200013,268.3947361249993,269.046022874998,263.17190195799776,1,1,1.038565667000512,reldom2_s035,001,2025-03-13_17h20.17.244,Aud-B-Scan_AC,2022.2.5,None,
0,0.0,None,fixation,stimulus/audwhat_stim/blank_white.png,stimulus/audwhat_stim/blank_white.png,stimulus/audwhere_stim/blank_white.png,stimulus/audwhere_stim/blank_white.png,stimulus/audwhat_stim/blank_white.png,stimulus/audwhat_stim/blank_white.png,stimulus/audwhat_stim/blank_white.png,stimulus/audwhat_stim/blank_white.png,0.0,0.0,0.0,0.0,0,0.0,0,0.0,0,0.0,0,0.0,0,0.0,0.0,0,0,0,0,0,0,0,0,0,0.0,0,0.0,0,0.0,0,0.0,10,,,,,0,29,29,29,,,,,,,,,269.31983491699793,269.31983491699793,269.31983491699793,269.31983491699793,269.31983491699793,269.31983491699793,269.31983491699793,269.31983491699793,269.2200015833315,269.31983491699793,269.31983491699793,269.31983491699793,269.2200015833315,269.31983491699793,269.31983491699793,269.31983491699793,269.31983491699793,269.31983491699793,269.31983491699793,269.31983491699793,269.31983491699793,269.31983491699793,269.31983491699793,269.31983491699793,269.31983491699793,269.31983491699793,269.31983491699793,269.2700015833315,269.31983491699793,269.31983491699793,269.31983491699793,269.2700015833315,269.31983491699793,269.31983491699793,269.31983491699793,269.31983491699793,269.31983491699793,274.5373639999998,274.5373639999998,279.4726517499985,None,0,,reldom2_s035,001,2025-03-13_17h20.17.244,Aud-B-Scan_AC,2022.2.5,None,
23,Second_Order,4.0,audwhere,stimulus/audwhere_stim/right_toward_300h.wav,stimulus/audwhere_stim/left_toward_270h.wav,stimulus/audwhere_stim/left_away_300h.wav,stimulus/audwhere_stim/right_away_300h.wav,stimulus/audwhat_stim/match_blank.png,stimulus/audwhat_stim/match_box.png,stimulus/audwhat_stim/match_yes.png,stimulus/audwhat_stim/match_no.png,1.0,Match,Direction,Direction,1,5.125,0,5.125,0,5.125,0,5.125,0,0.75,0.75,0,0,0,0,0,0,0,0,1,0.5,1,2.125,1,0.5,1,2.125,0,,,,,0,30,30,30,,,,,,,,,279.4726517499985,284.58946424999885,279.4726517499985,279.4726517499985,279.4726517499985,279.4726517499985,279.9255032919973,280.9127508329984,279.93976870866413,,281.54848433299776,282.54617595799937,281.5607712496642,,284.58946424999885,285.42761099999916,287.49915820800015,291.44088304199977,285.42761099999916,285.42761099999916,290.5925003329976,285.42761099999916,285.42761099999916,285.42761099999916,285.42761099999916,285.88652508299856,286.9446529579982,285.85695808366677,,287.49915820800015,288.56190358299864,287.46977774966604,,285.42761099999916,290.5925003329976,285.42761099999916,290.5925003329976,290.6334605419979,,285.42761099999916,1,1,1.0539052500025718,reldom2_s035,001,2025-03-13_17h20.17.244,Aud-B-Scan_AC,2022.2.5,None,
24,Second_Order,4.0,audwhere,stimulus/audwhere_stim/right_toward_300h.wav,stimulus/audwhere_stim/left_toward_300h.wav,stimulus/audwhere_stim/left_away_290h.wav,stimulus/audwhere_stim/right_away_280h.wav,stimulus/audwhat_stim/match_blank.png,stimulus/audwhat_stim/match_box.png,stimulus/audwhat_stim/match_yes.png,stimulus/audwhat_stim/match_no.png,1.0,Match,Direction,Direction,1,5.125,0,5.125,0,5.125,0,5.125,0,0.625,0.625,0,0,0,0,0,0,0,0,1,0.5,1,2.125,1,0.5,1,2.125,0,,,,,0,31,31,31,,,,,,,,,291.44088304199977,296.5616092499986,291.44088304199977,291.44088304199977,291.44088304199977,291.44088304199977,291.90086195799813,292.8902753329967,291.90400533366505,,293.5255327499981,294.52364179199867,293.53807174966664,,296.5616092499986,297.296451582999,299.3522805829998,,297.296451582999,297.296451582999,302.47453958299957,297.296451582999,297.296451582999,297.296451582999,297.296451582999,297.7524213329998,298.8018943749994,297.7232874996664,,299.3522805829998,300.4126229169997,299.3233204996652,,297.296451582999,302.47453958299957,297.296451582999,302.47453958299957,302.47453958299957,303.1599227079969,297.296451582999,1,1,1.173275001001457,reldom2_s035,001,2025-03-13_17h20.17.244,Aud-B-Scan_AC,2022.2.5,None,
0,0.0,None,fixation,stimulus/audwhat_stim/blank_white.png,stimulus/audwhat_stim/blank_white.png,stimulus/audwhere_stim/blank_white.png,stimulus/audwhere_stim/blank_white.png,stimulus/audwhat_stim/blank_white.png,stimulus/audwhat_stim/blank_white.png,stimulus/audwhat_stim/blank_white.png,stimulus/audwhat_stim/blank_white.png,0.0,0.0,0.0,0.0,0,0.0,0,0.0,0,0.0,0,0.0,0,0.0,0.0,0,0,0,0,0,0,0,0,0,0.0,0,0.0,0,0.0,0,0.0,9,,,,,0,32,32,32,,,,,,,,,303.392649874997,303.392649874997,303.392649874997,303.392649874997,303.392649874997,303.392649874997,303.392649874997,303.392649874997,303.2932560413302,303.392649874997,303.392649874997,303.392649874997,303.2932560413302,303.392649874997,303.392649874997,303.392649874997,303.392649874997,303.392649874997,303.392649874997,303.392649874997,303.392649874997,303.392649874997,303.392649874997,303.392649874997,303.392649874997,303.392649874997,303.392649874997,303.3432560413302,303.392649874997,303.392649874997,303.392649874997,303.3432560413302,303.392649874997,303.392649874997,303.392649874997,303.392649874997,303.392649874997,308.62656849999985,308.62656849999985,312.6340569169988,None,0,,reldom2_s035,001,2025-03-13_17h20.17.244,Aud-B-Scan_AC,2022.2.5,None,
25,First_Order,5.0,audwhat,stimulus/audwhat_stim/dummy.wav,stimulus/audwhat_stim/dummy.wav,stimulus/audwhat_stim/percussion xylophone_high-pitch_Ftri_loud.wav,stimulus/audwhat_stim/percussion mallet_low-pitch_F_loud.wav,stimulus/audwhat_stim/blank_white.png,stimulus/audwhat_stim/pitch_box.png,stimulus/audwhat_stim/pitch_yes.png,stimulus/audwhat_stim/pitch_no.png,None,Pitch,None,Category,2,0.0,0,5.125,0,5.125,0,5.125,0,0.0,0.625,0,0,0,0,0,0,0,0,0,0.0,0,0.0,1,0.5,1,2.125,0,,,,,0,33,33,33,,,,,,,,,312.6340569169988,312.6340569169988,312.6340569169988,312.6340569169988,312.6340569169988,312.6340569169988,312.6340569169988,312.6340569169988,312.56265162466536,312.6340569169988,312.6340569169988,312.6340569169988,312.56265162466536,312.6340569169988,312.6340569169988,312.6340569169988,314.7100455419968,318.74913787499827,312.6340569169988,312.6340569169988,317.80506483299905,312.6340569169988,312.6340569169988,312.6340569169988,312.6340569169988,313.0953615419967,314.1586497919998,313.06595366666465,314.112616082999,314.7100455419968,315.7784190829989,314.6803019166657,,312.6340569169988,317.80506483299905,312.6340569169988,317.80506483299905,317.84590408299846,318.4966674169991,312.6340569169988,2,1,0.8311480840020522,reldom2_s035,001,2025-03-13_17h20.17.244,Aud-B-Scan_AC,2022.2.5,None,
26,First_Order,5.0,audwhat,stimulus/audwhat_stim/dummy.wav,stimulus/audwhat_stim/dummy.wav,stimulus/audwhat_stim/percussion mallet_low-pitch_Dtri_loud.wav,stimulus/audwhat_stim/percussion xylophone_high-pitch_Ftri_loud.wav,stimulus/audwhat_stim/blank_white.png,stimulus/audwhat_stim/category_box.png,stimulus/audwhat_stim/category_yes.png,stimulus/audwhat_stim/category_no.png,None,Category,None,Category,1,0.0,0,5.125,0,5.125,0,5.125,0,0.0,0.625,0,0,0,0,0,0,0,0,0,0.0,0,0.0,1,0.5,1,2.125,0,,,,,0,34,34,34,,,,,,,,,318.74913787499827,318.74913787499827,318.74913787499827,318.74913787499827,318.74913787499827,318.74913787499827,318.74913787499827,318.74913787499827,318.6701914163333,318.74913787499827,318.74913787499827,318.74913787499827,318.6701914163333,318.74913787499827,318.74913787499827,318.74913787499827,320.8354083749982,,318.74913787499827,318.74913787499827,323.8992162919967,318.74913787499827,318.74913787499827,318.74913787499827,318.74913787499827,319.21221862499806,320.28031354199993,319.18238637466516,,320.8354083749982,321.90559974999996,320.8059299166637,321.85963454199737,318.74913787499827,323.8992162919967,318.74913787499827,323.8992162919967,323.9397790829971,324.5917991669994,318.74913787499827,1,1,1.9802421670028707,reldom2_s035,001,2025-03-13_17h20.17.244,Aud-B-Scan_AC,2022.2.5,None,
27,First_Order,5.0,audwhat,stimulus/audwhat_stim/dummy.wav,stimulus/audwhat_stim/dummy.wav,stimulus/audwhat_stim/string cello_low-pitch_Dtri_loud.wav,stimulus/audwhat_stim/percussion mallet_low-pitch_Dtri_loud.wav,stimulus/audwhat_stim/blank_white.png,stimulus/audwhat_stim/pitch_box.png,stimulus/audwhat_stim/pitch_yes.png,stimulus/audwhat_stim/pitch_no.png,None,Pitch,None,Pitch,1,0.0,0,5.125,0,5.125,0,5.125,0,0.0,0.625,0,0,0,0,0,0,0,0,0,0.0,0,0.0,1,0.5,1,2.125,0,,,,,0,35,35,35,,,,,,,,,324.8451435419993,324.8451435419993,324.8451435419993,324.8451435419993,324.8451435419993,324.8451435419993,324.8451435419993,324.8451435419993,324.7659965003314,324.8451435419993,324.8451435419993,324.8451435419993,324.7659965003314,324.8451435419993,324.8451435419993,324.8451435419993,326.92416704199786,330.97268149999945,324.8451435419993,324.8451435419993,330.0265971669978,324.8451435419993,324.8451435419993,324.8451435419993,324.8451435419993,325.3083579999984,326.3704509579984,325.2772167496662,,326.92416704199786,327.99340454199773,326.89442062466355,,324.8451435419993,330.0265971669978,324.8451435419993,330.0265971669978,330.067116582999,330.7192170419985,324.8451435419993,1,1,0.7872630000019853,reldom2_s035,001,2025-03-13_17h20.17.244,Aud-B-Scan_AC,2022.2.5,None,
28,First_Order,5.0,audwhat,stimulus/audwhat_stim/dummy.wav,stimulus/audwhat_stim/dummy.wav,stimulus/audwhat_stim/percussion xylophone_high-pitch_Ftri_loud.wav,stimulus/audwhat_stim/percussion mallet_low-pitch_F_loud.wav,stimulus/audwhat_stim/blank_white.png,stimulus/audwhat_stim/category_box.png,stimulus/audwhat_stim/category_yes.png,stimulus/audwhat_stim/category_no.png,None,Category,None,Category,1,0.0,0,5.125,0,5.125,0,5.125,0,0.0,0.625,0,0,0,0,0,0,0,0,0,0.0,0,0.0,1,0.5,1,2.125,0,,,,,0,36,36,36,,,,,,,,,330.97268149999945,330.97268149999945,330.97268149999945,330.97268149999945,330.97268149999945,330.97268149999945,330.97268149999945,330.97268149999945,330.89326058333074,330.97268149999945,330.97268149999945,330.97268149999945,330.89326058333074,330.97268149999945,330.97268149999945,330.97268149999945,333.06693424999685,337.1055492919986,330.97268149999945,330.97268149999945,336.1341137499985,330.97268149999945,330.97268149999945,330.97268149999945,330.97268149999945,331.4396001669993,332.50931837499957,331.4093562086639,332.4628352079999,333.06693424999685,334.1426116249968,333.03699316666484,,330.97268149999945,336.1341137499985,330.97268149999945,336.1341137499985,336.1753141249974,336.8315346669988,330.97268149999945,1,1,0.6183049170031154,reldom2_s035,001,2025-03-13_17h20.17.244,Aud-B-Scan_AC,2022.2.5,None,
0,0.0,None,fixation,stimulus/audwhat_stim/blank_white.png,stimulus/audwhat_stim/blank_white.png,stimulus/audwhere_stim/blank_white.png,stimulus/audwhere_stim/blank_white.png,stimulus/audwhat_stim/blank_white.png,stimulus/audwhat_stim/blank_white.png,stimulus/audwhat_stim/blank_white.png,stimulus/audwhat_stim/blank_white.png,0.0,0.0,0.0,0.0,0,0.0,0,0.0,0,0.0,0,0.0,0,0.0,0.0,0,0,0,0,0,0,0,0,0,0.0,0,0.0,0,0.0,0,0.0,8,,,,,0,37,37,37,,,,,,,,,337.1055492919986,337.1055492919986,337.1055492919986,337.1055492919986,337.1055492919986,337.1055492919986,337.1055492919986,337.1055492919986,337.0058404583307,337.1055492919986,337.1055492919986,337.1055492919986,337.0058404583307,337.1055492919986,337.1055492919986,337.1055492919986,337.1055492919986,337.1055492919986,337.1055492919986,337.1055492919986,337.1055492919986,337.1055492919986,337.1055492919986,337.1055492919986,337.1055492919986,337.1055492919986,337.1055492919986,337.0558404583307,337.1055492919986,337.1055492919986,337.1055492919986,337.0558404583307,337.1055492919986,337.1055492919986,337.1055492919986,337.1055492919986,337.1055492919986,342.289072749998,342.289072749998,345.25947933299904,None,0,,reldom2_s035,001,2025-03-13_17h20.17.244,Aud-B-Scan_AC,2022.2.5,None,
29,Second_Order,5.0,audwhat,stimulus/audwhat_stim/string viola_low-pitch_Dtri_loud.wav,stimulus/audwhat_stim/percussion mallet_low-pitch_Dtri_loud.wav,stimulus/audwhat_stim/string viola_low-pitch_Dtri_loud.wav,stimulus/audwhat_stim/string cello_high-pitch_Ftri_loud.wav,stimulus/audwhat_stim/match_blank.png,stimulus/audwhat_stim/match_box.png,stimulus/audwhat_stim/match_yes.png,stimulus/audwhat_stim/match_no.png,2.0,Match,Pitch,Category,2,5.125,0,5.125,0,5.125,0,5.125,0,0.75,0.75,0,0,0,0,0,0,0,0,1,0.5,1,2.125,1,0.5,1,2.125,0,,,,,0,38,38,38,,,,,,,,,345.25947933299904,350.3733038749997,345.25947933299904,345.25947933299904,345.25947933299904,345.25947933299904,345.7121592079966,346.711095249997,345.7251467916651,,347.3330890829966,348.3316860419982,347.3455797086647,,350.3733038749997,351.2233810419966,353.29427374999796,,351.2233810419966,351.2233810419966,356.39060508299735,351.2233810419966,351.2233810419966,351.2233810419966,351.2233810419966,351.63830266699733,352.6945789579986,351.60853262466503,,353.29427374999796,354.35959266699865,353.26357545866654,,351.2233810419966,356.39060508299735,351.2233810419966,356.39060508299735,356.39060508299735,,351.2233810419966,2,1,1.0188463750018855,reldom2_s035,001,2025-03-13_17h20.17.244,Aud-B-Scan_AC,2022.2.5,None,
30,Second_Order,5.0,audwhat,stimulus/audwhat_stim/string viola_high-pitch_Ftri_loud.wav,stimulus/audwhat_stim/percussion xylophone_high-pitch_Ftri_loud.wav,stimulus/audwhat_stim/string viola_low-pitch_D_loud.wav,stimulus/audwhat_stim/percussion mallet_low-pitch_D_loud.wav,stimulus/audwhat_stim/match_blank.png,stimulus/audwhat_stim/match_box.png,stimulus/audwhat_stim/match_yes.png,stimulus/audwhat_stim/match_no.png,1.0,Match,Pitch,Pitch,1,5.125,0,5.125,0,5.125,0,5.125,0,0.625,0.625,0,0,0,0,0,0,0,0,1,0.5,1,2.125,1,0.5,1,2.125,0,,,,,0,39,39,39,,,,,,,,,357.1974264579985,362.3184169999986,357.1974264579985,357.1974264579985,357.1974264579985,357.1974264579985,357.65651112499836,358.65550616699693,357.66972470866335,,359.28213649999816,360.279867833,359.2904522086649,360.279867833,362.3184169999986,363.04958016699675,365.1085913329989,369.15460837499995,363.04958016699675,363.04958016699675,368.2371573329983,363.04958016699675,363.04958016699675,363.04958016699675,363.04958016699675,363.5061524169978,364.5585449579994,363.47696887466395,,365.1085913329989,366.1702704999989,365.07914958366405,,363.04958016699675,368.2371573329983,363.04958016699675,368.2371573329983,368.2371573329983,368.9233225829994,363.04958016699675,2,0,1.8098069580046285,reldom2_s035,001,2025-03-13_17h20.17.244,Aud-B-Scan_AC,2022.2.5,None,
0,0.0,None,fixation,stimulus/audwhat_stim/blank_white.png,stimulus/audwhat_stim/blank_white.png,stimulus/audwhere_stim/blank_white.png,stimulus/audwhere_stim/blank_white.png,stimulus/audwhat_stim/blank_white.png,stimulus/audwhat_stim/blank_white.png,stimulus/audwhat_stim/blank_white.png,stimulus/audwhat_stim/blank_white.png,0.0,0.0,0.0,0.0,0,0.0,0,0.0,0,0.0,0,0.0,0,0.0,0.0,0,0,0,0,0,0,0,0,0,0.0,0,0.0,0,0.0,0,0.0,9,,,,,0,40,40,40,,,,,,,,,369.15460837499995,369.15460837499995,369.15460837499995,369.15460837499995,369.15460837499995,369.15460837499995,369.15460837499995,369.15460837499995,369.0566559163327,369.15460837499995,369.15460837499995,369.15460837499995,369.0566559163327,369.15460837499995,369.15460837499995,369.15460837499995,369.15460837499995,369.15460837499995,369.15460837499995,369.15460837499995,369.15460837499995,369.15460837499995,369.15460837499995,369.15460837499995,369.15460837499995,369.15460837499995,369.15460837499995,369.1066559163327,369.15460837499995,369.15460837499995,369.15460837499995,369.1066559163327,369.15460837499995,369.15460837499995,369.15460837499995,369.15460837499995,369.15460837499995,374.35045787499985,374.35045787499985,378.4084160829989,None,0,,reldom2_s035,001,2025-03-13_17h20.17.244,Aud-B-Scan_AC,2022.2.5,None,
31,First_Order,6.0,audwhat,stimulus/audwhat_stim/dummy.wav,stimulus/audwhat_stim/dummy.wav,stimulus/audwhat_stim/string viola_low-pitch_D_loud.wav,stimulus/audwhat_stim/percussion mallet_low-pitch_D_loud.wav,stimulus/audwhat_stim/blank_white.png,stimulus/audwhat_stim/category_box.png,stimulus/audwhat_stim/category_yes.png,stimulus/audwhat_stim/category_no.png,None,Category,None,Pitch,2,0.0,0,5.125,0,5.125,0,5.125,0,0.0,0.625,0,0,0,0,0,0,0,0,0,0.0,0,0.0,1,0.5,1,2.125,0,,,,,0,41,41,41,,,,,,,,,378.4084160829989,378.4084160829989,378.4084160829989,378.4084160829989,378.4084160829989,378.4084160829989,378.4084160829989,378.4084160829989,378.33687491666444,378.4084160829989,378.4084160829989,378.4084160829989,378.33687491666444,378.4084160829989,378.4084160829989,378.4084160829989,380.4935337079987,,378.4084160829989,378.4084160829989,383.55667187499785,378.4084160829989,378.4084160829989,378.4084160829989,378.4084160829989,378.8724778750002,379.93799187499826,378.84274045866573,,380.4935337079987,381.5650864579984,380.46363141666393,,378.4084160829989,383.55667187499785,378.4084160829989,383.55667187499785,383.63787845799743,384.29065654199803,378.4084160829989,2,1,0.7354066260013497,reldom2_s035,001,2025-03-13_17h20.17.244,Aud-B-Scan_AC,2022.2.5,None,
32,First_Order,6.0,audwhat,stimulus/audwhat_stim/dummy.wav,stimulus/audwhat_stim/dummy.wav,stimulus/audwhat_stim/percussion mallet_high-pitch_Dtri_loud.wav,stimulus/audwhat_stim/string viola_high-pitch_Dtri_loud.wav,stimulus/audwhat_stim/blank_white.png,stimulus/audwhat_stim/pitch_box.png,stimulus/audwhat_stim/pitch_yes.png,stimulus/audwhat_stim/pitch_no.png,None,Pitch,None,Pitch,1,0.0,0,5.125,0,5.125,0,5.125,0,0.0,0.625,0,0,0,0,0,0,0,0,0,0.0,0,0.0,1,0.5,1,2.125,0,,,,,0,42,42,42,,,,,,,,,384.5027885419986,384.5027885419986,384.5027885419986,384.5027885419986,384.5027885419986,384.5027885419986,384.5027885419986,384.5027885419986,384.42398987533136,384.5027885419986,384.5027885419986,384.5027885419986,384.42398987533136,384.5027885419986,384.5027885419986,384.5027885419986,386.5811780419972,390.6298918749999,384.5027885419986,384.5027885419986,389.68232508299843,384.5027885419986,384.5027885419986,384.5027885419986,384.5027885419986,384.9652981250001,386.0293101669995,384.93517887466464,,386.5811780419972,387.6464175419969,386.5514141666647,,384.5027885419986,389.68232508299843,384.5027885419986,389.68232508299843,389.72343524999815,390.3771633749966,384.5027885419986,2,0,1.2344442499997967,reldom2_s035,001,2025-03-13_17h20.17.244,Aud-B-Scan_AC,2022.2.5,None,
33,First_Order,6.0,audwhat,stimulus/audwhat_stim/dummy.wav,stimulus/audwhat_stim/dummy.wav,stimulus/audwhat_stim/string cello_high-pitch_D_loud.wav,stimulus/audwhat_stim/string viola_low-pitch_F_loud.wav,stimulus/audwhat_stim/blank_white.png,stimulus/audwhat_stim/pitch_box.png,stimulus/audwhat_stim/pitch_yes.png,stimulus/audwhat_stim/pitch_no.png,None,Pitch,None,Category,2,0.0,0,5.125,0,5.125,0,5.125,0,0.0,0.625,0,0,0,0,0,0,0,0,0,0.0,0,0.0,1,0.5,1,2.125,0,,,,,0,43,43,43,,,,,,,,,390.6298918749999,390.6298918749999,390.6298918749999,390.6298918749999,390.6298918749999,390.6298918749999,390.6298918749999,390.6298918749999,390.5510933753304,390.6298918749999,390.6298918749999,390.6298918749999,390.5510933753304,390.6298918749999,390.6298918749999,390.6298918749999,392.710452583,396.7539586669991,390.6298918749999,390.6298918749999,395.8082554579996,390.6298918749999,390.6298918749999,390.6298918749999,390.6298918749999,391.09128375,392.1572869999982,391.06153129166364,,392.710452583,393.7778088749983,392.68054549966496,,390.6298918749999,395.8082554579996,390.6298918749999,395.8082554579996,395.8488878749995,396.5011453329971,390.6298918749999,2,1,1.1017987510022067,reldom2_s035,001,2025-03-13_17h20.17.244,Aud-B-Scan_AC,2022.2.5,None,
34,First_Order,6.0,audwhat,stimulus/audwhat_stim/dummy.wav,stimulus/audwhat_stim/dummy.wav,stimulus/audwhat_stim/percussion mallet_low-pitch_F_loud.wav,stimulus/audwhat_stim/string viola_low-pitch_F_loud.wav,stimulus/audwhat_stim/blank_white.png,stimulus/audwhat_stim/category_box.png,stimulus/audwhat_stim/category_yes.png,stimulus/audwhat_stim/category_no.png,None,Category,None,Pitch,2,0.0,0,5.125,0,5.125,0,5.125,0,0.0,0.625,0,0,0,0,0,0,0,0,0,0.0,0,0.0,1,0.5,1,2.125,0,,,,,0,44,44,44,,,,,,,,,396.7539586669991,396.7539586669991,396.7539586669991,396.7539586669991,396.7539586669991,396.7539586669991,396.7539586669991,396.7539586669991,396.67517075033004,396.7539586669991,396.7539586669991,396.7539586669991,396.67517075033004,396.7539586669991,396.7539586669991,396.7539586669991,398.8515454169974,402.8941534999976,396.7539586669991,396.7539586669991,401.92459416699785,396.7539586669991,396.7539586669991,396.7539586669991,396.7539586669991,397.2201812919993,398.293606457999,397.1902479586645,,398.8515454169974,399.92699625000023,398.8212404586668,,396.7539586669991,401.92459416699785,396.7539586669991,401.92459416699785,401.96528599999874,402.62011379199976,396.7539586669991,2,1,0.9377335420031159,reldom2_s035,001,2025-03-13_17h20.17.244,Aud-B-Scan_AC,2022.2.5,None,
0,0.0,None,fixation,stimulus/audwhat_stim/blank_white.png,stimulus/audwhat_stim/blank_white.png,stimulus/audwhere_stim/blank_white.png,stimulus/audwhere_stim/blank_white.png,stimulus/audwhat_stim/blank_white.png,stimulus/audwhat_stim/blank_white.png,stimulus/audwhat_stim/blank_white.png,stimulus/audwhat_stim/blank_white.png,0.0,0.0,0.0,0.0,0,0.0,0,0.0,0,0.0,0,0.0,0,0.0,0.0,0,0,0,0,0,0,0,0,0,0.0,0,0.0,0,0.0,0,0.0,9,,,,,0,45,45,45,,,,,,,,,402.8941534999976,402.8941534999976,402.8941534999976,402.8941534999976,402.8941534999976,402.8941534999976,402.8941534999976,402.8941534999976,402.79431787533224,402.8941534999976,402.8941534999976,402.8941534999976,402.79431787533224,402.8941534999976,402.8941534999976,402.8941534999976,402.8941534999976,402.8941534999976,402.8941534999976,402.8941534999976,402.8941534999976,402.8941534999976,402.8941534999976,402.8941534999976,402.8941534999976,402.8941534999976,402.8941534999976,402.84431787533225,402.8941534999976,402.8941534999976,402.8941534999976,402.84431787533225,402.8941534999976,402.8941534999976,402.8941534999976,402.8941534999976,402.8941534999976,408.0817662499976,408.0817662499976,412.07089354199707,None,0,,reldom2_s035,001,2025-03-13_17h20.17.244,Aud-B-Scan_AC,2022.2.5,None,
35,Second_Order,6.0,audwhat,stimulus/audwhat_stim/string cello_low-pitch_D_loud.wav,stimulus/audwhat_stim/percussion mallet_low-pitch_D_loud.wav,stimulus/audwhat_stim/percussion mallet_low-pitch_D_loud.wav,stimulus/audwhat_stim/percussion xylophone_high-pitch_Ftri_loud.wav,stimulus/audwhat_stim/match_blank.png,stimulus/audwhat_stim/match_box.png,stimulus/audwhat_stim/match_yes.png,stimulus/audwhat_stim/match_no.png,2.0,Match,Pitch,Category,2,5.125,0,5.125,0,5.125,0,5.125,0,0.75,0.75,0,0,0,0,0,0,0,0,1,0.5,1,2.125,1,0.5,1,2.125,0,,,,,0,46,46,46,,,,,,,,,412.07089354199707,417.19516912499967,412.07089354199707,412.07089354199707,412.07089354199707,412.07089354199707,412.52970141699916,413.5194064999996,412.5323057086646,,414.15437579199715,415.152503041998,414.16689270866505,,417.19516912499967,418.0454037499985,420.12323187499715,424.0318736249974,418.0454037499985,418.0454037499985,423.222615374998,418.0454037499985,418.0454037499985,418.0454037499985,418.0454037499985,418.45931729199947,419.5223950419968,418.4295085836641,,420.12323187499715,421.1929939169968,420.09342133366613,421.14614133299983,418.0454037499985,423.222615374998,418.0454037499985,423.222615374998,423.222615374998,,418.0454037499985,2,1,0.8992466670024442,reldom2_s035,001,2025-03-13_17h20.17.244,Aud-B-Scan_AC,2022.2.5,None,
36,Second_Order,6.0,audwhat,stimulus/audwhat_stim/string cello_low-pitch_Dtri_loud.wav,stimulus/audwhat_stim/percussion mallet_low-pitch_Dtri_loud.wav,stimulus/audwhat_stim/string viola_high-pitch_F_loud.wav,stimulus/audwhat_stim/percussion xylophone_high-pitch_F_loud.wav,stimulus/audwhat_stim/match_blank.png,stimulus/audwhat_stim/match_box.png,stimulus/audwhat_stim/match_yes.png,stimulus/audwhat_stim/match_no.png,1.0,Match,Pitch,Pitch,1,5.125,0,5.125,0,5.125,0,5.125,0,0.625,0.625,0,0,0,0,0,0,0,0,1,0.5,1,2.125,1,0.5,1,2.125,0,,,,,0,47,47,47,,,,,,,,,424.0318736249974,429.15591324999696,424.0318736249974,424.0318736249974,424.0318736249974,424.0318736249974,424.4908048749967,425.48021595799946,424.49381212466346,,426.1155039999976,427.11348995799926,426.127658333666,,429.15591324999696,429.88604795799984,431.9504537920002,435.9965455829988,429.88604795799984,429.88604795799984,435.0717017079987,429.88604795799984,429.88604795799984,429.88604795799984,429.88604795799984,430.34314512499986,431.40055158299947,430.3138060416643,,431.9504537920002,433.0068522499969,431.9208766666636,432.9609057919988,429.88604795799984,435.0717017079987,429.88604795799984,435.0717017079987,435.0717017079987,435.72397649999766,429.88604795799984,2,0,1.155715250002686,reldom2_s035,001,2025-03-13_17h20.17.244,Aud-B-Scan_AC,2022.2.5,None,
0,0.0,None,fixation,stimulus/audwhat_stim/blank_white.png,stimulus/audwhat_stim/blank_white.png,stimulus/audwhere_stim/blank_white.png,stimulus/audwhere_stim/blank_white.png,stimulus/audwhat_stim/blank_white.png,stimulus/audwhat_stim/blank_white.png,stimulus/audwhat_stim/blank_white.png,stimulus/audwhat_stim/blank_white.png,0.0,0.0,0.0,0.0,0,0.0,0,0.0,0,0.0,0,0.0,0,0.0,0.0,0,0,0,0,0,0,0,0,0,0.0,0,0.0,0,0.0,0,0.0,10,,,,,0,48,48,48,,,,,,,,,435.9965455829988,435.9965455829988,435.9965455829988,435.9965455829988,435.9965455829988,435.9965455829988,435.9965455829988,435.9965455829988,435.8978763333308,435.9965455829988,435.9965455829988,435.9965455829988,435.8978763333308,435.9965455829988,435.9965455829988,435.9965455829988,435.9965455829988,435.9965455829988,435.9965455829988,435.9965455829988,435.9965455829988,435.9965455829988,435.9965455829988,435.9965455829988,435.9965455829988,435.9965455829988,435.9965455829988,435.94787633333084,435.9965455829988,435.9965455829988,435.9965455829988,435.94787633333084,435.9965455829988,435.9965455829988,435.9965455829988,435.9965455829988,435.9965455829988,441.1964866249982,441.1964866249982,446.21689100000003,None,0,,reldom2_s035,001,2025-03-13_17h20.17.244,Aud-B-Scan_AC,2022.2.5,None,
37,First_Order,7.0,audwhere,stimulus/audwhere_stim/dummy.wav,stimulus/audwhere_stim/dummy.wav,stimulus/audwhere_stim/right_toward_300h.wav,stimulus/audwhere_stim/left_toward_290h.wav,stimulus/audwhere_stim/blank_white.png,stimulus/audwhere_stim/direction_box.png,stimulus/audwhere_stim/direction_yes.png,stimulus/audwhere_stim/direction_no.png,None,Direction,None,Direction,1,0.0,0,5.125,0,5.125,0,5.125,0,0.0,0.625,0,0,0,0,0,0,0,0,0,0.0,0,0.0,1,0.5,1,2.125,0,,,,,0,49,49,49,,,,,,,,,446.21689100000003,446.21689100000003,446.21689100000003,446.21689100000003,446.21689100000003,446.21689100000003,446.21689100000003,446.21689100000003,446.1457225416658,446.21689100000003,446.21689100000003,446.21689100000003,446.1457225416658,446.21689100000003,446.21689100000003,446.21689100000003,448.30729679199794,,446.21689100000003,446.21689100000003,451.3718073329983,446.21689100000003,446.21689100000003,446.21689100000003,446.21689100000003,446.68297458300003,447.7530735829969,446.6531803746659,,448.30729679199794,449.37708912499875,448.2771904586664,,446.21689100000003,451.3718073329983,446.21689100000003,451.3718073329983,451.4126064999982,452.0649284579995,446.21689100000003,1,1,1.3289767500027665,reldom2_s035,001,2025-03-13_17h20.17.244,Aud-B-Scan_AC,2022.2.5,None,
38,First_Order,7.0,audwhere,stimulus/audwhere_stim/dummy.wav,stimulus/audwhere_stim/dummy.wav,stimulus/audwhere_stim/right_toward_290h.wav,stimulus/audwhere_stim/right_away_270h.wav,stimulus/audwhere_stim/blank_white.png,stimulus/audwhere_stim/side_box.png,stimulus/audwhere_stim/side_yes.png,stimulus/audwhere_stim/side_no.png,None,Side,None,Side,1,0.0,0,5.125,0,5.125,0,5.125,0,0.0,0.625,0,0,0,0,0,0,0,0,0,0.0,0,0.0,1,0.5,1,2.125,0,,,,,0,50,50,50,,,,,,,,,452.3178490829996,452.3178490829996,452.3178490829996,452.3178490829996,452.3178490829996,452.3178490829996,452.3178490829996,452.3178490829996,452.2388657913308,452.3178490829996,452.3178490829996,452.3178490829996,452.2388657913308,452.3178490829996,452.3178490829996,452.3178490829996,454.3977091249981,458.44140391699693,452.3178490829996,452.3178490829996,457.4964291669967,452.3178490829996,452.3178490829996,452.3178490829996,452.3178490829996,452.78109104199757,453.84528466699703,452.7513434166651,,454.3977091249981,455.4645770419993,454.36800441666514,,452.3178490829996,457.4964291669967,452.3178490829996,457.4964291669967,457.5374849169966,458.1894913750002,452.3178490829996,1,1,0.775799167000514,reldom2_s035,001,2025-03-13_17h20.17.244,Aud-B-Scan_AC,2022.2.5,None,
39,First_Order,7.0,audwhere,stimulus/audwhere_stim/dummy.wav,stimulus/audwhere_stim/dummy.wav,stimulus/audwhere_stim/left_away_290h.wav,stimulus/audwhere_stim/left_toward_290h.wav,stimulus/audwhere_stim/blank_white.png,stimulus/audwhere_stim/direction_box.png,stimulus/audwhere_stim/direction_yes.png,stimulus/audwhere_stim/direction_no.png,None,Direction,None,Side,2,0.0,0,5.125,0,5.125,0,5.125,0,0.0,0.625,0,0,0,0,0,0,0,0,0,0.0,0,0.0,1,0.5,1,2.125,0,,,,,0,51,51,51,,,,,,,,,458.44140391699693,458.44140391699693,458.44140391699693,458.44140391699693,458.44140391699693,458.44140391699693,458.44140391699693,458.44140391699693,458.3631796253304,458.44140391699693,458.44140391699693,458.44140391699693,458.3631796253304,458.44140391699693,458.44140391699693,458.44140391699693,460.53627199999755,464.5599954169993,458.44140391699693,458.44140391699693,463.6092742919973,458.44140391699693,458.44140391699693,458.44140391699693,458.44140391699693,458.90827654199893,459.979121417,458.878272999664,,460.53627199999755,461.6092563329985,460.5065274166666,,458.44140391699693,463.6092742919973,458.44140391699693,463.6092742919973,463.650301624999,464.3067537499992,458.44140391699693,1,0,1.955522917003691,reldom2_s035,001,2025-03-13_17h20.17.244,Aud-B-Scan_AC,2022.2.5,None,
40,First_Order,7.0,audwhere,stimulus/audwhere_stim/dummy.wav,stimulus/audwhere_stim/dummy.wav,stimulus/audwhere_stim/right_away_280h.wav,stimulus/audwhere_stim/right_toward_290h.wav,stimulus/audwhere_stim/blank_white.png,stimulus/audwhere_stim/direction_box.png,stimulus/audwhere_stim/direction_yes.png,stimulus/audwhere_stim/direction_no.png,None,Direction,None,Side,2,0.0,0,5.125,0,5.125,0,5.125,0,0.0,0.625,0,0,0,0,0,0,0,0,0,0.0,0,0.0,1,0.5,1,2.125,0,,,,,0,52,52,52,,,,,,,,,464.5599954169993,464.5599954169993,464.5599954169993,464.5599954169993,464.5599954169993,464.5599954169993,464.5599954169993,464.5599954169993,464.481220541331,464.5599954169993,464.5599954169993,464.5599954169993,464.481220541331,464.5599954169993,464.5599954169993,464.5599954169993,466.6531688750001,470.69301433299916,464.5599954169993,464.5599954169993,469.7232063329975,464.5599954169993,464.5599954169993,464.5599954169993,464.5599954169993,465.02468045799833,466.0958658749987,464.9948533746649,,466.6531688750001,467.72534387499763,466.62341666666566,,464.5599954169993,469.7232063329975,464.5599954169993,469.7232063329975,469.7643556669973,470.4192561669988,464.5599954169993,2,1,1.5266892090039619,reldom2_s035,001,2025-03-13_17h20.17.244,Aud-B-Scan_AC,2022.2.5,None,
0,0.0,None,fixation,stimulus/audwhat_stim/blank_white.png,stimulus/audwhat_stim/blank_white.png,stimulus/audwhere_stim/blank_white.png,stimulus/audwhere_stim/blank_white.png,stimulus/audwhat_stim/blank_white.png,stimulus/audwhat_stim/blank_white.png,stimulus/audwhat_stim/blank_white.png,stimulus/audwhat_stim/blank_white.png,0.0,0.0,0.0,0.0,0,0.0,0,0.0,0,0.0,0,0.0,0,0.0,0.0,0,0,0,0,0,0,0,0,0,0.0,0,0.0,0,0.0,0,0.0,8,,,,,0,53,53,53,,,,,,,,,470.69301433299916,470.69301433299916,470.69301433299916,470.69301433299916,470.69301433299916,470.69301433299916,470.69301433299916,470.69301433299916,470.59347141633236,470.69301433299916,470.69301433299916,470.69301433299916,470.59347141633236,470.69301433299916,470.69301433299916,470.69301433299916,470.69301433299916,470.69301433299916,470.69301433299916,470.69301433299916,470.69301433299916,470.69301433299916,470.69301433299916,470.69301433299916,470.69301433299916,470.69301433299916,470.69301433299916,470.6434714163324,470.69301433299916,470.69301433299916,470.69301433299916,470.6434714163324,470.69301433299916,470.69301433299916,470.69301433299916,470.69301433299916,470.69301433299916,475.8781975419988,475.8781975419988,478.85311083299894,None,0,,reldom2_s035,001,2025-03-13_17h20.17.244,Aud-B-Scan_AC,2022.2.5,None,
41,Second_Order,7.0,audwhere,stimulus/audwhere_stim/left_toward_300h.wav,stimulus/audwhere_stim/right_toward_280h.wav,stimulus/audwhere_stim/right_toward_270h.wav,stimulus/audwhere_stim/right_away_290h.wav,stimulus/audwhat_stim/match_blank.png,stimulus/audwhat_stim/match_box.png,stimulus/audwhat_stim/match_yes.png,stimulus/audwhat_stim/match_no.png,2.0,Match,Direction,Side,2,5.125,0,5.125,0,5.125,0,5.125,0,0.75,0.75,0,0,0,0,0,0,0,0,1,0.5,1,2.125,1,0.5,1,2.125,0,,,,,0,54,54,54,,,,,,,,,478.85311083299894,483.96600229199976,478.85311083299894,478.85311083299894,478.85311083299894,478.85311083299894,479.3031866249985,480.2904837499991,479.3170542496666,,480.93742483299866,481.92722608299664,480.9413413746663,,483.96600229199976,484.81608037499973,486.89116566699886,,484.81608037499973,484.81608037499973,489.98730633299783,484.81608037499973,484.81608037499973,484.81608037499973,484.81608037499973,485.2769564579976,486.33864812499814,485.2458695836651,,486.89116566699886,487.95847370799675,486.8612875416659,,484.81608037499973,489.98730633299783,484.81608037499973,489.98730633299783,489.98730633299783,,484.81608037499973,2,1,0.9911340840008052,reldom2_s035,001,2025-03-13_17h20.17.244,Aud-B-Scan_AC,2022.2.5,None,
42,Second_Order,7.0,audwhere,stimulus/audwhere_stim/right_toward_290h.wav,stimulus/audwhere_stim/left_toward_270h.wav,stimulus/audwhere_stim/left_toward_290h.wav,stimulus/audwhere_stim/left_away_280h.wav,stimulus/audwhat_stim/match_blank.png,stimulus/audwhat_stim/match_box.png,stimulus/audwhat_stim/match_yes.png,stimulus/audwhat_stim/match_no.png,2.0,Match,Direction,Side,2,5.125,0,5.125,0,5.125,0,5.125,0,0.625,0.625,0,0,0,0,0,0,0,0,1,0.5,1,2.125,1,0.5,1,2.125,0,,,,,0,55,55,55,,,,,,,,,490.79790045799746,495.9101656249986,490.79790045799746,490.79790045799746,490.79790045799746,490.79790045799746,491.2487220829971,492.24744912499955,491.2613633746662,,492.8821331250001,493.87106341699837,492.8853232916665,493.87106341699837,495.9101656249986,496.64120895799715,498.7000982919999,502.7443480000002,496.64120895799715,496.64120895799715,501.82483104199855,496.64120895799715,496.64120895799715,496.64120895799715,496.64120895799715,497.09585049999805,498.14956812499804,497.0667425836657,,498.7000982919999,499.759130041999,498.6705188746639,,496.64120895799715,501.82483104199855,496.64120895799715,501.82483104199855,501.82483104199855,502.5119714579996,496.64120895799715,2,1,1.0443339170014951,reldom2_s035,001,2025-03-13_17h20.17.244,Aud-B-Scan_AC,2022.2.5,None,
0,0.0,None,fixation,stimulus/audwhat_stim/blank_white.png,stimulus/audwhat_stim/blank_white.png,stimulus/audwhere_stim/blank_white.png,stimulus/audwhere_stim/blank_white.png,stimulus/audwhat_stim/blank_white.png,stimulus/audwhat_stim/blank_white.png,stimulus/audwhat_stim/blank_white.png,stimulus/audwhat_stim/blank_white.png,0.0,0.0,0.0,0.0,0,0.0,0,0.0,0,0.0,0,0.0,0,0.0,0.0,0,0,0,0,0,0,0,0,0,0.0,0,0.0,0,0.0,0,0.0,10,,,,,0,56,56,56,,,,,,,,,502.7443480000002,502.7443480000002,502.7443480000002,502.7443480000002,502.7443480000002,502.7443480000002,502.7443480000002,502.7443480000002,502.64530479133293,502.7443480000002,502.7443480000002,502.7443480000002,502.64530479133293,502.7443480000002,502.7443480000002,502.7443480000002,502.7443480000002,502.7443480000002,502.7443480000002,502.7443480000002,502.7443480000002,502.7443480000002,502.7443480000002,502.7443480000002,502.7443480000002,502.7443480000002,502.7443480000002,502.69530479133294,502.7443480000002,502.7443480000002,502.7443480000002,502.69530479133294,502.7443480000002,502.7443480000002,502.7443480000002,502.7443480000002,502.7443480000002,507.94197662499937,507.94197662499937,513.0129860829984,None,0,,reldom2_s035,001,2025-03-13_17h20.17.244,Aud-B-Scan_AC,2022.2.5,None,
43,First_Order,8.0,audwhere,stimulus/audwhere_stim/dummy.wav,stimulus/audwhere_stim/dummy.wav,stimulus/audwhere_stim/right_toward_270h.wav,stimulus/audwhere_stim/left_toward_300h.wav,stimulus/audwhere_stim/blank_white.png,stimulus/audwhere_stim/side_box.png,stimulus/audwhere_stim/side_yes.png,stimulus/audwhere_stim/side_no.png,None,Side,None,Direction,2,0.0,0,5.125,0,5.125,0,5.125,0,0.0,0.625,0,0,0,0,0,0,0,0,0,0.0,0,0.0,1,0.5,1,2.125,0,,,,,0,57,57,57,,,,,,,,,513.0129860829984,513.0129860829984,513.0129860829984,513.0129860829984,513.0129860829984,513.0129860829984,513.0129860829984,513.0129860829984,512.9428483746657,513.0129860829984,513.0129860829984,513.0129860829984,512.9428483746657,513.0129860829984,513.0129860829984,513.0129860829984,515.0936371249991,519.1382394579996,513.0129860829984,513.0129860829984,518.1938916250001,513.0129860829984,513.0129860829984,513.0129860829984,513.0129860829984,513.4770568329986,514.5394087079985,513.4470345836637,,515.0936371249991,516.1598772079997,515.0641702086652,,513.0129860829984,518.1938916250001,513.0129860829984,518.1938916250001,518.2348118329974,518.8863492079981,513.0129860829984,2,1,1.4099463340025977,reldom2_s035,001,2025-03-13_17h20.17.244,Aud-B-Scan_AC,2022.2.5,None,
44,First_Order,8.0,audwhere,stimulus/audwhere_stim/dummy.wav,stimulus/audwhere_stim/dummy.wav,stimulus/audwhere_stim/right_toward_270h.wav,stimulus/audwhere_stim/left_toward_280h.wav,stimulus/audwhere_stim/blank_white.png,stimulus/audwhere_stim/side_box.png,stimulus/audwhere_stim/side_yes.png,stimulus/audwhere_stim/side_no.png,None,Side,None,Direction,2,0.0,0,5.125,0,5.125,0,5.125,0,0.0,0.625,0,0,0,0,0,0,0,0,0,0.0,0,0.0,1,0.5,1,2.125,0,,,,,0,58,58,58,,,,,,,,,519.1382394579996,519.1382394579996,519.1382394579996,519.1382394579996,519.1382394579996,519.1382394579996,519.1382394579996,519.1382394579996,519.0599985003302,519.1382394579996,519.1382394579996,519.1382394579996,519.0599985003302,519.1382394579996,519.1382394579996,519.1382394579996,521.2172889579997,525.2585533749989,519.1382394579996,519.1382394579996,524.3156657499967,519.1382394579996,519.1382394579996,519.1382394579996,519.1382394579996,519.6006922919987,520.6628198749968,519.5715411666645,,521.2172889579997,522.2839107499967,521.187412333664,,519.1382394579996,524.3156657499967,519.1382394579996,524.3156657499967,524.3564734579995,525.0063662079992,519.1382394579996,2,1,1.176576167003077,reldom2_s035,001,2025-03-13_17h20.17.244,Aud-B-Scan_AC,2022.2.5,None,
45,First_Order,8.0,audwhere,stimulus/audwhere_stim/dummy.wav,stimulus/audwhere_stim/dummy.wav,stimulus/audwhere_stim/right_toward_270h.wav,stimulus/audwhere_stim/left_toward_290h.wav,stimulus/audwhere_stim/blank_white.png,stimulus/audwhere_stim/direction_box.png,stimulus/audwhere_stim/direction_yes.png,stimulus/audwhere_stim/direction_no.png,None,Direction,None,Direction,1,0.0,0,5.125,0,5.125,0,5.125,0,0.0,0.625,0,0,0,0,0,0,0,0,0,0.0,0,0.0,1,0.5,1,2.125,0,,,,,0,59,59,59,,,,,,,,,525.2585533749989,525.2585533749989,525.2585533749989,525.2585533749989,525.2585533749989,525.2585533749989,525.2585533749989,525.2585533749989,525.1801002503327,525.2585533749989,525.2585533749989,525.2585533749989,525.1801002503327,525.2585533749989,525.2585533749989,525.2585533749989,527.3559556250002,531.3806092079976,525.2585533749989,525.2585533749989,530.4306344999968,525.2585533749989,525.2585533749989,525.2585533749989,525.2585533749989,525.7252194169996,526.796756374999,525.6950337916644,,527.3559556250002,528.4284976669987,527.3251452086663,,525.2585533749989,530.4306344999968,525.2585533749989,530.4306344999968,530.4718237079978,531.1259965829995,525.2585533749989,1,1,0.9744788750031148,reldom2_s035,001,2025-03-13_17h20.17.244,Aud-B-Scan_AC,2022.2.5,None,
46,First_Order,8.0,audwhere,stimulus/audwhere_stim/dummy.wav,stimulus/audwhere_stim/dummy.wav,stimulus/audwhere_stim/left_away_300h.wav,stimulus/audwhere_stim/left_toward_300h.wav,stimulus/audwhere_stim/blank_white.png,stimulus/audwhere_stim/side_box.png,stimulus/audwhere_stim/side_yes.png,stimulus/audwhere_stim/side_no.png,None,Side,None,Side,1,0.0,0,5.125,0,5.125,0,5.125,0,0.0,0.625,0,0,0,0,0,0,0,0,0,0.0,0,0.0,1,0.5,1,2.125,0,,,,,0,60,60,60,,,,,,,,,531.3806092079976,531.3806092079976,531.3806092079976,531.3806092079976,531.3806092079976,531.3806092079976,531.3806092079976,531.3806092079976,531.2995401663303,531.3806092079976,531.3806092079976,531.3806092079976,531.2995401663303,531.3806092079976,531.3806092079976,531.3806092079976,533.4634776669991,,531.3806092079976,531.3806092079976,536.5677347499986,531.3806092079976,531.3806092079976,531.3806092079976,531.3806092079976,531.8445892079981,532.9069942079987,531.8149815416657,,533.4634776669991,534.5325752499994,533.4336980836636,,531.3806092079976,536.5677347499986,531.3806092079976,536.5677347499986,536.608565999999,537.2611357079986,531.3806092079976,1,1,0.8254475420035305,reldom2_s035,001,2025-03-13_17h20.17.244,Aud-B-Scan_AC,2022.2.5,None,
0,0.0,None,fixation,stimulus/audwhat_stim/blank_white.png,stimulus/audwhat_stim/blank_white.png,stimulus/audwhere_stim/blank_white.png,stimulus/audwhere_stim/blank_white.png,stimulus/audwhat_stim/blank_white.png,stimulus/audwhat_stim/blank_white.png,stimulus/audwhat_stim/blank_white.png,stimulus/audwhat_stim/blank_white.png,0.0,0.0,0.0,0.0,0,0.0,0,0.0,0,0.0,0,0.0,0,0.0,0.0,0,0,0,0,0,0,0,0,0,0.0,0,0.0,0,0.0,0,0.0,9,,,,,0,61,61,61,,,,,,,,,537.4950381669987,537.4950381669987,537.4950381669987,537.4950381669987,537.4950381669987,537.4950381669987,537.4950381669987,537.4950381669987,537.394469041332,537.4950381669987,537.4950381669987,537.4950381669987,537.394469041332,537.4950381669987,537.4950381669987,537.4950381669987,537.4950381669987,537.4950381669987,537.4950381669987,537.4950381669987,537.4950381669987,537.4950381669987,537.4950381669987,537.4950381669987,537.4950381669987,537.4950381669987,537.4950381669987,537.4444690413319,537.4950381669987,537.4950381669987,537.4950381669987,537.4444690413319,537.4950381669987,537.4950381669987,537.4950381669987,537.4950381669987,537.4950381669987,542.727899999998,542.727899999998,546.6636994999972,None,0,,reldom2_s035,001,2025-03-13_17h20.17.244,Aud-B-Scan_AC,2022.2.5,None,
47,Second_Order,8.0,audwhere,stimulus/audwhere_stim/right_away_300h.wav,stimulus/audwhere_stim/right_toward_270h.wav,stimulus/audwhere_stim/left_away_280h.wav,stimulus/audwhere_stim/left_toward_270h.wav,stimulus/audwhat_stim/match_blank.png,stimulus/audwhat_stim/match_box.png,stimulus/audwhat_stim/match_yes.png,stimulus/audwhat_stim/match_no.png,1.0,Match,Side,Side,1,5.125,0,5.125,0,5.125,0,5.125,0,0.75,0.75,0,0,0,0,0,0,0,0,1,0.5,1,2.125,1,0.5,1,2.125,0,,,,,0,62,62,62,,,,,,,,,546.6636994999972,551.7850697499998,546.6636994999972,546.6636994999972,546.6636994999972,546.6636994999972,547.1115624169979,548.109976249998,547.124066333665,,548.7487594169979,549.7471443750001,548.7610629586636,,551.7850697499998,552.6333016249991,554.7066401249976,,552.6333016249991,552.6333016249991,557.807821082999,552.6333016249991,552.6333016249991,552.6333016249991,552.6333016249991,553.0940519999967,554.1546244169986,553.0643258746643,,554.7066401249976,555.7748859579988,554.6770887916648,,552.6333016249991,557.807821082999,552.6333016249991,557.807821082999,557.807821082999,,552.6333016249991,1,1,0.7267339170030027,reldom2_s035,001,2025-03-13_17h20.17.244,Aud-B-Scan_AC,2022.2.5,None,
48,Second_Order,8.0,audwhere,stimulus/audwhere_stim/right_toward_270h.wav,stimulus/audwhere_stim/right_away_270h.wav,stimulus/audwhere_stim/left_away_280h.wav,stimulus/audwhere_stim/left_toward_290h.wav,stimulus/audwhat_stim/match_blank.png,stimulus/audwhat_stim/match_box.png,stimulus/audwhat_stim/match_yes.png,stimulus/audwhat_stim/match_no.png,1.0,Match,Side,Side,1,5.125,0,5.125,0,5.125,0,5.125,0,0.625,0.625,0,0,0,0,0,0,0,0,1,0.5,1,2.125,1,0.5,1,2.125,0,,,,,0,63,63,63,,,,,,,,,558.6165726250001,563.7339660829966,558.6165726250001,558.6165726250001,558.6165726250001,558.6165726250001,559.0707130829978,560.0578606669987,559.0845673336664,,560.694206791999,561.6910301669996,560.7058042086649,,563.7339660829966,564.4628420419976,566.5260309169971,570.5742729169979,564.4628420419976,564.4628420419976,569.6133114999975,564.4628420419976,564.4628420419976,564.4628420419976,564.4628420419976,564.919419124999,565.9766581249969,564.8900680416666,,566.5260309169971,567.586251124998,566.4968378336637,,564.4628420419976,569.6133114999975,564.4628420419976,569.6133114999975,569.653938083,570.3026527919974,564.4628420419976,1,1,1.1722877500033064,reldom2_s035,001,2025-03-13_17h20.17.244,Aud-B-Scan_AC,2022.2.5,None,
0,0.0,None,fixation,stimulus/audwhat_stim/blank_white.png,stimulus/audwhat_stim/blank_white.png,stimulus/audwhere_stim/blank_white.png,stimulus/audwhere_stim/blank_white.png,stimulus/audwhat_stim/blank_white.png,stimulus/audwhat_stim/blank_white.png,stimulus/audwhat_stim/blank_white.png,stimulus/audwhat_stim/blank_white.png,0.0,0.0,0.0,0.0,0,0.0,0,0.0,0,0.0,0,0.0,0,0.0,0.0,0,0,0,0,0,0,0,0,0,0.0,0,0.0,0,0.0,0,0.0,16,,,,,0,64,64,64,,,,,,,,,570.5742729169979,570.5742729169979,570.5742729169979,570.5742729169979,570.5742729169979,570.5742729169979,570.5742729169979,570.5742729169979,570.4762723333316,570.5742729169979,570.5742729169979,570.5742729169979,570.4762723333316,570.5742729169979,570.5742729169979,570.5742729169979,570.5742729169979,570.5742729169979,570.5742729169979,570.5742729169979,570.5742729169979,570.5742729169979,570.5742729169979,570.5742729169979,570.5742729169979,570.5742729169979,570.5742729169979,570.5262723333316,570.5742729169979,570.5742729169979,570.5742729169979,570.5262723333316,570.5742729169979,570.5742729169979,570.5742729169979,570.5742729169979,570.5742729169979,575.7679564579994,575.7679564579994,586.7030594999997,None,0,,reldom2_s035,001,2025-03-13_17h20.17.244,Aud-B-Scan_AC,2022.2.5,None,
