Trial,Order,Block,Type,Stimuli_File1,Stimuli_File2,Stimuli_File3,Stimuli_File4,Cue_File1,Cue_File2,Response_File_Yes,Response_File_No,Match,Cue_Dimension,Pair1_Dimension,Pair2_Dimension,Key,Cue1_Duration,Cue1_Onset,Cue2_Duration,Cue2_Onset,ResponseYes_Duration,ResponseYes_Onset,ResponseNo_Duration,ResponseNo_Onset,ITI_Within,ITI_Between,Image1_Duration,Image1_Onset,Image2_Duration,Image2_Onset,Image3_Duration,Image3_Onset,Image4_Duration,Image4_Onset,Sound1_Duration,Sound1_Onset,Sound2_Duration,Sound2_Onset,Sound3_Duration,Sound3_Onset,Sound4_Duration,Sound4_Onset,Fixation_Duration,trials_2.thisRepN,trials_2.thisTrialN,trials_2.thisN,trials_2.thisIndex,trials.thisRepN,trials.thisTrialN,trials.thisN,trials.thisIndex,text_start.started,key_resp_start.started,key_resp_start.keys,key_resp_start.rt,text2.started,key_resp_2.started,key_resp_2.keys,key_resp_2.rt,cue_file1.started,cue_file1.stopped,image_1.started,image_1.stopped,image_2.started,image_2.stopped,sound_icon1.started,sound_icon1.stopped,sound_1.started,sound_1.stopped,sound_icon2.started,sound_icon2.stopped,sound_2.started,sound_2.stopped,image_blank_1.started,image_blank_1.stopped,key_press.started,key_press.stopped,fixation_text.started,cue_file2.started,cue_file2.stopped,image_3.started,image_3.stopped,image_4.started,image_4.stopped,sound_icon3.started,sound_icon3.stopped,sound_3.started,sound_3.stopped,sound_icon4.started,sound_icon4.stopped,sound_4.started,sound_4.stopped,response_yes.started,response_yes.stopped,response_no.started,response_no.stopped,iti_blank.started,iti_blank.stopped,fixation_text.stopped,key_press.keys,key_press.corr,key_press.rt,participant,session,date,expName,psychopyVersion,frameRate,
,,,,,,,,,,,,,,,,,,,,,,,,,,,,,,,,,,,,,,,,,,,,,,,,,,,,6.548852916999749,6.548852916999749,2,1.3956816249992698,,,,,,,,,,,,,,,,,,,,,,,,,,,,,,,,,,,,,,,,,,,,,,,,reldom2_s035,001,2025-03-13_17h09.14.417,Where-B-Scan_AC,2022.2.5,None,
,,,,,,,,,,,,,,,,,,,,,,,,,,,,,,,,,,,,,,,,,,,,0,0,0,0,,,,,,,,,7.979092624998884,7.979092624998884,5,15.044086166999477,,,,,,,,,,,,,,,,,,,,,,,,,,,,,,,,,,,,,,,,,,,,reldom2_s035,001,2025-03-13_17h09.14.417,Where-B-Scan_AC,2022.2.5,None,
,,,,,,,,,,,,,,,,,,,,,,,,,,,,,,,,,,,,,,,,,,,,1,0,1,0,,,,,,,,,23.040733041998465,23.040733041998465,5,1.9831861250022484,,,,,,,,,,,,,,,,,,,,,,,,,,,,,,,,,,,,,,,,,,,,reldom2_s035,001,2025-03-13_17h09.14.417,Where-B-Scan_AC,2022.2.5,None,
,,,,,,,,,,,,,,,,,,,,,,,,,,,,,,,,,,,,,,,,,,,,2,0,2,0,,,,,,,,,25.052972374996898,25.052972374996898,5,1.9694144169989158,,,,,,,,,,,,,,,,,,,,,,,,,,,,,,,,,,,,,,,,,,,,reldom2_s035,001,2025-03-13_17h09.14.417,Where-B-Scan_AC,2022.2.5,None,
,,,,,,,,,,,,,,,,,,,,,,,,,,,,,,,,,,,,,,,,,,,,3,0,3,0,,,,,,,,,27.029352249999647,27.029352249999647,5,1.9938856670014502,,,,,,,,,,,,,,,,,,,,,,,,,,,,,,,,,,,,,,,,,,,,reldom2_s035,001,2025-03-13_17h09.14.417,Where-B-Scan_AC,2022.2.5,None,
0,0.0,None,fixation,stimulus/audwhere_stim/blank_white.png,stimulus/audwhere_stim/blank_white.png,stimulus/viswhere_stim/blank_white.png,stimulus/viswhere_stim/blank_white.png,stimulus/audwhere_stim/blank_white.png,stimulus/audwhere_stim/blank_white.png,stimulus/audwhere_stim/blank_white.png,stimulus/audwhere_stim/blank_white.png,0.0,0.0,0.0,0.0,0,0.0,0,0.0,0,0.0,0,0.0,0,0.0,0.0,0,0.0,0,0.0,0,0.0,0,0.0,0,0.0,0,0.0,0,0.0,0,0.0,16,,,,,0,0,0,0,,,,,,,,,29.244798666997667,29.244798666997667,29.244798666997667,29.244798666997667,29.244798666997667,29.244798666997667,29.244798666997667,29.244798666997667,29.144560291666373,29.244798666997667,29.244798666997667,29.244798666997667,29.144560291666373,29.244798666997667,29.244798666997667,29.244798666997667,29.244798666997667,29.244798666997667,29.244798666997667,29.244798666997667,29.244798666997667,29.244798666997667,29.244798666997667,29.244798666997667,29.244798666997667,29.244798666997667,29.244798666997667,29.21122695833304,29.244798666997667,29.244798666997667,29.244798666997667,29.21122695833304,29.244798666997667,29.244798666997667,29.244798666997667,29.244798666997667,29.244798666997667,34.417024541999126,34.417024541999126,45.45879541699833,None,0,,reldom2_s035,001,2025-03-13_17h09.14.417,Where-B-Scan_AC,2022.2.5,None,
1,First_Order,1.0,audwhere,stimulus/audwhere_stim/dummy.wav,stimulus/audwhere_stim/dummy.wav,stimulus/audwhere_stim/right_away_290h.wav,stimulus/audwhere_stim/right_toward_300h.wav,stimulus/audwhere_stim/blank_white.png,stimulus/audwhere_stim/direction_box.png,stimulus/audwhere_stim/direction_yes.png,stimulus/audwhere_stim/direction_no.png,None,Direction,None,Side,2,0.0,0,5.125,0,5.125,0,5.125,0,0.0,0.625,0,0.0,0,0.0,0,0.0,0,0.0,0,0.0,0,0.0,1,0.5,1,2.125,0,,,,,0,1,1,1,,,,,,,,,45.45879541699833,45.45879541699833,45.45879541699833,45.45879541699833,45.45879541699833,45.45879541699833,45.45879541699833,45.45879541699833,45.39329779199979,45.45879541699833,45.45879541699833,45.45879541699833,45.39329779199979,45.45879541699833,45.45879541699833,45.45879541699833,47.560184207999555,,45.45879541699833,45.45879541699833,50.643328416997974,45.45879541699833,45.45879541699833,45.45879541699833,45.45879541699833,45.951130999997986,46.97830774999966,45.92302933366615,,47.560184207999555,48.59243016699838,47.532022624666084,,45.45879541699833,50.643328416997974,45.45879541699833,50.643328416997974,50.68297458300003,51.35363608300031,45.45879541699833,1,0,0.952236917000846,reldom2_s035,001,2025-03-13_17h09.14.417,Where-B-Scan_AC,2022.2.5,None,
2,First_Order,1.0,audwhere,stimulus/audwhere_stim/dummy.wav,stimulus/audwhere_stim/dummy.wav,stimulus/audwhere_stim/left_toward_290h.wav,stimulus/audwhere_stim/right_toward_280h.wav,stimulus/audwhere_stim/blank_white.png,stimulus/audwhere_stim/side_box.png,stimulus/audwhere_stim/side_yes.png,stimulus/audwhere_stim/side_no.png,None,Side,None,Direction,2,0.0,0,5.125,0,5.125,0,5.125,0,0.0,0.625,0,0.0,0,0.0,0,0.0,0,0.0,0,0.0,0,0.0,1,0.5,1,2.125,0,,,,,0,2,2,2,,,,,,,,,51.55867287499859,51.55867287499859,51.55867287499859,51.55867287499859,51.55867287499859,51.55867287499859,51.55867287499859,51.55867287499859,51.48696941633364,51.55867287499859,51.55867287499859,51.55867287499859,51.48696941633364,51.55867287499859,51.55867287499859,51.55867287499859,53.661572541997884,,51.55867287499859,51.55867287499859,56.70654329199897,51.55867287499859,51.55867287499859,51.55867287499859,51.55867287499859,52.00630854199699,53.03581279199716,51.977980374664426,,53.661572541997884,54.69143274999806,53.633519458664765,,51.55867287499859,56.70654329199897,51.55867287499859,56.70654329199897,56.78600000000006,57.45705737499884,51.55867287499859,2,1,1.9768854170033592,reldom2_s035,001,2025-03-13_17h09.14.417,Where-B-Scan_AC,2022.2.5,None,
3,First_Order,1.0,audwhere,stimulus/audwhere_stim/dummy.wav,stimulus/audwhere_stim/dummy.wav,stimulus/audwhere_stim/right_toward_280h.wav,stimulus/audwhere_stim/right_away_300h.wav,stimulus/audwhere_stim/blank_white.png,stimulus/audwhere_stim/direction_box.png,stimulus/audwhere_stim/direction_yes.png,stimulus/audwhere_stim/direction_no.png,None,Direction,None,Side,2,0.0,0,5.125,0,5.125,0,5.125,0,0.0,0.625,0,0.0,0,0.0,0,0.0,0,0.0,0,0.0,0,0.0,1,0.5,1,2.125,0,,,,,0,3,3,3,,,,,,,,,57.66234708299817,57.66234708299817,57.66234708299817,57.66234708299817,57.66234708299817,57.66234708299817,57.66234708299817,57.66234708299817,57.59039070833217,57.66234708299817,57.66234708299817,57.66234708299817,57.59039070833217,57.66234708299817,57.66234708299817,57.66234708299817,59.74683758299943,,57.66234708299817,57.66234708299817,62.8286738329989,57.66234708299817,57.66234708299817,57.66234708299817,57.66234708299817,58.11643299999923,59.15935691699997,58.08742566666503,,59.74683758299943,60.78810812499796,59.71787491666352,,57.66234708299817,62.8286738329989,57.66234708299817,62.8286738329989,62.86861987500015,63.54622308299804,57.66234708299817,2,1,1.9762437919998774,reldom2_s035,001,2025-03-13_17h09.14.417,Where-B-Scan_AC,2022.2.5,None,
4,First_Order,1.0,audwhere,stimulus/audwhere_stim/dummy.wav,stimulus/audwhere_stim/dummy.wav,stimulus/audwhere_stim/left_toward_270h.wav,stimulus/audwhere_stim/right_toward_300h.wav,stimulus/audwhere_stim/blank_white.png,stimulus/audwhere_stim/direction_box.png,stimulus/audwhere_stim/direction_yes.png,stimulus/audwhere_stim/direction_no.png,None,Direction,None,Direction,1,0.0,0,5.125,0,5.125,0,5.125,0,0.0,0.625,0,0.0,0,0.0,0,0.0,0,0.0,0,0.0,0,0.0,1,0.5,1,2.125,0,,,,,0,4,4,4,,,,,,,,,63.75291241699961,63.75291241699961,63.75291241699961,63.75291241699961,63.75291241699961,63.75291241699961,63.75291241699961,63.75291241699961,63.67955641633137,63.75291241699961,63.75291241699961,63.75291241699961,63.67955641633137,63.75291241699961,63.75291241699961,63.75291241699961,65.84295183299764,69.88202795799953,63.75291241699961,63.75291241699961,68.93513125000027,63.75291241699961,63.75291241699961,63.75291241699961,63.75291241699961,64.20617554199998,65.25344691699866,64.17721391666443,,65.84295183299764,66.89067066699863,65.81372529166426,,63.75291241699961,68.93513125000027,63.75291241699961,68.93513125000027,68.97529570799816,69.65447674999814,63.75291241699961,1,1,1.0669642920001934,reldom2_s035,001,2025-03-13_17h09.14.417,Where-B-Scan_AC,2022.2.5,None,
0,0.0,None,fixation,stimulus/audwhere_stim/blank_white.png,stimulus/audwhere_stim/blank_white.png,stimulus/viswhere_stim/blank_white.png,stimulus/viswhere_stim/blank_white.png,stimulus/audwhere_stim/blank_white.png,stimulus/audwhere_stim/blank_white.png,stimulus/audwhere_stim/blank_white.png,stimulus/audwhere_stim/blank_white.png,0.0,0.0,0.0,0.0,0,0.0,0,0.0,0,0.0,0,0.0,0,0.0,0.0,0,0.0,0,0.0,0,0.0,0,0.0,0,0.0,0,0.0,0,0.0,0,0.0,10,,,,,0,5,5,5,,,,,,,,,69.88202795799953,69.88202795799953,69.88202795799953,69.88202795799953,69.88202795799953,69.88202795799953,69.88202795799953,69.88202795799953,69.78781008333146,69.88202795799953,69.88202795799953,69.88202795799953,69.78781008333146,69.88202795799953,69.88202795799953,69.88202795799953,69.88202795799953,69.88202795799953,69.88202795799953,69.88202795799953,69.88202795799953,69.88202795799953,69.88202795799953,69.88202795799953,69.88202795799953,69.88202795799953,69.88202795799953,69.83781008333148,69.88202795799953,69.88202795799953,69.88202795799953,69.83781008333148,69.88202795799953,69.88202795799953,69.88202795799953,69.88202795799953,69.88202795799953,75.09457504199963,75.09457504199963,80.04569458299738,None,0,,reldom2_s035,001,2025-03-13_17h09.14.417,Where-B-Scan_AC,2022.2.5,None,
5,Second_Order,1.0,audwhere,stimulus/audwhere_stim/right_toward_300h.wav,stimulus/audwhere_stim/left_toward_280h.wav,stimulus/audwhere_stim/right_toward_280h.wav,stimulus/audwhere_stim/right_away_280h.wav,stimulus/audwhere_stim/match_blank.png,stimulus/audwhere_stim/match_box.png,stimulus/audwhere_stim/match_yes.png,stimulus/audwhere_stim/match_no.png,2.0,Match,Direction,Side,2,5.125,0,5.125,0,5.125,0,5.125,0,0.75,0.75,0,0.0,0,0.0,0,0.0,0,0.0,1,0.5,1,2.125,1,0.5,1,2.125,0,,,,,0,6,6,6,,,,,,,,,80.04569458299738,85.16234241699931,80.04569458299738,80.04569458299738,80.04569458299738,80.04569458299738,80.49975008299953,81.48677574999965,80.51308024966444,,82.12270791699848,83.1197574580001,82.13402795866592,,85.16234241699931,86.01197516699904,88.0854648329987,,86.01197516699904,86.01197516699904,91.16164770799878,86.01197516699904,86.01197516699904,86.01197516699904,86.01197516699904,86.461500874997,87.49971124999865,86.43242916666374,,88.0854648329987,89.12739383299777,88.05678016666594,,86.01197516699904,91.16164770799878,86.01197516699904,91.16164770799878,91.20176445799734,,86.01197516699904,2,1,1.3216089579982508,reldom2_s035,001,2025-03-13_17h09.14.417,Where-B-Scan_AC,2022.2.5,None,
6,Second_Order,1.0,audwhere,stimulus/audwhere_stim/right_toward_270h.wav,stimulus/audwhere_stim/right_away_290h.wav,stimulus/audwhere_stim/left_toward_300h.wav,stimulus/audwhere_stim/left_away_290h.wav,stimulus/audwhere_stim/match_blank.png,stimulus/audwhere_stim/match_box.png,stimulus/audwhere_stim/match_yes.png,stimulus/audwhere_stim/match_no.png,1.0,Match,Side,Side,1,5.125,0,5.125,0,5.125,0,5.125,0,0.625,0.625,0,0.0,0,0.0,0,0.0,0,0.0,1,0.5,1,2.125,1,0.5,1,2.125,0,,,,,0,7,7,7,,,,,,,,,91.99348429199745,97.10616649999793,91.99348429199745,91.99348429199745,91.99348429199745,91.99348429199745,92.44399637499737,93.43031258299743,92.45760795866615,,94.07857650000005,95.0684962919986,94.08200229166347,,97.10616649999793,97.83644133299822,99.89620795799783,103.94764958299857,97.83644133299822,97.83644133299822,103.0066449579972,97.83644133299822,97.83644133299822,97.83644133299822,97.83644133299822,98.28173091699864,99.3126709169992,98.2536071666657,,99.89620795799783,100.93319770800008,99.86768708366459,,97.83644133299822,103.0066449579972,97.83644133299822,103.0066449579972,103.0066449579972,103.68168112499916,97.83644133299822,1,1,1.4320775010019133,reldom2_s035,001,2025-03-13_17h09.14.417,Where-B-Scan_AC,2022.2.5,None,
0,0.0,None,fixation,stimulus/audwhere_stim/blank_white.png,stimulus/audwhere_stim/blank_white.png,stimulus/viswhere_stim/blank_white.png,stimulus/viswhere_stim/blank_white.png,stimulus/audwhere_stim/blank_white.png,stimulus/audwhere_stim/blank_white.png,stimulus/audwhere_stim/blank_white.png,stimulus/audwhere_stim/blank_white.png,0.0,0.0,0.0,0.0,0,0.0,0,0.0,0,0.0,0,0.0,0,0.0,0.0,0,0.0,0,0.0,0,0.0,0,0.0,0,0.0,0,0.0,0,0.0,0,0.0,9,,,,,0,8,8,8,,,,,,,,,103.94764958299857,103.94764958299857,103.94764958299857,103.94764958299857,103.94764958299857,103.94764958299857,103.94764958299857,103.94764958299857,103.85467183333287,103.94764958299857,103.94764958299857,103.94764958299857,103.85467183333287,103.94764958299857,103.94764958299857,103.94764958299857,103.94764958299857,103.94764958299857,103.94764958299857,103.94764958299857,103.94764958299857,103.94764958299857,103.94764958299857,103.94764958299857,103.94764958299857,103.94764958299857,103.94764958299857,103.90467183333288,103.94764958299857,103.94764958299857,103.94764958299857,103.90467183333288,103.94764958299857,103.94764958299857,103.94764958299857,103.94764958299857,103.94764958299857,109.1421494999995,109.1421494999995,113.18010795800001,None,0,,reldom2_s035,001,2025-03-13_17h09.14.417,Where-B-Scan_AC,2022.2.5,None,
7,First_Order,2.0,audwhere,stimulus/audwhere_stim/dummy.wav,stimulus/audwhere_stim/dummy.wav,stimulus/audwhere_stim/left_toward_270h.wav,stimulus/audwhere_stim/right_toward_270h.wav,stimulus/audwhere_stim/blank_white.png,stimulus/audwhere_stim/direction_box.png,stimulus/audwhere_stim/direction_yes.png,stimulus/audwhere_stim/direction_no.png,None,Direction,None,Direction,1,0.0,0,5.125,0,5.125,0,5.125,0,0.0,0.625,0,0.0,0,0.0,0,0.0,0,0.0,0,0.0,0,0.0,1,0.5,1,2.125,0,,,,,0,9,9,9,,,,,,,,,113.18010795800001,113.18010795800001,113.18010795800001,113.18010795800001,113.18010795800001,113.18010795800001,113.18010795800001,113.18010795800001,113.11221595866543,113.18010795800001,113.18010795800001,113.18010795800001,113.11221595866543,113.18010795800001,113.18010795800001,113.18010795800001,115.28681858299751,119.28935641699718,113.18010795800001,113.18010795800001,118.3529086669987,113.18010795800001,113.18010795800001,113.18010795800001,113.18010795800001,113.63759066700004,114.69195299999774,113.60908599966594,,115.28681858299751,116.34140512500016,115.25763037466483,,113.18010795800001,118.3529086669987,113.18010795800001,118.3529086669987,118.39353962499808,119.07968604199777,113.18010795800001,1,1,1.3516924590003327,reldom2_s035,001,2025-03-13_17h09.14.417,Where-B-Scan_AC,2022.2.5,None,
8,First_Order,2.0,audwhere,stimulus/audwhere_stim/dummy.wav,stimulus/audwhere_stim/dummy.wav,stimulus/audwhere_stim/left_toward_280h.wav,stimulus/audwhere_stim/right_toward_290h.wav,stimulus/audwhere_stim/blank_white.png,stimulus/audwhere_stim/side_box.png,stimulus/audwhere_stim/side_yes.png,stimulus/audwhere_stim/side_no.png,None,Side,None,Direction,2,0.0,0,5.125,0,5.125,0,5.125,0,0.0,0.625,0,0.0,0,0.0,0,0.0,0,0.0,0,0.0,0,0.0,1,0.5,1,2.125,0,,,,,0,10,10,10,,,,,,,,,119.28935641699718,119.28935641699718,119.28935641699718,119.28935641699718,119.28935641699718,119.28935641699718,119.28935641699718,119.28935641699718,119.2130193753311,119.28935641699718,119.28935641699718,119.28935641699718,119.2130193753311,119.28935641699718,119.28935641699718,119.28935641699718,121.39280266700007,,119.28935641699718,119.28935641699718,124.46127449999767,119.28935641699718,119.28935641699718,119.28935641699718,119.28935641699718,119.74597212499793,120.79672708299768,119.7165693336649,,121.39280266700007,122.44875354199758,121.36363283366542,,119.28935641699718,124.46127449999767,119.28935641699718,124.46127449999767,124.50151508299678,125.18611337499897,119.28935641699718,2,1,1.1456223749992205,reldom2_s035,001,2025-03-13_17h09.14.417,Where-B-Scan_AC,2022.2.5,None,
9,First_Order,2.0,audwhere,stimulus/audwhere_stim/dummy.wav,stimulus/audwhere_stim/dummy.wav,stimulus/audwhere_stim/left_away_270h.wav,stimulus/audwhere_stim/left_toward_290h.wav,stimulus/audwhere_stim/blank_white.png,stimulus/audwhere_stim/side_box.png,stimulus/audwhere_stim/side_yes.png,stimulus/audwhere_stim/side_no.png,None,Side,None,Side,1,0.0,0,5.125,0,5.125,0,5.125,0,0.0,0.625,0,0.0,0,0.0,0,0.0,0,0.0,0,0.0,0,0.0,1,0.5,1,2.125,0,,,,,0,11,11,11,,,,,,,,,125.39579487499941,125.39579487499941,125.39579487499941,125.39579487499941,125.39579487499941,125.39579487499941,125.39579487499941,125.39579487499941,125.3194467083323,125.39579487499941,125.39579487499941,125.39579487499941,125.3194467083323,125.39579487499941,125.39579487499941,125.39579487499941,127.49858241699985,,125.39579487499941,125.39579487499941,130.56717854199815,125.39579487499941,125.39579487499941,125.39579487499941,125.39579487499941,125.8523631249991,126.90297795799779,125.82326958366345,,127.49858241699985,128.55299791699872,127.46911795866642,,125.39579487499941,130.56717854199815,125.39579487499941,130.56717854199815,130.60800924999785,131.29304204199798,125.39579487499941,1,1,1.1389856669993605,reldom2_s035,001,2025-03-13_17h09.14.417,Where-B-Scan_AC,2022.2.5,None,
10,First_Order,2.0,audwhere,stimulus/audwhere_stim/dummy.wav,stimulus/audwhere_stim/dummy.wav,stimulus/audwhere_stim/right_away_290h.wav,stimulus/audwhere_stim/right_toward_290h.wav,stimulus/audwhere_stim/blank_white.png,stimulus/audwhere_stim/side_box.png,stimulus/audwhere_stim/side_yes.png,stimulus/audwhere_stim/side_no.png,None,Side,None,Side,1,0.0,0,5.125,0,5.125,0,5.125,0,0.0,0.625,0,0.0,0,0.0,0,0.0,0,0.0,0,0.0,0,0.0,1,0.5,1,2.125,0,,,,,0,12,12,12,,,,,,,,,131.50155999999697,131.50155999999697,131.50155999999697,131.50155999999697,131.50155999999697,131.50155999999697,131.50155999999697,131.50155999999697,131.42637537533133,131.50155999999697,131.50155999999697,131.50155999999697,131.42637537533133,131.50155999999697,131.50155999999697,131.50155999999697,133.61150883299706,137.64839787500023,131.50155999999697,131.50155999999697,136.68984391699996,131.50155999999697,131.50155999999697,131.50155999999697,131.50155999999697,131.9593782919983,133.01430875000005,131.93051345866505,,133.61150883299706,134.66952845799824,133.58231854166687,,131.50155999999697,136.68984391699996,131.50155999999697,136.68984391699996,136.73011099999712,137.37781895799708,131.50155999999697,1,1,0.9933367499979795,reldom2_s035,001,2025-03-13_17h09.14.417,Where-B-Scan_AC,2022.2.5,None,
0,0.0,None,fixation,stimulus/audwhere_stim/blank_white.png,stimulus/audwhere_stim/blank_white.png,stimulus/viswhere_stim/blank_white.png,stimulus/viswhere_stim/blank_white.png,stimulus/audwhere_stim/blank_white.png,stimulus/audwhere_stim/blank_white.png,stimulus/audwhere_stim/blank_white.png,stimulus/audwhere_stim/blank_white.png,0.0,0.0,0.0,0.0,0,0.0,0,0.0,0,0.0,0,0.0,0,0.0,0.0,0,0.0,0,0.0,0,0.0,0,0.0,0,0.0,0,0.0,0,0.0,0,0.0,9,,,,,0,13,13,13,,,,,,,,,137.64839787500023,137.64839787500023,137.64839787500023,137.64839787500023,137.64839787500023,137.64839787500023,137.64839787500023,137.64839787500023,137.55184383333304,137.64839787500023,137.64839787500023,137.64839787500023,137.55184383333304,137.64839787500023,137.64839787500023,137.64839787500023,137.64839787500023,137.64839787500023,137.64839787500023,137.64839787500023,137.64839787500023,137.64839787500023,137.64839787500023,137.64839787500023,137.64839787500023,137.64839787500023,137.64839787500023,137.60184383333302,137.64839787500023,137.64839787500023,137.64839787500023,137.60184383333302,137.64839787500023,137.64839787500023,137.64839787500023,137.64839787500023,137.64839787500023,142.8338635,142.8338635,146.7934787919985,None,0,,reldom2_s035,001,2025-03-13_17h09.14.417,Where-B-Scan_AC,2022.2.5,None,
11,Second_Order,2.0,audwhere,stimulus/audwhere_stim/left_toward_280h.wav,stimulus/audwhere_stim/left_away_290h.wav,stimulus/audwhere_stim/left_away_290h.wav,stimulus/audwhere_stim/right_away_280h.wav,stimulus/audwhere_stim/match_blank.png,stimulus/audwhere_stim/match_box.png,stimulus/audwhere_stim/match_yes.png,stimulus/audwhere_stim/match_no.png,2.0,Match,Side,Direction,2,5.125,0,5.125,0,5.125,0,5.125,0,0.75,0.75,0,0.0,0,0.0,0,0.0,0,0.0,1,0.5,1,2.125,1,0.5,1,2.125,0,,,,,0,14,14,14,,,,,,,,,146.7934787919985,151.9161683329985,146.7934787919985,146.7934787919985,146.7934787919985,146.7934787919985,147.25086304199795,148.24112241699913,147.25418295866646,148.24112241699913,148.87669954199737,149.8741877499997,148.88835441666404,,151.9161683329985,152.76511791699886,154.81067324999822,158.758491624998,152.76511791699886,152.76511791699886,157.91955904199858,152.76511791699886,152.76511791699886,152.76511791699886,152.76511791699886,153.21963541699733,154.26590287499857,153.19090283366702,,154.81067324999822,155.86627979199693,154.78165233366624,,152.76511791699886,157.91955904199858,152.76511791699886,157.91955904199858,157.95962099999815,,152.76511791699886,2,1,1.2405551669980923,reldom2_s035,001,2025-03-13_17h09.14.417,Where-B-Scan_AC,2022.2.5,None,
12,Second_Order,2.0,audwhere,stimulus/audwhere_stim/left_away_270h.wav,stimulus/audwhere_stim/left_toward_280h.wav,stimulus/audwhere_stim/right_away_280h.wav,stimulus/audwhere_stim/right_toward_300h.wav,stimulus/audwhere_stim/match_blank.png,stimulus/audwhere_stim/match_box.png,stimulus/audwhere_stim/match_yes.png,stimulus/audwhere_stim/match_no.png,1.0,Match,Side,Side,1,5.125,0,5.125,0,5.125,0,5.125,0,0.625,0.625,0,0.0,0,0.0,0,0.0,0,0.0,1,0.5,1,2.125,1,0.5,1,2.125,0,,,,,0,15,15,15,,,,,,,,,158.758491624998,163.8783762919993,158.758491624998,158.758491624998,158.758491624998,158.758491624998,159.2155555829995,160.214197082998,159.22848141666353,,160.8368441249986,161.83472204200007,160.84919562466555,,163.8783762919993,164.60524887499923,166.68553820799934,170.72021887499795,164.60524887499923,164.60524887499923,169.7720324999973,164.60524887499923,164.60524887499923,164.60524887499923,164.60524887499923,165.05607420799788,166.09580924999682,165.02589024966463,,166.68553820799934,167.7300725419991,166.65662524966345,,164.60524887499923,169.7720324999973,164.60524887499923,169.7720324999973,169.7720324999973,170.45157216699954,164.60524887499923,1,1,1.1873752920000697,reldom2_s035,001,2025-03-13_17h09.14.417,Where-B-Scan_AC,2022.2.5,None,
0,0.0,None,fixation,stimulus/audwhere_stim/blank_white.png,stimulus/audwhere_stim/blank_white.png,stimulus/viswhere_stim/blank_white.png,stimulus/viswhere_stim/blank_white.png,stimulus/audwhere_stim/blank_white.png,stimulus/audwhere_stim/blank_white.png,stimulus/audwhere_stim/blank_white.png,stimulus/audwhere_stim/blank_white.png,0.0,0.0,0.0,0.0,0,0.0,0,0.0,0,0.0,0,0.0,0,0.0,0.0,0,0.0,0,0.0,0,0.0,0,0.0,0,0.0,0,0.0,0,0.0,0,0.0,8,,,,,0,16,16,16,,,,,,,,,170.72021887499795,170.72021887499795,170.72021887499795,170.72021887499795,170.72021887499795,170.72021887499795,170.72021887499795,170.72021887499795,170.62493000033115,170.72021887499795,170.72021887499795,170.72021887499795,170.62493000033115,170.72021887499795,170.72021887499795,170.72021887499795,170.72021887499795,170.72021887499795,170.72021887499795,170.72021887499795,170.72021887499795,170.72021887499795,170.72021887499795,170.72021887499795,170.72021887499795,170.72021887499795,170.72021887499795,170.67493000033113,170.72021887499795,170.72021887499795,170.72021887499795,170.67493000033113,170.72021887499795,170.72021887499795,170.72021887499795,170.72021887499795,170.72021887499795,175.9541083749973,175.9541083749973,178.91822308299743,None,0,,reldom2_s035,001,2025-03-13_17h09.14.417,Where-B-Scan_AC,2022.2.5,None,
13,First_Order,3.0,viswhere,stimulus/viswhere_stim/blank_white.png,stimulus/viswhere_stim/blank_white.png,stimulus/viswhere_stim/150-deg_dot-left_seagreen.png,stimulus/viswhere_stim/150-deg_dot-right_royalblue.png,stimulus/viswhere_stim/blank_white.png,stimulus/viswhere_stim/line_box.png,stimulus/viswhere_stim/line_yes.png,stimulus/viswhere_stim/line_no.png,None,Line,None,Line,1,0.0,0,5.125,0,5.125,0,5.125,0,0.0,0.625,0,0.0,0,0.0,1,0.5,1,2.125,0,0.0,0,0.0,0,0.0,0,0.0,0,,,,,0,17,17,17,,,,,,,,,178.91822308299743,178.91822308299743,178.91822308299743,178.91822308299743,178.91822308299743,178.91822308299743,178.91822308299743,178.91822308299743,178.90123087466662,178.91822308299743,178.91822308299743,178.91822308299743,178.90123087466662,178.91822308299743,178.91822308299743,178.91822308299743,181.03201287499905,184.98164095799802,178.91822308299743,178.91822308299743,184.05689554199853,179.40113508299692,180.4193654999981,181.03201287499905,182.0406857079979,178.91822308299743,178.91822308299743,178.90123087466662,178.91822308299743,178.91822308299743,178.91822308299743,178.90123087466662,178.91822308299743,178.91822308299743,184.05689554199853,178.91822308299743,184.05689554199853,184.14024541699837,184.76704183299807,178.91822308299743,1,1,0.8428627499997674,reldom2_s035,001,2025-03-13_17h09.14.417,Where-B-Scan_AC,2022.2.5,None,
14,First_Order,3.0,viswhere,stimulus/viswhere_stim/blank_white.png,stimulus/viswhere_stim/blank_white.png,stimulus/viswhere_stim/90-deg_dot-right_cyan.png,stimulus/viswhere_stim/90-deg_dot-left_turquoise.png,stimulus/viswhere_stim/blank_white.png,stimulus/viswhere_stim/line_box.png,stimulus/viswhere_stim/line_yes.png,stimulus/viswhere_stim/line_no.png,None,Line,None,Line,1,0.0,0,5.125,0,5.125,0,5.125,0,0.0,0.625,0,0.0,0,0.0,1,0.5,1,2.125,0,0.0,0,0.0,0,0.0,0,0.0,0,,,,,0,18,18,18,,,,,,,,,184.98164095799802,184.98164095799802,184.98164095799802,184.98164095799802,184.98164095799802,184.98164095799802,184.98164095799802,184.98164095799802,184.96147712533033,184.98164095799802,184.98164095799802,184.98164095799802,184.96147712533033,184.98164095799802,184.98164095799802,184.98164095799802,187.0958626669999,191.04306641699804,184.98164095799802,184.98164095799802,190.112559666999,185.45865958299692,186.4678469999999,187.0958626669999,188.1103907919969,184.98164095799802,184.98164095799802,184.978143791997,184.98164095799802,184.98164095799802,184.98164095799802,184.978143791997,184.98164095799802,184.98164095799802,190.112559666999,184.98164095799802,190.112559666999,190.21319712499826,190.84120566699858,184.98164095799802,1,1,0.5032639999990351,reldom2_s035,001,2025-03-13_17h09.14.417,Where-B-Scan_AC,2022.2.5,None,
15,First_Order,3.0,viswhere,stimulus/viswhere_stim/blank_white.png,stimulus/viswhere_stim/blank_white.png,stimulus/viswhere_stim/60-deg_dot-right_salmon.png,stimulus/viswhere_stim/150-deg_dot-right_turquoise.png,stimulus/viswhere_stim/blank_white.png,stimulus/viswhere_stim/dot_box.png,stimulus/viswhere_stim/dot_yes.png,stimulus/viswhere_stim/dot_no.png,None,Dot,None,Dot,1,0.0,0,5.125,0,5.125,0,5.125,0,0.0,0.625,0,0.0,0,0.0,1,0.5,1,2.125,0,0.0,0,0.0,0,0.0,0,0.0,0,,,,,0,19,19,19,,,,,,,,,191.04306641699804,191.04306641699804,191.04306641699804,191.04306641699804,191.04306641699804,191.04306641699804,191.04306641699804,191.04306641699804,191.02195041633362,191.04306641699804,191.04306641699804,191.04306641699804,191.02195041633362,191.04306641699804,191.04306641699804,191.04306641699804,193.1463570829983,197.1091232919971,191.04306641699804,191.04306641699804,196.16878808299953,191.52232445799746,192.5350229579999,193.1463570829983,194.16331329199966,191.04306641699804,191.04306641699804,191.0386170830003,191.04306641699804,191.04306641699804,191.04306641699804,191.0386170830003,191.04306641699804,191.04306641699804,196.16878808299953,191.04306641699804,196.16878808299953,196.26604629199937,196.89210645799903,191.04306641699804,1,1,0.7837986670019745,reldom2_s035,001,2025-03-13_17h09.14.417,Where-B-Scan_AC,2022.2.5,None,
16,First_Order,3.0,viswhere,stimulus/viswhere_stim/blank_white.png,stimulus/viswhere_stim/blank_white.png,stimulus/viswhere_stim/120-deg_dot-left_peru.png,stimulus/viswhere_stim/120-deg_dot-right_royalblue.png,stimulus/viswhere_stim/blank_white.png,stimulus/viswhere_stim/dot_box.png,stimulus/viswhere_stim/dot_yes.png,stimulus/viswhere_stim/dot_no.png,None,Dot,None,Line,2,0.0,0,5.125,0,5.125,0,5.125,0,0.0,0.625,0,0.0,0,0.0,1,0.5,1,2.125,0,0.0,0,0.0,0,0.0,0,0.0,0,,,,,0,20,20,20,,,,,,,,,197.1091232919971,197.1091232919971,197.1091232919971,197.1091232919971,197.1091232919971,197.1091232919971,197.1091232919971,197.1091232919971,197.08852779133062,197.1091232919971,197.1091232919971,197.1091232919971,197.08852779133062,197.1091232919971,197.1091232919971,197.1091232919971,199.21215670799938,203.24406808299682,197.1091232919971,197.1091232919971,202.2336284999983,197.58321029199942,198.5872577079972,199.21215670799938,200.22016916699795,197.1091232919971,197.1091232919971,197.08852779133062,197.1091232919971,197.1091232919971,197.1091232919971,197.08852779133062,197.1091232919971,197.1091232919971,202.2336284999983,197.1091232919971,202.2336284999983,202.34474145799686,202.99585937499796,197.1091232919971,2,1,1.049272000000201,reldom2_s035,001,2025-03-13_17h09.14.417,Where-B-Scan_AC,2022.2.5,None,
0,0.0,None,fixation,stimulus/audwhere_stim/blank_white.png,stimulus/audwhere_stim/blank_white.png,stimulus/viswhere_stim/blank_white.png,stimulus/viswhere_stim/blank_white.png,stimulus/audwhere_stim/blank_white.png,stimulus/audwhere_stim/blank_white.png,stimulus/audwhere_stim/blank_white.png,stimulus/audwhere_stim/blank_white.png,0.0,0.0,0.0,0.0,0,0.0,0,0.0,0,0.0,0,0.0,0,0.0,0.0,0,0.0,0,0.0,0,0.0,0,0.0,0,0.0,0,0.0,0,0.0,0,0.0,10,,,,,0,21,21,21,,,,,,,,,203.24406808299682,203.24406808299682,203.24406808299682,203.24406808299682,203.24406808299682,203.24406808299682,203.24406808299682,203.24406808299682,203.14831158333013,203.24406808299682,203.24406808299682,203.24406808299682,203.14831158333013,203.24406808299682,203.24406808299682,203.24406808299682,203.24406808299682,203.24406808299682,203.24406808299682,203.24406808299682,203.24406808299682,203.24406808299682,203.24406808299682,203.24406808299682,203.24406808299682,203.24406808299682,203.24406808299682,203.19831158333014,203.24406808299682,203.24406808299682,203.24406808299682,203.19831158333014,203.24406808299682,203.24406808299682,203.24406808299682,203.24406808299682,203.24406808299682,208.4596572499977,208.4596572499977,213.36745170799986,None,0,,reldom2_s035,001,2025-03-13_17h09.14.417,Where-B-Scan_AC,2022.2.5,None,
17,Second_Order,3.0,viswhere,stimulus/viswhere_stim/90-deg_dot-left_lightsseagreen.png,stimulus/viswhere_stim/90-deg_dot-right_lightsseagreen.png,stimulus/viswhere_stim/120-deg_dot-right_cyan.png,stimulus/viswhere_stim/60-deg_dot-right_royalblue.png,stimulus/audwhere_stim/match_blank.png,stimulus/audwhere_stim/match_box.png,stimulus/audwhere_stim/match_yes.png,stimulus/audwhere_stim/match_no.png,2.0,Match,Line,Dot,2,5.125,0,5.125,0,5.125,0,5.125,0,0.75,0.75,1,0.5,1,2.125,1,0.5,1,2.125,0,0.0,0,0.0,0,0.0,0,0.0,0,,,,,0,22,22,22,,,,,,,,,213.36745170799986,218.48686720799742,213.84229066699845,214.8408596249974,215.4753000419987,216.46480999999767,213.36745170799986,213.36745170799986,213.3819899583306,213.36745170799986,213.36745170799986,213.36745170799986,213.3819899583306,213.36745170799986,218.48686720799742,219.27913779200026,221.36215945799995,225.2173672079989,219.27913779200026,219.27913779200026,224.4152949579984,219.74047287499707,220.75213379199704,221.36215945799995,222.3763990419975,219.27913779200026,219.27913779200026,219.25402441633247,219.27913779200026,219.27913779200026,219.27913779200026,219.25402441633247,219.27913779200026,219.27913779200026,224.4152949579984,219.27913779200026,224.4152949579984,224.4729012079988,225.2526934999987,219.27913779200026,2,1,0.7632855419979023,reldom2_s035,001,2025-03-13_17h09.14.417,Where-B-Scan_AC,2022.2.5,None,
18,Second_Order,3.0,viswhere,stimulus/viswhere_stim/90-deg_dot-left_lightsseagreen.png,stimulus/viswhere_stim/60-deg_dot-left_mediumslateblue.png,stimulus/viswhere_stim/60-deg_dot-right_lightsseagreen.png,stimulus/viswhere_stim/30-deg_dot-right_goldenrod.png,stimulus/audwhere_stim/match_blank.png,stimulus/audwhere_stim/match_box.png,stimulus/audwhere_stim/match_yes.png,stimulus/audwhere_stim/match_no.png,1.0,Match,Dot,Dot,1,5.125,0,5.125,0,5.125,0,5.125,0,0.625,0.625,1,0.5,1,2.125,1,0.5,1,2.125,0,0.0,0,0.0,0,0.0,0,0.0,0,,,,,0,23,23,23,,,,,,,,,225.2526934999987,230.37663558299755,225.73575495799741,226.72180833299717,227.35712837499887,228.35503891699773,225.2526934999987,225.2526934999987,225.26736720799892,225.2526934999987,225.2526934999987,225.2526934999987,225.26736720799892,225.2526934999987,230.37663558299755,231.0521564999981,233.1291592919988,237.17337008299728,231.0521564999981,231.0521564999981,236.17738308299886,231.51117120799972,232.5188774169983,233.1291592919988,234.14264866699887,231.0521564999981,231.0521564999981,231.0280295003327,231.0521564999981,231.0521564999981,231.0521564999981,231.0280295003327,231.0521564999981,231.0521564999981,236.17738308299886,231.0521564999981,236.17738308299886,236.24622424999689,236.87787533299706,231.0521564999981,1,1,0.7530087500017544,reldom2_s035,001,2025-03-13_17h09.14.417,Where-B-Scan_AC,2022.2.5,None,
0,0.0,None,fixation,stimulus/audwhere_stim/blank_white.png,stimulus/audwhere_stim/blank_white.png,stimulus/viswhere_stim/blank_white.png,stimulus/viswhere_stim/blank_white.png,stimulus/audwhere_stim/blank_white.png,stimulus/audwhere_stim/blank_white.png,stimulus/audwhere_stim/blank_white.png,stimulus/audwhere_stim/blank_white.png,0.0,0.0,0.0,0.0,0,0.0,0,0.0,0,0.0,0,0.0,0,0.0,0.0,0,0.0,0,0.0,0,0.0,0,0.0,0,0.0,0,0.0,0,0.0,0,0.0,9,,,,,0,24,24,24,,,,,,,,,237.17337008299728,237.17337008299728,237.17337008299728,237.17337008299728,237.17337008299728,237.17337008299728,237.17337008299728,237.17337008299728,237.0744620413328,237.17337008299728,237.17337008299728,237.17337008299728,237.0744620413328,237.17337008299728,237.17337008299728,237.17337008299728,237.17337008299728,237.17337008299728,237.17337008299728,237.17337008299728,237.17337008299728,237.17337008299728,237.17337008299728,237.17337008299728,237.17337008299728,237.17337008299728,237.17337008299728,237.1244620413328,237.17337008299728,237.17337008299728,237.17337008299728,237.1244620413328,237.17337008299728,237.17337008299728,237.17337008299728,237.17337008299728,237.17337008299728,242.3925998329978,242.3925998329978,246.3919701249979,None,0,,reldom2_s035,001,2025-03-13_17h09.14.417,Where-B-Scan_AC,2022.2.5,None,
19,First_Order,4.0,viswhere,stimulus/viswhere_stim/blank_white.png,stimulus/viswhere_stim/blank_white.png,stimulus/viswhere_stim/90-deg_dot-left_seagreen.png,stimulus/viswhere_stim/150-deg_dot-left_lightsseagreen.png,stimulus/viswhere_stim/blank_white.png,stimulus/viswhere_stim/dot_box.png,stimulus/viswhere_stim/dot_yes.png,stimulus/viswhere_stim/dot_no.png,None,Dot,None,Dot,1,0.0,0,5.125,0,5.125,0,5.125,0,0.0,0.625,0,0.0,0,0.0,1,0.5,1,2.125,0,0.0,0,0.0,0,0.0,0,0.0,0,,,,,0,25,25,25,,,,,,,,,246.3919701249979,246.3919701249979,246.3919701249979,246.3919701249979,246.3919701249979,246.3919701249979,246.3919701249979,246.3919701249979,246.37382924966613,246.3919701249979,246.3919701249979,246.3919701249979,246.37382924966613,246.3919701249979,246.3919701249979,246.3919701249979,248.49351049999677,252.44936033299746,246.3919701249979,246.3919701249979,251.52480929199737,246.86997687499752,247.8841044999972,248.49351049999677,249.51218816699838,246.3919701249979,246.3919701249979,246.37382924966613,246.3919701249979,246.3919701249979,246.3919701249979,246.37382924966613,246.3919701249979,246.3919701249979,251.52480929199737,246.3919701249979,251.52480929199737,251.60791266699744,252.23314374999973,246.3919701249979,1,1,2.4015143750002608,reldom2_s035,001,2025-03-13_17h09.14.417,Where-B-Scan_AC,2022.2.5,None,
20,First_Order,4.0,viswhere,stimulus/viswhere_stim/blank_white.png,stimulus/viswhere_stim/blank_white.png,stimulus/viswhere_stim/30-deg_dot-left_peru.png,stimulus/viswhere_stim/30-deg_dot-right_salmon.png,stimulus/viswhere_stim/blank_white.png,stimulus/viswhere_stim/dot_box.png,stimulus/viswhere_stim/dot_yes.png,stimulus/viswhere_stim/dot_no.png,None,Dot,None,Line,2,0.0,0,5.125,0,5.125,0,5.125,0,0.0,0.625,0,0.0,0,0.0,1,0.5,1,2.125,0,0.0,0,0.0,0,0.0,0,0.0,0,,,,,0,26,26,26,,,,,,,,,252.44936033299746,252.44936033299746,252.44936033299746,252.44936033299746,252.44936033299746,252.44936033299746,252.44936033299746,252.44936033299746,252.42906675033132,252.44936033299746,252.44936033299746,252.44936033299746,252.42906675033132,252.44936033299746,252.44936033299746,252.44936033299746,254.55660008299674,258.51360874999955,252.44936033299746,252.44936033299746,257.58470854199913,252.92456729199694,253.9329388749975,254.55660008299674,255.57093095799792,252.44936033299746,252.44936033299746,252.445733416998,252.44936033299746,252.44936033299746,252.44936033299746,252.445733416998,252.44936033299746,252.44936033299746,257.58470854199913,252.44936033299746,257.58470854199913,257.66591291700024,258.28679824999926,252.44936033299746,2,1,0.6523573750018841,reldom2_s035,001,2025-03-13_17h09.14.417,Where-B-Scan_AC,2022.2.5,None,
21,First_Order,4.0,viswhere,stimulus/viswhere_stim/blank_white.png,stimulus/viswhere_stim/blank_white.png,stimulus/viswhere_stim/60-deg_dot-left_lightsseagreen.png,stimulus/viswhere_stim/30-deg_dot-left_slateblue.png,stimulus/viswhere_stim/blank_white.png,stimulus/viswhere_stim/line_box.png,stimulus/viswhere_stim/line_yes.png,stimulus/viswhere_stim/line_no.png,None,Line,None,Dot,2,0.0,0,5.125,0,5.125,0,5.125,0,0.0,0.625,0,0.0,0,0.0,1,0.5,1,2.125,0,0.0,0,0.0,0,0.0,0,0.0,0,,,,,0,27,27,27,,,,,,,,,258.51360874999955,258.51360874999955,258.51360874999955,258.51360874999955,258.51360874999955,258.51360874999955,258.51360874999955,258.51360874999955,258.49437808333215,258.51360874999955,258.51360874999955,258.51360874999955,258.49437808333215,258.51360874999955,258.51360874999955,258.51360874999955,260.6266373749968,264.5913486249992,258.51360874999955,258.51360874999955,263.64304891699794,258.9890636249984,259.99976995799807,260.6266373749968,261.6425597919988,258.51360874999955,258.51360874999955,258.49437808333215,258.51360874999955,258.51360874999955,258.51360874999955,258.49437808333215,258.51360874999955,258.51360874999955,263.64304891699794,258.51360874999955,263.64304891699794,263.74017558299965,264.38767724999707,258.51360874999955,2,1,0.6981455420027487,reldom2_s035,001,2025-03-13_17h09.14.417,Where-B-Scan_AC,2022.2.5,None,
22,First_Order,4.0,viswhere,stimulus/viswhere_stim/blank_white.png,stimulus/viswhere_stim/blank_white.png,stimulus/viswhere_stim/120-deg_dot-right_peru.png,stimulus/viswhere_stim/150-deg_dot-right_peru.png,stimulus/viswhere_stim/blank_white.png,stimulus/viswhere_stim/line_box.png,stimulus/viswhere_stim/line_yes.png,stimulus/viswhere_stim/line_no.png,None,Line,None,Dot,2,0.0,0,5.125,0,5.125,0,5.125,0,0.0,0.625,0,0.0,0,0.0,1,0.5,1,2.125,0,0.0,0,0.0,0,0.0,0,0.0,0,,,,,0,28,28,28,,,,,,,,,264.5913486249992,264.5913486249992,264.5913486249992,264.5913486249992,264.5913486249992,264.5913486249992,264.5913486249992,264.5913486249992,264.57117841633345,264.5913486249992,264.5913486249992,264.5913486249992,264.57117841633345,264.5913486249992,264.5913486249992,264.5913486249992,266.69486533300005,270.7293392499996,264.5913486249992,264.5913486249992,269.72853058299734,265.07072420799886,266.0840150829972,266.69486533300005,267.69701174999864,264.5913486249992,264.5913486249992,264.5878450830001,264.5913486249992,264.5913486249992,264.5913486249992,264.5878450830001,264.5913486249992,264.5913486249992,269.72853058299734,264.5913486249992,269.72853058299734,269.8110536669992,270.4373229169978,264.5913486249992,2,1,0.9230895420005254,reldom2_s035,001,2025-03-13_17h09.14.417,Where-B-Scan_AC,2022.2.5,None,
0,0.0,None,fixation,stimulus/audwhere_stim/blank_white.png,stimulus/audwhere_stim/blank_white.png,stimulus/viswhere_stim/blank_white.png,stimulus/viswhere_stim/blank_white.png,stimulus/audwhere_stim/blank_white.png,stimulus/audwhere_stim/blank_white.png,stimulus/audwhere_stim/blank_white.png,stimulus/audwhere_stim/blank_white.png,0.0,0.0,0.0,0.0,0,0.0,0,0.0,0,0.0,0,0.0,0,0.0,0.0,0,0.0,0,0.0,0,0.0,0,0.0,0,0.0,0,0.0,0,0.0,0,0.0,10,,,,,0,29,29,29,,,,,,,,,270.7293392499996,270.7293392499996,270.7293392499996,270.7293392499996,270.7293392499996,270.7293392499996,270.7293392499996,270.7293392499996,270.63214583333075,270.7293392499996,270.7293392499996,270.7293392499996,270.63214583333075,270.7293392499996,270.7293392499996,270.7293392499996,270.7293392499996,270.7293392499996,270.7293392499996,270.7293392499996,270.7293392499996,270.7293392499996,270.7293392499996,270.7293392499996,270.7293392499996,270.7293392499996,270.7293392499996,270.68214583333076,270.7293392499996,270.7293392499996,270.7293392499996,270.68214583333076,270.7293392499996,270.7293392499996,270.7293392499996,270.7293392499996,270.7293392499996,275.91144212499785,275.91144212499785,280.8312709169986,None,0,,reldom2_s035,001,2025-03-13_17h09.14.417,Where-B-Scan_AC,2022.2.5,None,
23,Second_Order,4.0,viswhere,stimulus/viswhere_stim/60-deg_dot-right_peru.png,stimulus/viswhere_stim/60-deg_dot-left_royalblue.png,stimulus/viswhere_stim/90-deg_dot-left_slateblue.png,stimulus/viswhere_stim/90-deg_dot-right_royalblue.png,stimulus/audwhere_stim/match_blank.png,stimulus/audwhere_stim/match_box.png,stimulus/audwhere_stim/match_yes.png,stimulus/audwhere_stim/match_no.png,1.0,Match,Line,Line,1,5.125,0,5.125,0,5.125,0,5.125,0,0.75,0.75,1,0.5,1,2.125,1,0.5,1,2.125,0,0.0,0,0.0,0,0.0,0,0.0,0,,,,,0,30,30,30,,,,,,,,,280.8312709169986,285.95530549999967,281.31466541699774,282.31307874999766,282.93569195799864,283.93334537499686,280.8312709169986,280.8312709169986,280.8463147913336,280.8312709169986,280.8312709169986,280.8312709169986,280.8463147913336,280.8312709169986,285.95530549999967,286.7520414169994,288.82654841699696,292.7217312499997,286.7520414169994,286.7520414169994,291.88719624999794,287.19881458300006,288.2135654169979,288.82654841699696,289.83425183299914,286.7520414169994,286.7520414169994,286.74060524999805,286.7520414169994,286.7520414169994,286.7520414169994,286.74060524999805,286.7520414169994,286.7520414169994,291.88719624999794,286.7520414169994,291.88719624999794,291.9422765419986,292.7217312499997,286.7520414169994,1,1,0.641810125001939,reldom2_s035,001,2025-03-13_17h09.14.417,Where-B-Scan_AC,2022.2.5,None,
24,Second_Order,4.0,viswhere,stimulus/viswhere_stim/120-deg_dot-left_peru.png,stimulus/viswhere_stim/120-deg_dot-right_peru.png,stimulus/viswhere_stim/30-deg_dot-right_peru.png,stimulus/viswhere_stim/30-deg_dot-left_lightsseagreen.png,stimulus/audwhere_stim/match_blank.png,stimulus/audwhere_stim/match_box.png,stimulus/audwhere_stim/match_yes.png,stimulus/audwhere_stim/match_no.png,1.0,Match,Line,Line,1,5.125,0,5.125,0,5.125,0,5.125,0,0.625,0.625,1,0.5,1,2.125,1,0.5,1,2.125,0,0.0,0,0.0,0,0.0,0,0.0,0,,,,,0,31,31,31,,,,,,,,,292.7217312499997,297.83689499999673,293.20782020799743,294.1943769999998,294.8295858329984,295.82809362499756,292.7217312499997,292.7217312499997,292.7362900829983,292.7217312499997,292.7217312499997,292.7217312499997,292.7362900829983,292.7217312499997,297.83689499999673,298.5068621669998,300.5908066669981,304.6284856249986,298.5068621669998,298.5068621669998,303.6402377079976,298.96894795799744,299.98136345799867,300.5908066669981,301.61058137500004,298.5068621669998,298.5068621669998,298.484045750331,298.5068621669998,298.5068621669998,298.5068621669998,298.484045750331,298.5068621669998,298.5068621669998,303.6402377079976,298.5068621669998,303.6402377079976,303.70901695799694,304.33376866699837,298.5068621669998,1,1,0.652585125000769,reldom2_s035,001,2025-03-13_17h09.14.417,Where-B-Scan_AC,2022.2.5,None,
0,0.0,None,fixation,stimulus/audwhere_stim/blank_white.png,stimulus/audwhere_stim/blank_white.png,stimulus/viswhere_stim/blank_white.png,stimulus/viswhere_stim/blank_white.png,stimulus/audwhere_stim/blank_white.png,stimulus/audwhere_stim/blank_white.png,stimulus/audwhere_stim/blank_white.png,stimulus/audwhere_stim/blank_white.png,0.0,0.0,0.0,0.0,0,0.0,0,0.0,0,0.0,0,0.0,0,0.0,0.0,0,0.0,0,0.0,0,0.0,0,0.0,0,0.0,0,0.0,0,0.0,0,0.0,9,,,,,0,32,32,32,,,,,,,,,304.6284856249986,304.6284856249986,304.6284856249986,304.6284856249986,304.6284856249986,304.6284856249986,304.6284856249986,304.6284856249986,304.5302615833328,304.6284856249986,304.6284856249986,304.6284856249986,304.5302615833328,304.6284856249986,304.6284856249986,304.6284856249986,304.6284856249986,304.6284856249986,304.6284856249986,304.6284856249986,304.6284856249986,304.6284856249986,304.6284856249986,304.6284856249986,304.6284856249986,304.6284856249986,304.6284856249986,304.5802615833328,304.6284856249986,304.6284856249986,304.6284856249986,304.5802615833328,304.6284856249986,304.6284856249986,304.6284856249986,304.6284856249986,304.6284856249986,309.8275501249991,309.8275501249991,313.8801441249998,None,0,,reldom2_s035,001,2025-03-13_17h09.14.417,Where-B-Scan_AC,2022.2.5,None,
25,First_Order,5.0,audwhere,stimulus/audwhere_stim/dummy.wav,stimulus/audwhere_stim/dummy.wav,stimulus/audwhere_stim/right_toward_280h.wav,stimulus/audwhere_stim/right_away_290h.wav,stimulus/audwhere_stim/blank_white.png,stimulus/audwhere_stim/side_box.png,stimulus/audwhere_stim/side_yes.png,stimulus/audwhere_stim/side_no.png,None,Side,None,Side,1,0.0,0,5.125,0,5.125,0,5.125,0,0.0,0.625,0,0.0,0,0.0,0,0.0,0,0.0,0,0.0,0,0.0,1,0.5,1,2.125,0,,,,,0,33,33,33,,,,,,,,,313.8801441249998,313.8801441249998,313.8801441249998,313.8801441249998,313.8801441249998,313.8801441249998,313.8801441249998,313.8801441249998,313.8109796666637,313.8801441249998,313.8801441249998,313.8801441249998,313.8109796666637,313.8801441249998,313.8801441249998,313.8801441249998,315.9551539169988,,313.8801441249998,313.8801441249998,319.04787187499824,313.8801441249998,313.8801441249998,313.8801441249998,313.8801441249998,314.3406857919981,315.4034219999994,314.3111722916658,,315.9551539169988,317.01656399999774,315.9255427916653,,313.8801441249998,319.04787187499824,313.8801441249998,319.04787187499824,319.089248332999,319.73849854199943,313.8801441249998,1,1,1.246250959000463,reldom2_s035,001,2025-03-13_17h09.14.417,Where-B-Scan_AC,2022.2.5,None,
26,First_Order,5.0,audwhere,stimulus/audwhere_stim/dummy.wav,stimulus/audwhere_stim/dummy.wav,stimulus/audwhere_stim/right_toward_300h.wav,stimulus/audwhere_stim/left_toward_270h.wav,stimulus/audwhere_stim/blank_white.png,stimulus/audwhere_stim/direction_box.png,stimulus/audwhere_stim/direction_yes.png,stimulus/audwhere_stim/direction_no.png,None,Direction,None,Direction,1,0.0,0,5.125,0,5.125,0,5.125,0,0.0,0.625,0,0.0,0,0.0,0,0.0,0,0.0,0,0.0,0,0.0,1,0.5,1,2.125,0,,,,,0,34,34,34,,,,,,,,,319.9906346249991,319.9906346249991,319.9906346249991,319.9906346249991,319.9906346249991,319.9906346249991,319.9906346249991,319.9906346249991,319.91229229133216,319.9906346249991,319.9906346249991,319.9906346249991,319.91229229133216,319.9906346249991,319.9906346249991,319.9906346249991,322.0835589169983,,319.9906346249991,319.9906346249991,325.15245191699796,319.9906346249991,319.9906346249991,319.9906346249991,319.9906346249991,320.4566695419999,321.5267680420002,320.42649920866484,,322.0835589169983,323.1553532079997,322.05354741666474,,319.9906346249991,325.15245191699796,319.9906346249991,325.15245191699796,325.19353591699837,325.8460168749989,319.9906346249991,1,1,1.2979888750014652,reldom2_s035,001,2025-03-13_17h09.14.417,Where-B-Scan_AC,2022.2.5,None,
27,First_Order,5.0,audwhere,stimulus/audwhere_stim/dummy.wav,stimulus/audwhere_stim/dummy.wav,stimulus/audwhere_stim/left_toward_290h.wav,stimulus/audwhere_stim/left_away_300h.wav,stimulus/audwhere_stim/blank_white.png,stimulus/audwhere_stim/direction_box.png,stimulus/audwhere_stim/direction_yes.png,stimulus/audwhere_stim/direction_no.png,None,Direction,None,Side,2,0.0,0,5.125,0,5.125,0,5.125,0,0.0,0.625,0,0.0,0,0.0,0,0.0,0,0.0,0,0.0,0,0.0,1,0.5,1,2.125,0,,,,,0,35,35,35,,,,,,,,,326.09869695799716,326.09869695799716,326.09869695799716,326.09869695799716,326.09869695799716,326.09869695799716,326.09869695799716,326.09869695799716,326.020147333331,326.09869695799716,326.09869695799716,326.09869695799716,326.020147333331,326.09869695799716,326.09869695799716,326.09869695799716,328.1866652079989,,326.09869695799716,326.09869695799716,331.2514691670003,326.09869695799716,326.09869695799716,326.09869695799716,326.09869695799716,326.56269620799867,327.6305542919981,326.5326376246669,,328.1866652079989,329.25542199999836,328.156892166666,,326.09869695799716,331.2514691670003,326.09869695799716,331.2514691670003,331.2932554580002,331.9451311669982,326.09869695799716,2,1,2.2607896250010526,reldom2_s035,001,2025-03-13_17h09.14.417,Where-B-Scan_AC,2022.2.5,None,
28,First_Order,5.0,audwhere,stimulus/audwhere_stim/dummy.wav,stimulus/audwhere_stim/dummy.wav,stimulus/audwhere_stim/right_away_300h.wav,stimulus/audwhere_stim/right_toward_290h.wav,stimulus/audwhere_stim/blank_white.png,stimulus/audwhere_stim/direction_box.png,stimulus/audwhere_stim/direction_yes.png,stimulus/audwhere_stim/direction_no.png,None,Direction,None,Side,2,0.0,0,5.125,0,5.125,0,5.125,0,0.0,0.625,0,0.0,0,0.0,0,0.0,0,0.0,0,0.0,0,0.0,1,0.5,1,2.125,0,,,,,0,36,36,36,,,,,,,,,332.19760208299704,332.19760208299704,332.19760208299704,332.19760208299704,332.19760208299704,332.19760208299704,332.19760208299704,332.19760208299704,332.11935020833164,332.19760208299704,332.19760208299704,332.19760208299704,332.11935020833164,332.19760208299704,332.19760208299704,332.19760208299704,334.29063374999896,338.34846404199925,332.19760208299704,332.19760208299704,337.3775844579977,332.19760208299704,332.19760208299704,332.19760208299704,332.19760208299704,332.66335383299884,333.7350191669975,332.6332564996667,,334.29063374999896,335.3607112919999,334.2604583746654,,332.19760208299704,337.3775844579977,332.19760208299704,337.3775844579977,337.4192850829968,338.075104042,332.19760208299704,2,1,2.071330458002194,reldom2_s035,001,2025-03-13_17h09.14.417,Where-B-Scan_AC,2022.2.5,None,
0,0.0,None,fixation,stimulus/audwhere_stim/blank_white.png,stimulus/audwhere_stim/blank_white.png,stimulus/viswhere_stim/blank_white.png,stimulus/viswhere_stim/blank_white.png,stimulus/audwhere_stim/blank_white.png,stimulus/audwhere_stim/blank_white.png,stimulus/audwhere_stim/blank_white.png,stimulus/audwhere_stim/blank_white.png,0.0,0.0,0.0,0.0,0,0.0,0,0.0,0,0.0,0,0.0,0,0.0,0.0,0,0.0,0,0.0,0,0.0,0,0.0,0,0.0,0,0.0,0,0.0,0,0.0,10,,,,,0,37,37,37,,,,,,,,,338.34846404199925,338.34846404199925,338.34846404199925,338.34846404199925,338.34846404199925,338.34846404199925,338.34846404199925,338.34846404199925,338.2493582503322,338.34846404199925,338.34846404199925,338.34846404199925,338.2493582503322,338.34846404199925,338.34846404199925,338.34846404199925,338.34846404199925,338.34846404199925,338.34846404199925,338.34846404199925,338.34846404199925,338.34846404199925,338.34846404199925,338.34846404199925,338.34846404199925,338.34846404199925,338.34846404199925,338.2993582503322,338.34846404199925,338.34846404199925,338.34846404199925,338.2993582503322,338.34846404199925,338.34846404199925,338.34846404199925,338.34846404199925,338.34846404199925,343.5400977499994,343.5400977499994,348.4911642079969,None,0,,reldom2_s035,001,2025-03-13_17h09.14.417,Where-B-Scan_AC,2022.2.5,None,
29,Second_Order,5.0,audwhere,stimulus/audwhere_stim/right_toward_270h.wav,stimulus/audwhere_stim/right_away_280h.wav,stimulus/audwhere_stim/left_away_270h.wav,stimulus/audwhere_stim/right_away_300h.wav,stimulus/audwhere_stim/match_blank.png,stimulus/audwhere_stim/match_box.png,stimulus/audwhere_stim/match_yes.png,stimulus/audwhere_stim/match_no.png,2.0,Match,Side,Direction,2,5.125,0,5.125,0,5.125,0,5.125,0,0.75,0.75,0,0.0,0,0.0,0,0.0,0,0.0,1,0.5,1,2.125,1,0.5,1,2.125,0,,,,,0,38,38,38,,,,,,,,,348.4911642079969,353.6156681249995,348.4911642079969,348.4911642079969,348.4911642079969,348.4911642079969,348.950339791998,349.93985187499857,348.95376754166523,,350.5749952499973,351.57334574999913,350.5872914586655,,353.6156681249995,354.4654427079986,356.5313120419996,,354.4654427079986,354.4654427079986,359.6284663749975,354.4654427079986,354.4654427079986,354.4654427079986,354.4654427079986,354.9231536669977,355.9796648329975,354.8936842086662,,356.5313120419996,357.5976566669997,356.5020797916661,,354.4654427079986,359.6284663749975,354.4654427079986,359.6284663749975,359.6284663749975,,354.4654427079986,2,1,0.7807945419990574,reldom2_s035,001,2025-03-13_17h09.14.417,Where-B-Scan_AC,2022.2.5,None,
30,Second_Order,5.0,audwhere,stimulus/audwhere_stim/right_away_300h.wav,stimulus/audwhere_stim/right_toward_300h.wav,stimulus/audwhere_stim/left_toward_290h.wav,stimulus/audwhere_stim/left_away_270h.wav,stimulus/audwhere_stim/match_blank.png,stimulus/audwhere_stim/match_box.png,stimulus/audwhere_stim/match_yes.png,stimulus/audwhere_stim/match_no.png,1.0,Match,Side,Side,1,5.125,0,5.125,0,5.125,0,5.125,0,0.625,0.625,0,0.0,0,0.0,0,0.0,0,0.0,1,0.5,1,2.125,1,0.5,1,2.125,0,,,,,0,39,39,39,,,,,,,,,360.43741804199817,365.5605359999972,360.43741804199817,360.43741804199817,360.43741804199817,360.43741804199817,360.8965008749983,361.88356658299745,360.91084620866627,,362.5195857919971,363.51715062499716,362.53197337466577,,365.5605359999972,366.2907159999995,368.34190362499794,,366.2907159999995,366.2907159999995,371.460024,366.2907159999995,366.2907159999995,366.2907159999995,366.2907159999995,366.74332779199904,367.7951202919976,366.71420154166503,,368.34190362499794,369.3972650420001,368.31318845866576,,366.2907159999995,371.460024,366.2907159999995,371.460024,371.460024,372.14763629200024,366.2907159999995,1,1,0.8708920839999337,reldom2_s035,001,2025-03-13_17h09.14.417,Where-B-Scan_AC,2022.2.5,None,
0,0.0,None,fixation,stimulus/audwhere_stim/blank_white.png,stimulus/audwhere_stim/blank_white.png,stimulus/viswhere_stim/blank_white.png,stimulus/viswhere_stim/blank_white.png,stimulus/audwhere_stim/blank_white.png,stimulus/audwhere_stim/blank_white.png,stimulus/audwhere_stim/blank_white.png,stimulus/audwhere_stim/blank_white.png,0.0,0.0,0.0,0.0,0,0.0,0,0.0,0,0.0,0,0.0,0,0.0,0.0,0,0.0,0,0.0,0,0.0,0,0.0,0,0.0,0,0.0,0,0.0,0,0.0,8,,,,,0,40,40,40,,,,,,,,,372.3784192919993,372.3784192919993,372.3784192919993,372.3784192919993,372.3784192919993,372.3784192919993,372.3784192919993,372.3784192919993,372.28096962533357,372.3784192919993,372.3784192919993,372.3784192919993,372.28096962533357,372.3784192919993,372.3784192919993,372.3784192919993,372.3784192919993,372.3784192919993,372.3784192919993,372.3784192919993,372.3784192919993,372.3784192919993,372.3784192919993,372.3784192919993,372.3784192919993,372.3784192919993,372.3784192919993,372.3309696253336,372.3784192919993,372.3784192919993,372.3784192919993,372.3309696253336,372.3784192919993,372.3784192919993,372.3784192919993,372.3784192919993,372.3784192919993,377.6146360419989,377.6146360419989,380.6162285419996,None,0,,reldom2_s035,001,2025-03-13_17h09.14.417,Where-B-Scan_AC,2022.2.5,None,
31,First_Order,6.0,audwhere,stimulus/audwhere_stim/dummy.wav,stimulus/audwhere_stim/dummy.wav,stimulus/audwhere_stim/left_toward_270h.wav,stimulus/audwhere_stim/right_toward_280h.wav,stimulus/audwhere_stim/blank_white.png,stimulus/audwhere_stim/side_box.png,stimulus/audwhere_stim/side_yes.png,stimulus/audwhere_stim/side_no.png,None,Side,None,Direction,2,0.0,0,5.125,0,5.125,0,5.125,0,0.0,0.625,0,0.0,0,0.0,0,0.0,0,0.0,0,0.0,0,0.0,1,0.5,1,2.125,0,,,,,0,41,41,41,,,,,,,,,380.6162285419996,380.6162285419996,380.6162285419996,380.6162285419996,380.6162285419996,380.6162285419996,380.6162285419996,380.6162285419996,380.54553424966673,380.6162285419996,380.6162285419996,380.6162285419996,380.54553424966673,380.6162285419996,380.6162285419996,380.6162285419996,382.69143795799755,,380.6162285419996,380.6162285419996,385.78406937499676,380.6162285419996,380.6162285419996,380.6162285419996,380.6162285419996,381.0800543749974,382.13774716699845,381.049760166665,,382.69143795799755,383.75529424999695,382.66206354166593,,380.6162285419996,385.78406937499676,380.6162285419996,385.78406937499676,385.82510570799786,386.4736867920001,380.6162285419996,2,1,1.0745064170005207,reldom2_s035,001,2025-03-13_17h09.14.417,Where-B-Scan_AC,2022.2.5,None,
32,First_Order,6.0,audwhere,stimulus/audwhere_stim/dummy.wav,stimulus/audwhere_stim/dummy.wav,stimulus/audwhere_stim/right_toward_280h.wav,stimulus/audwhere_stim/left_toward_290h.wav,stimulus/audwhere_stim/blank_white.png,stimulus/audwhere_stim/direction_box.png,stimulus/audwhere_stim/direction_yes.png,stimulus/audwhere_stim/direction_no.png,None,Direction,None,Direction,1,0.0,0,5.125,0,5.125,0,5.125,0,0.0,0.625,0,0.0,0,0.0,0,0.0,0,0.0,0,0.0,0,0.0,1,0.5,1,2.125,0,,,,,0,42,42,42,,,,,,,,,386.72582012499697,386.72582012499697,386.72582012499697,386.72582012499697,386.72582012499697,386.72582012499697,386.72582012499697,386.72582012499697,386.64765329133127,386.72582012499697,386.72582012499697,386.72582012499697,386.64765329133127,386.72582012499697,386.72582012499697,386.72582012499697,388.82080058299834,,386.72582012499697,386.72582012499697,391.88775933299985,386.72582012499697,386.72582012499697,386.72582012499697,386.72582012499697,387.1927652079976,388.2630479170002,387.16256349966375,,388.82080058299834,389.8902851249986,388.7907295836669,,386.72582012499697,391.88775933299985,386.72582012499697,391.88775933299985,391.92897287499727,392.580598499997,386.72582012499697,1,1,1.4231757919988013,reldom2_s035,001,2025-03-13_17h09.14.417,Where-B-Scan_AC,2022.2.5,None,
33,First_Order,6.0,audwhere,stimulus/audwhere_stim/dummy.wav,stimulus/audwhere_stim/dummy.wav,stimulus/audwhere_stim/left_toward_270h.wav,stimulus/audwhere_stim/left_away_300h.wav,stimulus/audwhere_stim/blank_white.png,stimulus/audwhere_stim/side_box.png,stimulus/audwhere_stim/side_yes.png,stimulus/audwhere_stim/side_no.png,None,Side,None,Side,1,0.0,0,5.125,0,5.125,0,5.125,0,0.0,0.625,0,0.0,0,0.0,0,0.0,0,0.0,0,0.0,0,0.0,1,0.5,1,2.125,0,,,,,0,43,43,43,,,,,,,,,392.8331452079983,392.8331452079983,392.8331452079983,392.8331452079983,392.8331452079983,392.8331452079983,392.8331452079983,392.8331452079983,392.75452400033294,392.8331452079983,392.8331452079983,392.8331452079983,392.75452400033294,392.8331452079983,392.8331452079983,392.8331452079983,394.91427374999694,398.9543894999988,392.8331452079983,392.8331452079983,398.01192929199897,392.8331452079983,392.8331452079983,392.8331452079983,392.8331452079983,393.2975007919995,394.35952662499767,393.26781937466535,,394.91427374999694,395.97954054199727,394.88477649966467,,392.8331452079983,398.01192929199897,392.8331452079983,398.01192929199897,398.0527992919997,398.70245537499795,392.8331452079983,1,1,1.2524101250019157,reldom2_s035,001,2025-03-13_17h09.14.417,Where-B-Scan_AC,2022.2.5,None,
34,First_Order,6.0,audwhere,stimulus/audwhere_stim/dummy.wav,stimulus/audwhere_stim/dummy.wav,stimulus/audwhere_stim/right_toward_300h.wav,stimulus/audwhere_stim/left_toward_290h.wav,stimulus/audwhere_stim/blank_white.png,stimulus/audwhere_stim/side_box.png,stimulus/audwhere_stim/side_yes.png,stimulus/audwhere_stim/side_no.png,None,Side,None,Direction,2,0.0,0,5.125,0,5.125,0,5.125,0,0.0,0.625,0,0.0,0,0.0,0,0.0,0,0.0,0,0.0,0,0.0,1,0.5,1,2.125,0,,,,,0,44,44,44,,,,,,,,,398.9543894999988,398.9543894999988,398.9543894999988,398.9543894999988,398.9543894999988,398.9543894999988,398.9543894999988,398.9543894999988,398.8761593333312,398.9543894999988,398.9543894999988,398.9543894999988,398.8761593333312,398.9543894999988,398.9543894999988,398.9543894999988,401.0354348330002,405.1039445419992,398.9543894999988,398.9543894999988,404.13551466699937,398.9543894999988,398.9543894999988,398.9543894999988,398.9543894999988,399.4188092080003,400.4802830419976,399.3887551666669,,401.0354348330002,402.1007946669997,401.0042502496656,,398.9543894999988,404.13551466699937,398.9543894999988,404.13551466699937,404.1767810829988,404.8296784999984,398.9543894999988,2,1,1.9853082919980807,reldom2_s035,001,2025-03-13_17h09.14.417,Where-B-Scan_AC,2022.2.5,None,
0,0.0,None,fixation,stimulus/audwhere_stim/blank_white.png,stimulus/audwhere_stim/blank_white.png,stimulus/viswhere_stim/blank_white.png,stimulus/viswhere_stim/blank_white.png,stimulus/audwhere_stim/blank_white.png,stimulus/audwhere_stim/blank_white.png,stimulus/audwhere_stim/blank_white.png,stimulus/audwhere_stim/blank_white.png,0.0,0.0,0.0,0.0,0,0.0,0,0.0,0,0.0,0,0.0,0,0.0,0.0,0,0.0,0,0.0,0,0.0,0,0.0,0,0.0,0,0.0,0,0.0,0,0.0,8,,,,,0,45,45,45,,,,,,,,,405.1039445419992,405.1039445419992,405.1039445419992,405.1039445419992,405.1039445419992,405.1039445419992,405.1039445419992,405.1039445419992,405.0038050003333,405.1039445419992,405.1039445419992,405.1039445419992,405.0038050003333,405.1039445419992,405.1039445419992,405.1039445419992,405.1039445419992,405.1039445419992,405.1039445419992,405.1039445419992,405.1039445419992,405.1039445419992,405.1039445419992,405.1039445419992,405.1039445419992,405.1039445419992,405.1039445419992,405.0538050003333,405.1039445419992,405.1039445419992,405.1039445419992,405.0538050003333,405.1039445419992,405.1039445419992,405.1039445419992,405.1039445419992,405.1039445419992,410.323827041997,410.323827041997,413.24142474999826,None,0,,reldom2_s035,001,2025-03-13_17h09.14.417,Where-B-Scan_AC,2022.2.5,None,
35,Second_Order,6.0,audwhere,stimulus/audwhere_stim/left_toward_280h.wav,stimulus/audwhere_stim/right_toward_270h.wav,stimulus/audwhere_stim/left_away_300h.wav,stimulus/audwhere_stim/right_away_280h.wav,stimulus/audwhere_stim/match_blank.png,stimulus/audwhere_stim/match_box.png,stimulus/audwhere_stim/match_yes.png,stimulus/audwhere_stim/match_no.png,1.0,Match,Direction,Direction,1,5.125,0,5.125,0,5.125,0,5.125,0,0.75,0.75,0,0.0,0,0.0,0,0.0,0,0.0,1,0.5,1,2.125,1,0.5,1,2.125,0,,,,,0,46,46,46,,,,,,,,,413.24142474999826,418.36618254199857,413.24142474999826,413.24142474999826,413.24142474999826,413.24142474999826,413.6999933749976,414.68985170799715,413.70390237466586,,415.32458349999797,416.322875124999,415.33687845866393,,418.36618254199857,419.21177395799896,421.281109042,,419.21177395799896,419.21177395799896,424.37529045799965,419.21177395799896,419.21177395799896,419.21177395799896,419.21177395799896,419.6682997079988,420.7263812079982,419.6389308746659,,421.281109042,422.34442291699816,421.25154095866696,,419.21177395799896,424.37529045799965,419.21177395799896,424.37529045799965,424.37529045799965,,419.21177395799896,1,1,1.1989240420007263,reldom2_s035,001,2025-03-13_17h09.14.417,Where-B-Scan_AC,2022.2.5,None,
36,Second_Order,6.0,audwhere,stimulus/audwhere_stim/left_toward_300h.wav,stimulus/audwhere_stim/right_toward_280h.wav,stimulus/audwhere_stim/left_away_300h.wav,stimulus/audwhere_stim/right_away_300h.wav,stimulus/audwhere_stim/match_blank.png,stimulus/audwhere_stim/match_box.png,stimulus/audwhere_stim/match_yes.png,stimulus/audwhere_stim/match_no.png,1.0,Match,Direction,Direction,1,5.125,0,5.125,0,5.125,0,5.125,0,0.625,0.625,0,0.0,0,0.0,0,0.0,0,0.0,1,0.5,1,2.125,1,0.5,1,2.125,0,,,,,0,47,47,47,,,,,,,,,425.1846656669986,430.3109859169999,425.1846656669986,425.1846656669986,425.1846656669986,425.1846656669986,425.6440108329989,426.6344586669984,425.64662854166477,,427.2687732079976,428.2672193749968,427.2813831666647,,430.3109859169999,431.0400700829996,433.0954237079968,,431.0400700829996,431.0400700829996,436.2133152919996,431.0400700829996,431.0400700829996,431.0400700829996,431.0400700829996,431.4951044579975,432.5461394579979,431.46657824966337,,433.0954237079968,434.1530767080003,433.0658368746665,,431.0400700829996,436.2133152919996,431.0400700829996,436.2133152919996,436.2133152919996,436.899561582999,431.0400700829996,1,1,1.0707380419989931,reldom2_s035,001,2025-03-13_17h09.14.417,Where-B-Scan_AC,2022.2.5,None,
0,0.0,None,fixation,stimulus/audwhere_stim/blank_white.png,stimulus/audwhere_stim/blank_white.png,stimulus/viswhere_stim/blank_white.png,stimulus/viswhere_stim/blank_white.png,stimulus/audwhere_stim/blank_white.png,stimulus/audwhere_stim/blank_white.png,stimulus/audwhere_stim/blank_white.png,stimulus/audwhere_stim/blank_white.png,0.0,0.0,0.0,0.0,0,0.0,0,0.0,0,0.0,0,0.0,0,0.0,0.0,0,0.0,0,0.0,0,0.0,0,0.0,0,0.0,0,0.0,0,0.0,0,0.0,10,,,,,0,48,48,48,,,,,,,,,437.1322652919989,437.1322652919989,437.1322652919989,437.1322652919989,437.1322652919989,437.1322652919989,437.1322652919989,437.1322652919989,437.03289491633234,437.1322652919989,437.1322652919989,437.1322652919989,437.03289491633234,437.1322652919989,437.1322652919989,437.1322652919989,437.1322652919989,437.1322652919989,437.1322652919989,437.1322652919989,437.1322652919989,437.1322652919989,437.1322652919989,437.1322652919989,437.1322652919989,437.1322652919989,437.1322652919989,437.08289491633235,437.1322652919989,437.1322652919989,437.1322652919989,437.08289491633235,437.1322652919989,437.1322652919989,437.1322652919989,437.1322652919989,437.1322652919989,442.35426133299916,442.35426133299916,447.3091645829991,None,0,,reldom2_s035,001,2025-03-13_17h09.14.417,Where-B-Scan_AC,2022.2.5,None,
37,First_Order,7.0,viswhere,stimulus/viswhere_stim/blank_white.png,stimulus/viswhere_stim/blank_white.png,stimulus/viswhere_stim/150-deg_dot-left_turquoise.png,stimulus/viswhere_stim/120-deg_dot-left_mediumslateblue.png,stimulus/viswhere_stim/blank_white.png,stimulus/viswhere_stim/line_box.png,stimulus/viswhere_stim/line_yes.png,stimulus/viswhere_stim/line_no.png,None,Line,None,Dot,2,0.0,0,5.125,0,5.125,0,5.125,0,0.0,0.625,0,0.0,0,0.0,1,0.5,1,2.125,0,0.0,0,0.0,0,0.0,0,0.0,0,,,,,0,49,49,49,,,,,,,,,447.3091645829991,447.3091645829991,447.3091645829991,447.3091645829991,447.3091645829991,447.3091645829991,447.3091645829991,447.3091645829991,447.2907649996656,447.3091645829991,447.3091645829991,447.3091645829991,447.2907649996656,447.3091645829991,447.3091645829991,447.3091645829991,449.4125384170002,453.3675785419982,447.3091645829991,447.3091645829991,452.44184895799845,447.78667049999785,448.80032008299895,449.4125384170002,450.42995108299874,447.3091645829991,447.3091645829991,447.2907649996656,447.3091645829991,447.3091645829991,447.3091645829991,447.2907649996656,447.3091645829991,447.3091645829991,452.44184895799845,447.3091645829991,452.44184895799845,452.5246054579984,453.15380045799975,447.3091645829991,2,1,0.9177925839976524,reldom2_s035,001,2025-03-13_17h09.14.417,Where-B-Scan_AC,2022.2.5,None,
38,First_Order,7.0,viswhere,stimulus/viswhere_stim/blank_white.png,stimulus/viswhere_stim/blank_white.png,stimulus/viswhere_stim/120-deg_dot-left_mediumslateblue.png,stimulus/viswhere_stim/120-deg_dot-right_seagreen.png,stimulus/viswhere_stim/blank_white.png,stimulus/viswhere_stim/dot_box.png,stimulus/viswhere_stim/dot_yes.png,stimulus/viswhere_stim/dot_no.png,None,Dot,None,Line,2,0.0,0,5.125,0,5.125,0,5.125,0,0.0,0.625,0,0.0,0,0.0,1,0.5,1,2.125,0,0.0,0,0.0,0,0.0,0,0.0,0,,,,,0,50,50,50,,,,,,,,,453.3675785419982,453.3675785419982,453.3675785419982,453.3675785419982,453.3675785419982,453.3675785419982,453.3675785419982,453.3675785419982,453.34780183333106,453.3675785419982,453.3675785419982,453.3675785419982,453.34780183333106,453.3675785419982,453.3675785419982,453.3675785419982,455.4744907919994,459.42703741699734,453.3675785419982,453.3675785419982,458.496135166999,453.8426502919974,454.84812783300004,455.4744907919994,456.48518008300016,453.3675785419982,453.3675785419982,453.34780183333106,453.3675785419982,453.3675785419982,453.3675785419982,453.34780183333106,453.3675785419982,453.3675785419982,458.496135166999,453.3675785419982,458.496135166999,458.59333737499765,459.21476299999995,453.3675785419982,2,1,0.6595931250012654,reldom2_s035,001,2025-03-13_17h09.14.417,Where-B-Scan_AC,2022.2.5,None,
39,First_Order,7.0,viswhere,stimulus/viswhere_stim/blank_white.png,stimulus/viswhere_stim/blank_white.png,stimulus/viswhere_stim/60-deg_dot-right_salmon.png,stimulus/viswhere_stim/60-deg_dot-left_peru.png,stimulus/viswhere_stim/blank_white.png,stimulus/viswhere_stim/line_box.png,stimulus/viswhere_stim/line_yes.png,stimulus/viswhere_stim/line_no.png,None,Line,None,Line,1,0.0,0,5.125,0,5.125,0,5.125,0,0.0,0.625,0,0.0,0,0.0,1,0.5,1,2.125,0,0.0,0,0.0,0,0.0,0,0.0,0,,,,,0,51,51,51,,,,,,,,,459.42703741699734,459.42703741699734,459.42703741699734,459.42703741699734,459.42703741699734,459.42703741699734,459.42703741699734,459.42703741699734,459.4075910003315,459.42703741699734,459.42703741699734,459.42703741699734,459.4075910003315,459.42703741699734,459.42703741699734,459.42703741699734,461.5398311249992,465.5046959579995,459.42703741699734,459.42703741699734,464.5540462499994,459.9029415419973,460.912237499997,461.5398311249992,462.556031832999,459.42703741699734,459.42703741699734,459.4075910003315,459.42703741699734,459.42703741699734,459.42703741699734,459.4075910003315,459.42703741699734,459.42703741699734,464.5540462499994,459.42703741699734,464.5540462499994,464.66700283299724,465.2892869169991,459.42703741699734,1,1,0.6454604169994127,reldom2_s035,001,2025-03-13_17h09.14.417,Where-B-Scan_AC,2022.2.5,None,
40,First_Order,7.0,viswhere,stimulus/viswhere_stim/blank_white.png,stimulus/viswhere_stim/blank_white.png,stimulus/viswhere_stim/60-deg_dot-right_slateblue.png,stimulus/viswhere_stim/90-deg_dot-right_royalblue.png,stimulus/viswhere_stim/blank_white.png,stimulus/viswhere_stim/dot_box.png,stimulus/viswhere_stim/dot_yes.png,stimulus/viswhere_stim/dot_no.png,None,Dot,None,Dot,1,0.0,0,5.125,0,5.125,0,5.125,0,0.0,0.625,0,0.0,0,0.0,1,0.5,1,2.125,0,0.0,0,0.0,0,0.0,0,0.0,0,,,,,0,52,52,52,,,,,,,,,465.5046959579995,465.5046959579995,465.5046959579995,465.5046959579995,465.5046959579995,465.5046959579995,465.5046959579995,465.5046959579995,465.4853511663326,465.5046959579995,465.5046959579995,465.5046959579995,465.4853511663326,465.5046959579995,465.5046959579995,465.5046959579995,467.62115312499736,471.64102029199785,465.5046959579995,465.5046959579995,470.63787041699834,465.9809155829971,466.9916672500003,467.62115312499736,468.6372962919995,465.5046959579995,465.5046959579995,465.4853511663326,465.5046959579995,465.5046959579995,465.5046959579995,465.4853511663326,465.5046959579995,465.5046959579995,470.63787041699834,465.5046959579995,470.63787041699834,470.7351942919995,471.3624169169998,465.5046959579995,1,1,0.8695735830006015,reldom2_s035,001,2025-03-13_17h09.14.417,Where-B-Scan_AC,2022.2.5,None,
0,0.0,None,fixation,stimulus/audwhere_stim/blank_white.png,stimulus/audwhere_stim/blank_white.png,stimulus/viswhere_stim/blank_white.png,stimulus/viswhere_stim/blank_white.png,stimulus/audwhere_stim/blank_white.png,stimulus/audwhere_stim/blank_white.png,stimulus/audwhere_stim/blank_white.png,stimulus/audwhere_stim/blank_white.png,0.0,0.0,0.0,0.0,0,0.0,0,0.0,0,0.0,0,0.0,0,0.0,0.0,0,0.0,0,0.0,0,0.0,0,0.0,0,0.0,0,0.0,0,0.0,0,0.0,8,,,,,0,53,53,53,,,,,,,,,471.64102029199785,471.64102029199785,471.64102029199785,471.64102029199785,471.64102029199785,471.64102029199785,471.64102029199785,471.64102029199785,471.5432596663316,471.64102029199785,471.64102029199785,471.64102029199785,471.5432596663316,471.64102029199785,471.64102029199785,471.64102029199785,471.64102029199785,471.64102029199785,471.64102029199785,471.64102029199785,471.64102029199785,471.64102029199785,471.64102029199785,471.64102029199785,471.64102029199785,471.64102029199785,471.64102029199785,471.5932596663316,471.64102029199785,471.64102029199785,471.64102029199785,471.5932596663316,471.64102029199785,471.64102029199785,471.64102029199785,471.64102029199785,471.64102029199785,476.8299756669985,476.8299756669985,479.78139525000006,None,0,,reldom2_s035,001,2025-03-13_17h09.14.417,Where-B-Scan_AC,2022.2.5,None,
41,Second_Order,7.0,viswhere,stimulus/viswhere_stim/60-deg_dot-right_seagreen.png,stimulus/viswhere_stim/30-deg_dot-right_mediumslateblue.png,stimulus/viswhere_stim/60-deg_dot-left_mediumslateblue.png,stimulus/viswhere_stim/150-deg_dot-left_salmon.png,stimulus/audwhere_stim/match_blank.png,stimulus/audwhere_stim/match_box.png,stimulus/audwhere_stim/match_yes.png,stimulus/audwhere_stim/match_no.png,1.0,Match,Dot,Dot,1,5.125,0,5.125,0,5.125,0,5.125,0,0.75,0.75,1,0.5,1,2.125,1,0.5,1,2.125,0,0.0,0,0.0,0,0.0,0,0.0,0,,,,,0,54,54,54,,,,,,,,,479.78139525000006,484.9023632919998,480.2569361249989,481.2431949169986,481.8906446669971,482.8805109579989,479.78139525000006,479.78139525000006,479.78027670866675,479.78139525000006,479.78139525000006,479.78139525000006,479.78027670866675,479.78139525000006,484.9023632919998,485.6971101249983,487.77797270799783,491.63657124999736,485.6971101249983,485.6971101249983,490.824005749997,486.14330145799977,487.1449955419994,487.77797270799783,488.7815301249975,485.6971101249983,485.6971101249983,485.6864492920002,485.6971101249983,485.6971101249983,485.6971101249983,485.6864492920002,485.6971101249983,485.6971101249983,490.824005749997,485.6971101249983,490.824005749997,490.894223416999,491.672519249998,485.6971101249983,1,1,1.2479465830001573,reldom2_s035,001,2025-03-13_17h09.14.417,Where-B-Scan_AC,2022.2.5,None,
42,Second_Order,7.0,viswhere,stimulus/viswhere_stim/90-deg_dot-right_goldenrod.png,stimulus/viswhere_stim/120-deg_dot-right_mediumslateblue.png,stimulus/viswhere_stim/60-deg_dot-right_peru.png,stimulus/viswhere_stim/60-deg_dot-left_mediumslateblue.png,stimulus/audwhere_stim/match_blank.png,stimulus/audwhere_stim/match_box.png,stimulus/audwhere_stim/match_yes.png,stimulus/audwhere_stim/match_no.png,2.0,Match,Dot,Line,2,5.125,0,5.125,0,5.125,0,5.125,0,0.625,0.625,1,0.5,1,2.125,1,0.5,1,2.125,0,0.0,0,0.0,0,0.0,0,0.0,0,,,,,0,55,55,55,,,,,,,,,491.672519249998,496.7969119169975,492.15149562499937,493.1500043749984,493.7852944999977,494.7740273749987,491.672519249998,491.672519249998,491.68657124999737,491.672519249998,491.672519249998,491.672519249998,491.68657124999737,491.672519249998,496.7969119169975,497.4675929579971,499.5482773329968,503.5856103749975,497.4675929579971,497.4675929579971,502.62142629200025,497.9282846669994,498.9372703329973,499.5482773329968,500.5639222919999,497.4675929579971,497.4675929579971,497.4436073753318,497.4675929579971,497.4675929579971,497.4675929579971,497.4436073753318,497.4675929579971,497.4675929579971,502.62142629200025,497.4675929579971,502.62142629200025,502.661973667,503.29219566699976,497.4675929579971,2,1,0.7284909169975435,reldom2_s035,001,2025-03-13_17h09.14.417,Where-B-Scan_AC,2022.2.5,None,
0,0.0,None,fixation,stimulus/audwhere_stim/blank_white.png,stimulus/audwhere_stim/blank_white.png,stimulus/viswhere_stim/blank_white.png,stimulus/viswhere_stim/blank_white.png,stimulus/audwhere_stim/blank_white.png,stimulus/audwhere_stim/blank_white.png,stimulus/audwhere_stim/blank_white.png,stimulus/audwhere_stim/blank_white.png,0.0,0.0,0.0,0.0,0,0.0,0,0.0,0,0.0,0,0.0,0,0.0,0.0,0,0.0,0,0.0,0,0.0,0,0.0,0,0.0,0,0.0,0,0.0,0,0.0,8,,,,,0,56,56,56,,,,,,,,,503.5856103749975,503.5856103749975,503.5856103749975,503.5856103749975,503.5856103749975,503.5856103749975,503.5856103749975,503.5856103749975,503.4863763753322,503.5856103749975,503.5856103749975,503.5856103749975,503.4863763753322,503.5856103749975,503.5856103749975,503.5856103749975,503.5856103749975,503.5856103749975,503.5856103749975,503.5856103749975,503.5856103749975,503.5856103749975,503.5856103749975,503.5856103749975,503.5856103749975,503.5856103749975,503.5856103749975,503.5363763753322,503.5856103749975,503.5856103749975,503.5856103749975,503.5363763753322,503.5856103749975,503.5856103749975,503.5856103749975,503.5856103749975,503.5856103749975,508.79274574999727,508.79274574999727,511.79713504199754,None,0,,reldom2_s035,001,2025-03-13_17h09.14.417,Where-B-Scan_AC,2022.2.5,None,
43,First_Order,8.0,viswhere,stimulus/viswhere_stim/blank_white.png,stimulus/viswhere_stim/blank_white.png,stimulus/viswhere_stim/120-deg_dot-left_lightsseagreen.png,stimulus/viswhere_stim/120-deg_dot-right_royalblue.png,stimulus/viswhere_stim/blank_white.png,stimulus/viswhere_stim/line_box.png,stimulus/viswhere_stim/line_yes.png,stimulus/viswhere_stim/line_no.png,None,Line,None,Line,1,0.0,0,5.125,0,5.125,0,5.125,0,0.0,0.625,0,0.0,0,0.0,1,0.5,1,2.125,0,0.0,0,0.0,0,0.0,0,0.0,0,,,,,0,57,57,57,,,,,,,,,511.79713504199754,511.79713504199754,511.79713504199754,511.79713504199754,511.79713504199754,511.79713504199754,511.79713504199754,511.79713504199754,511.7778812496641,511.79713504199754,511.79713504199754,511.79713504199754,511.7778812496641,511.79713504199754,511.79713504199754,511.79713504199754,513.8951983749976,517.8523441669968,511.79713504199754,511.79713504199754,516.9315735829987,512.2761311670001,513.2879232919986,513.8951983749976,514.8967974999978,511.79713504199754,511.79713504199754,511.7778812496641,511.79713504199754,511.79713504199754,511.79713504199754,511.7778812496641,511.79713504199754,511.79713504199754,516.9315735829987,511.79713504199754,516.9315735829987,517.0152994579985,517.6362851249978,511.79713504199754,1,1,0.6677898330017342,reldom2_s035,001,2025-03-13_17h09.14.417,Where-B-Scan_AC,2022.2.5,None,
44,First_Order,8.0,viswhere,stimulus/viswhere_stim/blank_white.png,stimulus/viswhere_stim/blank_white.png,stimulus/viswhere_stim/60-deg_dot-right_peru.png,stimulus/viswhere_stim/90-deg_dot-right_turquoise.png,stimulus/viswhere_stim/blank_white.png,stimulus/viswhere_stim/dot_box.png,stimulus/viswhere_stim/dot_yes.png,stimulus/viswhere_stim/dot_no.png,None,Dot,None,Dot,1,0.0,0,5.125,0,5.125,0,5.125,0,0.0,0.625,0,0.0,0,0.0,1,0.5,1,2.125,0,0.0,0,0.0,0,0.0,0,0.0,0,,,,,0,58,58,58,,,,,,,,,517.8523441669968,517.8523441669968,517.8523441669968,517.8523441669968,517.8523441669968,517.8523441669968,517.8523441669968,517.8523441669968,517.8330750833314,517.8523441669968,517.8523441669968,517.8523441669968,517.8330750833314,517.8523441669968,517.8523441669968,517.8523441669968,519.9643892079985,523.9135675420002,517.8523441669968,517.8523441669968,522.9773954169978,518.3278294169977,519.3375136670002,519.9643892079985,520.9792283749994,517.8523441669968,517.8523441669968,517.8330750833314,517.8523441669968,517.8523441669968,517.8523441669968,517.8330750833314,517.8523441669968,517.8523441669968,522.9773954169978,517.8523441669968,522.9773954169978,523.0748089999979,523.6999985000002,517.8523441669968,1,1,0.756702459002554,reldom2_s035,001,2025-03-13_17h09.14.417,Where-B-Scan_AC,2022.2.5,None,
45,First_Order,8.0,viswhere,stimulus/viswhere_stim/blank_white.png,stimulus/viswhere_stim/blank_white.png,stimulus/viswhere_stim/150-deg_dot-right_lightsseagreen.png,stimulus/viswhere_stim/150-deg_dot-left_royalblue.png,stimulus/viswhere_stim/blank_white.png,stimulus/viswhere_stim/dot_box.png,stimulus/viswhere_stim/dot_yes.png,stimulus/viswhere_stim/dot_no.png,None,Dot,None,Line,2,0.0,0,5.125,0,5.125,0,5.125,0,0.0,0.625,0,0.0,0,0.0,1,0.5,1,2.125,0,0.0,0,0.0,0,0.0,0,0.0,0,,,,,0,59,59,59,,,,,,,,,523.9135675420002,523.9135675420002,523.9135675420002,523.9135675420002,523.9135675420002,523.9135675420002,523.9135675420002,523.9135675420002,523.8935910413323,523.9135675420002,523.9135675420002,523.9135675420002,523.8935910413323,523.9135675420002,523.9135675420002,523.9135675420002,526.0122902080002,529.9781442919993,523.9135675420002,523.9135675420002,529.0373552919991,524.3953099579994,525.3973823749984,526.0122902080002,527.0193652499984,523.9135675420002,523.9135675420002,523.910257707999,523.9135675420002,523.9135675420002,523.9135675420002,523.910257707999,523.9135675420002,523.9135675420002,529.0373552919991,523.9135675420002,529.0373552919991,529.1347909169999,529.7640081249992,523.9135675420002,2,1,0.8324993750029535,reldom2_s035,001,2025-03-13_17h09.14.417,Where-B-Scan_AC,2022.2.5,None,
46,First_Order,8.0,viswhere,stimulus/viswhere_stim/blank_white.png,stimulus/viswhere_stim/blank_white.png,stimulus/viswhere_stim/30-deg_dot-left_salmon.png,stimulus/viswhere_stim/150-deg_dot-left_turquoise.png,stimulus/viswhere_stim/blank_white.png,stimulus/viswhere_stim/line_box.png,stimulus/viswhere_stim/line_yes.png,stimulus/viswhere_stim/line_no.png,None,Line,None,Dot,2,0.0,0,5.125,0,5.125,0,5.125,0,0.0,0.625,0,0.0,0,0.0,1,0.5,1,2.125,0,0.0,0,0.0,0,0.0,0,0.0,0,,,,,0,60,60,60,,,,,,,,,529.9781442919993,529.9781442919993,529.9781442919993,529.9781442919993,529.9781442919993,529.9781442919993,529.9781442919993,529.9781442919993,529.9581397083324,529.9781442919993,529.9781442919993,529.9781442919993,529.9581397083324,529.9781442919993,529.9781442919993,529.9781442919993,532.0911759169976,536.122780499998,529.9781442919993,529.9781442919993,535.1298007079968,530.4588120419976,531.4781571669992,532.0911759169976,533.0954112500003,529.9781442919993,529.9781442919993,529.974806374999,529.9781442919993,529.9781442919993,529.9781442919993,529.974806374999,529.9781442919993,529.9781442919993,535.1298007079968,529.9781442919993,535.1298007079968,535.1985927079986,535.8313428749971,529.9781442919993,2,1,1.0114897919993382,reldom2_s035,001,2025-03-13_17h09.14.417,Where-B-Scan_AC,2022.2.5,None,
0,0.0,None,fixation,stimulus/audwhere_stim/blank_white.png,stimulus/audwhere_stim/blank_white.png,stimulus/viswhere_stim/blank_white.png,stimulus/viswhere_stim/blank_white.png,stimulus/audwhere_stim/blank_white.png,stimulus/audwhere_stim/blank_white.png,stimulus/audwhere_stim/blank_white.png,stimulus/audwhere_stim/blank_white.png,0.0,0.0,0.0,0.0,0,0.0,0,0.0,0,0.0,0,0.0,0,0.0,0.0,0,0.0,0,0.0,0,0.0,0,0.0,0,0.0,0,0.0,0,0.0,0,0.0,9,,,,,0,61,61,61,,,,,,,,,536.122780499998,536.122780499998,536.122780499998,536.122780499998,536.122780499998,536.122780499998,536.122780499998,536.122780499998,536.0251091663316,536.122780499998,536.122780499998,536.122780499998,536.0251091663316,536.122780499998,536.122780499998,536.122780499998,536.122780499998,536.122780499998,536.122780499998,536.122780499998,536.122780499998,536.122780499998,536.122780499998,536.122780499998,536.122780499998,536.122780499998,536.122780499998,536.0751091663316,536.122780499998,536.122780499998,536.122780499998,536.0751091663316,536.122780499998,536.122780499998,536.122780499998,536.122780499998,536.122780499998,541.322699332999,541.322699332999,545.2454353749999,None,0,,reldom2_s035,001,2025-03-13_17h09.14.417,Where-B-Scan_AC,2022.2.5,None,
47,Second_Order,8.0,viswhere,stimulus/viswhere_stim/90-deg_dot-left_lightsseagreen.png,stimulus/viswhere_stim/120-deg_dot-left_royalblue.png,stimulus/viswhere_stim/30-deg_dot-right_mediumslateblue.png,stimulus/viswhere_stim/60-deg_dot-right_lightsseagreen.png,stimulus/audwhere_stim/match_blank.png,stimulus/audwhere_stim/match_box.png,stimulus/audwhere_stim/match_yes.png,stimulus/audwhere_stim/match_no.png,1.0,Match,Dot,Dot,1,5.125,0,5.125,0,5.125,0,5.125,0,0.75,0.75,1,0.5,1,2.125,1,0.5,1,2.125,0,0.0,0,0.0,0,0.0,0,0.0,0,,,,,0,62,62,62,,,,,,,,,545.2454353749999,550.3660579169991,545.7257804999972,546.724164291998,547.3461127079972,548.3444743749969,545.2454353749999,545.2454353749999,545.2601865413327,545.2454353749999,545.2454353749999,545.2454353749999,545.2601865413327,545.2454353749999,550.3660579169991,551.1588353329971,553.2299984169986,557.1327967079997,551.1588353329971,551.1588353329971,556.2843247499986,551.6223123749987,552.6377991249974,553.2299984169986,554.2486195829988,551.1588353329971,551.1588353329971,551.1339029583328,551.1588353329971,551.1588353329971,551.1588353329971,551.1339029583328,551.1588353329971,551.1588353329971,556.2843247499986,551.1588353329971,556.2843247499986,556.3525054579986,557.1327967079997,551.1588353329971,1,1,1.8159837080020225,reldom2_s035,001,2025-03-13_17h09.14.417,Where-B-Scan_AC,2022.2.5,None,
48,Second_Order,8.0,viswhere,stimulus/viswhere_stim/60-deg_dot-left_seagreen.png,stimulus/viswhere_stim/90-deg_dot-left_peru.png,stimulus/viswhere_stim/30-deg_dot-right_turquoise.png,stimulus/viswhere_stim/30-deg_dot-left_lightsseagreen.png,stimulus/audwhere_stim/match_blank.png,stimulus/audwhere_stim/match_box.png,stimulus/audwhere_stim/match_yes.png,stimulus/audwhere_stim/match_no.png,2.0,Match,Dot,Line,2,5.125,0,5.125,0,5.125,0,5.125,0,0.625,0.625,1,0.5,1,2.125,1,0.5,1,2.125,0,0.0,0,0.0,0,0.0,0,0.0,0,,,,,0,63,63,63,,,,,,,,,557.1327967079997,562.2484770829979,557.6197127919986,558.618857999998,559.2392369579975,560.2254527919977,557.1327967079997,557.1327967079997,557.1471127919983,557.1327967079997,557.1327967079997,557.1327967079997,557.1471127919983,557.1327967079997,562.2484770829979,562.9184882919981,564.9922379579984,569.0354154169981,562.9184882919981,562.9184882919981,568.0412605829988,563.3834105419992,564.400220624997,564.9922379579984,565.9948262079997,562.9184882919981,562.9184882919981,562.8945590413318,562.9184882919981,562.9184882919981,562.9184882919981,562.8945590413318,562.9184882919981,562.9184882919981,568.0412605829988,562.9184882919981,568.0412605829988,568.1105284169971,568.740704374999,562.9184882919981,2,1,0.6058866670027783,reldom2_s035,001,2025-03-13_17h09.14.417,Where-B-Scan_AC,2022.2.5,None,
0,0.0,None,fixation,stimulus/audwhere_stim/blank_white.png,stimulus/audwhere_stim/blank_white.png,stimulus/viswhere_stim/blank_white.png,stimulus/viswhere_stim/blank_white.png,stimulus/audwhere_stim/blank_white.png,stimulus/audwhere_stim/blank_white.png,stimulus/audwhere_stim/blank_white.png,stimulus/audwhere_stim/blank_white.png,0.0,0.0,0.0,0.0,0,0.0,0,0.0,0,0.0,0,0.0,0,0.0,0.0,0,0.0,0,0.0,0,0.0,0,0.0,0,0.0,0,0.0,0,0.0,0,0.0,16,,,,,0,64,64,64,,,,,,,,,569.0354154169981,569.0354154169981,569.0354154169981,569.0354154169981,569.0354154169981,569.0354154169981,569.0354154169981,569.0354154169981,568.9345186663317,569.0354154169981,569.0354154169981,569.0354154169981,568.9345186663317,569.0354154169981,569.0354154169981,569.0354154169981,569.0354154169981,569.0354154169981,569.0354154169981,569.0354154169981,569.0354154169981,569.0354154169981,569.0354154169981,569.0354154169981,569.0354154169981,569.0354154169981,569.0354154169981,568.9845186663316,569.0354154169981,569.0354154169981,569.0354154169981,568.9845186663316,569.0354154169981,569.0354154169981,569.0354154169981,569.0354154169981,569.0354154169981,574.2571017919981,574.2571017919981,585.2111016669987,None,0,,reldom2_s035,001,2025-03-13_17h09.14.417,Where-B-Scan_AC,2022.2.5,None,
