Trial,Order,Block,Type,Stimuli_File1,Stimuli_File2,Stimuli_File3,Stimuli_File4,Cue_File1,Cue_File2,Response_File_Yes,Response_File_No,Match,Cue_Dimension,Pair1_Dimension,Pair2_Dimension,Key,Cue1_Duration,Cue1_Onset,Cue2_Duration,Cue2_Onset,ResponseYes_Duration,ResponseYes_Onset,ResponseNo_Duration,ResponseNo_Onset,ITI_Within,ITI_Between,Image1_Duration,Image1_Onset,Image2_Duration,Image2_Onset,Image3_Duration,Image3_Onset,Image4_Duration,Image4_Onset,Sound1_Duration,Sound1_Onset,Sound2_Duration,Sound2_Onset,Sound3_Duration,Sound3_Onset,Sound4_Duration,Sound4_Onset,Fixation_Duration,trials_2.thisRepN,trials_2.thisTrialN,trials_2.thisN,trials_2.thisIndex,trials.thisRepN,trials.thisTrialN,trials.thisN,trials.thisIndex,text_start.started,key_resp_start.started,key_resp_start.keys,key_resp_start.rt,text2.started,key_resp_2.started,key_resp_2.keys,key_resp_2.rt,cue_file1.started,cue_file1.stopped,image_1.started,image_1.stopped,image_2.started,image_2.stopped,sound_icon1.started,sound_icon1.stopped,sound_1.started,sound_1.stopped,sound_icon2.started,sound_icon2.stopped,sound_2.started,sound_2.stopped,image_blank_1.started,image_blank_1.stopped,key_press.started,key_press.stopped,fixation_text.started,cue_file2.started,cue_file2.stopped,image_3.started,image_3.stopped,image_4.started,image_4.stopped,sound_icon3.started,sound_icon3.stopped,sound_3.started,sound_3.stopped,sound_icon4.started,sound_icon4.stopped,sound_4.started,sound_4.stopped,response_yes.started,response_yes.stopped,response_no.started,response_no.stopped,iti_blank.started,iti_blank.stopped,fixation_text.stopped,key_press.keys,key_press.corr,key_press.rt,participant,session,date,expName,psychopyVersion,frameRate,
,,,,,,,,,,,,,,,,,,,,,,,,,,,,,,,,,,,,,,,,,,,,,,,,,,,,6.749414625002828,6.749414625002828,2,1.3594820420003089,,,,,,,,,,,,,,,,,,,,,,,,,,,,,,,,,,,,,,,,,,,,,,,,reldom2_s035,001,2025-03-13_16h44.49.607,Vis-B-Scan_AC,2022.2.5,None,
,,,,,,,,,,,,,,,,,,,,,,,,,,,,,,,,,,,,,,,,,,,,0,0,0,0,,,,,,,,,8.145584625002812,8.145584625002812,5,17.46252879199892,,,,,,,,,,,,,,,,,,,,,,,,,,,,,,,,,,,,,,,,,,,,reldom2_s035,001,2025-03-13_16h44.49.607,Vis-B-Scan_AC,2022.2.5,None,
,,,,,,,,,,,,,,,,,,,,,,,,,,,,,,,,,,,,,,,,,,,,1,0,1,0,,,,,,,,,25.626901917003124,25.626901917003124,5,1.9811199579962704,,,,,,,,,,,,,,,,,,,,,,,,,,,,,,,,,,,,,,,,,,,,reldom2_s035,001,2025-03-13_16h44.49.607,Vis-B-Scan_AC,2022.2.5,None,
,,,,,,,,,,,,,,,,,,,,,,,,,,,,,,,,,,,,,,,,,,,,2,0,2,0,,,,,,,,,27.62525475000075,27.62525475000075,5,1.9845612079989223,,,,,,,,,,,,,,,,,,,,,,,,,,,,,,,,,,,,,,,,,,,,reldom2_s035,001,2025-03-13_16h44.49.607,Vis-B-Scan_AC,2022.2.5,None,
,,,,,,,,,,,,,,,,,,,,,,,,,,,,,,,,,,,,,,,,,,,,3,0,3,0,,,,,,,,,29.616882875001465,29.616882875001465,5,1.992276208995463,,,,,,,,,,,,,,,,,,,,,,,,,,,,,,,,,,,,,,,,,,,,reldom2_s035,001,2025-03-13_16h44.49.607,Vis-B-Scan_AC,2022.2.5,None,
0,0.0,None,fixation,stimulus/viswhere_stim/blank_white.png,stimulus/viswhere_stim/blank_white.png,stimulus/viswhat_stim/blank_white.png,stimulus/viswhat_stim/blank_white.png,stimulus/viswhere_stim/blank_white.png,stimulus/viswhere_stim/blank_white.png,stimulus/viswhere_stim/blank_white.png,stimulus/viswhere_stim/blank_white.png,0.0,0.0,0.0,0.0,0,0.0,0,0.0,0,0.0,0,0.0,0,0.0,0.0,0,0.0,0,0.0,0,0.0,0,0.0,0,0,0,0,0,0,0,0,16,,,,,0,0,0,0,,,,,,,,,31.824297500003013,31.824297500003013,31.824297500003013,31.824297500003013,31.824297500003013,31.824297500003013,31.824297500003013,31.824297500003013,31.731690208669413,31.824297500003013,31.824297500003013,31.824297500003013,31.731690208669413,31.824297500003013,31.824297500003013,31.824297500003013,31.824297500003013,31.824297500003013,31.824297500003013,31.824297500003013,31.824297500003013,31.824297500003013,31.824297500003013,31.824297500003013,31.824297500003013,31.824297500003013,31.824297500003013,31.78169020866941,31.824297500003013,31.824297500003013,31.824297500003013,31.78169020866941,31.824297500003013,31.824297500003013,31.824297500003013,31.824297500003013,31.824297500003013,37.00112204200195,37.00112204200195,48.00303262500165,None,0,,reldom2_s035,001,2025-03-13_16h44.49.607,Vis-B-Scan_AC,2022.2.5,None,
1,First_Order,1.0,viswhere,stimulus/viswhere_stim/blank_white.png,stimulus/viswhere_stim/blank_white.png,stimulus/viswhere_stim/150-deg_dot-left_royalblue.png,stimulus/viswhere_stim/150-deg_dot-right_peru.png,stimulus/viswhere_stim/blank_white.png,stimulus/viswhere_stim/dot_box.png,stimulus/viswhere_stim/dot_yes.png,stimulus/viswhere_stim/dot_no.png,None,Dot,None,Line,2,0.0,0,5.125,0,5.125,0,5.125,0,0.0,0.625,0,0.0,0,0.0,1,0.5,1,2.125,0,0,0,0,0,0,0,0,0,,,,,0,1,1,1,,,,,,,,,48.00303262500165,48.00303262500165,48.00303262500165,48.00303262500165,48.00303262500165,48.00303262500165,48.00303262500165,48.00303262500165,47.985572500000124,48.00303262500165,48.00303262500165,48.00303262500165,47.985572500000124,48.00303262500165,48.00303262500165,48.00303262500165,50.112448000003496,54.067083542002365,48.00303262500165,48.00303262500165,53.13320929200199,48.484820417001174,49.50039445800212,50.112448000003496,51.113595833001455,48.00303262500165,48.00303262500165,48.00223916666679,48.00303262500165,48.00303262500165,48.00303262500165,48.00223916666679,48.00303262500165,48.00303262500165,53.13320929200199,48.00303262500165,53.13320929200199,53.227879750000284,53.8619592080031,48.00303262500165,2,1,1.033115624999482,reldom2_s035,001,2025-03-13_16h44.49.607,Vis-B-Scan_AC,2022.2.5,None,
2,First_Order,1.0,viswhere,stimulus/viswhere_stim/blank_white.png,stimulus/viswhere_stim/blank_white.png,stimulus/viswhere_stim/30-deg_dot-left_salmon.png,stimulus/viswhere_stim/30-deg_dot-right_seagreen.png,stimulus/viswhere_stim/blank_white.png,stimulus/viswhere_stim/dot_box.png,stimulus/viswhere_stim/dot_yes.png,stimulus/viswhere_stim/dot_no.png,None,Dot,None,Line,2,0.0,0,5.125,0,5.125,0,5.125,0,0.0,0.625,0,0.0,0,0.0,1,0.5,1,2.125,0,0,0,0,0,0,0,0,0,,,,,0,2,2,2,,,,,,,,,54.067083542002365,54.067083542002365,54.067083542002365,54.067083542002365,54.067083542002365,54.067083542002365,54.067083542002365,54.067083542002365,54.05175129133689,54.067083542002365,54.067083542002365,54.067083542002365,54.05175129133689,54.067083542002365,54.067083542002365,54.067083542002365,56.178563500001474,60.120498833002785,54.067083542002365,54.067083542002365,59.20348862500032,54.54379300000073,55.55316550000134,56.178563500001474,57.19452962500145,54.067083542002365,54.067083542002365,54.05175129133689,54.067083542002365,54.067083542002365,54.067083542002365,54.05175129133689,54.067083542002365,54.067083542002365,59.20348862500032,54.067083542002365,59.20348862500032,59.2976958750005,59.929660625002725,54.067083542002365,2,1,0.8883014579987503,reldom2_s035,001,2025-03-13_16h44.49.607,Vis-B-Scan_AC,2022.2.5,None,
3,First_Order,1.0,viswhere,stimulus/viswhere_stim/blank_white.png,stimulus/viswhere_stim/blank_white.png,stimulus/viswhere_stim/120-deg_dot-left_goldenrod.png,stimulus/viswhere_stim/30-deg_dot-left_slateblue.png,stimulus/viswhere_stim/blank_white.png,stimulus/viswhere_stim/dot_box.png,stimulus/viswhere_stim/dot_yes.png,stimulus/viswhere_stim/dot_no.png,None,Dot,None,Dot,1,0.0,0,5.125,0,5.125,0,5.125,0,0.0,0.625,0,0.0,0,0.0,1,0.5,1,2.125,0,0,0,0,0,0,0,0,0,,,,,0,3,3,3,,,,,,,,,60.120498833002785,60.120498833002785,60.120498833002785,60.120498833002785,60.120498833002785,60.120498833002785,60.120498833002785,60.120498833002785,60.10577850033345,60.120498833002785,60.120498833002785,60.120498833002785,60.10577850033345,60.120498833002785,60.120498833002785,60.120498833002785,62.22656283300239,66.18519491700135,60.120498833002785,60.120498833002785,65.2537575000024,60.5993052920021,61.61688600000343,62.22656283300239,63.23293383300188,60.120498833002785,60.120498833002785,60.10577850033345,60.120498833002785,60.120498833002785,60.120498833002785,60.10577850033345,60.120498833002785,60.120498833002785,65.2537575000024,60.120498833002785,65.2537575000024,65.34812370800137,65.97985720800352,60.120498833002785,1,1,0.6909187089986517,reldom2_s035,001,2025-03-13_16h44.49.607,Vis-B-Scan_AC,2022.2.5,None,
4,First_Order,1.0,viswhere,stimulus/viswhere_stim/blank_white.png,stimulus/viswhere_stim/blank_white.png,stimulus/viswhere_stim/150-deg_dot-right_royalblue.png,stimulus/viswhere_stim/30-deg_dot-right_salmon.png,stimulus/viswhere_stim/blank_white.png,stimulus/viswhere_stim/line_box.png,stimulus/viswhere_stim/line_yes.png,stimulus/viswhere_stim/line_no.png,None,Line,None,Dot,2,0.0,0,5.125,0,5.125,0,5.125,0,0.0,0.625,0,0.0,0,0.0,1,0.5,1,2.125,0,0,0,0,0,0,0,0,0,,,,,0,4,4,4,,,,,,,,,66.18519491700135,66.18519491700135,66.18519491700135,66.18519491700135,66.18519491700135,66.18519491700135,66.18519491700135,66.18519491700135,66.16978466633493,66.18519491700135,66.18519491700135,66.18519491700135,66.16978466633493,66.18519491700135,66.18519491700135,66.18519491700135,68.28713562500343,72.31660583300254,66.18519491700135,66.18519491700135,71.32279566700163,66.67273954200209,67.68651091700303,68.28713562500343,69.30465670800186,66.18519491700135,66.18519491700135,66.16978466633493,66.18519491700135,66.18519491700135,66.18519491700135,66.16978466633493,66.18519491700135,66.18519491700135,71.32279566700163,66.18519491700135,71.32279566700163,71.41641141700165,72.0374199580001,66.18519491700135,2,1,1.133114875996398,reldom2_s035,001,2025-03-13_16h44.49.607,Vis-B-Scan_AC,2022.2.5,None,
0,0.0,None,fixation,stimulus/viswhere_stim/blank_white.png,stimulus/viswhere_stim/blank_white.png,stimulus/viswhat_stim/blank_white.png,stimulus/viswhat_stim/blank_white.png,stimulus/viswhere_stim/blank_white.png,stimulus/viswhere_stim/blank_white.png,stimulus/viswhere_stim/blank_white.png,stimulus/viswhere_stim/blank_white.png,0.0,0.0,0.0,0.0,0,0.0,0,0.0,0,0.0,0,0.0,0,0.0,0.0,0,0.0,0,0.0,0,0.0,0,0.0,0,0,0,0,0,0,0,0,9,,,,,0,5,5,5,,,,,,,,,72.31660583300254,72.31660583300254,72.31660583300254,72.31660583300254,72.31660583300254,72.31660583300254,72.31660583300254,72.31660583300254,72.22709137533577,72.31660583300254,72.31660583300254,72.31660583300254,72.22709137533577,72.31660583300254,72.31660583300254,72.31660583300254,72.31660583300254,72.31660583300254,72.31660583300254,72.31660583300254,72.31660583300254,72.31660583300254,72.31660583300254,72.31660583300254,72.31660583300254,72.31660583300254,72.31660583300254,72.27709137533577,72.31660583300254,72.31660583300254,72.31660583300254,72.27709137533577,72.31660583300254,72.31660583300254,72.31660583300254,72.31660583300254,72.31660583300254,77.49801983300131,77.49801983300131,81.42825129200355,None,0,,reldom2_s035,001,2025-03-13_16h44.49.607,Vis-B-Scan_AC,2022.2.5,None,
5,Second_Order,1.0,viswhere,stimulus/viswhere_stim/90-deg_dot-left_mediumslateblue.png,stimulus/viswhere_stim/30-deg_dot-left_slateblue.png,stimulus/viswhere_stim/90-deg_dot-left_royalblue.png,stimulus/viswhere_stim/90-deg_dot-right_goldenrod.png,stimulus/viswhere_stim/match_blank.png,stimulus/viswhere_stim/match_box.png,stimulus/viswhere_stim/match_yes.png,stimulus/viswhere_stim/match_no.png,2.0,Match,Dot,Line,2,5.125,0,5.125,0,5.125,0,5.125,0,0.75,0.75,1,0.5,1,2.125,1,0.5,1,2.125,0,0,0,0,0,0,0,0,0,,,,,0,6,6,6,,,,,,,,,81.42825129200355,86.54692854200039,81.90164483300032,82.90022191700336,83.53490337500261,84.52423937500134,81.42825129200355,81.42825129200355,81.43081991666791,81.42825129200355,81.42825129200355,81.42825129200355,81.43081991666791,81.42825129200355,86.54692854200039,87.34199095800068,89.41963379200024,93.30565091700191,87.34199095800068,87.34199095800068,92.4783787080014,87.79799504200128,88.81638525000017,89.41963379200024,90.42829995800275,87.34199095800068,87.34199095800068,87.33064058300151,87.34199095800068,87.34199095800068,87.34199095800068,87.33064058300151,87.34199095800068,87.34199095800068,92.4783787080014,87.34199095800068,92.4783787080014,92.53525212500244,93.30565091700191,87.34199095800068,2,1,1.0245721669998602,reldom2_s035,001,2025-03-13_16h44.49.607,Vis-B-Scan_AC,2022.2.5,None,
6,Second_Order,1.0,viswhere,stimulus/viswhere_stim/30-deg_dot-right_turquoise.png,stimulus/viswhere_stim/30-deg_dot-left_goldenrod.png,stimulus/viswhere_stim/60-deg_dot-left_salmon.png,stimulus/viswhere_stim/60-deg_dot-right_slateblue.png,stimulus/viswhere_stim/match_blank.png,stimulus/viswhere_stim/match_box.png,stimulus/viswhere_stim/match_yes.png,stimulus/viswhere_stim/match_no.png,1.0,Match,Line,Line,1,5.125,0,5.125,0,5.125,0,5.125,0,0.625,0.625,1,0.5,1,2.125,1,0.5,1,2.125,0,0,0,0,0,0,0,0,0,,,,,0,7,7,7,,,,,,,,,93.30565091700191,98.42412300000069,93.79177262500161,94.78089175000059,95.41664391700033,96.41488145800031,93.30565091700191,93.30565091700191,93.32008675000252,93.30565091700191,93.30565091700191,93.30565091700191,93.32008675000252,93.30565091700191,98.42412300000069,99.09406279200266,101.17350454200277,105.20588416700048,99.09406279200266,99.09406279200266,104.22731679200297,99.54704995800057,100.55682875000275,101.17350454200277,102.17668350000167,99.09406279200266,99.09406279200266,99.07088087533387,99.09406279200266,99.09406279200266,99.09406279200266,99.07088087533387,99.09406279200266,99.09406279200266,104.22731679200297,99.09406279200266,104.22731679200297,104.29572675000236,104.92362145800143,99.09406279200266,1,1,0.5134464170005231,reldom2_s035,001,2025-03-13_16h44.49.607,Vis-B-Scan_AC,2022.2.5,None,
0,0.0,None,fixation,stimulus/viswhere_stim/blank_white.png,stimulus/viswhere_stim/blank_white.png,stimulus/viswhat_stim/blank_white.png,stimulus/viswhat_stim/blank_white.png,stimulus/viswhere_stim/blank_white.png,stimulus/viswhere_stim/blank_white.png,stimulus/viswhere_stim/blank_white.png,stimulus/viswhere_stim/blank_white.png,0.0,0.0,0.0,0.0,0,0.0,0,0.0,0,0.0,0,0.0,0,0.0,0.0,0,0.0,0,0.0,0,0.0,0,0.0,0,0,0,0,0,0,0,0,9,,,,,0,8,8,8,,,,,,,,,105.20588416700048,105.20588416700048,105.20588416700048,105.20588416700048,105.20588416700048,105.20588416700048,105.20588416700048,105.20588416700048,105.1137824163355,105.20588416700048,105.20588416700048,105.20588416700048,105.1137824163355,105.20588416700048,105.20588416700048,105.20588416700048,105.20588416700048,105.20588416700048,105.20588416700048,105.20588416700048,105.20588416700048,105.20588416700048,105.20588416700048,105.20588416700048,105.20588416700048,105.20588416700048,105.20588416700048,105.1637824163355,105.20588416700048,105.20588416700048,105.20588416700048,105.1637824163355,105.20588416700048,105.20588416700048,105.20588416700048,105.20588416700048,105.20588416700048,110.39940904200193,110.39940904200193,114.41262879200076,None,0,,reldom2_s035,001,2025-03-13_16h44.49.607,Vis-B-Scan_AC,2022.2.5,None,
7,First_Order,2.0,viswhere,stimulus/viswhere_stim/blank_white.png,stimulus/viswhere_stim/blank_white.png,stimulus/viswhere_stim/60-deg_dot-right_peru.png,stimulus/viswhere_stim/120-deg_dot-right_goldenrod.png,stimulus/viswhere_stim/blank_white.png,stimulus/viswhere_stim/line_box.png,stimulus/viswhere_stim/line_yes.png,stimulus/viswhere_stim/line_no.png,None,Line,None,Dot,2,0.0,0,5.125,0,5.125,0,5.125,0,0.0,0.625,0,0.0,0,0.0,1,0.5,1,2.125,0,0,0,0,0,0,0,0,0,,,,,0,9,9,9,,,,,,,,,114.41262879200076,114.41262879200076,114.41262879200076,114.41262879200076,114.41262879200076,114.41262879200076,114.41262879200076,114.41262879200076,114.38456383300073,114.41262879200076,114.41262879200076,114.41262879200076,114.38456383300073,114.41262879200076,114.41262879200076,114.41262879200076,116.51621166700352,120.48632454200197,114.41262879200076,114.41262879200076,119.53746104200036,114.88682391700058,115.89213762500003,116.51621166700352,117.5230310420011,114.41262879200076,114.41262879200076,114.40123049966739,114.41262879200076,114.41262879200076,114.41262879200076,114.40123049966739,114.41262879200076,114.41262879200076,119.53746104200036,114.41262879200076,119.53746104200036,119.63883820800038,120.2623842920002,114.41262879200076,2,1,1.7840849589993013,reldom2_s035,001,2025-03-13_16h44.49.607,Vis-B-Scan_AC,2022.2.5,None,
8,First_Order,2.0,viswhere,stimulus/viswhere_stim/blank_white.png,stimulus/viswhere_stim/blank_white.png,stimulus/viswhere_stim/90-deg_dot-left_turquoise.png,stimulus/viswhere_stim/90-deg_dot-right_peru.png,stimulus/viswhere_stim/blank_white.png,stimulus/viswhere_stim/line_box.png,stimulus/viswhere_stim/line_yes.png,stimulus/viswhere_stim/line_no.png,None,Line,None,Line,1,0.0,0,5.125,0,5.125,0,5.125,0,0.0,0.625,0,0.0,0,0.0,1,0.5,1,2.125,0,0,0,0,0,0,0,0,0,,,,,0,10,10,10,,,,,,,,,120.48632454200197,120.48632454200197,120.48632454200197,120.48632454200197,120.48632454200197,120.48632454200197,120.48632454200197,120.48632454200197,120.4694474583351,120.48632454200197,120.48632454200197,120.48632454200197,120.4694474583351,120.48632454200197,120.48632454200197,120.48632454200197,122.58637291700143,126.56853612500345,120.48632454200197,120.48632454200197,125.61479379200318,120.96369945800325,121.97722616700048,122.58637291700143,123.60512970800119,120.48632454200197,120.48632454200197,120.4694474583351,120.48632454200197,120.48632454200197,120.48632454200197,120.4694474583351,120.48632454200197,120.48632454200197,125.61479379200318,120.48632454200197,125.61479379200318,125.7116326250034,126.34034287500253,120.48632454200197,1,1,0.6273686669992458,reldom2_s035,001,2025-03-13_16h44.49.607,Vis-B-Scan_AC,2022.2.5,None,
9,First_Order,2.0,viswhere,stimulus/viswhere_stim/blank_white.png,stimulus/viswhere_stim/blank_white.png,stimulus/viswhere_stim/60-deg_dot-right_seagreen.png,stimulus/viswhere_stim/120-deg_dot-right_salmon.png,stimulus/viswhere_stim/blank_white.png,stimulus/viswhere_stim/dot_box.png,stimulus/viswhere_stim/dot_yes.png,stimulus/viswhere_stim/dot_no.png,None,Dot,None,Dot,1,0.0,0,5.125,0,5.125,0,5.125,0,0.0,0.625,0,0.0,0,0.0,1,0.5,1,2.125,0,0,0,0,0,0,0,0,0,,,,,0,11,11,11,,,,,,,,,126.56853612500345,126.56853612500345,126.56853612500345,126.56853612500345,126.56853612500345,126.56853612500345,126.56853612500345,126.56853612500345,126.5500085833349,126.56853612500345,126.56853612500345,126.56853612500345,126.5500085833349,126.56853612500345,126.56853612500345,126.56853612500345,128.6832435000033,132.63288616700083,126.56853612500345,126.56853612500345,131.6990370420026,127.04441004200271,128.05478454200056,128.6832435000033,129.69674070800102,126.56853612500345,126.56853612500345,126.5500085833349,126.56853612500345,126.56853612500345,126.56853612500345,126.5500085833349,126.56853612500345,126.56853612500345,131.6990370420026,126.56853612500345,131.6990370420026,131.81246775000182,132.44373058300334,126.56853612500345,1,1,1.71787429199685,reldom2_s035,001,2025-03-13_16h44.49.607,Vis-B-Scan_AC,2022.2.5,None,
10,First_Order,2.0,viswhere,stimulus/viswhere_stim/blank_white.png,stimulus/viswhere_stim/blank_white.png,stimulus/viswhere_stim/120-deg_dot-right_cyan.png,stimulus/viswhere_stim/120-deg_dot-left_turquoise.png,stimulus/viswhere_stim/blank_white.png,stimulus/viswhere_stim/line_box.png,stimulus/viswhere_stim/line_yes.png,stimulus/viswhere_stim/line_no.png,None,Line,None,Line,1,0.0,0,5.125,0,5.125,0,5.125,0,0.0,0.625,0,0.0,0,0.0,1,0.5,1,2.125,0,0,0,0,0,0,0,0,0,,,,,0,12,12,12,,,,,,,,,132.63288616700083,132.63288616700083,132.63288616700083,132.63288616700083,132.63288616700083,132.63288616700083,132.63288616700083,132.63288616700083,132.61422762533525,132.63288616700083,132.63288616700083,132.63288616700083,132.61422762533525,132.63288616700083,132.63288616700083,132.63288616700083,134.7357699580025,138.77344900000026,132.63288616700083,132.63288616700083,137.762317292003,133.11134383300305,134.12569787500252,134.7357699580025,135.75274175000231,132.63288616700083,132.63288616700083,132.61422762533525,132.63288616700083,132.63288616700083,132.63288616700083,132.61422762533525,132.63288616700083,132.63288616700083,137.762317292003,132.63288616700083,137.762317292003,137.85954375000074,138.48160241700316,132.63288616700083,1,1,1.05904295900109,reldom2_s035,001,2025-03-13_16h44.49.607,Vis-B-Scan_AC,2022.2.5,None,
0,0.0,None,fixation,stimulus/viswhere_stim/blank_white.png,stimulus/viswhere_stim/blank_white.png,stimulus/viswhat_stim/blank_white.png,stimulus/viswhat_stim/blank_white.png,stimulus/viswhere_stim/blank_white.png,stimulus/viswhere_stim/blank_white.png,stimulus/viswhere_stim/blank_white.png,stimulus/viswhere_stim/blank_white.png,0.0,0.0,0.0,0.0,0,0.0,0,0.0,0,0.0,0,0.0,0,0.0,0.0,0,0.0,0,0.0,0,0.0,0,0.0,0,0,0,0,0,0,0,0,8,,,,,0,13,13,13,,,,,,,,,138.77344900000026,138.77344900000026,138.77344900000026,138.77344900000026,138.77344900000026,138.77344900000026,138.77344900000026,138.77344900000026,138.6805622083351,138.77344900000026,138.77344900000026,138.77344900000026,138.6805622083351,138.77344900000026,138.77344900000026,138.77344900000026,138.77344900000026,138.77344900000026,138.77344900000026,138.77344900000026,138.77344900000026,138.77344900000026,138.77344900000026,138.77344900000026,138.77344900000026,138.77344900000026,138.77344900000026,138.7305622083351,138.77344900000026,138.77344900000026,138.77344900000026,138.7305622083351,138.77344900000026,138.77344900000026,138.77344900000026,138.77344900000026,138.77344900000026,143.99512100000356,143.99512100000356,146.88687954200213,None,0,,reldom2_s035,001,2025-03-13_16h44.49.607,Vis-B-Scan_AC,2022.2.5,None,
11,Second_Order,2.0,viswhere,stimulus/viswhere_stim/120-deg_dot-left_slateblue.png,stimulus/viswhere_stim/60-deg_dot-left_seagreen.png,stimulus/viswhere_stim/90-deg_dot-right_seagreen.png,stimulus/viswhere_stim/30-deg_dot-right_mediumslateblue.png,stimulus/viswhere_stim/match_blank.png,stimulus/viswhere_stim/match_box.png,stimulus/viswhere_stim/match_yes.png,stimulus/viswhere_stim/match_no.png,1.0,Match,Dot,Dot,1,5.125,0,5.125,0,5.125,0,5.125,0,0.75,0.75,1,0.5,1,2.125,1,0.5,1,2.125,0,0,0,0,0,0,0,0,0,,,,,0,14,14,14,,,,,,,,,146.88687954200213,152.0099665830021,147.36961866700221,148.36785862500255,148.99044462500024,149.98856037500082,146.88687954200213,146.88687954200213,146.88692724966847,146.88687954200213,146.88687954200213,146.88687954200213,146.88692724966847,146.88687954200213,152.0099665830021,152.80542437500117,154.8771701250007,158.77031275000263,152.80542437500117,152.80542437500117,157.9419349580021,153.2491063330017,154.26453329200012,154.8771701250007,155.88287754200064,152.80542437500117,152.80542437500117,152.79500750000153,152.80542437500117,152.80542437500117,152.80542437500117,152.79500750000153,152.80542437500117,152.80542437500117,157.9419349580021,152.80542437500117,157.9419349580021,157.9968172500012,158.77031275000263,152.80542437500117,1,1,0.8372243339981651,reldom2_s035,001,2025-03-13_16h44.49.607,Vis-B-Scan_AC,2022.2.5,None,
12,Second_Order,2.0,viswhere,stimulus/viswhere_stim/90-deg_dot-right_cyan.png,stimulus/viswhere_stim/90-deg_dot-left_salmon.png,stimulus/viswhere_stim/30-deg_dot-left_goldenrod.png,stimulus/viswhere_stim/60-deg_dot-left_turquoise.png,stimulus/viswhere_stim/match_blank.png,stimulus/viswhere_stim/match_box.png,stimulus/viswhere_stim/match_yes.png,stimulus/viswhere_stim/match_no.png,2.0,Match,Line,Dot,2,5.125,0,5.125,0,5.125,0,5.125,0,0.625,0.625,1,0.5,1,2.125,1,0.5,1,2.125,0,0,0,0,0,0,0,0,0,,,,,0,15,15,15,,,,,,,,,158.77031275000263,163.89184495800146,159.246884917,160.2455593750019,160.8801690830005,161.87051179200353,158.77031275000263,158.77031275000263,158.78475879200124,158.77031275000263,158.77031275000263,158.77031275000263,158.78475879200124,158.77031275000263,163.89184495800146,164.5599824580022,166.63531341700218,170.67930625000008,164.5599824580022,164.5599824580022,169.69309287500073,165.01807087500129,166.02738587500062,166.63531341700218,167.65277875000174,164.5599824580022,164.5599824580022,164.53868379133615,164.5599824580022,164.5599824580022,164.5599824580022,164.53868379133615,164.5599824580022,164.5599824580022,169.69309287500073,164.5599824580022,169.69309287500073,169.76386233300218,170.38855033300206,164.5599824580022,2,1,0.8715650419981102,reldom2_s035,001,2025-03-13_16h44.49.607,Vis-B-Scan_AC,2022.2.5,None,
0,0.0,None,fixation,stimulus/viswhere_stim/blank_white.png,stimulus/viswhere_stim/blank_white.png,stimulus/viswhat_stim/blank_white.png,stimulus/viswhat_stim/blank_white.png,stimulus/viswhere_stim/blank_white.png,stimulus/viswhere_stim/blank_white.png,stimulus/viswhere_stim/blank_white.png,stimulus/viswhere_stim/blank_white.png,0.0,0.0,0.0,0.0,0,0.0,0,0.0,0,0.0,0,0.0,0,0.0,0.0,0,0.0,0,0.0,0,0.0,0,0.0,0,0,0,0,0,0,0,0,10,,,,,0,16,16,16,,,,,,,,,170.67930625000008,170.67930625000008,170.67930625000008,170.67930625000008,170.67930625000008,170.67930625000008,170.67930625000008,170.67930625000008,170.5852464163339,170.67930625000008,170.67930625000008,170.67930625000008,170.5852464163339,170.67930625000008,170.67930625000008,170.67930625000008,170.67930625000008,170.67930625000008,170.67930625000008,170.67930625000008,170.67930625000008,170.67930625000008,170.67930625000008,170.67930625000008,170.67930625000008,170.67930625000008,170.67930625000008,170.6352464163339,170.67930625000008,170.67930625000008,170.67930625000008,170.6352464163339,170.67930625000008,170.67930625000008,170.67930625000008,170.67930625000008,170.67930625000008,175.90360370800045,175.90360370800045,180.94557262500166,None,0,,reldom2_s035,001,2025-03-13_16h44.49.607,Vis-B-Scan_AC,2022.2.5,None,
13,First_Order,3.0,viswhat,stimulus/viswhat_stim/blank_white.png,stimulus/viswhat_stim/blank_white.png,stimulus/viswhat_stim/land_animal-moose.png,stimulus/viswhat_stim/water_animal-whale (1).png,stimulus/viswhat_stim/blank_white.png,stimulus/viswhat_stim/type_box.png,stimulus/viswhat_stim/type_yes.png,stimulus/viswhat_stim/type_no.png,None,Type,None,Type,1,0.0,0,5.125,0,5.125,0,5.125,0,0.0,0.625,0,0.0,0,0.0,1,0.5,1,2.125,0,0,0,0,0,0,0,0,0,,,,,0,17,17,17,,,,,,,,,180.94557262500166,180.94557262500166,180.94557262500166,180.94557262500166,180.94557262500166,180.94557262500166,180.94557262500166,180.94557262500166,180.8347098330036,180.94557262500166,180.94557262500166,180.94557262500166,180.8347098330036,180.94557262500166,180.94557262500166,180.94557262500166,183.03673620800328,,180.94557262500166,180.94557262500166,186.1213488750036,181.4089394170005,182.45673962500223,183.03673620800328,184.08538908300034,180.94557262500166,180.94557262500166,180.90137649967025,180.94557262500166,180.94557262500166,180.94557262500166,180.90137649967025,180.94557262500166,180.94557262500166,186.1213488750036,180.94557262500166,186.1213488750036,186.1213488750036,186.80552120800348,180.94557262500166,1,1,1.738768874998641,reldom2_s035,001,2025-03-13_16h44.49.607,Vis-B-Scan_AC,2022.2.5,None,
14,First_Order,3.0,viswhat,stimulus/viswhat_stim/blank_white.png,stimulus/viswhat_stim/blank_white.png,stimulus/viswhat_stim/land_vehicle-trolley.png,stimulus/viswhat_stim/water_vehicle-jetski.png,stimulus/viswhat_stim/blank_white.png,stimulus/viswhat_stim/location_box.png,stimulus/viswhat_stim/location_yes.png,stimulus/viswhat_stim/location_no.png,None,Location,None,Type,2,0.0,0,5.125,0,5.125,0,5.125,0,0.0,0.625,0,0.0,0,0.0,1,0.5,1,2.125,0,0,0,0,0,0,0,0,0,,,,,0,18,18,18,,,,,,,,,187.0003542500017,187.0003542500017,187.0003542500017,187.0003542500017,187.0003542500017,187.0003542500017,187.0003542500017,187.0003542500017,186.97218787467017,187.0003542500017,187.0003542500017,187.0003542500017,186.97218787467017,187.0003542500017,187.0003542500017,187.0003542500017,189.10717787500107,193.06962945800115,187.0003542500017,187.0003542500017,192.13402220800344,187.47564816700105,188.50595337500272,189.10717787500107,190.12018129200078,187.0003542500017,187.0003542500017,186.98885454133682,187.0003542500017,187.0003542500017,187.0003542500017,186.98885454133682,187.0003542500017,187.0003542500017,192.13402220800344,187.0003542500017,192.13402220800344,192.2119394170004,192.85097829200095,187.0003542500017,2,1,0.5713705839989416,reldom2_s035,001,2025-03-13_16h44.49.607,Vis-B-Scan_AC,2022.2.5,None,
15,First_Order,3.0,viswhat,stimulus/viswhat_stim/blank_white.png,stimulus/viswhat_stim/blank_white.png,stimulus/viswhat_stim/land_animal-ostrich.png,stimulus/viswhat_stim/land_vehicle-train.png,stimulus/viswhat_stim/blank_white.png,stimulus/viswhat_stim/location_box.png,stimulus/viswhat_stim/location_yes.png,stimulus/viswhat_stim/location_no.png,None,Location,None,Location,1,0.0,0,5.125,0,5.125,0,5.125,0,0.0,0.625,0,0.0,0,0.0,1,0.5,1,2.125,0,0,0,0,0,0,0,0,0,,,,,0,19,19,19,,,,,,,,,193.06962945800115,193.06962945800115,193.06962945800115,193.06962945800115,193.06962945800115,193.06962945800115,193.06962945800115,193.06962945800115,193.0469867500011,193.06962945800115,193.06962945800115,193.06962945800115,193.0469867500011,193.06962945800115,193.06962945800115,193.06962945800115,195.16376550000132,199.46979408300103,193.06962945800115,193.06962945800115,198.19439412500287,193.5524647500024,194.56722491700202,195.16376550000132,196.18375337500038,193.06962945800115,193.06962945800115,193.0469867500011,193.06962945800115,193.06962945800115,193.06962945800115,193.0469867500011,193.06962945800115,193.06962945800115,198.19439412500287,193.06962945800115,198.19439412500287,198.29805191700143,198.93949216700275,193.06962945800115,1,1,1.0071177919999172,reldom2_s035,001,2025-03-13_16h44.49.607,Vis-B-Scan_AC,2022.2.5,None,
16,First_Order,3.0,viswhat,stimulus/viswhat_stim/blank_white.png,stimulus/viswhat_stim/blank_white.png,stimulus/viswhat_stim/water_animal-lobster.png,stimulus/viswhat_stim/land_animal-moose.png,stimulus/viswhat_stim/blank_white.png,stimulus/viswhat_stim/location_box.png,stimulus/viswhat_stim/location_yes.png,stimulus/viswhat_stim/location_no.png,None,Location,None,Type,2,0.0,0,5.125,0,5.125,0,5.125,0,0.0,0.625,0,0.0,0,0.0,1,0.5,1,2.125,0,0,0,0,0,0,0,0,0,,,,,0,20,20,20,,,,,,,,,199.46979408300103,199.46979408300103,199.46979408300103,199.46979408300103,199.46979408300103,199.46979408300103,199.46979408300103,199.46979408300103,199.10865083333678,199.46979408300103,199.46979408300103,199.46979408300103,199.10865083333678,199.46979408300103,199.46979408300103,199.46979408300103,201.43418429200028,,199.46979408300103,199.46979408300103,204.82663129200228,199.82797575000222,201.07694941700174,201.43418429200028,202.6877630830022,199.46979408300103,199.46979408300103,199.29198416667012,199.46979408300103,199.46979408300103,199.46979408300103,199.29198416667012,199.46979408300103,199.46979408300103,204.82663129200228,199.46979408300103,204.82663129200228,204.65355250000357,,199.46979408300103,2,1,0.6730431249998219,reldom2_s035,001,2025-03-13_16h44.49.607,Vis-B-Scan_AC,2022.2.5,None,
0,0.0,None,fixation,stimulus/viswhere_stim/blank_white.png,stimulus/viswhere_stim/blank_white.png,stimulus/viswhat_stim/blank_white.png,stimulus/viswhat_stim/blank_white.png,stimulus/viswhere_stim/blank_white.png,stimulus/viswhere_stim/blank_white.png,stimulus/viswhere_stim/blank_white.png,stimulus/viswhere_stim/blank_white.png,0.0,0.0,0.0,0.0,0,0.0,0,0.0,0,0.0,0,0.0,0,0.0,0.0,0,0.0,0,0.0,0,0.0,0,0.0,0,0,0,0,0,0,0,0,8,,,,,0,21,21,21,,,,,,,,,205.50091516700195,205.50091516700195,205.50091516700195,205.50091516700195,205.50091516700195,205.50091516700195,205.50091516700195,205.50091516700195,205.3993052500031,205.50091516700195,205.50091516700195,205.50091516700195,205.3993052500031,205.50091516700195,205.50091516700195,205.50091516700195,205.50091516700195,205.50091516700195,205.50091516700195,205.50091516700195,205.50091516700195,205.50091516700195,205.50091516700195,205.50091516700195,205.50091516700195,205.50091516700195,205.50091516700195,205.4493052500031,205.50091516700195,205.50091516700195,205.50091516700195,205.4493052500031,205.50091516700195,205.50091516700195,205.50091516700195,205.50091516700195,205.50091516700195,210.67929754200304,210.67929754200304,213.67594716700114,None,0,,reldom2_s035,001,2025-03-13_16h44.49.607,Vis-B-Scan_AC,2022.2.5,None,
17,Second_Order,3.0,viswhat,stimulus/viswhat_stim/land_animal-giraffe.png,stimulus/viswhat_stim/water_animal-stingray.png,stimulus/viswhat_stim/water_animal-squid.png,stimulus/viswhat_stim/water_vehicle-yacht.png,stimulus/viswhere_stim/match_blank.png,stimulus/viswhere_stim/match_box.png,stimulus/viswhere_stim/match_yes.png,stimulus/viswhere_stim/match_no.png,2.0,Match,Type,Location,2,5.125,0,5.125,0,5.125,0,5.125,0,0.75,0.75,1,0.5,1,2.125,1,0.5,1,2.125,0,0,0,0,0,0,0,0,0,,,,,0,22,22,22,,,,,,,,,213.67594716700114,218.7971819580016,214.12447925000015,215.12205025000003,215.7571842920006,216.7459957500032,213.67594716700114,213.67594716700114,213.6808017080024,213.67594716700114,213.67594716700114,213.67594716700114,213.6808017080024,213.67594716700114,218.7971819580016,219.63559225000063,221.68933012500202,225.62817966700095,219.63559225000063,219.63559225000063,224.80231320800158,220.08252995800285,221.12908850000167,221.68933012500202,222.74178704200312,219.63559225000063,219.63559225000063,219.59955512466794,219.63559225000063,219.63559225000063,219.63559225000063,219.59955512466794,219.63559225000063,219.63559225000063,224.80231320800158,219.63559225000063,224.80231320800158,224.80231320800158,,219.63559225000063,2,1,1.0027941250009462,reldom2_s035,001,2025-03-13_16h44.49.607,Vis-B-Scan_AC,2022.2.5,None,
18,Second_Order,3.0,viswhat,stimulus/viswhat_stim/water_animal-whale (1).png,stimulus/viswhat_stim/land_animal-tiger.png,stimulus/viswhat_stim/water_animal-orka.png,stimulus/viswhat_stim/water_vehicle-cargoboat.png,stimulus/viswhere_stim/match_blank.png,stimulus/viswhere_stim/match_box.png,stimulus/viswhere_stim/match_yes.png,stimulus/viswhere_stim/match_no.png,2.0,Match,Type,Location,2,5.125,0,5.125,0,5.125,0,5.125,0,0.625,0.625,1,0.5,1,2.125,1,0.5,1,2.125,0,0,0,0,0,0,0,0,0,,,,,0,23,23,23,,,,,,,,,225.62817966700095,230.74578125000335,226.08396862500013,227.07005883300008,227.71781683300287,228.7073599580035,225.62817966700095,225.62817966700095,225.63329237500295,225.62817966700095,225.62817966700095,225.62817966700095,225.63329237500295,225.62817966700095,230.74578125000335,231.51530187500248,233.53536387500208,,231.51530187500248,231.51530187500248,236.73610629200266,231.96960670800036,233.0789263330007,233.53536387500208,234.58388795800056,231.51530187500248,231.51530187500248,231.45961587500062,231.51530187500248,231.51530187500248,231.51530187500248,231.45961587500062,231.51530187500248,231.51530187500248,236.73610629200266,231.51530187500248,236.73610629200266,236.6763133750028,237.60872329200356,231.51530187500248,2,1,0.49160829199900036,reldom2_s035,001,2025-03-13_16h44.49.607,Vis-B-Scan_AC,2022.2.5,None,
0,0.0,None,fixation,stimulus/viswhere_stim/blank_white.png,stimulus/viswhere_stim/blank_white.png,stimulus/viswhat_stim/blank_white.png,stimulus/viswhat_stim/blank_white.png,stimulus/viswhere_stim/blank_white.png,stimulus/viswhere_stim/blank_white.png,stimulus/viswhere_stim/blank_white.png,stimulus/viswhere_stim/blank_white.png,0.0,0.0,0.0,0.0,0,0.0,0,0.0,0,0.0,0,0.0,0,0.0,0.0,0,0.0,0,0.0,0,0.0,0,0.0,0,0,0,0,0,0,0,0,9,,,,,0,24,24,24,,,,,,,,,237.60872329200356,237.60872329200356,237.60872329200356,237.60872329200356,237.60872329200356,237.60872329200356,237.60872329200356,237.60872329200356,237.51891366633475,237.60872329200356,237.60872329200356,237.60872329200356,237.51891366633475,237.60872329200356,237.60872329200356,237.60872329200356,237.60872329200356,237.60872329200356,237.60872329200356,237.60872329200356,237.60872329200356,237.60872329200356,237.60872329200356,237.60872329200356,237.60872329200356,237.60872329200356,237.60872329200356,237.56891366633477,237.60872329200356,237.60872329200356,237.60872329200356,237.56891366633477,237.60872329200356,237.60872329200356,237.60872329200356,237.60872329200356,237.60872329200356,242.8198164580026,242.8198164580026,246.84236195800258,None,0,,reldom2_s035,001,2025-03-13_16h44.49.607,Vis-B-Scan_AC,2022.2.5,None,
19,First_Order,4.0,viswhat,stimulus/viswhat_stim/blank_white.png,stimulus/viswhat_stim/blank_white.png,stimulus/viswhat_stim/water_animal-dolphin.png,stimulus/viswhat_stim/water_vehicle-canoe.png,stimulus/viswhat_stim/blank_white.png,stimulus/viswhat_stim/type_box.png,stimulus/viswhat_stim/type_yes.png,stimulus/viswhat_stim/type_no.png,None,Type,None,Location,2,0.0,0,5.125,0,5.125,0,5.125,0,0.0,0.625,0,0.0,0,0.0,1,0.5,1,2.125,0,0,0,0,0,0,0,0,0,,,,,0,25,25,25,,,,,,,,,246.84236195800258,246.84236195800258,246.84236195800258,246.84236195800258,246.84236195800258,246.84236195800258,246.84236195800258,246.84236195800258,246.8063700836671,246.84236195800258,246.84236195800258,246.84236195800258,246.8063700836671,246.84236195800258,246.84236195800258,246.84236195800258,248.9544310420024,,246.84236195800258,246.84236195800258,252.00177808300214,247.30484166700262,248.31852570800038,248.9544310420024,249.97434808300022,246.84236195800258,246.84236195800258,246.82303675033376,246.84236195800258,246.84236195800258,246.84236195800258,246.82303675033376,246.84236195800258,246.84236195800258,252.00177808300214,246.84236195800258,252.00177808300214,252.04806354200264,252.67930125000203,246.84236195800258,2,1,0.9957732089969795,reldom2_s035,001,2025-03-13_16h44.49.607,Vis-B-Scan_AC,2022.2.5,None,
20,First_Order,4.0,viswhat,stimulus/viswhat_stim/blank_white.png,stimulus/viswhat_stim/blank_white.png,stimulus/viswhat_stim/land_animal-elephant.png,stimulus/viswhat_stim/land_vehicle-pickuptruck.png,stimulus/viswhat_stim/blank_white.png,stimulus/viswhat_stim/type_box.png,stimulus/viswhat_stim/type_yes.png,stimulus/viswhat_stim/type_no.png,None,Type,None,Location,2,0.0,0,5.125,0,5.125,0,5.125,0,0.0,0.625,0,0.0,0,0.0,1,0.5,1,2.125,0,0,0,0,0,0,0,0,0,,,,,0,26,26,26,,,,,,,,,252.97538304200134,252.97538304200134,252.97538304200134,252.97538304200134,252.97538304200134,252.97538304200134,252.97538304200134,252.97538304200134,252.8713402080008,252.97538304200134,252.97538304200134,252.97538304200134,252.8713402080008,252.97538304200134,252.97538304200134,252.97538304200134,255.05321129200092,,252.97538304200134,252.97538304200134,258.13768916700064,253.44994745800068,254.51921154200318,255.05321129200092,256.1238550420021,252.97538304200134,252.97538304200134,252.92134020800077,252.97538304200134,252.97538304200134,252.97538304200134,252.92134020800077,252.97538304200134,252.97538304200134,258.13768916700064,252.97538304200134,258.13768916700064,258.19139804200313,259.22441158300353,252.97538304200134,2,1,1.143333416999667,reldom2_s035,001,2025-03-13_16h44.49.607,Vis-B-Scan_AC,2022.2.5,None,
21,First_Order,4.0,viswhat,stimulus/viswhat_stim/blank_white.png,stimulus/viswhat_stim/blank_white.png,stimulus/viswhat_stim/water_vehicle-cruiseship.png,stimulus/viswhat_stim/land_vehicle-oldcar.png,stimulus/viswhat_stim/blank_white.png,stimulus/viswhat_stim/type_box.png,stimulus/viswhat_stim/type_yes.png,stimulus/viswhat_stim/type_no.png,None,Type,None,Type,1,0.0,0,5.125,0,5.125,0,5.125,0,0.0,0.625,0,0.0,0,0.0,1,0.5,1,2.125,0,0,0,0,0,0,0,0,0,,,,,0,27,27,27,,,,,,,,,259.22441158300353,259.22441158300353,259.22441158300353,259.22441158300353,259.22441158300353,259.22441158300353,259.22441158300353,259.22441158300353,259.00216241666806,259.22441158300353,259.22441158300353,259.22441158300353,259.00216241666806,259.22441158300353,259.22441158300353,259.22441158300353,261.29590516700046,,259.22441158300353,259.22441158300353,264.5173265420017,259.6853980830019,260.8359805830005,261.29590516700046,262.4502607500035,259.22441158300353,259.22441158300353,259.11882908333473,259.22441158300353,259.22441158300353,259.22441158300353,259.11882908333473,259.22441158300353,259.22441158300353,264.5173265420017,259.22441158300353,264.5173265420017,264.40768066700184,,259.22441158300353,1,1,0.47418008399836253,reldom2_s035,001,2025-03-13_16h44.49.607,Vis-B-Scan_AC,2022.2.5,None,
22,First_Order,4.0,viswhat,stimulus/viswhat_stim/blank_white.png,stimulus/viswhat_stim/blank_white.png,stimulus/viswhat_stim/water_vehicle-pirateship.png,stimulus/viswhat_stim/water_animal-orka.png,stimulus/viswhat_stim/blank_white.png,stimulus/viswhat_stim/location_box.png,stimulus/viswhat_stim/location_yes.png,stimulus/viswhat_stim/location_no.png,None,Location,None,Location,1,0.0,0,5.125,0,5.125,0,5.125,0,0.0,0.625,0,0.0,0,0.0,1,0.5,1,2.125,0,0,0,0,0,0,0,0,0,,,,,0,28,28,28,,,,,,,,,265.3493596670014,265.3493596670014,265.3493596670014,265.3493596670014,265.3493596670014,265.3493596670014,265.3493596670014,265.3493596670014,265.22165583366973,265.3493596670014,265.3493596670014,265.3493596670014,265.22165583366973,265.3493596670014,265.3493596670014,265.3493596670014,267.43786983300015,271.4921824580015,265.3493596670014,265.3493596670014,270.5401672500011,265.8242560000035,266.9004457500014,267.43786983300015,268.5220955420009,265.3493596670014,265.3493596670014,265.2883225003364,265.3493596670014,265.3493596670014,265.3493596670014,265.2883225003364,265.3493596670014,265.3493596670014,270.5401672500011,265.3493596670014,270.5401672500011,270.5401672500011,271.21741450000263,265.3493596670014,1,1,0.5830442919977941,reldom2_s035,001,2025-03-13_16h44.49.607,Vis-B-Scan_AC,2022.2.5,None,
0,0.0,None,fixation,stimulus/viswhere_stim/blank_white.png,stimulus/viswhere_stim/blank_white.png,stimulus/viswhat_stim/blank_white.png,stimulus/viswhat_stim/blank_white.png,stimulus/viswhere_stim/blank_white.png,stimulus/viswhere_stim/blank_white.png,stimulus/viswhere_stim/blank_white.png,stimulus/viswhere_stim/blank_white.png,0.0,0.0,0.0,0.0,0,0.0,0,0.0,0,0.0,0,0.0,0,0.0,0.0,0,0.0,0,0.0,0,0.0,0,0.0,0,0,0,0,0,0,0,0,10,,,,,0,29,29,29,,,,,,,,,271.4921824580015,271.4921824580015,271.4921824580015,271.4921824580015,271.4921824580015,271.4921824580015,271.4921824580015,271.4921824580015,271.40074783333597,271.4921824580015,271.4921824580015,271.4921824580015,271.40074783333597,271.4921824580015,271.4921824580015,271.4921824580015,271.4921824580015,271.4921824580015,271.4921824580015,271.4921824580015,271.4921824580015,271.4921824580015,271.4921824580015,271.4921824580015,271.4921824580015,271.4921824580015,271.4921824580015,271.4507478333359,271.4921824580015,271.4921824580015,271.4921824580015,271.4507478333359,271.4921824580015,271.4921824580015,271.4921824580015,271.4921824580015,271.4921824580015,276.6831642920006,276.6831642920006,281.6382803330016,None,0,,reldom2_s035,001,2025-03-13_16h44.49.607,Vis-B-Scan_AC,2022.2.5,None,
23,Second_Order,4.0,viswhat,stimulus/viswhat_stim/land_vehicle-pickuptruck.png,stimulus/viswhat_stim/land_animal-lion.png,stimulus/viswhat_stim/water_animal-jellyfish.png,stimulus/viswhat_stim/water_vehicle-cabincruiser.png,stimulus/viswhere_stim/match_blank.png,stimulus/viswhere_stim/match_box.png,stimulus/viswhere_stim/match_yes.png,stimulus/viswhere_stim/match_no.png,1.0,Match,Location,Location,1,5.125,0,5.125,0,5.125,0,5.125,0,0.75,0.75,1,0.5,1,2.125,1,0.5,1,2.125,0,0,0,0,0,0,0,0,0,,,,,0,30,30,30,,,,,,,,,281.6382803330016,286.75896258300054,282.0961798330027,283.0826315830018,283.7307885830014,284.72018808300345,281.6382803330016,281.6382803330016,281.6375235413344,281.6382803330016,281.6382803330016,281.6382803330016,281.6375235413344,281.6382803330016,286.75896258300054,287.59753362500123,289.6649147920034,293.58723645800274,287.59753362500123,287.59753362500123,292.769669917001,288.034463875003,289.06725387500046,289.6649147920034,290.7038128330023,287.59753362500123,287.59753362500123,287.5599716246698,287.59753362500123,287.59753362500123,287.59753362500123,287.5599716246698,287.59753362500123,287.59753362500123,292.769669917001,287.59753362500123,292.769669917001,292.769669917001,,287.59753362500123,1,1,0.6185737499981769,reldom2_s035,001,2025-03-13_16h44.49.607,Vis-B-Scan_AC,2022.2.5,None,
24,Second_Order,4.0,viswhat,stimulus/viswhat_stim/water_vehicle-pirateship.png,stimulus/viswhat_stim/land_vehicle-oldcar.png,stimulus/viswhat_stim/land_animal-zebra.png,stimulus/viswhat_stim/water_animal-seahorse.png,stimulus/viswhere_stim/match_blank.png,stimulus/viswhere_stim/match_box.png,stimulus/viswhere_stim/match_yes.png,stimulus/viswhere_stim/match_no.png,1.0,Match,Type,Type,1,5.125,0,5.125,0,5.125,0,5.125,0,0.625,0.625,1,0.5,1,2.125,1,0.5,1,2.125,0,0,0,0,0,0,0,0,0,,,,,0,31,31,31,,,,,,,,,293.58723645800274,298.70322404200124,294.04161645800195,295.0405164170006,295.662895458001,296.66115770800025,293.58723645800274,293.58723645800274,293.6015018746674,293.58723645800274,293.58723645800274,293.58723645800274,293.6015018746674,293.58723645800274,298.70322404200124,299.3888090420005,301.45168070800355,305.4998830830009,299.3888090420005,299.3888090420005,304.5266357920009,299.8284967920008,300.8469634580033,301.45168070800355,302.4815707080015,299.3888090420005,299.3888090420005,299.36688408300034,299.3888090420005,299.3888090420005,299.3888090420005,299.36688408300034,299.3888090420005,299.3888090420005,304.5266357920009,299.3888090420005,304.5266357920009,304.5827003330014,305.2172703750002,299.3888090420005,1,1,0.6682354589975148,reldom2_s035,001,2025-03-13_16h44.49.607,Vis-B-Scan_AC,2022.2.5,None,
0,0.0,None,fixation,stimulus/viswhere_stim/blank_white.png,stimulus/viswhere_stim/blank_white.png,stimulus/viswhat_stim/blank_white.png,stimulus/viswhat_stim/blank_white.png,stimulus/viswhere_stim/blank_white.png,stimulus/viswhere_stim/blank_white.png,stimulus/viswhere_stim/blank_white.png,stimulus/viswhere_stim/blank_white.png,0.0,0.0,0.0,0.0,0,0.0,0,0.0,0,0.0,0,0.0,0,0.0,0.0,0,0.0,0,0.0,0,0.0,0,0.0,0,0,0,0,0,0,0,0,9,,,,,0,32,32,32,,,,,,,,,305.4998830830009,305.4998830830009,305.4998830830009,305.4998830830009,305.4998830830009,305.4998830830009,305.4998830830009,305.4998830830009,305.40923537500345,305.4998830830009,305.4998830830009,305.4998830830009,305.40923537500345,305.4998830830009,305.4998830830009,305.4998830830009,305.4998830830009,305.4998830830009,305.4998830830009,305.4998830830009,305.4998830830009,305.4998830830009,305.4998830830009,305.4998830830009,305.4998830830009,305.4998830830009,305.4998830830009,305.45923537500346,305.4998830830009,305.4998830830009,305.4998830830009,305.45923537500346,305.4998830830009,305.4998830830009,305.4998830830009,305.4998830830009,305.4998830830009,310.72995845800324,310.72995845800324,314.68711650000114,None,0,,reldom2_s035,001,2025-03-13_16h44.49.607,Vis-B-Scan_AC,2022.2.5,None,
25,First_Order,5.0,viswhere,stimulus/viswhere_stim/blank_white.png,stimulus/viswhere_stim/blank_white.png,stimulus/viswhere_stim/90-deg_dot-right_seagreen.png,stimulus/viswhere_stim/150-deg_dot-right_turquoise.png,stimulus/viswhere_stim/blank_white.png,stimulus/viswhere_stim/line_box.png,stimulus/viswhere_stim/line_yes.png,stimulus/viswhere_stim/line_no.png,None,Line,None,Dot,2,0.0,0,5.125,0,5.125,0,5.125,0,0.0,0.625,0,0.0,0,0.0,1,0.5,1,2.125,0,0,0,0,0,0,0,0,0,,,,,0,33,33,33,,,,,,,,,314.68711650000114,314.68711650000114,314.68711650000114,314.68711650000114,314.68711650000114,314.68711650000114,314.68711650000114,314.68711650000114,314.67076858366875,314.68711650000114,314.68711650000114,314.68711650000114,314.67076858366875,314.68711650000114,314.68711650000114,314.68711650000114,316.7968675830016,320.7484821670005,314.68711650000114,314.68711650000114,319.8199013750018,315.17139862500335,316.17904916700354,316.7968675830016,317.8076200000032,314.68711650000114,314.68711650000114,314.67076858366875,314.68711650000114,314.68711650000114,314.68711650000114,314.67076858366875,314.68711650000114,314.68711650000114,319.8199013750018,314.68711650000114,319.8199013750018,319.9046275420005,320.53454333300033,314.68711650000114,2,1,1.1319379579981614,reldom2_s035,001,2025-03-13_16h44.49.607,Vis-B-Scan_AC,2022.2.5,None,
26,First_Order,5.0,viswhere,stimulus/viswhere_stim/blank_white.png,stimulus/viswhere_stim/blank_white.png,stimulus/viswhere_stim/150-deg_dot-left_seagreen.png,stimulus/viswhere_stim/150-deg_dot-right_seagreen.png,stimulus/viswhere_stim/blank_white.png,stimulus/viswhere_stim/dot_box.png,stimulus/viswhere_stim/dot_yes.png,stimulus/viswhere_stim/dot_no.png,None,Dot,None,Line,2,0.0,0,5.125,0,5.125,0,5.125,0,0.0,0.625,0,0.0,0,0.0,1,0.5,1,2.125,0,0,0,0,0,0,0,0,0,,,,,0,34,34,34,,,,,,,,,320.7484821670005,320.7484821670005,320.7484821670005,320.7484821670005,320.7484821670005,320.7484821670005,320.7484821670005,320.7484821670005,320.7286108753336,320.7484821670005,320.7484821670005,320.7484821670005,320.7286108753336,320.7484821670005,320.7484821670005,320.7484821670005,322.85894850000113,326.81058883300284,320.7484821670005,320.7484821670005,325.8845400420032,321.2385675000005,322.25888320800004,322.85894850000113,323.87543537500096,320.7484821670005,320.7484821670005,320.7286108753336,320.7484821670005,320.7484821670005,320.7484821670005,320.7286108753336,320.7484821670005,320.7484821670005,325.8845400420032,320.7484821670005,325.8845400420032,325.96928387500157,326.59564841700194,320.7484821670005,2,1,1.2603593329986325,reldom2_s035,001,2025-03-13_16h44.49.607,Vis-B-Scan_AC,2022.2.5,None,
27,First_Order,5.0,viswhere,stimulus/viswhere_stim/blank_white.png,stimulus/viswhere_stim/blank_white.png,stimulus/viswhere_stim/90-deg_dot-left_turquoise.png,stimulus/viswhere_stim/90-deg_dot-right_seagreen.png,stimulus/viswhere_stim/blank_white.png,stimulus/viswhere_stim/line_box.png,stimulus/viswhere_stim/line_yes.png,stimulus/viswhere_stim/line_no.png,None,Line,None,Line,1,0.0,0,5.125,0,5.125,0,5.125,0,0.0,0.625,0,0.0,0,0.0,1,0.5,1,2.125,0,0,0,0,0,0,0,0,0,,,,,0,35,35,35,,,,,,,,,326.81058883300284,326.81058883300284,326.81058883300284,326.81058883300284,326.81058883300284,326.81058883300284,326.81058883300284,326.81058883300284,326.78999079133547,326.81058883300284,326.81058883300284,326.81058883300284,326.78999079133547,326.81058883300284,326.81058883300284,326.81058883300284,328.9178283330002,332.8801815420011,326.81058883300284,326.81058883300284,331.94159541700355,327.2944034170032,328.3008165830033,328.9178283330002,329.93065820800257,326.81058883300284,326.81058883300284,326.8066574580021,326.81058883300284,326.81058883300284,326.81058883300284,326.8066574580021,326.81058883300284,326.81058883300284,331.94159541700355,326.81058883300284,331.94159541700355,332.0386157500034,332.66413512500003,326.81058883300284,1,1,0.43304512499889825,reldom2_s035,001,2025-03-13_16h44.49.607,Vis-B-Scan_AC,2022.2.5,None,
28,First_Order,5.0,viswhere,stimulus/viswhere_stim/blank_white.png,stimulus/viswhere_stim/blank_white.png,stimulus/viswhere_stim/120-deg_dot-right_mediumslateblue.png,stimulus/viswhere_stim/90-deg_dot-right_lightsseagreen.png,stimulus/viswhere_stim/blank_white.png,stimulus/viswhere_stim/dot_box.png,stimulus/viswhere_stim/dot_yes.png,stimulus/viswhere_stim/dot_no.png,None,Dot,None,Dot,1,0.0,0,5.125,0,5.125,0,5.125,0,0.0,0.625,0,0.0,0,0.0,1,0.5,1,2.125,0,0,0,0,0,0,0,0,0,,,,,0,36,36,36,,,,,,,,,332.8801815420011,332.8801815420011,332.8801815420011,332.8801815420011,332.8801815420011,332.8801815420011,332.8801815420011,332.8801815420011,332.8599117503339,332.8801815420011,332.8801815420011,332.8801815420011,332.8599117503339,332.8801815420011,332.8801815420011,332.8801815420011,334.9970564580035,339.0247917500019,332.8801815420011,332.8801815420011,338.0113753330006,333.361256375003,334.36340500000006,334.9970564580035,336.0051452500011,332.8801815420011,332.8801815420011,332.87657841700053,332.8801815420011,332.8801815420011,332.8801815420011,332.87657841700053,332.8801815420011,332.8801815420011,338.0113753330006,332.8801815420011,338.0113753330006,338.1080060000022,338.7341819170033,332.8801815420011,1,1,1.1085642079960962,reldom2_s035,001,2025-03-13_16h44.49.607,Vis-B-Scan_AC,2022.2.5,None,
0,0.0,None,fixation,stimulus/viswhere_stim/blank_white.png,stimulus/viswhere_stim/blank_white.png,stimulus/viswhat_stim/blank_white.png,stimulus/viswhat_stim/blank_white.png,stimulus/viswhere_stim/blank_white.png,stimulus/viswhere_stim/blank_white.png,stimulus/viswhere_stim/blank_white.png,stimulus/viswhere_stim/blank_white.png,0.0,0.0,0.0,0.0,0,0.0,0,0.0,0,0.0,0,0.0,0,0.0,0.0,0,0.0,0,0.0,0,0.0,0,0.0,0,0,0,0,0,0,0,0,10,,,,,0,37,37,37,,,,,,,,,339.0247917500019,339.0247917500019,339.0247917500019,339.0247917500019,339.0247917500019,339.0247917500019,339.0247917500019,339.0247917500019,338.92801154133605,339.0247917500019,339.0247917500019,339.0247917500019,338.92801154133605,339.0247917500019,339.0247917500019,339.0247917500019,339.0247917500019,339.0247917500019,339.0247917500019,339.0247917500019,339.0247917500019,339.0247917500019,339.0247917500019,339.0247917500019,339.0247917500019,339.0247917500019,339.0247917500019,338.97801154133606,339.0247917500019,339.0247917500019,339.0247917500019,338.97801154133606,339.0247917500019,339.0247917500019,339.0247917500019,339.0247917500019,339.0247917500019,344.2497826250001,344.2497826250001,349.1622305000019,None,0,,reldom2_s035,001,2025-03-13_16h44.49.607,Vis-B-Scan_AC,2022.2.5,None,
29,Second_Order,5.0,viswhere,stimulus/viswhere_stim/30-deg_dot-right_peru.png,stimulus/viswhere_stim/120-deg_dot-right_royalblue.png,stimulus/viswhere_stim/120-deg_dot-left_lightsseagreen.png,stimulus/viswhere_stim/90-deg_dot-left_seagreen.png,stimulus/viswhere_stim/match_blank.png,stimulus/viswhere_stim/match_box.png,stimulus/viswhere_stim/match_yes.png,stimulus/viswhere_stim/match_no.png,1.0,Match,Dot,Dot,1,5.125,0,5.125,0,5.125,0,5.125,0,0.75,0.75,1,0.5,1,2.125,1,0.5,1,2.125,0,0,0,0,0,0,0,0,0,,,,,0,38,38,38,,,,,,,,,349.1622305000019,354.28158862500277,349.63611579200006,350.6221355000016,351.270536875003,352.25997066700074,349.1622305000019,349.1622305000019,349.1765264583356,349.1622305000019,349.1622305000019,349.1622305000019,349.1765264583356,349.1622305000019,354.28158862500277,355.0733566250019,357.1615575830001,361.01234729200223,355.0733566250019,355.0733566250019,360.20329929200307,355.5202245420005,356.52686537500267,357.1615575830001,358.1703786670005,355.0733566250019,355.0733566250019,355.04871650033647,355.0733566250019,355.0733566250019,355.0733566250019,355.04871650033647,355.0733566250019,355.0733566250019,360.20329929200307,355.0733566250019,360.20329929200307,360.273452458001,361.04823220800245,355.0733566250019,1,1,1.0428512090002187,reldom2_s035,001,2025-03-13_16h44.49.607,Vis-B-Scan_AC,2022.2.5,None,
30,Second_Order,5.0,viswhere,stimulus/viswhere_stim/60-deg_dot-right_seagreen.png,stimulus/viswhere_stim/60-deg_dot-left_slateblue.png,stimulus/viswhere_stim/120-deg_dot-left_seagreen.png,stimulus/viswhere_stim/30-deg_dot-left_cyan.png,stimulus/viswhere_stim/match_blank.png,stimulus/viswhere_stim/match_box.png,stimulus/viswhere_stim/match_yes.png,stimulus/viswhere_stim/match_no.png,2.0,Match,Line,Dot,2,5.125,0,5.125,0,5.125,0,5.125,0,0.625,0.625,1,0.5,1,2.125,1,0.5,1,2.125,0,0,0,0,0,0,0,0,0,,,,,0,39,39,39,,,,,,,,,361.04823220800245,366.1713002920005,361.5312233330005,362.52941150000333,363.1520421250025,364.1500536670028,361.04823220800245,361.04823220800245,361.06234729200224,361.04823220800245,361.04823220800245,361.04823220800245,361.06234729200224,361.04823220800245,366.1713002920005,366.8451179170006,368.9258143750012,372.965348083002,366.8451179170006,366.8451179170006,371.9775764170008,367.3094349580024,368.32802166700276,368.9258143750012,369.9334220000019,366.8451179170006,366.8451179170006,366.82278895833633,366.8451179170006,366.8451179170006,366.8451179170006,366.82278895833633,366.8451179170006,366.8451179170006,371.9775764170008,366.8451179170006,371.9775764170008,372.04781591700157,372.67264716700083,366.8451179170006,2,1,0.6179496669974469,reldom2_s035,001,2025-03-13_16h44.49.607,Vis-B-Scan_AC,2022.2.5,None,
0,0.0,None,fixation,stimulus/viswhere_stim/blank_white.png,stimulus/viswhere_stim/blank_white.png,stimulus/viswhat_stim/blank_white.png,stimulus/viswhat_stim/blank_white.png,stimulus/viswhere_stim/blank_white.png,stimulus/viswhere_stim/blank_white.png,stimulus/viswhere_stim/blank_white.png,stimulus/viswhere_stim/blank_white.png,0.0,0.0,0.0,0.0,0,0.0,0,0.0,0,0.0,0,0.0,0,0.0,0.0,0,0.0,0,0.0,0,0.0,0,0.0,0,0,0,0,0,0,0,0,9,,,,,0,40,40,40,,,,,,,,,372.965348083002,372.965348083002,372.965348083002,372.965348083002,372.965348083002,372.965348083002,372.965348083002,372.965348083002,372.868903208336,372.965348083002,372.965348083002,372.965348083002,372.868903208336,372.965348083002,372.965348083002,372.965348083002,372.965348083002,372.965348083002,372.965348083002,372.965348083002,372.965348083002,372.965348083002,372.965348083002,372.965348083002,372.965348083002,372.965348083002,372.965348083002,372.918903208336,372.965348083002,372.965348083002,372.965348083002,372.918903208336,372.965348083002,372.965348083002,372.965348083002,372.965348083002,372.965348083002,378.17344675000277,378.17344675000277,382.16210366700034,None,0,,reldom2_s035,001,2025-03-13_16h44.49.607,Vis-B-Scan_AC,2022.2.5,None,
31,First_Order,6.0,viswhere,stimulus/viswhere_stim/blank_white.png,stimulus/viswhere_stim/blank_white.png,stimulus/viswhere_stim/120-deg_dot-left_royalblue.png,stimulus/viswhere_stim/30-deg_dot-left_goldenrod.png,stimulus/viswhere_stim/blank_white.png,stimulus/viswhere_stim/dot_box.png,stimulus/viswhere_stim/dot_yes.png,stimulus/viswhere_stim/dot_no.png,None,Dot,None,Dot,1,0.0,0,5.125,0,5.125,0,5.125,0,0.0,0.625,0,0.0,0,0.0,1,0.5,1,2.125,0,0,0,0,0,0,0,0,0,,,,,0,41,41,41,,,,,,,,,382.16210366700034,382.16210366700034,382.16210366700034,382.16210366700034,382.16210366700034,382.16210366700034,382.16210366700034,382.16210366700034,382.1442307916683,382.16210366700034,382.16210366700034,382.16210366700034,382.1442307916683,382.16210366700034,382.16210366700034,382.16210366700034,384.2740079170035,388.24098804200185,382.16210366700034,382.16210366700034,387.3026111250001,382.6427115000006,383.66115316700234,384.2740079170035,385.27757016700343,382.16210366700034,382.16210366700034,382.1442307916683,382.16210366700034,382.16210366700034,382.16210366700034,382.1442307916683,382.16210366700034,382.16210366700034,387.3026111250001,382.16210366700034,387.3026111250001,387.3860714170005,388.0113134580024,382.16210366700034,1,1,0.8649048339975707,reldom2_s035,001,2025-03-13_16h44.49.607,Vis-B-Scan_AC,2022.2.5,None,
32,First_Order,6.0,viswhere,stimulus/viswhere_stim/blank_white.png,stimulus/viswhere_stim/blank_white.png,stimulus/viswhere_stim/150-deg_dot-left_salmon.png,stimulus/viswhere_stim/150-deg_dot-right_salmon.png,stimulus/viswhere_stim/blank_white.png,stimulus/viswhere_stim/dot_box.png,stimulus/viswhere_stim/dot_yes.png,stimulus/viswhere_stim/dot_no.png,None,Dot,None,Line,2,0.0,0,5.125,0,5.125,0,5.125,0,0.0,0.625,0,0.0,0,0.0,1,0.5,1,2.125,0,0,0,0,0,0,0,0,0,,,,,0,42,42,42,,,,,,,,,388.24098804200185,388.24098804200185,388.24098804200185,388.24098804200185,388.24098804200185,388.24098804200185,388.24098804200185,388.24098804200185,388.2212588333362,388.24098804200185,388.24098804200185,388.24098804200185,388.2212588333362,388.24098804200185,388.24098804200185,388.24098804200185,390.355766167002,394.3030060420024,388.24098804200185,388.24098804200185,393.3761537920036,388.7257208330011,389.7368338330016,390.355766167002,391.37178920800216,388.24098804200185,388.24098804200185,388.2212588333362,388.24098804200185,388.24098804200185,388.24098804200185,388.2212588333362,388.24098804200185,388.24098804200185,393.3761537920036,388.24098804200185,393.3761537920036,393.46184808300313,394.08711979200234,388.24098804200185,2,1,0.921934499998315,reldom2_s035,001,2025-03-13_16h44.49.607,Vis-B-Scan_AC,2022.2.5,None,
33,First_Order,6.0,viswhere,stimulus/viswhere_stim/blank_white.png,stimulus/viswhere_stim/blank_white.png,stimulus/viswhere_stim/150-deg_dot-left_cyan.png,stimulus/viswhere_stim/150-deg_dot-right_seagreen.png,stimulus/viswhere_stim/blank_white.png,stimulus/viswhere_stim/line_box.png,stimulus/viswhere_stim/line_yes.png,stimulus/viswhere_stim/line_no.png,None,Line,None,Line,1,0.0,0,5.125,0,5.125,0,5.125,0,0.0,0.625,0,0.0,0,0.0,1,0.5,1,2.125,0,0,0,0,0,0,0,0,0,,,,,0,43,43,43,,,,,,,,,394.3030060420024,394.3030060420024,394.3030060420024,394.3030060420024,394.3030060420024,394.3030060420024,394.3030060420024,394.3030060420024,394.2821555833337,394.3030060420024,394.3030060420024,394.3030060420024,394.2821555833337,394.3030060420024,394.3030060420024,394.3030060420024,396.4086255000002,400.370171458002,394.3030060420024,394.3030060420024,399.439146333003,394.79001325000354,395.80419370800155,396.4086255000002,397.42862770800275,394.3030060420024,394.3030060420024,394.29882225000034,394.3030060420024,394.3030060420024,394.3030060420024,394.29882225000034,394.3030060420024,394.3030060420024,399.439146333003,394.3030060420024,399.439146333003,399.5252548330027,400.15426950000256,394.3030060420024,1,1,0.9765382919977128,reldom2_s035,001,2025-03-13_16h44.49.607,Vis-B-Scan_AC,2022.2.5,None,
34,First_Order,6.0,viswhere,stimulus/viswhere_stim/blank_white.png,stimulus/viswhere_stim/blank_white.png,stimulus/viswhere_stim/150-deg_dot-right_cyan.png,stimulus/viswhere_stim/120-deg_dot-right_cyan.png,stimulus/viswhere_stim/blank_white.png,stimulus/viswhere_stim/line_box.png,stimulus/viswhere_stim/line_yes.png,stimulus/viswhere_stim/line_no.png,None,Line,None,Dot,2,0.0,0,5.125,0,5.125,0,5.125,0,0.0,0.625,0,0.0,0,0.0,1,0.5,1,2.125,0,0,0,0,0,0,0,0,0,,,,,0,44,44,44,,,,,,,,,400.370171458002,400.370171458002,400.370171458002,400.370171458002,400.370171458002,400.370171458002,400.370171458002,400.370171458002,400.3491294163335,400.370171458002,400.370171458002,400.370171458002,400.3491294163335,400.370171458002,400.370171458002,400.370171458002,402.4808380420036,406.51632041700213,400.370171458002,400.370171458002,405.4945998330004,400.85544145800304,401.86288050000076,402.4808380420036,403.495383417001,400.370171458002,400.370171458002,400.36579608300013,400.370171458002,400.370171458002,400.370171458002,400.36579608300013,400.370171458002,400.370171458002,405.4945998330004,400.370171458002,405.4945998330004,405.59207962500295,406.2236975830019,400.370171458002,2,1,0.6784249999982421,reldom2_s035,001,2025-03-13_16h44.49.607,Vis-B-Scan_AC,2022.2.5,None,
0,0.0,None,fixation,stimulus/viswhere_stim/blank_white.png,stimulus/viswhere_stim/blank_white.png,stimulus/viswhat_stim/blank_white.png,stimulus/viswhat_stim/blank_white.png,stimulus/viswhere_stim/blank_white.png,stimulus/viswhere_stim/blank_white.png,stimulus/viswhere_stim/blank_white.png,stimulus/viswhere_stim/blank_white.png,0.0,0.0,0.0,0.0,0,0.0,0,0.0,0,0.0,0,0.0,0,0.0,0.0,0,0.0,0,0.0,0,0.0,0,0.0,0,0,0,0,0,0,0,0,8,,,,,0,45,45,45,,,,,,,,,406.51632041700213,406.51632041700213,406.51632041700213,406.51632041700213,406.51632041700213,406.51632041700213,406.51632041700213,406.51632041700213,406.4176742503344,406.51632041700213,406.51632041700213,406.51632041700213,406.4176742503344,406.51632041700213,406.51632041700213,406.51632041700213,406.51632041700213,406.51632041700213,406.51632041700213,406.51632041700213,406.51632041700213,406.51632041700213,406.51632041700213,406.51632041700213,406.51632041700213,406.51632041700213,406.51632041700213,406.4676742503344,406.51632041700213,406.51632041700213,406.51632041700213,406.4676742503344,406.51632041700213,406.51632041700213,406.51632041700213,406.51632041700213,406.51632041700213,411.6985885000031,411.6985885000031,414.64643329200044,None,0,,reldom2_s035,001,2025-03-13_16h44.49.607,Vis-B-Scan_AC,2022.2.5,None,
35,Second_Order,6.0,viswhere,stimulus/viswhere_stim/60-deg_dot-right_cyan.png,stimulus/viswhere_stim/60-deg_dot-left_goldenrod.png,stimulus/viswhere_stim/150-deg_dot-left_salmon.png,stimulus/viswhere_stim/150-deg_dot-right_goldenrod.png,stimulus/viswhere_stim/match_blank.png,stimulus/viswhere_stim/match_box.png,stimulus/viswhere_stim/match_yes.png,stimulus/viswhere_stim/match_no.png,1.0,Match,Line,Line,1,5.125,0,5.125,0,5.125,0,5.125,0,0.75,0.75,1,0.5,1,2.125,1,0.5,1,2.125,0,0,0,0,0,0,0,0,0,,,,,0,46,46,46,,,,,,,,,414.64643329200044,419.7660962080008,415.1201947920017,416.1067276670001,416.75491541700103,417.7439125000019,414.64643329200044,414.64643329200044,414.66057945833575,414.64643329200044,414.64643329200044,414.64643329200044,414.66057945833575,414.64643329200044,419.7660962080008,420.56048233300316,422.6337642920007,426.52419620800356,420.56048233300316,420.56048233300316,425.6939495000006,421.01239191700006,422.02939770800003,422.6337642920007,423.63833012500254,420.56048233300316,420.56048233300316,420.53377495833456,420.56048233300316,420.56048233300316,420.56048233300316,420.53377495833456,420.56048233300316,420.56048233300316,425.6939495000006,420.56048233300316,425.6939495000006,425.7497751250012,426.52419620800356,420.56048233300316,1,1,0.4678399999975227,reldom2_s035,001,2025-03-13_16h44.49.607,Vis-B-Scan_AC,2022.2.5,None,
36,Second_Order,6.0,viswhere,stimulus/viswhere_stim/120-deg_dot-right_slateblue.png,stimulus/viswhere_stim/120-deg_dot-left_royalblue.png,stimulus/viswhere_stim/150-deg_dot-right_royalblue.png,stimulus/viswhere_stim/150-deg_dot-left_salmon.png,stimulus/viswhere_stim/match_blank.png,stimulus/viswhere_stim/match_box.png,stimulus/viswhere_stim/match_yes.png,stimulus/viswhere_stim/match_no.png,1.0,Match,Line,Line,1,5.125,0,5.125,0,5.125,0,5.125,0,0.625,0.625,1,0.5,1,2.125,1,0.5,1,2.125,0,0,0,0,0,0,0,0,0,,,,,0,47,47,47,,,,,,,,,426.52419620800356,431.64360562500224,427.01174933300354,428.0010032500031,428.6378096670014,429.63450520800325,426.52419620800356,426.52419620800356,426.53794100000306,426.52419620800356,426.52419620800356,426.52419620800356,426.53794100000306,426.52419620800356,431.64360562500224,432.3150575000036,434.4015212500017,438.42425537500094,432.3150575000036,432.3150575000036,437.44792708300156,432.7660512500006,433.7783671670004,434.4015212500017,435.4203306670024,432.3150575000036,432.3150575000036,432.2906822083355,432.3150575000036,432.3150575000036,432.3150575000036,432.2906822083355,432.3150575000036,432.3150575000036,437.44792708300156,432.3150575000036,437.44792708300156,437.5354462920004,438.15825141700043,432.3150575000036,1,1,0.5940186670013645,reldom2_s035,001,2025-03-13_16h44.49.607,Vis-B-Scan_AC,2022.2.5,None,
0,0.0,None,fixation,stimulus/viswhere_stim/blank_white.png,stimulus/viswhere_stim/blank_white.png,stimulus/viswhat_stim/blank_white.png,stimulus/viswhat_stim/blank_white.png,stimulus/viswhere_stim/blank_white.png,stimulus/viswhere_stim/blank_white.png,stimulus/viswhere_stim/blank_white.png,stimulus/viswhere_stim/blank_white.png,0.0,0.0,0.0,0.0,0,0.0,0,0.0,0,0.0,0,0.0,0,0.0,0.0,0,0.0,0,0.0,0,0.0,0,0.0,0,0,0,0,0,0,0,0,10,,,,,0,48,48,48,,,,,,,,,438.42425537500094,438.42425537500094,438.42425537500094,438.42425537500094,438.42425537500094,438.42425537500094,438.42425537500094,438.42425537500094,438.3253185413353,438.42425537500094,438.42425537500094,438.42425537500094,438.3253185413353,438.42425537500094,438.42425537500094,438.42425537500094,438.42425537500094,438.42425537500094,438.42425537500094,438.42425537500094,438.42425537500094,438.42425537500094,438.42425537500094,438.42425537500094,438.42425537500094,438.42425537500094,438.42425537500094,438.37531854133533,438.42425537500094,438.42425537500094,438.42425537500094,438.37531854133533,438.42425537500094,438.42425537500094,438.42425537500094,438.42425537500094,438.42425537500094,443.6520882920013,443.6520882920013,448.6776449170029,None,0,,reldom2_s035,001,2025-03-13_16h44.49.607,Vis-B-Scan_AC,2022.2.5,None,
37,First_Order,7.0,viswhat,stimulus/viswhat_stim/blank_white.png,stimulus/viswhat_stim/blank_white.png,stimulus/viswhat_stim/water_vehicle-sailboat.png,stimulus/viswhat_stim/land_vehicle-bus.png,stimulus/viswhat_stim/blank_white.png,stimulus/viswhat_stim/location_box.png,stimulus/viswhat_stim/location_yes.png,stimulus/viswhat_stim/location_no.png,None,Location,None,Type,2,0.0,0,5.125,0,5.125,0,5.125,0,0.0,0.625,0,0.0,0,0.0,1,0.5,1,2.125,0,0,0,0,0,0,0,0,0,,,,,0,49,49,49,,,,,,,,,448.6776449170029,448.6776449170029,448.6776449170029,448.6776449170029,448.6776449170029,448.6776449170029,448.6776449170029,448.6776449170029,448.5861614996671,448.6776449170029,448.6776449170029,448.6776449170029,448.5861614996671,448.6776449170029,448.6776449170029,448.6776449170029,450.75232883300123,,448.6776449170029,448.6776449170029,453.8370782500024,449.15542191700297,450.22156341700247,450.75232883300123,451.8195990830027,448.6776449170029,448.6776449170029,448.63616149966714,448.6776449170029,448.6776449170029,448.6776449170029,448.63616149966714,448.6776449170029,448.6776449170029,453.8370782500024,448.6776449170029,453.8370782500024,453.88474308300283,454.54598679200353,448.6776449170029,2,1,1.0673927499992715,reldom2_s035,001,2025-03-13_16h44.49.607,Vis-B-Scan_AC,2022.2.5,None,
38,First_Order,7.0,viswhat,stimulus/viswhat_stim/blank_white.png,stimulus/viswhat_stim/blank_white.png,stimulus/viswhat_stim/land_vehicle-tank.png,stimulus/viswhat_stim/land_animal-elephant.png,stimulus/viswhat_stim/blank_white.png,stimulus/viswhat_stim/type_box.png,stimulus/viswhat_stim/type_yes.png,stimulus/viswhat_stim/type_no.png,None,Type,None,Location,2,0.0,0,5.125,0,5.125,0,5.125,0,0.0,0.625,0,0.0,0,0.0,1,0.5,1,2.125,0,0,0,0,0,0,0,0,0,,,,,0,50,50,50,,,,,,,,,454.7956671250031,454.7956671250031,454.7956671250031,454.7956671250031,454.7956671250031,454.7956671250031,454.7956671250031,454.7956671250031,454.6959867920035,454.7956671250031,454.7956671250031,454.7956671250031,454.6959867920035,454.7956671250031,454.7956671250031,454.7956671250031,456.88309587500044,460.8803505420001,454.7956671250031,454.7956671250031,460.0053560000015,455.262506250001,456.3051389580032,456.88309587500044,457.92898116700235,454.7956671250031,454.7956671250031,454.7459867920035,454.7956671250031,454.7956671250031,454.7956671250031,454.7459867920035,454.7956671250031,454.7956671250031,460.0053560000015,454.7956671250031,460.0053560000015,460.0053560000015,460.6820315420009,454.7956671250031,2,1,0.9468673749979644,reldom2_s035,001,2025-03-13_16h44.49.607,Vis-B-Scan_AC,2022.2.5,None,
39,First_Order,7.0,viswhat,stimulus/viswhat_stim/blank_white.png,stimulus/viswhat_stim/blank_white.png,stimulus/viswhat_stim/land_animal-ostrich.png,stimulus/viswhat_stim/water_animal-whale.png,stimulus/viswhat_stim/blank_white.png,stimulus/viswhat_stim/location_box.png,stimulus/viswhat_stim/location_yes.png,stimulus/viswhat_stim/location_no.png,None,Location,None,Type,2,0.0,0,5.125,0,5.125,0,5.125,0,0.0,0.625,0,0.0,0,0.0,1,0.5,1,2.125,0,0,0,0,0,0,0,0,0,,,,,0,51,51,51,,,,,,,,,460.8803505420001,460.8803505420001,460.8803505420001,460.8803505420001,460.8803505420001,460.8803505420001,460.8803505420001,460.8803505420001,460.84869820866754,460.8803505420001,460.8803505420001,460.8803505420001,460.84869820866754,460.8803505420001,460.8803505420001,460.8803505420001,462.9884085420017,466.96428791700237,460.8803505420001,460.8803505420001,466.0238999170033,461.3525425000007,462.38099737500306,462.9884085420017,464.00353908300167,460.8803505420001,460.8803505420001,460.86536487533425,460.8803505420001,460.8803505420001,460.8803505420001,460.86536487533425,460.8803505420001,460.8803505420001,466.0238999170033,460.8803505420001,466.0238999170033,466.089103833001,466.72423250000065,460.8803505420001,2,1,0.8744912920010393,reldom2_s035,001,2025-03-13_16h44.49.607,Vis-B-Scan_AC,2022.2.5,None,
40,First_Order,7.0,viswhat,stimulus/viswhat_stim/blank_white.png,stimulus/viswhat_stim/blank_white.png,stimulus/viswhat_stim/land_vehicle-truck.png,stimulus/viswhat_stim/land_animal-fox.png,stimulus/viswhat_stim/blank_white.png,stimulus/viswhat_stim/location_box.png,stimulus/viswhat_stim/location_yes.png,stimulus/viswhat_stim/location_no.png,None,Location,None,Location,1,0.0,0,5.125,0,5.125,0,5.125,0,0.0,0.625,0,0.0,0,0.0,1,0.5,1,2.125,0,0,0,0,0,0,0,0,0,,,,,0,52,52,52,,,,,,,,,466.96428791700237,466.96428791700237,466.96428791700237,466.96428791700237,466.96428791700237,466.96428791700237,466.96428791700237,466.96428791700237,466.9334022080016,466.96428791700237,466.96428791700237,466.96428791700237,466.9334022080016,466.96428791700237,466.96428791700237,466.96428791700237,469.05938108300325,473.1129774580004,466.96428791700237,466.96428791700237,472.1033599580005,467.43372208300207,468.4484017080031,469.05938108300325,470.08005075000256,466.96428791700237,466.96428791700237,466.9500688746683,466.96428791700237,466.96428791700237,466.96428791700237,466.9500688746683,466.96428791700237,466.96428791700237,472.1033599580005,466.96428791700237,472.1033599580005,472.1920357500021,472.8333848330003,466.96428791700237,1,1,0.7331302919992595,reldom2_s035,001,2025-03-13_16h44.49.607,Vis-B-Scan_AC,2022.2.5,None,
0,0.0,None,fixation,stimulus/viswhere_stim/blank_white.png,stimulus/viswhere_stim/blank_white.png,stimulus/viswhat_stim/blank_white.png,stimulus/viswhat_stim/blank_white.png,stimulus/viswhere_stim/blank_white.png,stimulus/viswhere_stim/blank_white.png,stimulus/viswhere_stim/blank_white.png,stimulus/viswhere_stim/blank_white.png,0.0,0.0,0.0,0.0,0,0.0,0,0.0,0,0.0,0,0.0,0,0.0,0.0,0,0.0,0,0.0,0,0.0,0,0.0,0,0,0,0,0,0,0,0,8,,,,,0,53,53,53,,,,,,,,,473.1129774580004,473.1129774580004,473.1129774580004,473.1129774580004,473.1129774580004,473.1129774580004,473.1129774580004,473.1129774580004,473.00570825033475,473.1129774580004,473.1129774580004,473.1129774580004,473.00570825033475,473.1129774580004,473.1129774580004,473.1129774580004,473.1129774580004,473.1129774580004,473.1129774580004,473.1129774580004,473.1129774580004,473.1129774580004,473.1129774580004,473.1129774580004,473.1129774580004,473.1129774580004,473.1129774580004,473.0723749170014,473.1129774580004,473.1129774580004,473.1129774580004,473.0723749170014,473.1129774580004,473.1129774580004,473.1129774580004,473.1129774580004,473.1129774580004,478.2981472080028,478.2981472080028,481.2546607080003,None,0,,reldom2_s035,001,2025-03-13_16h44.49.607,Vis-B-Scan_AC,2022.2.5,None,
41,Second_Order,7.0,viswhat,stimulus/viswhat_stim/water_animal-whale (1).png,stimulus/viswhat_stim/water_vehicle-canoe(1).png,stimulus/viswhat_stim/land_animal-tiger.png,stimulus/viswhat_stim/land_vehicle-train.png,stimulus/viswhere_stim/match_blank.png,stimulus/viswhere_stim/match_box.png,stimulus/viswhere_stim/match_yes.png,stimulus/viswhere_stim/match_no.png,1.0,Match,Location,Location,1,5.125,0,5.125,0,5.125,0,5.125,0,0.75,0.75,1,0.5,1,2.125,1,0.5,1,2.125,0,0,0,0,0,0,0,0,0,,,,,0,54,54,54,,,,,,,,,481.2546607080003,486.3698329580002,481.7243558750015,482.7119071670022,483.34645100000125,484.3447087920031,481.2546607080003,481.2546607080003,481.263007583335,481.2546607080003,481.2546607080003,481.2546607080003,481.263007583335,481.2546607080003,486.3698329580002,487.19735800000126,489.2472993750016,493.1816279580016,487.19735800000126,487.19735800000126,492.34661125000275,487.6353522080026,488.6774448750002,489.2472993750016,490.29543316700074,487.19735800000126,487.19735800000126,487.1717252496683,487.19735800000126,487.19735800000126,487.19735800000126,487.1717252496683,487.19735800000126,487.19735800000126,492.34661125000275,487.19735800000126,492.34661125000275,492.3748101250021,,487.19735800000126,1,1,0.7535058329995081,reldom2_s035,001,2025-03-13_16h44.49.607,Vis-B-Scan_AC,2022.2.5,None,
42,Second_Order,7.0,viswhat,stimulus/viswhat_stim/land_vehicle-buldozer.png,stimulus/viswhat_stim/water_vehicle-jetski.png,stimulus/viswhat_stim/water_animal-whale.png,stimulus/viswhat_stim/land_animal-fox.png,stimulus/viswhere_stim/match_blank.png,stimulus/viswhere_stim/match_box.png,stimulus/viswhere_stim/match_yes.png,stimulus/viswhere_stim/match_no.png,1.0,Match,Type,Type,1,5.125,0,5.125,0,5.125,0,5.125,0,0.625,0.625,1,0.5,1,2.125,1,0.5,1,2.125,0,0,0,0,0,0,0,0,0,,,,,0,55,55,55,,,,,,,,,493.1816279580016,498.29731316700054,493.65413795800123,494.6510018330009,495.27428379200137,496.2720078750026,493.1816279580016,493.1816279580016,493.18295620833425,493.1816279580016,493.1816279580016,493.1816279580016,493.18295620833425,493.1816279580016,498.29731316700054,498.9858212500003,501.0607662500006,505.09521779200077,498.9858212500003,498.9858212500003,504.11675733300217,499.43193070800044,500.45715850000124,501.0607662500006,502.0900110420007,498.9858212500003,498.9858212500003,498.9614798330011,498.9858212500003,498.9858212500003,498.9858212500003,498.9614798330011,498.9858212500003,498.9858212500003,504.11675733300217,498.9858212500003,504.11675733300217,504.1778131670035,504.8170424580021,498.9858212500003,1,1,1.2077239169993845,reldom2_s035,001,2025-03-13_16h44.49.607,Vis-B-Scan_AC,2022.2.5,None,
0,0.0,None,fixation,stimulus/viswhere_stim/blank_white.png,stimulus/viswhere_stim/blank_white.png,stimulus/viswhat_stim/blank_white.png,stimulus/viswhat_stim/blank_white.png,stimulus/viswhere_stim/blank_white.png,stimulus/viswhere_stim/blank_white.png,stimulus/viswhere_stim/blank_white.png,stimulus/viswhere_stim/blank_white.png,0.0,0.0,0.0,0.0,0,0.0,0,0.0,0,0.0,0,0.0,0,0.0,0.0,0,0.0,0,0.0,0,0.0,0,0.0,0,0,0,0,0,0,0,0,9,,,,,0,56,56,56,,,,,,,,,505.09521779200077,505.09521779200077,505.09521779200077,505.09521779200077,505.09521779200077,505.09521779200077,505.09521779200077,505.09521779200077,504.99948716700015,505.09521779200077,505.09521779200077,505.09521779200077,504.99948716700015,505.09521779200077,505.09521779200077,505.09521779200077,505.09521779200077,505.09521779200077,505.09521779200077,505.09521779200077,505.09521779200077,505.09521779200077,505.09521779200077,505.09521779200077,505.09521779200077,505.09521779200077,505.09521779200077,505.04948716700017,505.09521779200077,505.09521779200077,505.09521779200077,505.04948716700017,505.09521779200077,505.09521779200077,505.09521779200077,505.09521779200077,505.09521779200077,510.28258716700293,510.28258716700293,514.3049760000031,None,0,,reldom2_s035,001,2025-03-13_16h44.49.607,Vis-B-Scan_AC,2022.2.5,None,
43,First_Order,8.0,viswhat,stimulus/viswhat_stim/blank_white.png,stimulus/viswhat_stim/blank_white.png,stimulus/viswhat_stim/land_animal-fox.png,stimulus/viswhat_stim/land_vehicle-motorcycle.png,stimulus/viswhat_stim/blank_white.png,stimulus/viswhat_stim/type_box.png,stimulus/viswhat_stim/type_yes.png,stimulus/viswhat_stim/type_no.png,None,Type,None,Location,2,0.0,0,5.125,0,5.125,0,5.125,0,0.0,0.625,0,0.0,0,0.0,1,0.5,1,2.125,0,0,0,0,0,0,0,0,0,,,,,0,57,57,57,,,,,,,,,514.3049760000031,514.3049760000031,514.3049760000031,514.3049760000031,514.3049760000031,514.3049760000031,514.3049760000031,514.3049760000031,514.265165541669,514.3049760000031,514.3049760000031,514.3049760000031,514.265165541669,514.3049760000031,514.3049760000031,514.3049760000031,516.4025438750032,520.3733960000027,514.3049760000031,514.3049760000031,519.4459844170015,514.7901694170032,515.8258912080018,516.4025438750032,517.4417006250005,514.3049760000031,514.3049760000031,514.2818322083357,514.3049760000031,514.3049760000031,514.3049760000031,514.2818322083357,514.3049760000031,514.3049760000031,519.4459844170015,514.3049760000031,519.4459844170015,519.5201819170034,520.1650555420019,514.3049760000031,2,1,0.865041791999829,reldom2_s035,001,2025-03-13_16h44.49.607,Vis-B-Scan_AC,2022.2.5,None,
44,First_Order,8.0,viswhat,stimulus/viswhat_stim/blank_white.png,stimulus/viswhat_stim/blank_white.png,stimulus/viswhat_stim/land_animal-pig.png,stimulus/viswhat_stim/land_vehicle-firetruck.png,stimulus/viswhat_stim/blank_white.png,stimulus/viswhat_stim/location_box.png,stimulus/viswhat_stim/location_yes.png,stimulus/viswhat_stim/location_no.png,None,Location,None,Location,1,0.0,0,5.125,0,5.125,0,5.125,0,0.0,0.625,0,0.0,0,0.0,1,0.5,1,2.125,0,0,0,0,0,0,0,0,0,,,,,0,58,58,58,,,,,,,,,520.3733960000027,520.3733960000027,520.3733960000027,520.3733960000027,520.3733960000027,520.3733960000027,520.3733960000027,520.3733960000027,520.3383814170026,520.3733960000027,520.3733960000027,520.3733960000027,520.3383814170026,520.3733960000027,520.3733960000027,520.3733960000027,522.4708692500026,526.494638958,520.3733960000027,520.3733960000027,525.5169297080029,520.8454777080005,521.8602749580023,522.4708692500026,523.4921659580032,520.3733960000027,520.3733960000027,520.3550480836692,520.3733960000027,520.3733960000027,520.3733960000027,520.3550480836692,520.3733960000027,520.3733960000027,525.5169297080029,520.3733960000027,525.5169297080029,525.5887067500007,526.2147398330017,520.3733960000027,1,1,0.6759379999966768,reldom2_s035,001,2025-03-13_16h44.49.607,Vis-B-Scan_AC,2022.2.5,None,
45,First_Order,8.0,viswhat,stimulus/viswhat_stim/blank_white.png,stimulus/viswhat_stim/blank_white.png,stimulus/viswhat_stim/land_vehicle-trolley.png,stimulus/viswhat_stim/water_vehicle-sailboat.png,stimulus/viswhat_stim/blank_white.png,stimulus/viswhat_stim/type_box.png,stimulus/viswhat_stim/type_yes.png,stimulus/viswhat_stim/type_no.png,None,Type,None,Type,1,0.0,0,5.125,0,5.125,0,5.125,0,0.0,0.625,0,0.0,0,0.0,1,0.5,1,2.125,0,0,0,0,0,0,0,0,0,,,,,0,59,59,59,,,,,,,,,526.494638958,526.494638958,526.494638958,526.494638958,526.494638958,526.494638958,526.494638958,526.494638958,526.4041210003355,526.494638958,526.494638958,526.494638958,526.4041210003355,526.494638958,526.494638958,526.494638958,528.5908492080016,532.5610419170007,526.494638958,526.494638958,531.6624470420029,526.9800667920026,528.0564653330002,528.5908492080016,529.6665621250031,526.494638958,526.494638958,526.4541210003355,526.494638958,526.494638958,526.494638958,526.4541210003355,526.494638958,526.494638958,531.6624470420029,526.494638958,531.6624470420029,531.7057316670034,532.3917812080035,526.494638958,1,1,1.703098666999722,reldom2_s035,001,2025-03-13_16h44.49.607,Vis-B-Scan_AC,2022.2.5,None,
46,First_Order,8.0,viswhat,stimulus/viswhat_stim/blank_white.png,stimulus/viswhat_stim/blank_white.png,stimulus/viswhat_stim/water_vehicle-canoe(1).png,stimulus/viswhat_stim/land_vehicle-truck.png,stimulus/viswhat_stim/blank_white.png,stimulus/viswhat_stim/type_box.png,stimulus/viswhat_stim/type_yes.png,stimulus/viswhat_stim/type_no.png,None,Type,None,Type,1,0.0,0,5.125,0,5.125,0,5.125,0,0.0,0.625,0,0.0,0,0.0,1,0.5,1,2.125,0,0,0,0,0,0,0,0,0,,,,,0,60,60,60,,,,,,,,,532.5610419170007,532.5610419170007,532.5610419170007,532.5610419170007,532.5610419170007,532.5610419170007,532.5610419170007,532.5610419170007,532.5251145413368,532.5610419170007,532.5610419170007,532.5610419170007,532.5251145413368,532.5610419170007,532.5610419170007,532.5610419170007,534.6751555420014,538.7073054580032,532.5610419170007,532.5610419170007,537.7027674170022,533.0441272920034,534.0593779580013,534.6751555420014,535.6914755420003,532.5610419170007,532.5610419170007,532.5417812080035,532.5610419170007,532.5610419170007,532.5610419170007,532.5417812080035,532.5610419170007,532.5610419170007,537.7027674170022,532.5610419170007,537.7027674170022,537.7861203750035,538.4208305830034,532.5610419170007,1,1,1.0299829169962322,reldom2_s035,001,2025-03-13_16h44.49.607,Vis-B-Scan_AC,2022.2.5,None,
0,0.0,None,fixation,stimulus/viswhere_stim/blank_white.png,stimulus/viswhere_stim/blank_white.png,stimulus/viswhat_stim/blank_white.png,stimulus/viswhat_stim/blank_white.png,stimulus/viswhere_stim/blank_white.png,stimulus/viswhere_stim/blank_white.png,stimulus/viswhere_stim/blank_white.png,stimulus/viswhere_stim/blank_white.png,0.0,0.0,0.0,0.0,0,0.0,0,0.0,0,0.0,0,0.0,0,0.0,0.0,0,0.0,0,0.0,0,0.0,0,0.0,0,0,0,0,0,0,0,0,9,,,,,0,61,61,61,,,,,,,,,538.7073054580032,538.7073054580032,538.7073054580032,538.7073054580032,538.7073054580032,538.7073054580032,538.7073054580032,538.7073054580032,538.6046335833356,538.7073054580032,538.7073054580032,538.7073054580032,538.6046335833356,538.7073054580032,538.7073054580032,538.7073054580032,538.7073054580032,538.7073054580032,538.7073054580032,538.7073054580032,538.7073054580032,538.7073054580032,538.7073054580032,538.7073054580032,538.7073054580032,538.7073054580032,538.7073054580032,538.6546335833356,538.7073054580032,538.7073054580032,538.7073054580032,538.6546335833356,538.7073054580032,538.7073054580032,538.7073054580032,538.7073054580032,538.7073054580032,543.8909420000018,543.8909420000018,547.8678243330032,None,0,,reldom2_s035,001,2025-03-13_16h44.49.607,Vis-B-Scan_AC,2022.2.5,None,
47,Second_Order,8.0,viswhat,stimulus/viswhat_stim/water_animal-seaturtle.png,stimulus/viswhat_stim/water_vehicle-kayak.png,stimulus/viswhat_stim/water_vehicle-motorboatraft.png,stimulus/viswhat_stim/land_vehicle-tank.png,stimulus/viswhere_stim/match_blank.png,stimulus/viswhere_stim/match_box.png,stimulus/viswhere_stim/match_yes.png,stimulus/viswhere_stim/match_no.png,2.0,Match,Location,Type,2,5.125,0,5.125,0,5.125,0,5.125,0,0.75,0.75,1,0.5,1,2.125,1,0.5,1,2.125,0,0,0,0,0,0,0,0,0,,,,,0,62,62,62,,,,,,,,,547.8678243330032,552.9905570830015,548.3415912500022,549.3314682500022,549.9663581250024,550.9650202080011,547.8678243330032,547.8678243330032,547.8733369583334,547.8678243330032,547.8678243330032,547.8678243330032,547.8733369583334,547.8678243330032,552.9905570830015,553.78344775,555.8553963330014,559.7642104580009,553.78344775,553.78344775,558.9180643330001,554.2397041250006,555.2538393750001,555.8553963330014,556.8730481250022,553.78344775,553.78344775,553.7576687083351,553.78344775,553.78344775,553.78344775,553.7576687083351,553.78344775,553.78344775,558.9180643330001,553.78344775,558.9180643330001,558.9847427920031,559.7642104580009,553.78344775,2,1,0.9121917089978524,reldom2_s035,001,2025-03-13_16h44.49.607,Vis-B-Scan_AC,2022.2.5,None,
48,Second_Order,8.0,viswhat,stimulus/viswhat_stim/land_vehicle-rv.png,stimulus/viswhat_stim/water_vehicle-cargoboat.png,stimulus/viswhat_stim/water_animal-squid.png,stimulus/viswhat_stim/land_animal-dog.png,stimulus/viswhere_stim/match_blank.png,stimulus/viswhere_stim/match_box.png,stimulus/viswhere_stim/match_yes.png,stimulus/viswhere_stim/match_no.png,1.0,Match,Type,Type,1,5.125,0,5.125,0,5.125,0,5.125,0,0.625,0.625,1,0.5,1,2.125,1,0.5,1,2.125,0,0,0,0,0,0,0,0,0,,,,,0,63,63,63,,,,,,,,,559.7642104580009,564.8850197920001,560.2399236670026,561.2383979170008,561.861311333003,562.859040667001,559.7642104580009,559.7642104580009,559.7703288330019,559.7642104580009,559.7642104580009,559.7642104580009,559.7703288330019,559.7642104580009,564.8850197920001,565.583252542001,567.6415916250007,571.6919891250036,565.583252542001,565.583252542001,570.7265415000002,566.0231932080023,567.0507950830033,567.6415916250007,568.6719833330026,565.583252542001,565.583252542001,565.5487827080003,565.583252542001,565.583252542001,565.583252542001,565.5487827080003,565.583252542001,565.583252542001,570.7265415000002,565.583252542001,570.7265415000002,570.7777382500026,571.4335367500025,565.583252542001,1,1,1.051374124999711,reldom2_s035,001,2025-03-13_16h44.49.607,Vis-B-Scan_AC,2022.2.5,None,
0,0.0,None,fixation,stimulus/viswhere_stim/blank_white.png,stimulus/viswhere_stim/blank_white.png,stimulus/viswhat_stim/blank_white.png,stimulus/viswhat_stim/blank_white.png,stimulus/viswhere_stim/blank_white.png,stimulus/viswhere_stim/blank_white.png,stimulus/viswhere_stim/blank_white.png,stimulus/viswhere_stim/blank_white.png,0.0,0.0,0.0,0.0,0,0.0,0,0.0,0,0.0,0,0.0,0,0.0,0.0,0,0.0,0,0.0,0,0.0,0,0.0,0,0,0,0,0,0,0,0,16,,,,,0,64,64,64,,,,,,,,,571.6919891250036,571.6919891250036,571.6919891250036,571.6919891250036,571.6919891250036,571.6919891250036,571.6919891250036,571.6919891250036,571.6010557086682,571.6919891250036,571.6919891250036,571.6919891250036,571.6010557086682,571.6919891250036,571.6919891250036,571.6919891250036,571.6919891250036,571.6919891250036,571.6919891250036,571.6919891250036,571.6919891250036,571.6919891250036,571.6919891250036,571.6919891250036,571.6919891250036,571.6919891250036,571.6919891250036,571.6510557086682,571.6919891250036,571.6919891250036,571.6919891250036,571.6510557086682,571.6919891250036,571.6919891250036,571.6919891250036,571.6919891250036,571.6919891250036,576.8779050000012,576.8779050000012,587.848091625001,None,0,,reldom2_s035,001,2025-03-13_16h44.49.607,Vis-B-Scan_AC,2022.2.5,None,
