Trial,Order,Block,Type,Stimuli_File1,Stimuli_File2,Stimuli_File3,Stimuli_File4,Cue_File1,Cue_File2,Response_File_Yes,Response_File_No,Match,Cue_Dimension,Pair1_Dimension,Pair2_Dimension,Key,Cue1_Duration,Cue1_Onset,Cue2_Duration,Cue2_Onset,ResponseYes_Duration,ResponseYes_Onset,ResponseNo_Duration,ResponseNo_Onset,ITI_Within,ITI_Between,Image1_Duration,Image1_Onset,Image2_Duration,Image2_Onset,Image3_Duration,Image3_Onset,Image4_Duration,Image4_Onset,Sound1_Duration,Sound1_Onset,Sound2_Duration,Sound2_Onset,Sound3_Duration,Sound3_Onset,Sound4_Duration,Sound4_Onset,Fixation_Duration,trials_2.thisRepN,trials_2.thisTrialN,trials_2.thisN,trials_2.thisIndex,trials.thisRepN,trials.thisTrialN,trials.thisN,trials.thisIndex,text_start.started,key_resp_start.started,key_resp_start.keys,key_resp_start.rt,text2.started,key_resp_2.started,key_resp_2.keys,key_resp_2.rt,cue_file1.started,cue_file1.stopped,image_1.started,image_1.stopped,image_2.started,image_2.stopped,sound_icon1.started,sound_icon1.stopped,sound_1.started,sound_1.stopped,sound_icon2.started,sound_icon2.stopped,sound_2.started,sound_2.stopped,image_blank_1.started,image_blank_1.stopped,key_press.started,key_press.stopped,fixation_text.started,cue_file2.started,cue_file2.stopped,image_3.started,image_3.stopped,image_4.started,image_4.stopped,sound_icon3.started,sound_icon3.stopped,sound_3.started,sound_3.stopped,sound_icon4.started,sound_icon4.stopped,sound_4.started,sound_4.stopped,response_yes.started,response_yes.stopped,response_no.started,response_no.stopped,iti_blank.started,iti_blank.stopped,fixation_text.stopped,key_press.keys,key_press.corr,key_press.rt,participant,session,date,expName,psychopyVersion,frameRate,
,,,,,,,,,,,,,,,,,,,,,,,,,,,,,,,,,,,,,,,,,,,,,,,,,,,,7.0724553750005725,7.0724553750005725,2,1.3139725840010215,,,,,,,,,,,,,,,,,,,,,,,,,,,,,,,,,,,,,,,,,,,,,,,,reldom2_s035,001,2025-03-13_16h55.53.408,What-B-Scan_AC,2022.2.5,None,
,,,,,,,,,,,,,,,,,,,,,,,,,,,,,,,,,,,,,,,,,,,,0,0,0,0,,,,,,,,,8.41797733400017,8.41797733400017,5,27.340970166998886,,,,,,,,,,,,,,,,,,,,,,,,,,,,,,,,,,,,,,,,,,,,reldom2_s035,001,2025-03-13_16h55.53.408,What-B-Scan_AC,2022.2.5,None,
,,,,,,,,,,,,,,,,,,,,,,,,,,,,,,,,,,,,,,,,,,,,1,0,1,0,,,,,,,,,35.771935959000984,35.771935959000984,5,1.986425415998383,,,,,,,,,,,,,,,,,,,,,,,,,,,,,,,,,,,,,,,,,,,,reldom2_s035,001,2025-03-13_16h55.53.408,What-B-Scan_AC,2022.2.5,None,
,,,,,,,,,,,,,,,,,,,,,,,,,,,,,,,,,,,,,,,,,,,,2,0,2,0,,,,,,,,,37.786061334001715,37.786061334001715,5,1.9721944169978087,,,,,,,,,,,,,,,,,,,,,,,,,,,,,,,,,,,,,,,,,,,,reldom2_s035,001,2025-03-13_16h55.53.408,What-B-Scan_AC,2022.2.5,None,
,,,,,,,,,,,,,,,,,,,,,,,,,,,,,,,,,,,,,,,,,,,,3,0,3,0,,,,,,,,,39.772546459000296,39.772546459000296,5,1.986456624999846,,,,,,,,,,,,,,,,,,,,,,,,,,,,,,,,,,,,,,,,,,,,reldom2_s035,001,2025-03-13_16h55.53.408,What-B-Scan_AC,2022.2.5,None,
0,0.0,None,fixation,stimulus/viswhat_stim/blank_white.png,stimulus/viswhat_stim/blank_white.png,stimulus/audwhat_stim/blank_white.png,stimulus/audwhat_stim/blank_white.png,stimulus/viswhat_stim/blank_white.png,stimulus/viswhat_stim/blank_white.png,stimulus/viswhat_stim/blank_white.png,stimulus/viswhat_stim/blank_white.png,0.0,0.0,0.0,0.0,0,0.0,0,0.0,0,0.0,0,0.0,0,0.0,0.0,0,0.0,0,0.0,0,0.0,0,0.0,0,0.0,0,0.0,0,0.0,0,0.0,16,,,,,0,0,0,0,,,,,,,,,41.97179487500034,41.97179487500034,41.97179487500034,41.97179487500034,41.97179487500034,41.97179487500034,41.97179487500034,41.97179487500034,41.87709462566806,41.97179487500034,41.97179487500034,41.97179487500034,41.87709462566806,41.97179487500034,41.97179487500034,41.97179487500034,41.97179487500034,41.97179487500034,41.97179487500034,41.97179487500034,41.97179487500034,41.97179487500034,41.97179487500034,41.97179487500034,41.97179487500034,41.97179487500034,41.97179487500034,41.927094625668055,41.97179487500034,41.97179487500034,41.97179487500034,41.927094625668055,41.97179487500034,41.97179487500034,41.97179487500034,41.97179487500034,41.97179487500034,47.18895587500083,47.18895587500083,58.40370916699976,None,0,,reldom2_s035,001,2025-03-13_16h55.53.408,What-B-Scan_AC,2022.2.5,None,
1,First_Order,1.0,viswhat,stimulus/viswhat_stim/blank_white.png,stimulus/viswhat_stim/blank_white.png,stimulus/viswhat_stim/water_vehicle-pirateship.png,stimulus/viswhat_stim/water_animal-lobster.png,stimulus/viswhat_stim/blank_white.png,stimulus/viswhat_stim/location_box.png,stimulus/viswhat_stim/location_yes.png,stimulus/viswhat_stim/location_no.png,None,Location,None,Location,1,0.0,0,5.125,0,5.125,0,5.125,0,0.0,0.625,0,0.0,0,0.0,1,0.5,1,2.125,0,0.0,0,0.0,0,0.0,0,0.0,0,,,,,0,1,1,1,,,,,,,,,58.40370916699976,58.40370916699976,58.40370916699976,58.40370916699976,58.40370916699976,58.40370916699976,58.40370916699976,58.40370916699976,58.12142616700148,58.40370916699976,58.40370916699976,58.40370916699976,58.12142616700148,58.40370916699976,58.40370916699976,58.40370916699976,60.428882959000475,,58.40370916699976,58.40370916699976,63.75882025000101,58.836947542000416,59.99659379199875,60.428882959000475,61.58831908399952,58.40370916699976,58.40370916699976,58.27142616700148,58.40370916699976,58.40370916699976,58.40370916699976,58.27142616700148,58.40370916699976,58.40370916699976,63.75882025000101,58.40370916699976,63.75882025000101,63.62007900000026,,58.40370916699976,1,1,1.234484499997052,reldom2_s035,001,2025-03-13_16h55.53.408,What-B-Scan_AC,2022.2.5,None,
2,First_Order,1.0,viswhat,stimulus/viswhat_stim/blank_white.png,stimulus/viswhat_stim/blank_white.png,stimulus/viswhat_stim/land_vehicle-firetruck.png,stimulus/viswhat_stim/water_vehicle-jetski.png,stimulus/viswhat_stim/blank_white.png,stimulus/viswhat_stim/location_box.png,stimulus/viswhat_stim/location_yes.png,stimulus/viswhat_stim/location_no.png,None,Location,None,Type,2,0.0,0,5.125,0,5.125,0,5.125,0,0.0,0.625,0,0.0,0,0.0,1,0.5,1,2.125,0,0.0,0,0.0,0,0.0,0,0.0,0,,,,,0,2,2,2,,,,,,,,,64.40580791699904,64.40580791699904,64.40580791699904,64.40580791699904,64.40580791699904,64.40580791699904,64.40580791699904,64.40580791699904,64.37206395833466,64.40580791699904,64.40580791699904,64.40580791699904,64.37206395833466,64.40580791699904,64.40580791699904,64.40580791699904,66.51305841700014,70.55506012499973,64.40580791699904,64.40580791699904,69.54737525000019,64.87412074999884,65.89845516700007,66.51305841700014,67.52616504199977,64.40580791699904,64.40580791699904,64.38873062500133,64.40580791699904,64.40580791699904,64.40580791699904,64.38873062500133,64.40580791699904,64.40580791699904,69.54737525000019,64.40580791699904,69.54737525000019,69.6226330419995,70.26614791700194,64.40580791699904,2,1,0.9200411249985336,reldom2_s035,001,2025-03-13_16h55.53.408,What-B-Scan_AC,2022.2.5,None,
3,First_Order,1.0,viswhat,stimulus/viswhat_stim/blank_white.png,stimulus/viswhat_stim/blank_white.png,stimulus/viswhat_stim/land_animal-moose.png,stimulus/viswhat_stim/water_animal-jellyfish.png,stimulus/viswhat_stim/blank_white.png,stimulus/viswhat_stim/type_box.png,stimulus/viswhat_stim/type_yes.png,stimulus/viswhat_stim/type_no.png,None,Type,None,Type,1,0.0,0,5.125,0,5.125,0,5.125,0,0.0,0.625,0,0.0,0,0.0,1,0.5,1,2.125,0,0.0,0,0.0,0,0.0,0,0.0,0,,,,,0,3,3,3,,,,,,,,,70.55506012499973,70.55506012499973,70.55506012499973,70.55506012499973,70.55506012499973,70.55506012499973,70.55506012499973,70.55506012499973,70.44251604233189,70.55506012499973,70.55506012499973,70.55506012499973,70.44251604233189,70.55506012499973,70.55506012499973,70.55506012499973,72.64310929199928,,70.55506012499973,70.55506012499973,75.7448731250006,71.03110158400159,72.10561812499873,72.64310929199928,73.71993016700071,70.55506012499973,70.55506012499973,70.50918270899857,70.55506012499973,70.55506012499973,70.55506012499973,70.50918270899857,70.55506012499973,70.55506012499973,75.7448731250006,70.55506012499973,75.7448731250006,75.7448731250006,76.61143758400067,70.55506012499973,1,1,0.6055803339986596,reldom2_s035,001,2025-03-13_16h55.53.408,What-B-Scan_AC,2022.2.5,None,
4,First_Order,1.0,viswhat,stimulus/viswhat_stim/blank_white.png,stimulus/viswhat_stim/blank_white.png,stimulus/viswhat_stim/land_animal-tiger.png,stimulus/viswhat_stim/land_vehicle-rv.png,stimulus/viswhat_stim/blank_white.png,stimulus/viswhat_stim/type_box.png,stimulus/viswhat_stim/type_yes.png,stimulus/viswhat_stim/type_no.png,None,Type,None,Location,2,0.0,0,5.125,0,5.125,0,5.125,0,0.0,0.625,0,0.0,0,0.0,1,0.5,1,2.125,0,0.0,0,0.0,0,0.0,0,0.0,0,,,,,0,4,4,4,,,,,,,,,76.61143758400067,76.61143758400067,76.61143758400067,76.61143758400067,76.61143758400067,76.61143758400067,76.61143758400067,76.61143758400067,76.56284129166549,76.61143758400067,76.61143758400067,76.61143758400067,76.56284129166549,76.61143758400067,76.61143758400067,76.61143758400067,78.7244795000006,82.74914454200189,76.61143758400067,76.61143758400067,81.77877645899935,77.09680229199876,78.13622908400066,78.7244795000006,79.76970124999934,76.61143758400067,76.61143758400067,76.57950795833216,76.61143758400067,76.61143758400067,76.61143758400067,76.57950795833216,76.61143758400067,76.61143758400067,81.77877645899935,76.61143758400067,81.77877645899935,81.8374556250019,82.47814300000027,76.61143758400067,2,1,0.7123585420013114,reldom2_s035,001,2025-03-13_16h55.53.408,What-B-Scan_AC,2022.2.5,None,
0,0.0,None,fixation,stimulus/viswhat_stim/blank_white.png,stimulus/viswhat_stim/blank_white.png,stimulus/audwhat_stim/blank_white.png,stimulus/audwhat_stim/blank_white.png,stimulus/viswhat_stim/blank_white.png,stimulus/viswhat_stim/blank_white.png,stimulus/viswhat_stim/blank_white.png,stimulus/viswhat_stim/blank_white.png,0.0,0.0,0.0,0.0,0,0.0,0,0.0,0,0.0,0,0.0,0,0.0,0.0,0,0.0,0,0.0,0,0.0,0,0.0,0,0.0,0,0.0,0,0.0,0,0.0,9,,,,,0,5,5,5,,,,,,,,,82.74914454200189,82.74914454200189,82.74914454200189,82.74914454200189,82.74914454200189,82.74914454200189,82.74914454200189,82.74914454200189,82.65364129166652,82.74914454200189,82.74914454200189,82.74914454200189,82.65364129166652,82.74914454200189,82.74914454200189,82.74914454200189,82.74914454200189,82.74914454200189,82.74914454200189,82.74914454200189,82.74914454200189,82.74914454200189,82.74914454200189,82.74914454200189,82.74914454200189,82.74914454200189,82.74914454200189,82.70364129166653,82.74914454200189,82.74914454200189,82.74914454200189,82.70364129166653,82.74914454200189,82.74914454200189,82.74914454200189,82.74914454200189,82.74914454200189,87.95556237499841,87.95556237499841,91.89980841700162,None,0,,reldom2_s035,001,2025-03-13_16h55.53.408,What-B-Scan_AC,2022.2.5,None,
5,Second_Order,1.0,viswhat,stimulus/viswhat_stim/land_animal-bunny.png,stimulus/viswhat_stim/land_vehicle-motorcycle.png,stimulus/viswhat_stim/water_animal-octopus.png,stimulus/viswhat_stim/land_animal-fox.png,stimulus/viswhat_stim/match_blank.png,stimulus/viswhat_stim/match_box.png,stimulus/viswhat_stim/match_yes.png,stimulus/viswhat_stim/match_no.png,2.0,Match,Location,Type,2,5.125,0,5.125,0,5.125,0,5.125,0,0.75,0.75,1,0.5,1,2.125,1,0.5,1,2.125,0,0.0,0,0.0,0,0.0,0,0.0,0,,,,,0,6,6,6,,,,,,,,,91.89980841700162,97.02142191700113,92.34675879199858,93.33291629200176,93.96961533400099,94.96691783400092,91.89980841700162,91.89980841700162,91.91209979166767,91.89980841700162,91.89980841700162,91.89980841700162,91.91209979166767,91.89980841700162,97.02142191700113,97.84686829199927,99.90193054200063,,97.84686829199927,97.84686829199927,102.99293062500146,98.28108016699844,99.31011375000162,99.90193054200063,100.93541454200022,97.84686829199927,97.84686829199927,97.82364762566527,97.84686829199927,97.84686829199927,97.84686829199927,97.82364762566527,97.84686829199927,97.84686829199927,102.99293062500146,97.84686829199927,102.99293062500146,103.01899566700013,,97.84686829199927,2,1,0.7517352079994453,reldom2_s035,001,2025-03-13_16h55.53.408,What-B-Scan_AC,2022.2.5,None,
6,Second_Order,1.0,viswhat,stimulus/viswhat_stim/land_vehicle-tank.png,stimulus/viswhat_stim/land_animal-wolf.png,stimulus/viswhat_stim/water_vehicle-motorboatraft.png,stimulus/viswhat_stim/water_animal-squid.png,stimulus/viswhat_stim/match_blank.png,stimulus/viswhat_stim/match_box.png,stimulus/viswhat_stim/match_yes.png,stimulus/viswhat_stim/match_no.png,1.0,Match,Location,Location,1,5.125,0,5.125,0,5.125,0,5.125,0,0.625,0.625,1,0.5,1,2.125,1,0.5,1,2.125,0,0.0,0,0.0,0,0.0,0,0.0,0,,,,,0,7,7,7,,,,,,,,,103.79943937500138,108.920284333999,104.27482979200067,105.26093562499955,105.8958380840013,106.8942954999984,103.79943937500138,103.79943937500138,103.80167883366545,103.79943937500138,103.79943937500138,103.79943937500138,103.80167883366545,103.79943937500138,108.920284333999,109.61705779199838,111.67194154200115,115.73357545899853,109.61705779199838,109.61705779199838,114.77089391700065,110.05828920899876,111.0851703340013,111.67194154200115,112.71091695900031,109.61705779199838,109.61705779199838,109.58372191699964,109.61705779199838,109.61705779199838,109.61705779199838,109.58372191699964,109.61705779199838,109.61705779199838,114.77089391700065,109.61705779199838,114.77089391700065,114.7952397500012,115.43922412499887,109.61705779199838,1,1,0.7416368329977558,reldom2_s035,001,2025-03-13_16h55.53.408,What-B-Scan_AC,2022.2.5,None,
0,0.0,None,fixation,stimulus/viswhat_stim/blank_white.png,stimulus/viswhat_stim/blank_white.png,stimulus/audwhat_stim/blank_white.png,stimulus/audwhat_stim/blank_white.png,stimulus/viswhat_stim/blank_white.png,stimulus/viswhat_stim/blank_white.png,stimulus/viswhat_stim/blank_white.png,stimulus/viswhat_stim/blank_white.png,0.0,0.0,0.0,0.0,0,0.0,0,0.0,0,0.0,0,0.0,0,0.0,0.0,0,0.0,0,0.0,0,0.0,0,0.0,0,0.0,0,0.0,0,0.0,0,0.0,9,,,,,0,8,8,8,,,,,,,,,115.73357545899853,115.73357545899853,115.73357545899853,115.73357545899853,115.73357545899853,115.73357545899853,115.73357545899853,115.73357545899853,115.63465733399934,115.73357545899853,115.73357545899853,115.73357545899853,115.63465733399934,115.73357545899853,115.73357545899853,115.73357545899853,115.73357545899853,115.73357545899853,115.73357545899853,115.73357545899853,115.73357545899853,115.73357545899853,115.73357545899853,115.73357545899853,115.73357545899853,115.73357545899853,115.73357545899853,115.68465733399935,115.73357545899853,115.73357545899853,115.73357545899853,115.68465733399935,115.73357545899853,115.73357545899853,115.73357545899853,115.73357545899853,115.73357545899853,120.9591796249988,120.9591796249988,125.18826766699931,None,0,,reldom2_s035,001,2025-03-13_16h55.53.408,What-B-Scan_AC,2022.2.5,None,
7,First_Order,2.0,viswhat,stimulus/viswhat_stim/blank_white.png,stimulus/viswhat_stim/blank_white.png,stimulus/viswhat_stim/water_animal-lobster.png,stimulus/viswhat_stim/water_vehicle-canoe.png,stimulus/viswhat_stim/blank_white.png,stimulus/viswhat_stim/location_box.png,stimulus/viswhat_stim/location_yes.png,stimulus/viswhat_stim/location_no.png,None,Location,None,Location,1,0.0,0,5.125,0,5.125,0,5.125,0,0.0,0.625,0,0.0,0,0.0,1,0.5,1,2.125,0,0.0,0,0.0,0,0.0,0,0.0,0,,,,,0,9,9,9,,,,,,,,,125.18826766699931,125.18826766699931,125.18826766699931,125.18826766699931,125.18826766699931,125.18826766699931,125.18826766699931,125.18826766699931,124.90743850066671,125.18826766699931,125.18826766699931,125.18826766699931,124.90743850066671,125.18826766699931,125.18826766699931,125.18826766699931,127.28704470899902,,125.18826766699931,125.18826766699931,130.57980404200134,125.63852395900176,126.83827912500055,127.28704470899902,128.48630783399858,125.18826766699931,125.18826766699931,125.04077183400004,125.18826766699931,125.18826766699931,125.18826766699931,125.04077183400004,125.18826766699931,125.18826766699931,130.57980404200134,125.18826766699931,130.57980404200134,130.28453887499927,,125.18826766699931,1,1,0.6104434589979064,reldom2_s035,001,2025-03-13_16h55.53.408,What-B-Scan_AC,2022.2.5,None,
8,First_Order,2.0,viswhat,stimulus/viswhat_stim/blank_white.png,stimulus/viswhat_stim/blank_white.png,stimulus/viswhat_stim/water_animal-jellyfish.png,stimulus/viswhat_stim/land_animal-bunny.png,stimulus/viswhat_stim/blank_white.png,stimulus/viswhat_stim/type_box.png,stimulus/viswhat_stim/type_yes.png,stimulus/viswhat_stim/type_no.png,None,Type,None,Type,1,0.0,0,5.125,0,5.125,0,5.125,0,0.0,0.625,0,0.0,0,0.0,1,0.5,1,2.125,0,0.0,0,0.0,0,0.0,0,0.0,0,,,,,0,10,10,10,,,,,,,,,131.29979133400047,131.29979133400047,131.29979133400047,131.29979133400047,131.29979133400047,131.29979133400047,131.29979133400047,131.29979133400047,131.2175266669998,131.29979133400047,131.29979133400047,131.29979133400047,131.2175266669998,131.29979133400047,131.29979133400047,131.29979133400047,133.39302783400126,,131.29979133400047,131.29979133400047,136.47610558399901,131.77102204200128,132.8179396250016,133.39302783400126,134.4435307499989,131.29979133400047,131.29979133400047,131.25086000033312,131.29979133400047,131.29979133400047,131.29979133400047,131.25086000033312,131.29979133400047,131.29979133400047,136.47610558399901,131.29979133400047,136.47610558399901,136.52289400000154,137.37209308399906,131.29979133400047,1,1,0.6398054169985699,reldom2_s035,001,2025-03-13_16h55.53.408,What-B-Scan_AC,2022.2.5,None,
9,First_Order,2.0,viswhat,stimulus/viswhat_stim/blank_white.png,stimulus/viswhat_stim/blank_white.png,stimulus/viswhat_stim/land_animal-cat.png,stimulus/viswhat_stim/water_animal-whale (1).png,stimulus/viswhat_stim/blank_white.png,stimulus/viswhat_stim/location_box.png,stimulus/viswhat_stim/location_yes.png,stimulus/viswhat_stim/location_no.png,None,Location,None,Type,2,0.0,0,5.125,0,5.125,0,5.125,0,0.0,0.625,0,0.0,0,0.0,1,0.5,1,2.125,0,0.0,0,0.0,0,0.0,0,0.0,0,,,,,0,11,11,11,,,,,,,,,137.37209308399906,137.37209308399906,137.37209308399906,137.37209308399906,137.37209308399906,137.37209308399906,137.37209308399906,137.37209308399906,137.32465908400118,137.37209308399906,137.37209308399906,137.37209308399906,137.32465908400118,137.37209308399906,137.37209308399906,137.37209308399906,139.46638325000094,143.48180599999978,137.37209308399906,137.37209308399906,142.53395575000104,137.85580045900133,138.8876814590003,139.46638325000094,140.50549474999934,137.37209308399906,137.37209308399906,137.34132575066786,137.37209308399906,137.37209308399906,137.37209308399906,137.34132575066786,137.37209308399906,137.37209308399906,142.53395575000104,137.37209308399906,142.53395575000104,142.5873744169985,143.2239786249993,137.37209308399906,2,1,0.7665072079980746,reldom2_s035,001,2025-03-13_16h55.53.408,What-B-Scan_AC,2022.2.5,None,
10,First_Order,2.0,viswhat,stimulus/viswhat_stim/blank_white.png,stimulus/viswhat_stim/blank_white.png,stimulus/viswhat_stim/water_animal-shark.png,stimulus/viswhat_stim/water_vehicle-yacht.png,stimulus/viswhat_stim/blank_white.png,stimulus/viswhat_stim/type_box.png,stimulus/viswhat_stim/type_yes.png,stimulus/viswhat_stim/type_no.png,None,Type,None,Location,2,0.0,0,5.125,0,5.125,0,5.125,0,0.0,0.625,0,0.0,0,0.0,1,0.5,1,2.125,0,0.0,0,0.0,0,0.0,0,0.0,0,,,,,0,12,12,12,,,,,,,,,143.48180599999978,143.48180599999978,143.48180599999978,143.48180599999978,143.48180599999978,143.48180599999978,143.48180599999978,143.48180599999978,143.40266229200063,143.48180599999978,143.48180599999978,143.48180599999978,143.40266229200063,143.48180599999978,143.48180599999978,143.48180599999978,145.5850727090001,,143.48180599999978,143.48180599999978,148.6321887919985,143.9552079999994,144.9848039589997,145.5850727090001,146.61897041699922,143.48180599999978,143.48180599999978,143.4526622920006,143.48180599999978,143.48180599999978,143.48180599999978,143.4526622920006,143.48180599999978,143.48180599999978,148.6321887919985,143.48180599999978,148.6321887919985,148.70613183399837,149.37471324999933,143.48180599999978,2,1,0.7087181249989953,reldom2_s035,001,2025-03-13_16h55.53.408,What-B-Scan_AC,2022.2.5,None,
0,0.0,None,fixation,stimulus/viswhat_stim/blank_white.png,stimulus/viswhat_stim/blank_white.png,stimulus/audwhat_stim/blank_white.png,stimulus/audwhat_stim/blank_white.png,stimulus/viswhat_stim/blank_white.png,stimulus/viswhat_stim/blank_white.png,stimulus/viswhat_stim/blank_white.png,stimulus/viswhat_stim/blank_white.png,0.0,0.0,0.0,0.0,0,0.0,0,0.0,0,0.0,0,0.0,0,0.0,0.0,0,0.0,0,0.0,0,0.0,0,0.0,0,0.0,0,0.0,0,0.0,0,0.0,10,,,,,0,13,13,13,,,,,,,,,149.60304945900134,149.60304945900134,149.60304945900134,149.60304945900134,149.60304945900134,149.60304945900134,149.60304945900134,149.60304945900134,149.50804658333269,149.60304945900134,149.60304945900134,149.60304945900134,149.50804658333269,149.60304945900134,149.60304945900134,149.60304945900134,149.60304945900134,149.60304945900134,149.60304945900134,149.60304945900134,149.60304945900134,149.60304945900134,149.60304945900134,149.60304945900134,149.60304945900134,149.60304945900134,149.60304945900134,149.55804658333267,149.60304945900134,149.60304945900134,149.60304945900134,149.55804658333267,149.60304945900134,149.60304945900134,149.60304945900134,149.60304945900134,149.60304945900134,154.81801041699873,154.81801041699873,159.72978758400131,None,0,,reldom2_s035,001,2025-03-13_16h55.53.408,What-B-Scan_AC,2022.2.5,None,
11,Second_Order,2.0,viswhat,stimulus/viswhat_stim/land_animal-ostrich.png,stimulus/viswhat_stim/water_animal-stingray.png,stimulus/viswhat_stim/water_vehicle-cruiseship.png,stimulus/viswhat_stim/water_animal-seaturtle.png,stimulus/viswhat_stim/match_blank.png,stimulus/viswhat_stim/match_box.png,stimulus/viswhat_stim/match_yes.png,stimulus/viswhat_stim/match_no.png,2.0,Match,Type,Location,2,5.125,0,5.125,0,5.125,0,5.125,0,0.75,0.75,1,0.5,1,2.125,1,0.5,1,2.125,0,0.0,0,0.0,0,0.0,0,0.0,0,,,,,0,14,14,14,,,,,,,,,159.72978758400131,164.84913979200064,160.20444933399995,161.20319437500075,161.8249684170005,162.82353199999852,159.72978758400131,159.72978758400131,159.74169870833262,159.72978758400131,159.72978758400131,159.72978758400131,159.74169870833262,159.72978758400131,164.84913979200064,165.82064866699875,167.84185416699984,,165.82064866699875,165.82064866699875,171.06691737499932,166.22351870900093,167.33731716699913,167.84185416699984,168.95209199999954,165.82064866699875,165.82064866699875,165.73263737499875,165.82064866699875,165.82064866699875,165.82064866699875,165.73263737499875,165.82064866699875,165.82064866699875,171.06691737499932,165.82064866699875,171.06691737499932,170.97189137500027,,165.82064866699875,2,1,0.9230645829993591,reldom2_s035,001,2025-03-13_16h55.53.408,What-B-Scan_AC,2022.2.5,None,
12,Second_Order,2.0,viswhat,stimulus/viswhat_stim/land_animal-ostrich.png,stimulus/viswhat_stim/land_vehicle-oldcar.png,stimulus/viswhat_stim/water_vehicle-ship.png,stimulus/viswhat_stim/land_vehicle-vespa.png,stimulus/viswhat_stim/match_blank.png,stimulus/viswhat_stim/match_box.png,stimulus/viswhat_stim/match_yes.png,stimulus/viswhat_stim/match_no.png,2.0,Match,Location,Type,2,5.125,0,5.125,0,5.125,0,5.125,0,0.625,0.625,1,0.5,1,2.125,1,0.5,1,2.125,0,0.0,0,0.0,0,0.0,0,0.0,0,,,,,0,15,15,15,,,,,,,,,171.767242083999,176.8893064590011,172.2282579169987,173.21739070900003,173.85354516699954,174.8511842500011,171.767242083999,171.767242083999,171.7766724173341,171.767242083999,171.767242083999,171.767242083999,171.7766724173341,171.767242083999,176.8893064590011,177.6684396669989,179.70758387499882,,177.6684396669989,177.6684396669989,182.84418304200153,178.0758875419997,179.16494895900178,179.70758387499882,180.80404579199967,177.6684396669989,177.6684396669989,177.60740445900012,177.6684396669989,177.6684396669989,177.6684396669989,177.60740445900012,177.6684396669989,177.6684396669989,182.84418304200153,177.6684396669989,182.84418304200153,182.84418304200153,183.75229991699962,177.6684396669989,2,1,0.7671644170004583,reldom2_s035,001,2025-03-13_16h55.53.408,What-B-Scan_AC,2022.2.5,None,
0,0.0,None,fixation,stimulus/viswhat_stim/blank_white.png,stimulus/viswhat_stim/blank_white.png,stimulus/audwhat_stim/blank_white.png,stimulus/audwhat_stim/blank_white.png,stimulus/viswhat_stim/blank_white.png,stimulus/viswhat_stim/blank_white.png,stimulus/viswhat_stim/blank_white.png,stimulus/viswhat_stim/blank_white.png,0.0,0.0,0.0,0.0,0,0.0,0,0.0,0,0.0,0,0.0,0,0.0,0.0,0,0.0,0,0.0,0,0.0,0,0.0,0,0.0,0,0.0,0,0.0,0,0.0,9,,,,,0,16,16,16,,,,,,,,,183.75229991699962,183.75229991699962,183.75229991699962,183.75229991699962,183.75229991699962,183.75229991699962,183.75229991699962,183.75229991699962,183.65536487533512,183.75229991699962,183.75229991699962,183.75229991699962,183.65536487533512,183.75229991699962,183.75229991699962,183.75229991699962,183.75229991699962,183.75229991699962,183.75229991699962,183.75229991699962,183.75229991699962,183.75229991699962,183.75229991699962,183.75229991699962,183.75229991699962,183.75229991699962,183.75229991699962,183.70536487533514,183.75229991699962,183.75229991699962,183.75229991699962,183.70536487533514,183.75229991699962,183.75229991699962,183.75229991699962,183.75229991699962,183.75229991699962,188.95555004199923,188.95555004199923,192.9912452919998,None,0,,reldom2_s035,001,2025-03-13_16h55.53.408,What-B-Scan_AC,2022.2.5,None,
13,First_Order,3.0,audwhat,stimulus/audwhat_stim/dummy.wav,stimulus/audwhat_stim/dummy.wav,stimulus/audwhat_stim/percussion mallet_low-pitch_Ftri_loud.wav,stimulus/audwhat_stim/percussion xylophone_high-pitch_Dtri_loud.wav,stimulus/audwhat_stim/blank_white.png,stimulus/audwhat_stim/pitch_box.png,stimulus/audwhat_stim/pitch_yes.png,stimulus/audwhat_stim/pitch_no.png,None,Pitch,None,Category,2,0.0,0,5.125,0,5.125,0,5.125,0,0.0,0.625,0,0.0,0,0.0,0,0.0,0,0.0,0,0.0,0,0.0,1,0.5,1,2.125,0,,,,,0,17,17,17,,,,,,,,,192.9912452919998,192.9912452919998,192.9912452919998,192.9912452919998,192.9912452919998,192.9912452919998,192.9912452919998,192.9912452919998,192.92074633366673,192.9912452919998,192.9912452919998,192.9912452919998,192.92074633366673,192.9912452919998,192.9912452919998,192.9912452919998,195.07036812500155,199.1062669999992,192.9912452919998,192.9912452919998,198.1664756249993,192.9912452919998,192.9912452919998,192.9912452919998,192.9912452919998,193.4532599999984,194.51658729200062,193.42374004166803,,195.07036812500155,196.13701325000147,195.04050525066512,196.09132258400132,192.9912452919998,198.1664756249993,192.9912452919998,198.1664756249993,198.2068994170004,198.8941666669998,192.9912452919998,2,1,1.0935087500001828,reldom2_s035,001,2025-03-13_16h55.53.408,What-B-Scan_AC,2022.2.5,None,
14,First_Order,3.0,audwhat,stimulus/audwhat_stim/dummy.wav,stimulus/audwhat_stim/dummy.wav,stimulus/audwhat_stim/string cello_low-pitch_D_loud.wav,stimulus/audwhat_stim/percussion mallet_low-pitch_D_loud.wav,stimulus/audwhat_stim/blank_white.png,stimulus/audwhat_stim/pitch_box.png,stimulus/audwhat_stim/pitch_yes.png,stimulus/audwhat_stim/pitch_no.png,None,Pitch,None,Pitch,1,0.0,0,5.125,0,5.125,0,5.125,0,0.0,0.625,0,0.0,0,0.0,0,0.0,0,0.0,0,0.0,0,0.0,1,0.5,1,2.125,0,,,,,0,18,18,18,,,,,,,,,199.1062669999992,199.1062669999992,199.1062669999992,199.1062669999992,199.1062669999992,199.1062669999992,199.1062669999992,199.1062669999992,199.02750000033316,199.1062669999992,199.1062669999992,199.1062669999992,199.02750000033316,199.1062669999992,199.1062669999992,199.1062669999992,201.19343412500166,,199.1062669999992,199.1062669999992,204.29994441700183,199.1062669999992,199.1062669999992,199.1062669999992,199.1062669999992,199.57184908400086,200.6391005000005,199.5418835416679,,201.19343412500166,202.2599367920011,201.16352950066747,,199.1062669999992,204.29994441700183,199.1062669999992,204.29994441700183,204.29994441700183,204.95011987500038,199.1062669999992,2,0,1.733278125000652,reldom2_s035,001,2025-03-13_16h55.53.408,What-B-Scan_AC,2022.2.5,None,
15,First_Order,3.0,audwhat,stimulus/audwhat_stim/dummy.wav,stimulus/audwhat_stim/dummy.wav,stimulus/audwhat_stim/string cello_high-pitch_D_loud.wav,stimulus/audwhat_stim/string cello_low-pitch_Ftri_loud.wav,stimulus/audwhat_stim/blank_white.png,stimulus/audwhat_stim/category_box.png,stimulus/audwhat_stim/category_yes.png,stimulus/audwhat_stim/category_no.png,None,Category,None,Category,1,0.0,0,5.125,0,5.125,0,5.125,0,0.0,0.625,0,0.0,0,0.0,0,0.0,0,0.0,0,0.0,0,0.0,1,0.5,1,2.125,0,,,,,0,19,19,19,,,,,,,,,205.20211800000106,205.20211800000106,205.20211800000106,205.20211800000106,205.20211800000106,205.20211800000106,205.20211800000106,205.20211800000106,205.12346958333197,205.20211800000106,205.20211800000106,205.20211800000106,205.12346958333197,205.20211800000106,205.20211800000106,205.20211800000106,207.2955732920018,211.31812345900107,205.20211800000106,205.20211800000106,210.36962745900018,205.20211800000106,205.20211800000106,205.20211800000106,205.20211800000106,205.66718604199923,206.73757229200055,205.6373270416664,,207.2955732920018,208.36987745900115,207.26525562566556,,205.20211800000106,210.36962745900018,205.20211800000106,210.36962745900018,210.4109016250004,211.06481608399918,205.20211800000106,1,1,1.2410512079986802,reldom2_s035,001,2025-03-13_16h55.53.408,What-B-Scan_AC,2022.2.5,None,
16,First_Order,3.0,audwhat,stimulus/audwhat_stim/dummy.wav,stimulus/audwhat_stim/dummy.wav,stimulus/audwhat_stim/string viola_low-pitch_F_loud.wav,stimulus/audwhat_stim/percussion mallet_low-pitch_F_loud.wav,stimulus/audwhat_stim/blank_white.png,stimulus/audwhat_stim/category_box.png,stimulus/audwhat_stim/category_yes.png,stimulus/audwhat_stim/category_no.png,None,Category,None,Pitch,2,0.0,0,5.125,0,5.125,0,5.125,0,0.0,0.625,0,0.0,0,0.0,0,0.0,0,0.0,0,0.0,0,0.0,1,0.5,1,2.125,0,,,,,0,20,20,20,,,,,,,,,211.31812345900107,211.31812345900107,211.31812345900107,211.31812345900107,211.31812345900107,211.31812345900107,211.31812345900107,211.31812345900107,211.23874450033523,211.31812345900107,211.31812345900107,211.31812345900107,211.23874450033523,211.31812345900107,211.31812345900107,211.31812345900107,213.41266137500133,217.46044370899835,211.31812345900107,211.31812345900107,216.4915917090002,211.31812345900107,211.31812345900107,211.31812345900107,211.31812345900107,211.7842765839996,212.85392983400016,211.75343175066544,,213.41266137500133,214.48781866699937,213.38260558366554,,211.31812345900107,216.4915917090002,211.31812345900107,216.4915917090002,216.5328276250002,217.1874959170018,211.31812345900107,2,1,1.6904572079984064,reldom2_s035,001,2025-03-13_16h55.53.408,What-B-Scan_AC,2022.2.5,None,
0,0.0,None,fixation,stimulus/viswhat_stim/blank_white.png,stimulus/viswhat_stim/blank_white.png,stimulus/audwhat_stim/blank_white.png,stimulus/audwhat_stim/blank_white.png,stimulus/viswhat_stim/blank_white.png,stimulus/viswhat_stim/blank_white.png,stimulus/viswhat_stim/blank_white.png,stimulus/viswhat_stim/blank_white.png,0.0,0.0,0.0,0.0,0,0.0,0,0.0,0,0.0,0,0.0,0,0.0,0.0,0,0.0,0,0.0,0,0.0,0,0.0,0,0.0,0,0.0,0,0.0,0,0.0,9,,,,,0,21,21,21,,,,,,,,,217.46044370899835,217.46044370899835,217.46044370899835,217.46044370899835,217.46044370899835,217.46044370899835,217.46044370899835,217.46044370899835,217.36092595833375,217.46044370899835,217.46044370899835,217.46044370899835,217.36092595833375,217.46044370899835,217.46044370899835,217.46044370899835,217.46044370899835,217.46044370899835,217.46044370899835,217.46044370899835,217.46044370899835,217.46044370899835,217.46044370899835,217.46044370899835,217.46044370899835,217.46044370899835,217.46044370899835,217.41092595833373,217.46044370899835,217.46044370899835,217.46044370899835,217.41092595833373,217.46044370899835,217.46044370899835,217.46044370899835,217.46044370899835,217.46044370899835,222.69533491699985,222.69533491699985,226.62823141699846,None,0,,reldom2_s035,001,2025-03-13_16h55.53.408,What-B-Scan_AC,2022.2.5,None,
17,Second_Order,3.0,audwhat,stimulus/audwhat_stim/percussion mallet_high-pitch_Ftri_loud.wav,stimulus/audwhat_stim/string cello_high-pitch_Ftri_loud.wav,stimulus/audwhat_stim/percussion mallet_low-pitch_D_loud.wav,stimulus/audwhat_stim/string viola_low-pitch_D_loud.wav,stimulus/viswhat_stim/match_blank.png,stimulus/viswhat_stim/match_box.png,stimulus/viswhat_stim/match_yes.png,stimulus/viswhat_stim/match_no.png,1.0,Match,Pitch,Pitch,1,5.125,0,5.125,0,5.125,0,5.125,0,0.75,0.75,0,0.0,0,0.0,0,0.0,0,0.0,1,0.5,1,2.125,1,0.5,1,2.125,0,,,,,0,22,22,22,,,,,,,,,226.62823141699846,231.74924679200194,226.62823141699846,226.62823141699846,226.62823141699846,226.62823141699846,227.07347674999983,228.06096566699853,227.08797562566568,,228.7129858340013,229.7113192500001,228.72558879166561,,231.74924679200194,232.6016407499992,234.66678266700183,,232.6016407499992,232.6016407499992,237.76007895899966,232.6016407499992,232.6016407499992,232.6016407499992,232.6016407499992,233.05794345899994,234.1145482920001,233.02825083366795,,234.66678266700183,235.7293792499986,234.6369873756669,,232.6016407499992,237.76007895899966,232.6016407499992,237.76007895899966,237.76007895899966,,232.6016407499992,1,1,1.0933012919995235,reldom2_s035,001,2025-03-13_16h55.53.408,What-B-Scan_AC,2022.2.5,None,
18,Second_Order,3.0,audwhat,stimulus/audwhat_stim/percussion mallet_high-pitch_Dtri_loud.wav,stimulus/audwhat_stim/string cello_high-pitch_Dtri_loud.wav,stimulus/audwhat_stim/string viola_low-pitch_Ftri_loud.wav,stimulus/audwhat_stim/percussion mallet_low-pitch_Ftri_loud.wav,stimulus/viswhat_stim/match_blank.png,stimulus/viswhat_stim/match_box.png,stimulus/viswhat_stim/match_yes.png,stimulus/viswhat_stim/match_no.png,1.0,Match,Pitch,Pitch,1,5.125,0,5.125,0,5.125,0,5.125,0,0.625,0.625,0,0.0,0,0.0,0,0.0,0,0.0,1,0.5,1,2.125,1,0.5,1,2.125,0,,,,,0,23,23,23,,,,,,,,,238.56944724999994,243.68104999999923,238.56944724999994,238.56944724999994,238.56944724999994,238.56944724999994,239.0181477090009,240.00634441700095,239.03241891666792,,240.65322466699945,241.64232683400041,240.6567077086659,,243.68104999999923,244.41204454200124,246.46713695899962,,244.41204454200124,244.41204454200124,249.58493216699935,244.41204454200124,244.41204454200124,244.41204454200124,244.41204454200124,244.86537804199907,245.91740654200112,244.8360027506681,,246.46713695899962,247.52344562500002,246.4376499586654,,244.41204454200124,249.58493216699935,244.41204454200124,249.58493216699935,249.58493216699935,250.26966779199938,244.41204454200124,1,1,1.406327415996202,reldom2_s035,001,2025-03-13_16h55.53.408,What-B-Scan_AC,2022.2.5,None,
0,0.0,None,fixation,stimulus/viswhat_stim/blank_white.png,stimulus/viswhat_stim/blank_white.png,stimulus/audwhat_stim/blank_white.png,stimulus/audwhat_stim/blank_white.png,stimulus/viswhat_stim/blank_white.png,stimulus/viswhat_stim/blank_white.png,stimulus/viswhat_stim/blank_white.png,stimulus/viswhat_stim/blank_white.png,0.0,0.0,0.0,0.0,0,0.0,0,0.0,0,0.0,0,0.0,0,0.0,0.0,0,0.0,0,0.0,0,0.0,0,0.0,0,0.0,0,0.0,0,0.0,0,0.0,8,,,,,0,24,24,24,,,,,,,,,250.50017879200095,250.50017879200095,250.50017879200095,250.50017879200095,250.50017879200095,250.50017879200095,250.50017879200095,250.50017879200095,250.40300112533274,250.50017879200095,250.50017879200095,250.50017879200095,250.40300112533274,250.50017879200095,250.50017879200095,250.50017879200095,250.50017879200095,250.50017879200095,250.50017879200095,250.50017879200095,250.50017879200095,250.50017879200095,250.50017879200095,250.50017879200095,250.50017879200095,250.50017879200095,250.50017879200095,250.45300112533272,250.50017879200095,250.50017879200095,250.50017879200095,250.45300112533272,250.50017879200095,250.50017879200095,250.50017879200095,250.50017879200095,250.50017879200095,255.7244395000016,255.7244395000016,258.7659564589994,None,0,,reldom2_s035,001,2025-03-13_16h55.53.408,What-B-Scan_AC,2022.2.5,None,
19,First_Order,4.0,audwhat,stimulus/audwhat_stim/dummy.wav,stimulus/audwhat_stim/dummy.wav,stimulus/audwhat_stim/percussion mallet_low-pitch_Ftri_loud.wav,stimulus/audwhat_stim/string viola_low-pitch_Ftri_loud.wav,stimulus/audwhat_stim/blank_white.png,stimulus/audwhat_stim/pitch_box.png,stimulus/audwhat_stim/pitch_yes.png,stimulus/audwhat_stim/pitch_no.png,None,Pitch,None,Pitch,1,0.0,0,5.125,0,5.125,0,5.125,0,0.0,0.625,0,0.0,0,0.0,0,0.0,0,0.0,0,0.0,0,0.0,1,0.5,1,2.125,0,,,,,0,25,25,25,,,,,,,,,258.7659564589994,258.7659564589994,258.7659564589994,258.7659564589994,258.7659564589994,258.7659564589994,258.7659564589994,258.7659564589994,258.69462004166655,258.7659564589994,258.7659564589994,258.7659564589994,258.69462004166655,258.7659564589994,258.7659564589994,258.7659564589994,260.84357583400197,264.89282654199997,258.7659564589994,258.7659564589994,263.94499729200106,258.7659564589994,258.7659564589994,258.7659564589994,258.7659564589994,259.22885416699864,260.29106700000193,259.1988890836658,,260.84357583400197,261.9116610000019,260.81403750066625,,258.7659564589994,263.94499729200106,258.7659564589994,263.94499729200106,263.98595162499987,264.6389737499994,258.7659564589994,1,1,2.230288124999788,reldom2_s035,001,2025-03-13_16h55.53.408,What-B-Scan_AC,2022.2.5,None,
20,First_Order,4.0,audwhat,stimulus/audwhat_stim/dummy.wav,stimulus/audwhat_stim/dummy.wav,stimulus/audwhat_stim/string viola_low-pitch_F_loud.wav,stimulus/audwhat_stim/string cello_high-pitch_Ftri_loud.wav,stimulus/audwhat_stim/blank_white.png,stimulus/audwhat_stim/category_box.png,stimulus/audwhat_stim/category_yes.png,stimulus/audwhat_stim/category_no.png,None,Category,None,Category,1,0.0,0,5.125,0,5.125,0,5.125,0,0.0,0.625,0,0.0,0,0.0,0,0.0,0,0.0,0,0.0,0,0.0,1,0.5,1,2.125,0,,,,,0,26,26,26,,,,,,,,,264.89282654199997,264.89282654199997,264.89282654199997,264.89282654199997,264.89282654199997,264.89282654199997,264.89282654199997,264.89282654199997,264.8130303333329,264.89282654199997,264.89282654199997,264.89282654199997,264.8130303333329,264.89282654199997,264.89282654199997,264.89282654199997,266.9884154169995,271.0097141670012,264.89282654199997,264.89282654199997,270.0613204170004,264.89282654199997,264.89282654199997,264.89282654199997,264.89282654199997,265.35902575,266.43167870899924,265.3288074166669,,266.9884154169995,268.0623755000015,266.95827650066735,,264.89282654199997,270.0613204170004,264.89282654199997,270.0613204170004,270.1023303340007,270.75630375000037,264.89282654199997,1,1,0.948381457998039,reldom2_s035,001,2025-03-13_16h55.53.408,What-B-Scan_AC,2022.2.5,None,
21,First_Order,4.0,audwhat,stimulus/audwhat_stim/dummy.wav,stimulus/audwhat_stim/dummy.wav,stimulus/audwhat_stim/string viola_high-pitch_F_loud.wav,stimulus/audwhat_stim/percussion mallet_high-pitch_F_loud.wav,stimulus/audwhat_stim/blank_white.png,stimulus/audwhat_stim/category_box.png,stimulus/audwhat_stim/category_yes.png,stimulus/audwhat_stim/category_no.png,None,Category,None,Pitch,2,0.0,0,5.125,0,5.125,0,5.125,0,0.0,0.625,0,0.0,0,0.0,0,0.0,0,0.0,0,0.0,0,0.0,1,0.5,1,2.125,0,,,,,0,27,27,27,,,,,,,,,271.0097141670012,271.0097141670012,271.0097141670012,271.0097141670012,271.0097141670012,271.0097141670012,271.0097141670012,271.0097141670012,270.93054929233233,271.0097141670012,271.0097141670012,271.0097141670012,270.93054929233233,271.0097141670012,271.0097141670012,271.0097141670012,273.1071269999993,277.1303782089999,271.0097141670012,271.0097141670012,276.1832784590006,271.0097141670012,271.0097141670012,271.0097141670012,271.0097141670012,271.47473750000063,272.5469983340008,271.4443144166655,,273.1071269999993,274.13789924999946,273.0769758336685,,271.0097141670012,276.1832784590006,271.0097141670012,276.1832784590006,276.22421829200175,276.8766050000013,271.0097141670012,2,1,0.6581887079992157,reldom2_s035,001,2025-03-13_16h55.53.408,What-B-Scan_AC,2022.2.5,None,
22,First_Order,4.0,audwhat,stimulus/audwhat_stim/dummy.wav,stimulus/audwhat_stim/dummy.wav,stimulus/audwhat_stim/percussion xylophone_high-pitch_D_loud.wav,stimulus/audwhat_stim/percussion mallet_low-pitch_F_loud.wav,stimulus/audwhat_stim/blank_white.png,stimulus/audwhat_stim/pitch_box.png,stimulus/audwhat_stim/pitch_yes.png,stimulus/audwhat_stim/pitch_no.png,None,Pitch,None,Category,2,0.0,0,5.125,0,5.125,0,5.125,0,0.0,0.625,0,0.0,0,0.0,0,0.0,0,0.0,0,0.0,0,0.0,1,0.5,1,2.125,0,,,,,0,28,28,28,,,,,,,,,277.1303782089999,277.1303782089999,277.1303782089999,277.1303782089999,277.1303782089999,277.1303782089999,277.1303782089999,277.1303782089999,277.05093000033423,277.1303782089999,277.1303782089999,277.1303782089999,277.05093000033423,277.1303782089999,277.1303782089999,277.1303782089999,279.22287100000176,,277.1303782089999,277.1303782089999,282.29045370899985,277.1303782089999,277.1303782089999,277.1303782089999,277.1303782089999,277.59660587500184,278.6660632089988,277.5666361666665,278.61957758399876,279.22287100000176,280.29515629199886,279.1930245006663,,277.1303782089999,282.29045370899985,277.1303782089999,282.29045370899985,282.3316994589986,282.98516200000086,277.1303782089999,2,1,1.98593824999989,reldom2_s035,001,2025-03-13_16h55.53.408,What-B-Scan_AC,2022.2.5,None,
0,0.0,None,fixation,stimulus/viswhat_stim/blank_white.png,stimulus/viswhat_stim/blank_white.png,stimulus/audwhat_stim/blank_white.png,stimulus/audwhat_stim/blank_white.png,stimulus/viswhat_stim/blank_white.png,stimulus/viswhat_stim/blank_white.png,stimulus/viswhat_stim/blank_white.png,stimulus/viswhat_stim/blank_white.png,0.0,0.0,0.0,0.0,0,0.0,0,0.0,0,0.0,0,0.0,0,0.0,0.0,0,0.0,0,0.0,0,0.0,0,0.0,0,0.0,0,0.0,0,0.0,0,0.0,10,,,,,0,29,29,29,,,,,,,,,283.2572730419997,283.2572730419997,283.2572730419997,283.2572730419997,283.2572730419997,283.2572730419997,283.2572730419997,283.2572730419997,283.1595869173344,283.2572730419997,283.2572730419997,283.2572730419997,283.1595869173344,283.2572730419997,283.2572730419997,283.2572730419997,283.2572730419997,283.2572730419997,283.2572730419997,283.2572730419997,283.2572730419997,283.2572730419997,283.2572730419997,283.2572730419997,283.2572730419997,283.2572730419997,283.2572730419997,283.20958691733443,283.2572730419997,283.2572730419997,283.2572730419997,283.20958691733443,283.2572730419997,283.2572730419997,283.2572730419997,283.2572730419997,283.2572730419997,288.48433395900065,288.48433395900065,293.43023254199943,None,0,,reldom2_s035,001,2025-03-13_16h55.53.408,What-B-Scan_AC,2022.2.5,None,
23,Second_Order,4.0,audwhat,stimulus/audwhat_stim/percussion mallet_high-pitch_Ftri_loud.wav,stimulus/audwhat_stim/percussion mallet_low-pitch_Dtri_loud.wav,stimulus/audwhat_stim/percussion mallet_high-pitch_D_loud.wav,stimulus/audwhat_stim/string viola_high-pitch_D_loud.wav,stimulus/viswhat_stim/match_blank.png,stimulus/viswhat_stim/match_box.png,stimulus/viswhat_stim/match_yes.png,stimulus/viswhat_stim/match_no.png,2.0,Match,Category,Pitch,2,5.125,0,5.125,0,5.125,0,5.125,0,0.75,0.75,0,0.0,0,0.0,0,0.0,0,0.0,1,0.5,1,2.125,1,0.5,1,2.125,0,,,,,0,30,30,30,,,,,,,,,293.43023254199943,298.55377299999964,293.43023254199943,293.43023254199943,293.43023254199943,293.43023254199943,293.87978741700135,294.8786260839988,293.8924936666665,,295.5132751249985,296.5024505000001,295.51757625066625,296.5157527090014,298.55377299999964,299.40537495899844,301.47640279199913,,299.40537495899844,299.40537495899844,304.57216520899965,299.40537495899844,299.40537495899844,299.40537495899844,299.40537495899844,299.82063470900175,300.87682312499965,299.7905032916681,,301.47640279199913,302.5400154589988,301.4466290006678,,299.40537495899844,304.57216520899965,299.40537495899844,304.57216520899965,304.57216520899965,,299.40537495899844,2,1,0.8833149999991292,reldom2_s035,001,2025-03-13_16h55.53.408,What-B-Scan_AC,2022.2.5,None,
24,Second_Order,4.0,audwhat,stimulus/audwhat_stim/string viola_high-pitch_Dtri_loud.wav,stimulus/audwhat_stim/percussion mallet_high-pitch_Dtri_loud.wav,stimulus/audwhat_stim/string cello_low-pitch_Dtri_loud.wav,stimulus/audwhat_stim/string viola_high-pitch_Ftri_loud.wav,stimulus/viswhat_stim/match_blank.png,stimulus/viswhat_stim/match_box.png,stimulus/viswhat_stim/match_yes.png,stimulus/viswhat_stim/match_no.png,2.0,Match,Pitch,Category,2,5.125,0,5.125,0,5.125,0,5.125,0,0.625,0.625,0,0.0,0,0.0,0,0.0,0,0.0,1,0.5,1,2.125,1,0.5,1,2.125,0,,,,,0,31,31,31,,,,,,,,,305.3809613750018,310.5028118750015,305.3809613750018,305.3809613750018,305.3809613750018,305.3809613750018,305.84107674999905,306.83968441699835,305.85397745866817,,307.4614708340014,308.459932709,307.4740399586665,,310.5028118750015,311.2320340840015,313.28561754199836,,311.2320340840015,311.2320340840015,316.4101153750016,311.2320340840015,311.2320340840015,311.2320340840015,311.2320340840015,311.6857866249993,312.7379230000006,311.657183583666,,313.28561754199836,314.3445394590017,313.2563245836684,,311.2320340840015,316.4101153750016,311.2320340840015,316.4101153750016,316.4101153750016,317.09577645899844,311.2320340840015,1,0,1.8220279159977508,reldom2_s035,001,2025-03-13_16h55.53.408,What-B-Scan_AC,2022.2.5,None,
0,0.0,None,fixation,stimulus/viswhat_stim/blank_white.png,stimulus/viswhat_stim/blank_white.png,stimulus/audwhat_stim/blank_white.png,stimulus/audwhat_stim/blank_white.png,stimulus/viswhat_stim/blank_white.png,stimulus/viswhat_stim/blank_white.png,stimulus/viswhat_stim/blank_white.png,stimulus/viswhat_stim/blank_white.png,0.0,0.0,0.0,0.0,0,0.0,0,0.0,0,0.0,0,0.0,0,0.0,0.0,0,0.0,0,0.0,0,0.0,0,0.0,0,0.0,0,0.0,0,0.0,0,0.0,9,,,,,0,32,32,32,,,,,,,,,317.32645400000183,317.32645400000183,317.32645400000183,317.32645400000183,317.32645400000183,317.32645400000183,317.32645400000183,317.32645400000183,317.22910979233177,317.32645400000183,317.32645400000183,317.32645400000183,317.22910979233177,317.32645400000183,317.32645400000183,317.32645400000183,317.32645400000183,317.32645400000183,317.32645400000183,317.32645400000183,317.32645400000183,317.32645400000183,317.32645400000183,317.32645400000183,317.32645400000183,317.32645400000183,317.32645400000183,317.2791097923318,317.32645400000183,317.32645400000183,317.32645400000183,317.2791097923318,317.32645400000183,317.32645400000183,317.32645400000183,317.32645400000183,317.32645400000183,322.552226374999,322.552226374999,326.5847628750016,None,0,,reldom2_s035,001,2025-03-13_16h55.53.408,What-B-Scan_AC,2022.2.5,None,
25,First_Order,5.0,viswhat,stimulus/viswhat_stim/blank_white.png,stimulus/viswhat_stim/blank_white.png,stimulus/viswhat_stim/land_animal-elephant.png,stimulus/viswhat_stim/land_vehicle-firetruck.png,stimulus/viswhat_stim/blank_white.png,stimulus/viswhat_stim/location_box.png,stimulus/viswhat_stim/location_yes.png,stimulus/viswhat_stim/location_no.png,None,Location,None,Location,1,0.0,0,5.125,0,5.125,0,5.125,0,0.0,0.625,0,0.0,0,0.0,1,0.5,1,2.125,0,0.0,0,0.0,0,0.0,0,0.0,0,,,,,0,33,33,33,,,,,,,,,326.5847628750016,326.5847628750016,326.5847628750016,326.5847628750016,326.5847628750016,326.5847628750016,326.5847628750016,326.5847628750016,326.4848402916674,326.5847628750016,326.5847628750016,326.5847628750016,326.4848402916674,326.5847628750016,326.5847628750016,326.5847628750016,328.6589768750018,,326.5847628750016,326.5847628750016,331.8014817500007,327.0593617919985,328.12731270899894,328.6589768750018,329.73053266699935,326.5847628750016,326.5847628750016,326.5348402916674,326.5847628750016,326.5847628750016,326.5847628750016,326.5348402916674,326.5847628750016,326.5847628750016,331.8014817500007,326.5847628750016,331.8014817500007,331.8014817500007,332.6329403749987,326.5847628750016,1,1,1.1066192500002217,reldom2_s035,001,2025-03-13_16h55.53.408,What-B-Scan_AC,2022.2.5,None,
26,First_Order,5.0,viswhat,stimulus/viswhat_stim/blank_white.png,stimulus/viswhat_stim/blank_white.png,stimulus/viswhat_stim/land_vehicle-tank.png,stimulus/viswhat_stim/land_animal-pig.png,stimulus/viswhat_stim/blank_white.png,stimulus/viswhat_stim/type_box.png,stimulus/viswhat_stim/type_yes.png,stimulus/viswhat_stim/type_no.png,None,Type,None,Location,2,0.0,0,5.125,0,5.125,0,5.125,0,0.0,0.625,0,0.0,0,0.0,1,0.5,1,2.125,0,0.0,0,0.0,0,0.0,0,0.0,0,,,,,0,34,34,34,,,,,,,,,332.6329403749987,332.6329403749987,332.6329403749987,332.6329403749987,332.6329403749987,332.6329403749987,332.6329403749987,332.6329403749987,332.60961437566823,332.6329403749987,332.6329403749987,332.6329403749987,332.60961437566823,332.6329403749987,332.6329403749987,332.6329403749987,334.74564391700187,338.7864224590012,332.6329403749987,332.6329403749987,337.7663495000015,333.11793741699876,334.1329188339987,334.74564391700187,335.7629279590001,332.6329403749987,332.6329403749987,332.62628104233494,332.6329403749987,332.6329403749987,332.6329403749987,332.62628104233494,332.6329403749987,332.6329403749987,337.7663495000015,332.6329403749987,337.7663495000015,337.84844429200166,338.4813070839991,332.6329403749987,2,1,1.4072517500026152,reldom2_s035,001,2025-03-13_16h55.53.408,What-B-Scan_AC,2022.2.5,None,
27,First_Order,5.0,viswhat,stimulus/viswhat_stim/blank_white.png,stimulus/viswhat_stim/blank_white.png,stimulus/viswhat_stim/land_animal-moose.png,stimulus/viswhat_stim/land_vehicle-vespa.png,stimulus/viswhat_stim/blank_white.png,stimulus/viswhat_stim/location_box.png,stimulus/viswhat_stim/location_yes.png,stimulus/viswhat_stim/location_no.png,None,Location,None,Location,1,0.0,0,5.125,0,5.125,0,5.125,0,0.0,0.625,0,0.0,0,0.0,1,0.5,1,2.125,0,0.0,0,0.0,0,0.0,0,0.0,0,,,,,0,35,35,35,,,,,,,,,338.7864224590012,338.7864224590012,338.7864224590012,338.7864224590012,338.7864224590012,338.7864224590012,338.7864224590012,338.7864224590012,338.6641553333332,338.7864224590012,338.7864224590012,338.7864224590012,338.6641553333332,338.7864224590012,338.7864224590012,338.7864224590012,340.862230499999,,338.7864224590012,338.7864224590012,344.0043736250009,339.2543466669995,340.32728808400134,340.862230499999,341.936092584001,338.7864224590012,338.7864224590012,338.7308219999999,338.7864224590012,338.7864224590012,338.7864224590012,338.7308219999999,338.7864224590012,338.7864224590012,344.0043736250009,338.7864224590012,344.0043736250009,344.0043736250009,344.88848695900015,338.7864224590012,1,1,0.6786644579988206,reldom2_s035,001,2025-03-13_16h55.53.408,What-B-Scan_AC,2022.2.5,None,
28,First_Order,5.0,viswhat,stimulus/viswhat_stim/blank_white.png,stimulus/viswhat_stim/blank_white.png,stimulus/viswhat_stim/land_animal-giraffe.png,stimulus/viswhat_stim/water_animal-squid.png,stimulus/viswhat_stim/blank_white.png,stimulus/viswhat_stim/location_box.png,stimulus/viswhat_stim/location_yes.png,stimulus/viswhat_stim/location_no.png,None,Location,None,Type,2,0.0,0,5.125,0,5.125,0,5.125,0,0.0,0.625,0,0.0,0,0.0,1,0.5,1,2.125,0,0.0,0,0.0,0,0.0,0,0.0,0,,,,,0,36,36,36,,,,,,,,,344.88848695900015,344.88848695900015,344.88848695900015,344.88848695900015,344.88848695900015,344.88848695900015,344.88848695900015,344.88848695900015,344.7988799583317,344.88848695900015,344.88848695900015,344.88848695900015,344.7988799583317,344.88848695900015,344.88848695900015,344.88848695900015,346.99410575,,344.88848695900015,344.88848695900015,350.0949849589997,345.3313035840001,346.3859584999991,346.99410575,348.0515730840016,344.88848695900015,344.88848695900015,344.8488799583317,344.88848695900015,344.88848695900015,344.88848695900015,344.8488799583317,344.88848695900015,344.88848695900015,350.0949849589997,344.88848695900015,350.0949849589997,350.0949849589997,350.99057025,344.88848695900015,2,1,0.5290802079980494,reldom2_s035,001,2025-03-13_16h55.53.408,What-B-Scan_AC,2022.2.5,None,
0,0.0,None,fixation,stimulus/viswhat_stim/blank_white.png,stimulus/viswhat_stim/blank_white.png,stimulus/audwhat_stim/blank_white.png,stimulus/audwhat_stim/blank_white.png,stimulus/viswhat_stim/blank_white.png,stimulus/viswhat_stim/blank_white.png,stimulus/viswhat_stim/blank_white.png,stimulus/viswhat_stim/blank_white.png,0.0,0.0,0.0,0.0,0,0.0,0,0.0,0,0.0,0,0.0,0,0.0,0.0,0,0.0,0,0.0,0,0.0,0,0.0,0,0.0,0,0.0,0,0.0,0,0.0,9,,,,,0,37,37,37,,,,,,,,,350.99057025,350.99057025,350.99057025,350.99057025,350.99057025,350.99057025,350.99057025,350.99057025,350.888617125,350.99057025,350.99057025,350.99057025,350.888617125,350.99057025,350.99057025,350.99057025,350.99057025,350.99057025,350.99057025,350.99057025,350.99057025,350.99057025,350.99057025,350.99057025,350.99057025,350.99057025,350.99057025,350.938617125,350.99057025,350.99057025,350.99057025,350.938617125,350.99057025,350.99057025,350.99057025,350.99057025,350.99057025,356.17637483400176,356.17637483400176,360.1467525420012,None,0,,reldom2_s035,001,2025-03-13_16h55.53.408,What-B-Scan_AC,2022.2.5,None,
29,Second_Order,5.0,viswhat,stimulus/viswhat_stim/water_vehicle-pirateship.png,stimulus/viswhat_stim/land_vehicle-schoolbus.png,stimulus/viswhat_stim/water_animal-dolphin.png,stimulus/viswhat_stim/land_animal-cat.png,stimulus/viswhat_stim/match_blank.png,stimulus/viswhat_stim/match_box.png,stimulus/viswhat_stim/match_yes.png,stimulus/viswhat_stim/match_no.png,1.0,Match,Type,Type,1,5.125,0,5.125,0,5.125,0,5.125,0,0.75,0.75,1,0.5,1,2.125,1,0.5,1,2.125,0,0.0,0,0.0,0,0.0,0,0.0,0,,,,,0,38,38,38,,,,,,,,,360.1467525420012,365.26207508399966,360.61757008399945,361.6160437090002,362.23861704199953,363.2364587500015,360.1467525420012,360.1467525420012,360.15451762533314,360.1467525420012,360.1467525420012,360.1467525420012,360.15451762533314,360.1467525420012,365.26207508399966,366.0829987500001,368.160692417001,,366.0829987500001,366.0829987500001,371.2364845839984,366.5296535000016,367.55127491700114,368.160692417001,369.189751124999,366.0829987500001,366.0829987500001,366.04662691699997,366.0829987500001,366.0829987500001,366.0829987500001,366.04662691699997,366.0829987500001,366.0829987500001,371.2364845839984,366.0829987500001,371.2364845839984,371.26291508400027,,366.0829987500001,1,1,0.9582629579999775,reldom2_s035,001,2025-03-13_16h55.53.408,What-B-Scan_AC,2022.2.5,None,
30,Second_Order,5.0,viswhat,stimulus/viswhat_stim/water_animal-orka.png,stimulus/viswhat_stim/land_animal-bunny.png,stimulus/viswhat_stim/land_vehicle-motorcycle.png,stimulus/viswhat_stim/water_vehicle-motorboatraft.png,stimulus/viswhat_stim/match_blank.png,stimulus/viswhat_stim/match_box.png,stimulus/viswhat_stim/match_yes.png,stimulus/viswhat_stim/match_no.png,1.0,Match,Type,Type,1,5.125,0,5.125,0,5.125,0,5.125,0,0.625,0.625,1,0.5,1,2.125,1,0.5,1,2.125,0,0.0,0,0.0,0,0.0,0,0.0,0,,,,,0,39,39,39,,,,,,,,,372.1086849589992,377.22327541699997,372.50993675000063,373.4973905000006,374.14513204200193,375.1343189170002,372.1086849589992,372.1086849589992,372.10728008333365,372.1086849589992,372.1086849589992,372.1086849589992,372.10728008333365,372.1086849589992,377.22327541699997,377.91977537500134,379.99990541700026,384.03039437500047,377.91977537500134,377.91977537500134,383.0768253749993,378.3649377090005,379.40464362499915,379.99990541700026,381.01635929199983,377.91977537500134,377.91977537500134,377.88682808400046,377.91977537500134,377.91977537500134,377.91977537500134,377.88682808400046,377.91977537500134,377.91977537500134,383.0768253749993,377.91977537500134,383.0768253749993,383.1016966669995,383.7521884589987,377.91977537500134,1,1,1.0418970829996397,reldom2_s035,001,2025-03-13_16h55.53.408,What-B-Scan_AC,2022.2.5,None,
0,0.0,None,fixation,stimulus/viswhat_stim/blank_white.png,stimulus/viswhat_stim/blank_white.png,stimulus/audwhat_stim/blank_white.png,stimulus/audwhat_stim/blank_white.png,stimulus/viswhat_stim/blank_white.png,stimulus/viswhat_stim/blank_white.png,stimulus/viswhat_stim/blank_white.png,stimulus/viswhat_stim/blank_white.png,0.0,0.0,0.0,0.0,0,0.0,0,0.0,0,0.0,0,0.0,0,0.0,0.0,0,0.0,0,0.0,0,0.0,0,0.0,0,0.0,0,0.0,0,0.0,0,0.0,9,,,,,0,40,40,40,,,,,,,,,384.03039437500047,384.03039437500047,384.03039437500047,384.03039437500047,384.03039437500047,384.03039437500047,384.03039437500047,384.03039437500047,383.9259734589992,384.03039437500047,384.03039437500047,384.03039437500047,383.9259734589992,384.03039437500047,384.03039437500047,384.03039437500047,384.03039437500047,384.03039437500047,384.03039437500047,384.03039437500047,384.03039437500047,384.03039437500047,384.03039437500047,384.03039437500047,384.03039437500047,384.03039437500047,384.03039437500047,383.99264012566584,384.03039437500047,384.03039437500047,384.03039437500047,383.99264012566584,384.03039437500047,384.03039437500047,384.03039437500047,384.03039437500047,384.03039437500047,389.2137864590004,389.2137864590004,393.30964779200076,None,0,,reldom2_s035,001,2025-03-13_16h55.53.408,What-B-Scan_AC,2022.2.5,None,
31,First_Order,6.0,viswhat,stimulus/viswhat_stim/blank_white.png,stimulus/viswhat_stim/blank_white.png,stimulus/viswhat_stim/water_vehicle-ship.png,stimulus/viswhat_stim/land_vehicle-schoolbus.png,stimulus/viswhat_stim/blank_white.png,stimulus/viswhat_stim/location_box.png,stimulus/viswhat_stim/location_yes.png,stimulus/viswhat_stim/location_no.png,None,Location,None,Type,2,0.0,0,5.125,0,5.125,0,5.125,0,0.0,0.625,0,0.0,0,0.0,1,0.5,1,2.125,0,0.0,0,0.0,0,0.0,0,0.0,0,,,,,0,41,41,41,,,,,,,,,393.30964779200076,393.30964779200076,393.30964779200076,393.30964779200076,393.30964779200076,393.30964779200076,393.30964779200076,393.30964779200076,393.2099502506668,393.30964779200076,393.30964779200076,393.30964779200076,393.2099502506668,393.30964779200076,393.30964779200076,393.30964779200076,395.41680983400147,399.40353091699944,393.30964779200076,393.30964779200076,398.4883448340006,393.7922844169989,394.87782345899905,395.41680983400147,396.50271987499946,393.30964779200076,393.30964779200076,393.2599502506668,393.30964779200076,393.30964779200076,393.30964779200076,393.2599502506668,393.30964779200076,393.30964779200076,398.4883448340006,393.30964779200076,398.4883448340006,398.4883448340006,399.19674679200034,393.30964779200076,2,1,2.792117208999116,reldom2_s035,001,2025-03-13_16h55.53.408,What-B-Scan_AC,2022.2.5,None,
32,First_Order,6.0,viswhat,stimulus/viswhat_stim/blank_white.png,stimulus/viswhat_stim/blank_white.png,stimulus/viswhat_stim/land_vehicle-bus.png,stimulus/viswhat_stim/water_vehicle-jetski.png,stimulus/viswhat_stim/blank_white.png,stimulus/viswhat_stim/type_box.png,stimulus/viswhat_stim/type_yes.png,stimulus/viswhat_stim/type_no.png,None,Type,None,Type,1,0.0,0,5.125,0,5.125,0,5.125,0,0.0,0.625,0,0.0,0,0.0,1,0.5,1,2.125,0,0.0,0,0.0,0,0.0,0,0.0,0,,,,,0,42,42,42,,,,,,,,,399.40353091699944,399.40353091699944,399.40353091699944,399.40353091699944,399.40353091699944,399.40353091699944,399.40353091699944,399.40353091699944,399.36341345866697,399.40353091699944,399.40353091699944,399.40353091699944,399.36341345866697,399.40353091699944,399.40353091699944,399.40353091699944,401.51014270900123,,399.40353091699944,399.40353091699944,404.53427241700047,399.8739152499984,400.8970448750006,401.51014270900123,402.5406926249998,399.40353091699944,399.40353091699944,399.3800801253337,399.40353091699944,399.40353091699944,399.40353091699944,399.3800801253337,399.40353091699944,399.40353091699944,404.53427241700047,399.40353091699944,404.53427241700047,404.62855729199873,405.2639056670014,399.40353091699944,1,1,1.1255985000025248,reldom2_s035,001,2025-03-13_16h55.53.408,What-B-Scan_AC,2022.2.5,None,
33,First_Order,6.0,viswhat,stimulus/viswhat_stim/blank_white.png,stimulus/viswhat_stim/blank_white.png,stimulus/viswhat_stim/water_animal-seahorse.png,stimulus/viswhat_stim/water_vehicle-cabincruiser.png,stimulus/viswhat_stim/blank_white.png,stimulus/viswhat_stim/type_box.png,stimulus/viswhat_stim/type_yes.png,stimulus/viswhat_stim/type_no.png,None,Type,None,Location,2,0.0,0,5.125,0,5.125,0,5.125,0,0.0,0.625,0,0.0,0,0.0,1,0.5,1,2.125,0,0.0,0,0.0,0,0.0,0,0.0,0,,,,,0,43,43,43,,,,,,,,,405.4899803750013,405.4899803750013,405.4899803750013,405.4899803750013,405.4899803750013,405.4899803750013,405.4899803750013,405.4899803750013,405.433999041999,405.4899803750013,405.4899803750013,405.4899803750013,405.433999041999,405.4899803750013,405.4899803750013,405.4899803750013,407.573872459001,411.5951519170012,405.4899803750013,405.4899803750013,410.6294806250007,405.97675249999884,407.01971241700085,407.573872459001,408.61863466700015,405.4899803750013,405.4899803750013,405.4673323753324,405.4899803750013,405.4899803750013,405.4899803750013,405.4673323753324,405.4899803750013,405.4899803750013,410.6294806250007,405.4899803750013,410.6294806250007,410.7165481250013,411.35453395900186,405.4899803750013,2,1,1.2902429999994638,reldom2_s035,001,2025-03-13_16h55.53.408,What-B-Scan_AC,2022.2.5,None,
34,First_Order,6.0,viswhat,stimulus/viswhat_stim/blank_white.png,stimulus/viswhat_stim/blank_white.png,stimulus/viswhat_stim/land_animal-tiger.png,stimulus/viswhat_stim/water_animal-octopus.png,stimulus/viswhat_stim/blank_white.png,stimulus/viswhat_stim/type_box.png,stimulus/viswhat_stim/type_yes.png,stimulus/viswhat_stim/type_no.png,None,Type,None,Type,1,0.0,0,5.125,0,5.125,0,5.125,0,0.0,0.625,0,0.0,0,0.0,1,0.5,1,2.125,0,0.0,0,0.0,0,0.0,0,0.0,0,,,,,0,44,44,44,,,,,,,,,411.5951519170012,411.5951519170012,411.5951519170012,411.5951519170012,411.5951519170012,411.5951519170012,411.5951519170012,411.5951519170012,411.5283815416677,411.5951519170012,411.5951519170012,411.5951519170012,411.5283815416677,411.5951519170012,411.5951519170012,411.5951519170012,413.70911145900027,,411.5951519170012,411.5951519170012,416.7740801250002,412.07166387500183,413.106943458999,413.70911145900027,414.74920329200177,411.5951519170012,411.5951519170012,411.56171487500103,411.5951519170012,411.5951519170012,411.5951519170012,411.56171487500103,411.5951519170012,411.5951519170012,416.7740801250002,411.5951519170012,416.7740801250002,416.81175420900036,417.48731370899986,411.5951519170012,1,1,0.9057244579998951,reldom2_s035,001,2025-03-13_16h55.53.408,What-B-Scan_AC,2022.2.5,None,
0,0.0,None,fixation,stimulus/viswhat_stim/blank_white.png,stimulus/viswhat_stim/blank_white.png,stimulus/audwhat_stim/blank_white.png,stimulus/audwhat_stim/blank_white.png,stimulus/viswhat_stim/blank_white.png,stimulus/viswhat_stim/blank_white.png,stimulus/viswhat_stim/blank_white.png,stimulus/viswhat_stim/blank_white.png,0.0,0.0,0.0,0.0,0,0.0,0,0.0,0,0.0,0,0.0,0,0.0,0.0,0,0.0,0,0.0,0,0.0,0,0.0,0,0.0,0,0.0,0,0.0,0,0.0,8,,,,,0,45,45,45,,,,,,,,,417.7157791669997,417.7157791669997,417.7157791669997,417.7157791669997,417.7157791669997,417.7157791669997,417.7157791669997,417.7157791669997,417.6206470423332,417.7157791669997,417.7157791669997,417.7157791669997,417.6206470423332,417.7157791669997,417.7157791669997,417.7157791669997,417.7157791669997,417.7157791669997,417.7157791669997,417.7157791669997,417.7157791669997,417.7157791669997,417.7157791669997,417.7157791669997,417.7157791669997,417.7157791669997,417.7157791669997,417.6706470423332,417.7157791669997,417.7157791669997,417.7157791669997,417.6706470423332,417.7157791669997,417.7157791669997,417.7157791669997,417.7157791669997,417.7157791669997,422.8954346249993,422.8954346249993,425.85048050000114,None,0,,reldom2_s035,001,2025-03-13_16h55.53.408,What-B-Scan_AC,2022.2.5,None,
35,Second_Order,6.0,viswhat,stimulus/viswhat_stim/land_animal-wolf.png,stimulus/viswhat_stim/land_vehicle-schoolbus.png,stimulus/viswhat_stim/water_animal-shark.png,stimulus/viswhat_stim/water_vehicle-ship.png,stimulus/viswhat_stim/match_blank.png,stimulus/viswhat_stim/match_box.png,stimulus/viswhat_stim/match_yes.png,stimulus/viswhat_stim/match_no.png,1.0,Match,Location,Location,1,5.125,0,5.125,0,5.125,0,5.125,0,0.75,0.75,1,0.5,1,2.125,1,0.5,1,2.125,0,0.0,0,0.0,0,0.0,0,0.0,0,,,,,0,46,46,46,,,,,,,,,425.85048050000114,430.9644075840006,426.31919729199944,427.3180321250002,427.9526198749991,428.9420261250016,425.85048050000114,425.85048050000114,425.8579560003328,425.85048050000114,425.85048050000114,425.85048050000114,425.8579560003328,425.85048050000114,430.9644075840006,431.8654715420016,433.8870711669988,,431.8654715420016,431.8654715420016,437.09517870900163,432.2829288749999,433.3976002499985,433.8870711669988,435.00688300000184,431.8654715420016,431.8654715420016,431.79849995899855,431.8654715420016,431.8654715420016,431.8654715420016,431.79849995899855,431.8654715420016,431.8654715420016,437.09517870900163,431.8654715420016,437.09517870900163,437.03111100000024,,431.8654715420016,1,1,0.7187038329975621,reldom2_s035,001,2025-03-13_16h55.53.408,What-B-Scan_AC,2022.2.5,None,
36,Second_Order,6.0,viswhat,stimulus/viswhat_stim/land_vehicle-oldcar.png,stimulus/viswhat_stim/land_animal-cat.png,stimulus/viswhat_stim/water_vehicle-cargoboat.png,stimulus/viswhat_stim/water_animal-orka.png,stimulus/viswhat_stim/match_blank.png,stimulus/viswhat_stim/match_box.png,stimulus/viswhat_stim/match_yes.png,stimulus/viswhat_stim/match_no.png,1.0,Match,Location,Location,1,5.125,0,5.125,0,5.125,0,5.125,0,0.625,0.625,1,0.5,1,2.125,1,0.5,1,2.125,0,0.0,0,0.0,0,0.0,0,0.0,0,,,,,0,47,47,47,,,,,,,,,437.8399774169993,442.9580387089991,438.29555204200005,439.28245275000154,439.9179948339988,440.9157707500017,437.8399774169993,437.8399774169993,437.839177958666,437.8399774169993,437.8399774169993,437.8399774169993,437.839177958666,437.8399774169993,442.9580387089991,443.73270366699944,445.76115587499953,449.851595791999,443.73270366699944,443.73270366699944,448.91279179200137,444.12555666700064,445.237542750001,445.76115587499953,446.8156088750002,443.73270366699944,443.73270366699944,443.67254541699873,443.73270366699944,443.73270366699944,443.73270366699944,443.67254541699873,443.73270366699944,443.73270366699944,448.91279179200137,443.73270366699944,448.91279179200137,448.91279179200137,449.851595791999,443.73270366699944,1,1,0.8812279170015245,reldom2_s035,001,2025-03-13_16h55.53.408,What-B-Scan_AC,2022.2.5,None,
0,0.0,None,fixation,stimulus/viswhat_stim/blank_white.png,stimulus/viswhat_stim/blank_white.png,stimulus/audwhat_stim/blank_white.png,stimulus/audwhat_stim/blank_white.png,stimulus/viswhat_stim/blank_white.png,stimulus/viswhat_stim/blank_white.png,stimulus/viswhat_stim/blank_white.png,stimulus/viswhat_stim/blank_white.png,0.0,0.0,0.0,0.0,0,0.0,0,0.0,0,0.0,0,0.0,0,0.0,0.0,0,0.0,0,0.0,0,0.0,0,0.0,0,0.0,0,0.0,0,0.0,0,0.0,10,,,,,0,48,48,48,,,,,,,,,449.851595791999,449.851595791999,449.851595791999,449.851595791999,449.851595791999,449.851595791999,449.851595791999,449.851595791999,449.7574607083324,449.851595791999,449.851595791999,449.851595791999,449.7574607083324,449.851595791999,449.851595791999,449.851595791999,449.851595791999,449.851595791999,449.851595791999,449.851595791999,449.851595791999,449.851595791999,449.851595791999,449.851595791999,449.851595791999,449.851595791999,449.851595791999,449.80746070833237,449.851595791999,449.851595791999,449.851595791999,449.80746070833237,449.851595791999,449.851595791999,449.851595791999,449.851595791999,449.851595791999,455.0576059999985,455.0576059999985,460.0863858340017,None,0,,reldom2_s035,001,2025-03-13_16h55.53.408,What-B-Scan_AC,2022.2.5,None,
37,First_Order,7.0,audwhat,stimulus/audwhat_stim/dummy.wav,stimulus/audwhat_stim/dummy.wav,stimulus/audwhat_stim/string viola_low-pitch_Ftri_loud.wav,stimulus/audwhat_stim/string viola_high-pitch_Dtri_loud.wav,stimulus/audwhat_stim/blank_white.png,stimulus/audwhat_stim/category_box.png,stimulus/audwhat_stim/category_yes.png,stimulus/audwhat_stim/category_no.png,None,Category,None,Category,1,0.0,0,5.125,0,5.125,0,5.125,0,0.0,0.625,0,0.0,0,0.0,0,0.0,0,0.0,0,0.0,0,0.0,1,0.5,1,2.125,0,,,,,0,49,49,49,,,,,,,,,460.0863858340017,460.0863858340017,460.0863858340017,460.0863858340017,460.0863858340017,460.0863858340017,460.0863858340017,460.0863858340017,460.0145321256665,460.0863858340017,460.0863858340017,460.0863858340017,460.0145321256665,460.0863858340017,460.0863858340017,460.0863858340017,462.18661687499844,466.21162724999886,460.0863858340017,460.0863858340017,465.2633077089995,460.0863858340017,460.0863858340017,460.0863858340017,460.0863858340017,460.5547774170009,461.6276606669999,460.5246215006666,,462.18661687499844,463.2616524590012,462.1564297916668,,460.0863858340017,465.2633077089995,460.0863858340017,465.2633077089995,465.30429416699917,465.9584025000004,460.0863858340017,1,1,2.0348290000001725,reldom2_s035,001,2025-03-13_16h55.53.408,What-B-Scan_AC,2022.2.5,None,
38,First_Order,7.0,audwhat,stimulus/audwhat_stim/dummy.wav,stimulus/audwhat_stim/dummy.wav,stimulus/audwhat_stim/percussion mallet_high-pitch_D_loud.wav,stimulus/audwhat_stim/string viola_high-pitch_D_loud.wav,stimulus/audwhat_stim/blank_white.png,stimulus/audwhat_stim/pitch_box.png,stimulus/audwhat_stim/pitch_yes.png,stimulus/audwhat_stim/pitch_no.png,None,Pitch,None,Pitch,1,0.0,0,5.125,0,5.125,0,5.125,0,0.0,0.625,0,0.0,0,0.0,0,0.0,0,0.0,0,0.0,0,0.0,1,0.5,1,2.125,0,,,,,0,50,50,50,,,,,,,,,466.21162724999886,466.21162724999886,466.21162724999886,466.21162724999886,466.21162724999886,466.21162724999886,466.21162724999886,466.21162724999886,466.1324362923352,466.21162724999886,466.21162724999886,466.21162724999886,466.1324362923352,466.21162724999886,466.21162724999886,466.21162724999886,468.3001120420013,,466.21162724999886,466.21162724999886,471.3677224589992,466.21162724999886,466.21162724999886,466.21162724999886,466.21162724999886,466.67546383399895,467.7412106670017,466.6454576256658,,468.3001120420013,469.368256709,468.2700118336654,,466.21162724999886,471.3677224589992,466.21162724999886,471.3677224589992,471.40893179200066,472.062347916999,466.21162724999886,2,0,1.2397390420010197,reldom2_s035,001,2025-03-13_16h55.53.408,What-B-Scan_AC,2022.2.5,None,
39,First_Order,7.0,audwhat,stimulus/audwhat_stim/dummy.wav,stimulus/audwhat_stim/dummy.wav,stimulus/audwhat_stim/string viola_low-pitch_Dtri_loud.wav,stimulus/audwhat_stim/percussion mallet_low-pitch_Dtri_loud.wav,stimulus/audwhat_stim/blank_white.png,stimulus/audwhat_stim/category_box.png,stimulus/audwhat_stim/category_yes.png,stimulus/audwhat_stim/category_no.png,None,Category,None,Pitch,2,0.0,0,5.125,0,5.125,0,5.125,0,0.0,0.625,0,0.0,0,0.0,0,0.0,0,0.0,0,0.0,0,0.0,1,0.5,1,2.125,0,,,,,0,51,51,51,,,,,,,,,472.3158556669987,472.3158556669987,472.3158556669987,472.3158556669987,472.3158556669987,472.3158556669987,472.3158556669987,472.3158556669987,472.23643512533283,472.3158556669987,472.3158556669987,472.3158556669987,472.23643512533283,472.3158556669987,472.3158556669987,472.3158556669987,474.4171861670002,,472.3158556669987,472.3158556669987,477.49806816699856,472.3158556669987,472.3158556669987,472.3158556669987,472.3158556669987,472.7820127090017,473.85761829200055,472.75192233366784,,474.4171861670002,475.446722708999,474.387506291667,,472.3158556669987,477.49806816699856,472.3158556669987,477.49806816699856,477.5390784170013,478.19500529200013,472.3158556669987,2,1,0.7205126669978199,reldom2_s035,001,2025-03-13_16h55.53.408,What-B-Scan_AC,2022.2.5,None,
40,First_Order,7.0,audwhat,stimulus/audwhat_stim/dummy.wav,stimulus/audwhat_stim/dummy.wav,stimulus/audwhat_stim/string viola_high-pitch_F_loud.wav,stimulus/audwhat_stim/string viola_low-pitch_Ftri_loud.wav,stimulus/audwhat_stim/blank_white.png,stimulus/audwhat_stim/pitch_box.png,stimulus/audwhat_stim/pitch_yes.png,stimulus/audwhat_stim/pitch_no.png,None,Pitch,None,Category,2,0.0,0,5.125,0,5.125,0,5.125,0,0.0,0.625,0,0.0,0,0.0,0,0.0,0,0.0,0,0.0,0,0.0,1,0.5,1,2.125,0,,,,,0,52,52,52,,,,,,,,,478.4076339589992,478.4076339589992,478.4076339589992,478.4076339589992,478.4076339589992,478.4076339589992,478.4076339589992,478.4076339589992,478.32833862533346,478.4076339589992,478.4076339589992,478.4076339589992,478.32833862533346,478.4076339589992,478.4076339589992,478.4076339589992,480.5034537499996,484.54489545899924,478.4076339589992,478.4076339589992,483.5739198340016,478.4076339589992,478.4076339589992,478.4076339589992,478.4076339589992,478.87307570900157,479.945717958999,478.84315087566597,,480.5034537499996,481.57569708400115,480.4732142916657,,478.4076339589992,483.5739198340016,478.4076339589992,483.5739198340016,483.6150117090001,484.27141470900096,478.4076339589992,2,1,2.2827497920006863,reldom2_s035,001,2025-03-13_16h55.53.408,What-B-Scan_AC,2022.2.5,None,
0,0.0,None,fixation,stimulus/viswhat_stim/blank_white.png,stimulus/viswhat_stim/blank_white.png,stimulus/audwhat_stim/blank_white.png,stimulus/audwhat_stim/blank_white.png,stimulus/viswhat_stim/blank_white.png,stimulus/viswhat_stim/blank_white.png,stimulus/viswhat_stim/blank_white.png,stimulus/viswhat_stim/blank_white.png,0.0,0.0,0.0,0.0,0,0.0,0,0.0,0,0.0,0,0.0,0,0.0,0.0,0,0.0,0,0.0,0,0.0,0,0.0,0,0.0,0,0.0,0,0.0,0,0.0,9,,,,,0,53,53,53,,,,,,,,,484.54489545899924,484.54489545899924,484.54489545899924,484.54489545899924,484.54489545899924,484.54489545899924,484.54489545899924,484.54489545899924,484.445360083335,484.54489545899924,484.54489545899924,484.54489545899924,484.445360083335,484.54489545899924,484.54489545899924,484.54489545899924,484.54489545899924,484.54489545899924,484.54489545899924,484.54489545899924,484.54489545899924,484.54489545899924,484.54489545899924,484.54489545899924,484.54489545899924,484.54489545899924,484.54489545899924,484.495360083335,484.54489545899924,484.54489545899924,484.54489545899924,484.495360083335,484.54489545899924,484.54489545899924,484.54489545899924,484.54489545899924,484.54489545899924,489.7815915840001,489.7815915840001,493.7129822499992,None,0,,reldom2_s035,001,2025-03-13_16h55.53.408,What-B-Scan_AC,2022.2.5,None,
41,Second_Order,7.0,audwhat,stimulus/audwhat_stim/percussion mallet_low-pitch_F_loud.wav,stimulus/audwhat_stim/percussion mallet_high-pitch_D_loud.wav,stimulus/audwhat_stim/string cello_low-pitch_Dtri_loud.wav,stimulus/audwhat_stim/string viola_high-pitch_F_loud.wav,stimulus/viswhat_stim/match_blank.png,stimulus/viswhat_stim/match_box.png,stimulus/viswhat_stim/match_yes.png,stimulus/viswhat_stim/match_no.png,1.0,Match,Category,Category,1,5.125,0,5.125,0,5.125,0,5.125,0,0.75,0.75,0,0.0,0,0.0,0,0.0,0,0.0,1,0.5,1,2.125,1,0.5,1,2.125,0,,,,,0,54,54,54,,,,,,,,,493.7129822499992,498.8374540420009,493.7129822499992,493.7129822499992,493.7129822499992,493.7129822499992,494.17284295900026,495.1613345000005,494.174180416667,,495.79840858399984,496.79480350000085,495.8096537916683,,498.8374540420009,499.68664137499945,501.76322204200187,505.68480979200103,499.68664137499945,499.68664137499945,504.87549812499856,499.68664137499945,499.68664137499945,499.68664137499945,499.68664137499945,500.10092833399904,501.1615633750007,500.0718455416684,,501.76322204200187,502.8329673750013,501.73205058366534,,499.68664137499945,504.87549812499856,499.68664137499945,504.87549812499856,504.87549812499856,,499.68664137499945,1,1,0.9941948329978914,reldom2_s035,001,2025-03-13_16h55.53.408,What-B-Scan_AC,2022.2.5,None,
42,Second_Order,7.0,audwhat,stimulus/audwhat_stim/percussion mallet_high-pitch_Ftri_loud.wav,stimulus/audwhat_stim/percussion mallet_low-pitch_F_loud.wav,stimulus/audwhat_stim/percussion mallet_low-pitch_Dtri_loud.wav,stimulus/audwhat_stim/string viola_low-pitch_Dtri_loud.wav,stimulus/viswhat_stim/match_blank.png,stimulus/viswhat_stim/match_box.png,stimulus/viswhat_stim/match_yes.png,stimulus/viswhat_stim/match_no.png,2.0,Match,Category,Pitch,2,5.125,0,5.125,0,5.125,0,5.125,0,0.625,0.625,0,0.0,0,0.0,0,0.0,0,0.0,1,0.5,1,2.125,1,0.5,1,2.125,0,,,,,0,55,55,55,,,,,,,,,505.68480979200103,510.7984455000005,505.68480979200103,505.68480979200103,505.68480979200103,505.68480979200103,506.13498674999937,507.1241465839994,506.1492968756686,,507.7584163749998,508.75627149999855,507.7701159586652,,510.7984455000005,511.5266367920012,513.5895350840001,517.6368164999985,511.5266367920012,511.5266367920012,516.6798407499991,511.5266367920012,511.5266367920012,511.5266367920012,511.5266367920012,511.98306770899944,513.0392260840017,511.95372895866626,,513.5895350840001,514.6531463339998,513.560266583667,,511.5266367920012,516.6798407499991,511.5266367920012,516.6798407499991,516.7207914999999,517.4072902920016,511.5266367920012,2,1,0.7663925829983782,reldom2_s035,001,2025-03-13_16h55.53.408,What-B-Scan_AC,2022.2.5,None,
0,0.0,None,fixation,stimulus/viswhat_stim/blank_white.png,stimulus/viswhat_stim/blank_white.png,stimulus/audwhat_stim/blank_white.png,stimulus/audwhat_stim/blank_white.png,stimulus/viswhat_stim/blank_white.png,stimulus/viswhat_stim/blank_white.png,stimulus/viswhat_stim/blank_white.png,stimulus/viswhat_stim/blank_white.png,0.0,0.0,0.0,0.0,0,0.0,0,0.0,0,0.0,0,0.0,0,0.0,0.0,0,0.0,0,0.0,0,0.0,0,0.0,0,0.0,0,0.0,0,0.0,0,0.0,9,,,,,0,56,56,56,,,,,,,,,517.6368164999985,517.6368164999985,517.6368164999985,517.6368164999985,517.6368164999985,517.6368164999985,517.6368164999985,517.6368164999985,517.5406236253349,517.6368164999985,517.6368164999985,517.6368164999985,517.5406236253349,517.6368164999985,517.6368164999985,517.6368164999985,517.6368164999985,517.6368164999985,517.6368164999985,517.6368164999985,517.6368164999985,517.6368164999985,517.6368164999985,517.6368164999985,517.6368164999985,517.6368164999985,517.6368164999985,517.5906236253348,517.6368164999985,517.6368164999985,517.6368164999985,517.5906236253348,517.6368164999985,517.6368164999985,517.6368164999985,517.6368164999985,517.6368164999985,522.8287205419983,522.8287205419983,526.8818277089995,None,0,,reldom2_s035,001,2025-03-13_16h55.53.408,What-B-Scan_AC,2022.2.5,None,
43,First_Order,8.0,audwhat,stimulus/audwhat_stim/dummy.wav,stimulus/audwhat_stim/dummy.wav,stimulus/audwhat_stim/string cello_high-pitch_D_loud.wav,stimulus/audwhat_stim/string cello_low-pitch_F_loud.wav,stimulus/audwhat_stim/blank_white.png,stimulus/audwhat_stim/pitch_box.png,stimulus/audwhat_stim/pitch_yes.png,stimulus/audwhat_stim/pitch_no.png,None,Pitch,None,Category,2,0.0,0,5.125,0,5.125,0,5.125,0,0.0,0.625,0,0.0,0,0.0,0,0.0,0,0.0,0,0.0,0,0.0,1,0.5,1,2.125,0,,,,,0,57,57,57,,,,,,,,,526.8818277089995,526.8818277089995,526.8818277089995,526.8818277089995,526.8818277089995,526.8818277089995,526.8818277089995,526.8818277089995,526.810926708668,526.8818277089995,526.8818277089995,526.8818277089995,526.810926708668,526.8818277089995,526.8818277089995,526.8818277089995,528.9700884999984,,526.8818277089995,526.8818277089995,532.0763763750001,526.8818277089995,526.8818277089995,526.8818277089995,526.8818277089995,527.3455899590008,528.4128022920013,527.315781958667,,528.9700884999984,530.0380615419999,528.9399564586677,,526.8818277089995,532.0763763750001,526.8818277089995,532.0763763750001,532.0763763750001,532.7281612920015,526.8818277089995,2,1,1.8620858329995826,reldom2_s035,001,2025-03-13_16h55.53.408,What-B-Scan_AC,2022.2.5,None,
44,First_Order,8.0,audwhat,stimulus/audwhat_stim/dummy.wav,stimulus/audwhat_stim/dummy.wav,stimulus/audwhat_stim/percussion mallet_low-pitch_F_loud.wav,stimulus/audwhat_stim/string cello_low-pitch_F_loud.wav,stimulus/audwhat_stim/blank_white.png,stimulus/audwhat_stim/pitch_box.png,stimulus/audwhat_stim/pitch_yes.png,stimulus/audwhat_stim/pitch_no.png,None,Pitch,None,Pitch,1,0.0,0,5.125,0,5.125,0,5.125,0,0.0,0.625,0,0.0,0,0.0,0,0.0,0,0.0,0,0.0,0,0.0,1,0.5,1,2.125,0,,,,,0,58,58,58,,,,,,,,,532.9809749999986,532.9809749999986,532.9809749999986,532.9809749999986,532.9809749999986,532.9809749999986,532.9809749999986,532.9809749999986,532.9021137083347,532.9809749999986,532.9809749999986,532.9809749999986,532.9021137083347,532.9809749999986,532.9809749999986,532.9809749999986,535.0670587919994,,532.9809749999986,532.9809749999986,538.175357209002,532.9809749999986,532.9809749999986,532.9809749999986,532.9809749999986,533.4451687500004,534.5120570840008,533.415179916665,,535.0670587919994,536.1360247500015,535.0374447506658,,532.9809749999986,538.175357209002,532.9809749999986,538.175357209002,538.175357209002,538.8288039590007,532.9809749999986,1,1,2.5838272079963645,reldom2_s035,001,2025-03-13_16h55.53.408,What-B-Scan_AC,2022.2.5,None,
45,First_Order,8.0,audwhat,stimulus/audwhat_stim/dummy.wav,stimulus/audwhat_stim/dummy.wav,stimulus/audwhat_stim/string viola_low-pitch_Dtri_loud.wav,stimulus/audwhat_stim/string cello_high-pitch_Ftri_loud.wav,stimulus/audwhat_stim/blank_white.png,stimulus/audwhat_stim/category_box.png,stimulus/audwhat_stim/category_yes.png,stimulus/audwhat_stim/category_no.png,None,Category,None,Category,1,0.0,0,5.125,0,5.125,0,5.125,0,0.0,0.625,0,0.0,0,0.0,0,0.0,0,0.0,0,0.0,0,0.0,1,0.5,1,2.125,0,,,,,0,59,59,59,,,,,,,,,539.0812245419984,539.0812245419984,539.0812245419984,539.0812245419984,539.0812245419984,539.0812245419984,539.0812245419984,539.0812245419984,539.0022515833317,539.0812245419984,539.0812245419984,539.0812245419984,539.0022515833317,539.0812245419984,539.0812245419984,539.0812245419984,541.18507675,,539.0812245419984,539.0812245419984,544.2662682090013,539.0812245419984,539.0812245419984,539.0812245419984,539.0812245419984,539.5479588339986,540.5791894590002,539.5179248336683,,541.18507675,542.2597904169997,541.1549378756683,,539.0812245419984,544.2662682090013,539.0812245419984,544.2662682090013,544.3077411250015,544.9609439999986,539.0812245419984,1,1,1.4174525419985002,reldom2_s035,001,2025-03-13_16h55.53.408,What-B-Scan_AC,2022.2.5,None,
46,First_Order,8.0,audwhat,stimulus/audwhat_stim/dummy.wav,stimulus/audwhat_stim/dummy.wav,stimulus/audwhat_stim/string viola_high-pitch_Ftri_loud.wav,stimulus/audwhat_stim/percussion xylophone_high-pitch_Ftri_loud.wav,stimulus/audwhat_stim/blank_white.png,stimulus/audwhat_stim/category_box.png,stimulus/audwhat_stim/category_yes.png,stimulus/audwhat_stim/category_no.png,None,Category,None,Pitch,2,0.0,0,5.125,0,5.125,0,5.125,0,0.0,0.625,0,0.0,0,0.0,0,0.0,0,0.0,0,0.0,0,0.0,1,0.5,1,2.125,0,,,,,0,60,60,60,,,,,,,,,545.1731907089998,545.1731907089998,545.1731907089998,545.1731907089998,545.1731907089998,545.1731907089998,545.1731907089998,545.1731907089998,545.0942773333319,545.1731907089998,545.1731907089998,545.1731907089998,545.0942773333319,545.1731907089998,545.1731907089998,545.1731907089998,547.2754310000018,,545.1731907089998,545.1731907089998,550.3570189169986,545.1731907089998,545.1731907089998,545.1731907089998,545.1731907089998,545.6393482089989,546.6686317499989,545.6092124166682,,547.2754310000018,548.3072239169996,547.2449313336658,548.3072239169996,545.1731907089998,550.3570189169986,545.1731907089998,550.3570189169986,550.398228334001,551.055594292,545.1731907089998,2,1,0.8863737079991552,reldom2_s035,001,2025-03-13_16h55.53.408,What-B-Scan_AC,2022.2.5,None,
0,0.0,None,fixation,stimulus/viswhat_stim/blank_white.png,stimulus/viswhat_stim/blank_white.png,stimulus/audwhat_stim/blank_white.png,stimulus/audwhat_stim/blank_white.png,stimulus/viswhat_stim/blank_white.png,stimulus/viswhat_stim/blank_white.png,stimulus/viswhat_stim/blank_white.png,stimulus/viswhat_stim/blank_white.png,0.0,0.0,0.0,0.0,0,0.0,0,0.0,0,0.0,0,0.0,0,0.0,0.0,0,0.0,0,0.0,0,0.0,0,0.0,0,0.0,0,0.0,0,0.0,0,0.0,8,,,,,0,61,61,61,,,,,,,,,551.2886216250008,551.2886216250008,551.2886216250008,551.2886216250008,551.2886216250008,551.2886216250008,551.2886216250008,551.2886216250008,551.1889276253333,551.2886216250008,551.2886216250008,551.2886216250008,551.1889276253333,551.2886216250008,551.2886216250008,551.2886216250008,551.2886216250008,551.2886216250008,551.2886216250008,551.2886216250008,551.2886216250008,551.2886216250008,551.2886216250008,551.2886216250008,551.2886216250008,551.2886216250008,551.2886216250008,551.2389276253333,551.2886216250008,551.2886216250008,551.2886216250008,551.2389276253333,551.2886216250008,551.2886216250008,551.2886216250008,551.2886216250008,551.2886216250008,556.4729586670001,556.4729586670001,559.452600042001,None,0,,reldom2_s035,001,2025-03-13_16h55.53.408,What-B-Scan_AC,2022.2.5,None,
47,Second_Order,8.0,audwhat,stimulus/audwhat_stim/string cello_low-pitch_Dtri_loud.wav,stimulus/audwhat_stim/string viola_high-pitch_D_loud.wav,stimulus/audwhat_stim/percussion xylophone_high-pitch_F_loud.wav,stimulus/audwhat_stim/percussion mallet_low-pitch_D_loud.wav,stimulus/viswhat_stim/match_blank.png,stimulus/viswhat_stim/match_box.png,stimulus/viswhat_stim/match_yes.png,stimulus/viswhat_stim/match_no.png,1.0,Match,Category,Category,1,5.125,0,5.125,0,5.125,0,5.125,0,0.75,0.75,0,0.0,0,0.0,0,0.0,0,0.0,1,0.5,1,2.125,1,0.5,1,2.125,0,,,,,0,62,62,62,,,,,,,,,559.452600042001,564.5732556670009,559.452600042001,559.452600042001,559.452600042001,559.452600042001,559.909528791999,560.8968299590015,559.9235177916673,,561.531895125001,562.5303187499994,561.544565291668,,564.5732556670009,565.4243423750013,567.5029434999997,571.4218790000014,565.4243423750013,565.4243423750013,570.6122932500002,565.4243423750013,565.4243423750013,565.4243423750013,565.4243423750013,565.8404305000004,566.9018254170005,565.8105289586676,566.8556657500012,567.5029434999997,568.5740290419999,567.4732337086682,,565.4243423750013,570.6122932500002,565.4243423750013,570.6122932500002,570.6122932500002,,565.4243423750013,1,1,0.8495924580020073,reldom2_s035,001,2025-03-13_16h55.53.408,What-B-Scan_AC,2022.2.5,None,
48,Second_Order,8.0,audwhat,stimulus/audwhat_stim/percussion mallet_high-pitch_D_loud.wav,stimulus/audwhat_stim/percussion mallet_low-pitch_Dtri_loud.wav,stimulus/audwhat_stim/string viola_high-pitch_F_loud.wav,stimulus/audwhat_stim/string viola_low-pitch_Dtri_loud.wav,stimulus/viswhat_stim/match_blank.png,stimulus/viswhat_stim/match_box.png,stimulus/viswhat_stim/match_yes.png,stimulus/viswhat_stim/match_no.png,1.0,Match,Category,Category,1,5.125,0,5.125,0,5.125,0,5.125,0,0.625,0.625,0,0.0,0,0.0,0,0.0,0,0.0,1,0.5,1,2.125,1,0.5,1,2.125,0,,,,,0,63,63,63,,,,,,,,,571.4218790000014,576.5458682919998,571.4218790000014,571.4218790000014,571.4218790000014,571.4218790000014,571.8705359170017,572.8576065419984,571.8847785416658,,573.5056070419996,574.4950806250017,573.509314750667,574.5078924590016,576.5458682919998,577.2804210840004,579.3454009589987,583.3953281670001,577.2804210840004,577.2804210840004,582.4327711670012,577.2804210840004,577.2804210840004,577.2804210840004,577.2804210840004,577.7351568750018,578.79265725,577.7061287086656,,579.3454009589987,580.4083658749987,579.3158447086682,,577.2804210840004,582.4327711670012,577.2804210840004,582.4327711670012,582.4733929590002,583.1232139999993,577.2804210840004,1,1,1.112155624996376,reldom2_s035,001,2025-03-13_16h55.53.408,What-B-Scan_AC,2022.2.5,None,
0,0.0,None,fixation,stimulus/viswhat_stim/blank_white.png,stimulus/viswhat_stim/blank_white.png,stimulus/audwhat_stim/blank_white.png,stimulus/audwhat_stim/blank_white.png,stimulus/viswhat_stim/blank_white.png,stimulus/viswhat_stim/blank_white.png,stimulus/viswhat_stim/blank_white.png,stimulus/viswhat_stim/blank_white.png,0.0,0.0,0.0,0.0,0,0.0,0,0.0,0,0.0,0,0.0,0,0.0,0.0,0,0.0,0,0.0,0,0.0,0,0.0,0,0.0,0,0.0,0,0.0,0,0.0,16,,,,,0,64,64,64,,,,,,,,,583.3953281670001,583.3953281670001,583.3953281670001,583.3953281670001,583.3953281670001,583.3953281670001,583.3953281670001,583.3953281670001,583.2970200833353,583.3953281670001,583.3953281670001,583.3953281670001,583.2970200833353,583.3953281670001,583.3953281670001,583.3953281670001,583.3953281670001,583.3953281670001,583.3953281670001,583.3953281670001,583.3953281670001,583.3953281670001,583.3953281670001,583.3953281670001,583.3953281670001,583.3953281670001,583.3953281670001,583.3470200833352,583.3953281670001,583.3953281670001,583.3953281670001,583.3470200833352,583.3953281670001,583.3953281670001,583.3953281670001,583.3953281670001,583.3953281670001,588.5829067090017,588.5829067090017,599.5593255839995,None,0,,reldom2_s035,001,2025-03-13_16h55.53.408,What-B-Scan_AC,2022.2.5,None,
