Trial,Order,Block,Type,Stimuli_File1,Stimuli_File2,Stimuli_File3,Stimuli_File4,Cue_File1,Cue_File2,Response_File_Yes,Response_File_No,Match,Cue_Dimension,Pair1_Dimension,Pair2_Dimension,Key,Cue1_Duration,Cue1_Onset,Cue2_Duration,Cue2_Onset,ResponseYes_Duration,ResponseYes_Onset,ResponseNo_Duration,ResponseNo_Onset,ITI_Within,ITI_Between,Image1_Duration,Image1_Onset,Image2_Duration,Image2_Onset,Image3_Duration,Image3_Onset,Image4_Duration,Image4_Onset,Sound1_Duration,Sound1_Onset,Sound2_Duration,Sound2_Onset,Sound3_Duration,Sound3_Onset,Sound4_Duration,Sound4_Onset,Fixation_Duration,trials_2.thisRepN,trials_2.thisTrialN,trials_2.thisN,trials_2.thisIndex,trials.thisRepN,trials.thisTrialN,trials.thisN,trials.thisIndex,text_start.started,key_resp_start.started,key_resp_start.keys,key_resp_start.rt,cue_file1.started,cue_file1.stopped,image_1.started,image_1.stopped,image_2.started,image_2.stopped,sound_icon1.started,sound_icon1.stopped,sound_1.started,sound_1.stopped,sound_icon2.started,sound_icon2.stopped,sound_2.started,sound_2.stopped,image_blank_1.started,image_blank_1.stopped,key_press.started,key_press.stopped,fixation_text.started,cue_file2.started,cue_file2.stopped,image_3.started,image_3.stopped,image_4.started,image_4.stopped,sound_icon3.started,sound_icon3.stopped,sound_3.started,sound_3.stopped,sound_icon4.started,sound_icon4.stopped,sound_4.started,sound_4.stopped,response_yes.started,response_yes.stopped,response_no.started,response_no.stopped,iti_blank.started,iti_blank.stopped,fixation_text.stopped,key_press.keys,key_press.corr,key_press.rt,text_score.started,participant,session,date,expName,psychopyVersion,frameRate,
,,,,,,,,,,,,,,,,,,,,,,,,,,,,,,,,,,,,,,,,,,,,,,,,,,,,9.10536291601602,9.10536291601602,2,0.15512929193209857,,,,,,,,,,,,,,,,,,,,,,,,,,,,,,,,,,,,,,,,,,,,,reldom2_s035,001,2025-03-13_16h16.26.176,practice_test1_AC,2022.2.5,None,
,,,,,,,,,,,,,,,,,,,,,,,,,,,,,,,,,,,,,,,,,,,,0,0,0,0,,,,,,,,,,,,,,,,,,,,,,,,,,,,,,,,,,,,,,,,,,,,,,,,,,,,,reldom2_s035,001,2025-03-13_16h16.26.176,practice_test1_AC,2022.2.5,None,
,,,,,,,,,,,,,,,,,,,,,,,,,,,,,,,,,,,,,,,,,,,,1,0,1,0,,,,,,,,,,,,,,,,,,,,,,,,,,,,,,,,,,,,,,,,,,,,,,,,,,,,,reldom2_s035,001,2025-03-13_16h16.26.176,practice_test1_AC,2022.2.5,None,
,,,,,,,,,,,,,,,,,,,,,,,,,,,,,,,,,,,,,,,,,,,,2,0,2,0,,,,,,,,,,,,,,,,,,,,,,,,,,,,,,,,,,,,,,,,,,,,,,,,,,,,,reldom2_s035,001,2025-03-13_16h16.26.176,practice_test1_AC,2022.2.5,None,
,,,,,,,,,,,,,,,,,,,,,,,,,,,,,,,,,,,,,,,,,,,,3,0,3,0,,,,,,,,,,,,,,,,,,,,,,,,,,,,,,,,,,,,,,,,,,,,,,,,,,,,,reldom2_s035,001,2025-03-13_16h16.26.176,practice_test1_AC,2022.2.5,None,
0,0.0,None,fixation,stimulus/viswhere_stim/blank_white.png,stimulus/viswhere_stim/blank_white.png,stimulus/audwhere_stim/blank_white.png,stimulus/audwhere_stim/blank_white.png,stimulus/viswhere_stim/blank_white.png,stimulus/viswhere_stim/blank_white.png,stimulus/viswhere_stim/blank_white.png,stimulus/viswhere_stim/blank_white.png,0.0,0.0,0.0,0.0,0,0.0,0,0.0,0,0.0,0,0.0,0,0.0,0.0,0,0.0,0,0.0,0,0.0,0,0.0,0,0.0,0,0.0,0,0.0,0,0.0,6,,,,,0,0,0,0,,,,,9.479849415947683,9.479849415947683,9.479849415947683,9.479849415947683,9.479849415947683,9.479849415947683,9.479849415947683,9.479849415947683,9.365353583032267,9.479849415947683,9.479849415947683,9.479849415947683,9.365353583032267,9.479849415947683,9.479849415947683,9.479849415947683,9.479849415947683,9.479849415947683,9.479849415947683,9.479849415947683,9.479849415947683,9.479849415947683,9.479849415947683,9.479849415947683,9.479849415947683,9.479849415947683,9.479849415947683,9.432020249698933,9.479849415947683,9.479849415947683,9.479849415947683,9.432020249698933,9.479849415947683,9.479849415947683,9.479849415947683,9.479849415947683,9.479849415947683,14.688665458001196,14.688665458001196,15.66832016594708,None,0,,,reldom2_s035,001,2025-03-13_16h16.26.176,practice_test1_AC,2022.2.5,None,
1,First_Order,1.0,viswhere,stimulus/viswhere_stim/blank_white.png,stimulus/viswhere_stim/blank_white.png,stimulus/viswhere_stim/90-deg_dot-right_peru.png,stimulus/viswhere_stim/120-deg_dot-right_slateblue.png,stimulus/viswhere_stim/blank_white.png,stimulus/viswhere_stim/dot_box.png,stimulus/viswhere_stim/dot_yes.png,stimulus/viswhere_stim/dot_no.png,None,Dot,None,Dot,1,0.0,0,5.25,0,5.25,0,5.25,0,0.0,0.75,0,0.0,0,0.0,1,0.5,1,2.125,0,0.0,0,0.0,0,0.0,0,0.0,0,,,,,0,1,1,1,,,,,15.66832016594708,15.66832016594708,15.66832016594708,15.66832016594708,15.66832016594708,15.66832016594708,15.66832016594708,15.66832016594708,15.640266207954847,15.66832016594708,15.66832016594708,15.66832016594708,15.640266207954847,15.66832016594708,15.66832016594708,15.66832016594708,17.77578224998433,21.633453749935143,15.66832016594708,15.66832016594708,20.940474416012876,16.13889708300121,17.151291457936168,17.77578224998433,18.791424290975556,15.66832016594708,15.66832016594708,15.656932874621514,15.66832016594708,15.66832016594708,15.66832016594708,15.656932874621514,15.66832016594708,15.66832016594708,20.940474416012876,15.66832016594708,20.940474416012876,20.89897087495774,21.74193162494339,15.66832016594708,1,1,1.2921405010856688,,reldom2_s035,001,2025-03-13_16h16.26.176,practice_test1_AC,2022.2.5,None,
2,First_Order,1.0,viswhere,stimulus/viswhere_stim/blank_white.png,stimulus/viswhere_stim/blank_white.png,stimulus/viswhere_stim/30-deg_dot-right_turquoise.png,stimulus/viswhere_stim/60-deg_dot-right_seagreen.png,stimulus/viswhere_stim/blank_white.png,stimulus/viswhere_stim/line_box.png,stimulus/viswhere_stim/line_yes.png,stimulus/viswhere_stim/line_no.png,None,Line,None,Dot,2,0.0,0,5.25,0,5.25,0,5.25,0,0.0,0.75,0,0.0,0,0.0,1,0.5,1,2.125,0,0.0,0,0.0,0,0.0,0,0.0,0,,,,,0,2,2,2,,,,,21.74193162494339,21.74193162494339,21.74193162494339,21.74193162494339,21.74193162494339,21.74193162494339,21.74193162494339,21.74193162494339,21.716787083268475,21.74193162494339,21.74193162494339,21.74193162494339,21.716787083268475,21.74193162494339,21.74193162494339,21.74193162494339,23.84491204097867,27.808595916023478,21.74193162494339,21.74193162494339,27.007702582981437,22.23542224999983,23.26178387494292,23.84491204097867,24.869292250019498,21.74193162494339,21.74193162494339,21.73345374993514,21.74193162494339,21.74193162494339,21.74193162494339,21.73345374993514,21.74193162494339,21.74193162494339,27.007702582981437,21.74193162494339,27.007702582981437,26.967985457973555,27.808595916023478,21.74193162494339,2,1,0.7830535429529846,,reldom2_s035,001,2025-03-13_16h16.26.176,practice_test1_AC,2022.2.5,None,
3,First_Order,1.0,viswhere,stimulus/viswhere_stim/blank_white.png,stimulus/viswhere_stim/blank_white.png,stimulus/viswhere_stim/120-deg_dot-left_goldenrod.png,stimulus/viswhere_stim/90-deg_dot-left_seagreen.png,stimulus/viswhere_stim/blank_white.png,stimulus/viswhere_stim/line_box.png,stimulus/viswhere_stim/line_yes.png,stimulus/viswhere_stim/line_no.png,None,Line,None,Dot,2,0.0,0,5.25,0,5.25,0,5.25,0,0.0,0.75,0,0.0,0,0.0,1,0.5,1,2.125,0,0.0,0,0.0,0,0.0,0,0.0,0,,,,,0,3,3,3,,,,,27.808595916023478,27.808595916023478,27.808595916023478,27.808595916023478,27.808595916023478,27.808595916023478,27.808595916023478,27.808595916023478,27.78375974933927,27.808595916023478,27.808595916023478,27.808595916023478,27.78375974933927,27.808595916023478,27.808595916023478,27.808595916023478,29.906376999919303,33.78373991593253,27.808595916023478,27.808595916023478,33.07407216599677,28.284380874945782,29.3001205829205,29.906376999919303,30.93703699996695,27.808595916023478,27.808595916023478,27.800426416005937,27.808595916023478,27.808595916023478,27.808595916023478,27.800426416005937,27.808595916023478,27.808595916023478,33.07407216599677,27.808595916023478,33.07407216599677,33.0347749160137,33.89389637496788,27.808595916023478,2,1,1.0362189590232447,,reldom2_s035,001,2025-03-13_16h16.26.176,practice_test1_AC,2022.2.5,None,
4,First_Order,1.0,viswhere,stimulus/viswhere_stim/blank_white.png,stimulus/viswhere_stim/blank_white.png,stimulus/viswhere_stim/150-deg_dot-right_royalblue.png,stimulus/viswhere_stim/150-deg_dot-left_slateblue.png,stimulus/viswhere_stim/blank_white.png,stimulus/viswhere_stim/dot_box.png,stimulus/viswhere_stim/dot_yes.png,stimulus/viswhere_stim/dot_no.png,None,Dot,None,Line,2,0.0,0,5.25,0,5.25,0,5.25,0,0.0,0.75,0,0.0,0,0.0,1,0.5,1,2.125,0,0.0,0,0.0,0,0.0,0,0.0,0,,,,,0,4,4,4,,,,,33.89389637496788,33.89389637496788,33.89389637496788,33.89389637496788,33.89389637496788,33.89389637496788,33.89389637496788,33.89389637496788,33.867073249265864,33.89389637496788,33.89389637496788,33.89389637496788,33.867073249265864,33.89389637496788,33.89389637496788,33.89389637496788,36.008818791015074,40.04136879101861,33.89389637496788,33.89389637496788,39.15670275001321,34.371726874960586,35.38074587495066,36.008818791015074,37.02128641598392,33.89389637496788,33.89389637496788,33.88373991593253,33.89389637496788,33.89389637496788,33.89389637496788,33.88373991593253,33.89389637496788,33.89389637496788,39.15670275001321,33.89389637496788,39.15670275001321,39.11732349998783,40.04136879101861,33.89389637496788,2,1,0.8180577501188964,,reldom2_s035,001,2025-03-13_16h16.26.176,practice_test1_AC,2022.2.5,None,
0,0.0,None,fixation,stimulus/viswhere_stim/blank_white.png,stimulus/viswhere_stim/blank_white.png,stimulus/audwhere_stim/blank_white.png,stimulus/audwhere_stim/blank_white.png,stimulus/viswhere_stim/blank_white.png,stimulus/viswhere_stim/blank_white.png,stimulus/viswhere_stim/blank_white.png,stimulus/viswhere_stim/blank_white.png,0.0,0.0,0.0,0.0,0,0.0,0,0.0,0,0.0,0,0.0,0,0.0,0.0,0,0.0,0,0.0,0,0.0,0,0.0,0,0.0,0,0.0,0,0.0,0,0.0,5,,,,,0,5,5,5,,,,,40.04136879101861,40.04136879101861,40.04136879101861,40.04136879101861,40.04136879101861,40.04136879101861,40.04136879101861,40.04136879101861,39.93469612436214,40.04136879101861,40.04136879101861,40.04136879101861,39.93469612436214,40.04136879101861,40.04136879101861,40.04136879101861,40.04136879101861,40.04136879101861,40.04136879101861,40.04136879101861,40.04136879101861,40.04136879101861,40.04136879101861,40.04136879101861,40.04136879101861,40.04136879101861,40.04136879101861,39.98469612436214,40.04136879101861,40.04136879101861,40.04136879101861,39.98469612436214,40.04136879101861,40.04136879101861,40.04136879101861,40.04136879101861,40.04136879101861,45.31482208298985,45.31482208298985,45.07988158299122,None,0,,,reldom2_s035,001,2025-03-13_16h16.26.176,practice_test1_AC,2022.2.5,None,
5,Second_Order,1.0,viswhere,stimulus/viswhere_stim/150-deg_dot-right_slateblue.png,stimulus/viswhere_stim/150-deg_dot-left_turquoise.png,stimulus/viswhere_stim/90-deg_dot-left_mediumslateblue.png,stimulus/viswhere_stim/90-deg_dot-right_peru.png,stimulus/viswhere_stim/match_blank.png,stimulus/viswhere_stim/match_box.png,stimulus/viswhere_stim/match_yes.png,stimulus/viswhere_stim/match_no.png,1.0,Match,Line,Line,1,5.25,0,5.25,0,5.25,0,5.25,0,0.75,0.75,1,0.5,1,2.125,1,0.5,1,2.125,0,0.0,0,0.0,0,0.0,0,0.0,0,,,,,0,6,6,6,,,,,45.31482208298985,50.55721433297731,45.78962341602892,46.78214104101062,47.415449040941894,48.405689875013195,45.31482208298985,45.31482208298985,45.3248024162914,45.31482208298985,45.31482208298985,45.31482208298985,45.3248024162914,45.31482208298985,50.55721433297731,51.36733679100871,53.43588129093405,57.30101016594563,51.36733679100871,51.36733679100871,56.62958212499507,51.82608720799908,52.84748699993361,53.43588129093405,54.44632504100446,51.36733679100871,51.36733679100871,51.34890749999322,51.36733679100871,51.36733679100871,51.36733679100871,51.34890749999322,51.36733679100871,51.36733679100871,56.62958212499507,51.36733679100871,56.62958212499507,56.567636415944435,57.3413047909271,51.36733679100871,1,1,0.9852747090626508,,reldom2_s035,001,2025-03-13_16h16.26.176,practice_test1_AC,2022.2.5,None,
6,Second_Order,1.0,viswhere,stimulus/viswhere_stim/150-deg_dot-right_mediumslateblue.png,stimulus/viswhere_stim/30-deg_dot-right_salmon.png,stimulus/viswhere_stim/120-deg_dot-right_royalblue.png,stimulus/viswhere_stim/120-deg_dot-left_salmon.png,stimulus/viswhere_stim/match_blank.png,stimulus/viswhere_stim/match_box.png,stimulus/viswhere_stim/match_yes.png,stimulus/viswhere_stim/match_no.png,2.0,Match,Dot,Line,2,5.25,0,5.25,0,5.25,0,5.25,0,0.75,0.75,1,0.5,1,2.125,1,0.5,1,2.125,0,0.0,0,0.0,0,0.0,0,0.0,0,,,,,0,7,7,7,,,,,57.3413047909271,62.59029295796063,57.82337300002109,58.8143844580045,59.44819466595072,60.438300624955446,57.3413047909271,57.3413047909271,57.351010165945624,57.3413047909271,57.3413047909271,57.3413047909271,57.351010165945624,57.3413047909271,62.59029295796063,63.38475866592489,65.46321379102301,69.33362429100089,63.38475866592489,63.38475866592489,68.65037824993487,63.83969729102682,64.85641616594512,65.46321379102301,66.48933579097502,63.38475866592489,63.38475866592489,63.35598633334351,63.38475866592489,63.38475866592489,63.38475866592489,63.35598633334351,63.38475866592489,63.38475866592489,68.65037824993487,63.38475866592489,68.65037824993487,68.58842912502587,69.52438579092268,63.38475866592489,2,1,1.2517724590143189,,reldom2_s035,001,2025-03-13_16h16.26.176,practice_test1_AC,2022.2.5,None,
0,0.0,None,fixation,stimulus/viswhere_stim/blank_white.png,stimulus/viswhere_stim/blank_white.png,stimulus/audwhere_stim/blank_white.png,stimulus/audwhere_stim/blank_white.png,stimulus/viswhere_stim/blank_white.png,stimulus/viswhere_stim/blank_white.png,stimulus/viswhere_stim/blank_white.png,stimulus/viswhere_stim/blank_white.png,0.0,0.0,0.0,0.0,0,0.0,0,0.0,0,0.0,0,0.0,0,0.0,0.0,0,0.0,0,0.0,0,0.0,0,0.0,0,0.0,0,0.0,0,0.0,0,0.0,7,,,,,0,8,8,8,,,,,69.52438579092268,69.52438579092268,69.52438579092268,69.52438579092268,69.52438579092268,69.52438579092268,69.52438579092268,69.52438579092268,69.41695762433422,69.52438579092268,69.52438579092268,69.52438579092268,69.41695762433422,69.52438579092268,69.52438579092268,69.52438579092268,69.52438579092268,69.52438579092268,69.52438579092268,69.52438579092268,69.52438579092268,69.52438579092268,69.52438579092268,69.52438579092268,69.52438579092268,69.52438579092268,69.52438579092268,69.46695762433421,69.52438579092268,69.52438579092268,69.52438579092268,69.46695762433421,69.52438579092268,69.52438579092268,69.52438579092268,69.52438579092268,69.52438579092268,74.74369499995373,74.74369499995373,76.78497425001115,None,0,,,reldom2_s035,001,2025-03-13_16h16.26.176,practice_test1_AC,2022.2.5,None,
7,First_Order,2.0,audwhere,stimulus/audwhere_stim/dummy.wav,stimulus/audwhere_stim/dummy.wav,stimulus/audwhere_stim/left_toward_270h.wav,stimulus/audwhere_stim/right_toward_270h.wav,stimulus/audwhere_stim/blank_white.png,stimulus/audwhere_stim/direction_box.png,stimulus/audwhere_stim/direction_yes.png,stimulus/audwhere_stim/direction_no.png,None,Direction,None,Direction,1,0.0,0,5.25,0,5.25,0,5.25,0,0.0,0.75,0,0.0,0,0.0,0,0.0,0,0.0,0,0.0,0,0.0,1,0.5,1,2.125,0,,,,,0,9,9,9,,,,,76.78497425001115,76.78497425001115,76.78497425001115,76.78497425001115,76.78497425001115,76.78497425001115,76.78497425001115,76.78497425001115,76.70396074959233,76.78497425001115,76.78497425001115,76.78497425001115,76.70396074959233,76.78497425001115,76.78497425001115,76.78497425001115,78.90021108300425,82.7576882080175,76.78497425001115,76.78497425001115,82.0966816250002,76.78497425001115,76.78497425001115,76.78497425001115,76.78497425001115,77.24680608301423,78.30037125002127,77.21295891661818,,78.90021108300425,79.950454832986,78.86703420762593,79.90041104098782,76.78497425001115,82.0966816250002,76.78497425001115,82.0966816250002,82.00141229096334,82.98060670797713,76.78497425001115,2,0,3.177003001095727,,reldom2_s035,001,2025-03-13_16h16.26.176,practice_test1_AC,2022.2.5,None,
8,First_Order,2.0,audwhere,stimulus/audwhere_stim/dummy.wav,stimulus/audwhere_stim/dummy.wav,stimulus/audwhere_stim/right_away_280h.wav,stimulus/audwhere_stim/right_toward_290h.wav,stimulus/audwhere_stim/blank_white.png,stimulus/audwhere_stim/side_box.png,stimulus/audwhere_stim/side_yes.png,stimulus/audwhere_stim/side_no.png,None,Side,None,Side,1,0.0,0,5.25,0,5.25,0,5.25,0,0.0,0.75,0,0.0,0,0.0,0,0.0,0,0.0,0,0.0,0,0.0,1,0.5,1,2.125,0,,,,,0,10,10,10,,,,,82.98060670797713,82.98060670797713,82.98060670797713,82.98060670797713,82.98060670797713,82.98060670797713,82.98060670797713,82.98060670797713,82.89102154135082,82.98060670797713,82.98060670797713,82.98060670797713,82.89102154135082,82.98060670797713,82.98060670797713,82.98060670797713,85.08261587494053,88.93577720795292,82.98060670797713,82.98060670797713,88.2769757079659,82.98060670797713,82.98060670797713,82.98060670797713,82.98060670797713,83.43385829101317,84.48303124995437,83.4007066246743,84.43358091602568,85.08261587494053,86.13343029096723,85.04887720762441,,82.98060670797713,88.2769757079659,82.98060670797713,88.2769757079659,88.18344345793594,89.15505499998108,82.98060670797713,1,1,1.4674517090898007,,reldom2_s035,001,2025-03-13_16h16.26.176,practice_test1_AC,2022.2.5,None,
9,First_Order,2.0,audwhere,stimulus/audwhere_stim/dummy.wav,stimulus/audwhere_stim/dummy.wav,stimulus/audwhere_stim/right_away_270h.wav,stimulus/audwhere_stim/right_toward_300h.wav,stimulus/audwhere_stim/blank_white.png,stimulus/audwhere_stim/side_box.png,stimulus/audwhere_stim/side_yes.png,stimulus/audwhere_stim/side_no.png,None,Side,None,Side,1,0.0,0,5.25,0,5.25,0,5.25,0,0.0,0.75,0,0.0,0,0.0,0,0.0,0,0.0,0,0.0,0,0.0,1,0.5,1,2.125,0,,,,,0,11,11,11,,,,,89.15505499998108,89.15505499998108,89.15505499998108,89.15505499998108,89.15505499998108,89.15505499998108,89.15505499998108,89.15505499998108,89.06911054128625,89.15505499998108,89.15505499998108,89.15505499998108,89.06911054128625,89.15505499998108,89.15505499998108,89.15505499998108,91.24971745803487,95.09183454094455,89.15505499998108,89.15505499998108,94.47783450002316,89.15505499998108,89.15505499998108,89.15505499998108,89.15505499998108,89.6029468330089,90.64989274996333,89.56980354158829,,91.24971745803487,92.283252040972,91.21639533265649,,89.15505499998108,94.47783450002316,89.15505499998108,94.47783450002316,94.38385287497658,95.35397345793899,89.15505499998108,1,1,1.328511834028177,,reldom2_s035,001,2025-03-13_16h16.26.176,practice_test1_AC,2022.2.5,None,
10,First_Order,2.0,audwhere,stimulus/audwhere_stim/dummy.wav,stimulus/audwhere_stim/dummy.wav,stimulus/audwhere_stim/right_toward_300h.wav,stimulus/audwhere_stim/right_away_290h.wav,stimulus/audwhere_stim/blank_white.png,stimulus/audwhere_stim/direction_box.png,stimulus/audwhere_stim/direction_yes.png,stimulus/audwhere_stim/direction_no.png,None,Direction,None,Side,2,0.0,0,5.25,0,5.25,0,5.25,0,0.0,0.75,0,0.0,0,0.0,0,0.0,0,0.0,0,0.0,0,0.0,1,0.5,1,2.125,0,,,,,0,12,12,12,,,,,95.35397345793899,95.35397345793899,95.35397345793899,95.35397345793899,95.35397345793899,95.35397345793899,95.35397345793899,95.35397345793899,95.26891116626405,95.35397345793899,95.35397345793899,95.35397345793899,95.26891116626405,95.35397345793899,95.35397345793899,95.35397345793899,97.4666830409551,101.29473045794293,95.35397345793899,95.35397345793899,100.67781795794144,95.35397345793899,95.35397345793899,95.35397345793899,95.35397345793899,95.80646204098593,96.86330779094715,95.77261966659377,,97.4666830409551,98.52352624991909,97.43345408264237,,95.35397345793899,100.67781795794144,95.35397345793899,100.67781795794144,100.58377212495543,101.57631929102354,95.35397345793899,2,1,1.4674660839373246,,reldom2_s035,001,2025-03-13_16h16.26.176,practice_test1_AC,2022.2.5,None,
0,0.0,None,fixation,stimulus/viswhere_stim/blank_white.png,stimulus/viswhere_stim/blank_white.png,stimulus/audwhere_stim/blank_white.png,stimulus/audwhere_stim/blank_white.png,stimulus/viswhere_stim/blank_white.png,stimulus/viswhere_stim/blank_white.png,stimulus/viswhere_stim/blank_white.png,stimulus/viswhere_stim/blank_white.png,0.0,0.0,0.0,0.0,0,0.0,0,0.0,0,0.0,0,0.0,0,0.0,0.0,0,0.0,0,0.0,0,0.0,0,0.0,0,0.0,0,0.0,0,0.0,0,0.0,5,,,,,0,13,13,13,,,,,101.57631929102354,101.57631929102354,101.57631929102354,101.57631929102354,101.57631929102354,101.57631929102354,101.57631929102354,101.57631929102354,101.47110333331705,101.57631929102354,101.57631929102354,101.57631929102354,101.47110333331705,101.57631929102354,101.57631929102354,101.57631929102354,101.57631929102354,101.57631929102354,101.57631929102354,101.57631929102354,101.57631929102354,101.57631929102354,101.57631929102354,101.57631929102354,101.57631929102354,101.57631929102354,101.57631929102354,101.52110333331706,101.57631929102354,101.57631929102354,101.57631929102354,101.52110333331706,101.57631929102354,101.57631929102354,101.57631929102354,101.57631929102354,101.57631929102354,106.90874308301136,106.90874308301136,106.64566695794929,None,0,,,reldom2_s035,001,2025-03-13_16h16.26.176,practice_test1_AC,2022.2.5,None,
11,Second_Order,2.0,audwhere,stimulus/audwhere_stim/right_toward_270h.wav,stimulus/audwhere_stim/left_toward_290h.wav,stimulus/audwhere_stim/left_away_270h.wav,stimulus/audwhere_stim/left_toward_290h.wav,stimulus/viswhere_stim/match_blank.png,stimulus/viswhere_stim/match_box.png,stimulus/viswhere_stim/match_yes.png,stimulus/viswhere_stim/match_no.png,2.0,Match,Direction,Side,2,5.25,0,5.25,0,5.25,0,5.25,0,0.75,0.75,0,0.0,0,0.0,0,0.0,0,0.0,1,0.5,1,2.125,1,0.5,1,2.125,0,,,,,0,14,14,14,,,,,106.90874308301136,112.15668541600462,106.90874308301136,106.90874308301136,106.90874308301136,106.90874308301136,107.35788516595494,108.35380116594024,107.36547291669218,,108.98044012498576,109.97057070792653,108.98784624966017,109.98202833300456,112.15668541600462,113.01478466601111,115.05628866597544,118.9327812079573,113.01478466601111,113.01478466601111,118.31598554097582,113.01478466601111,113.01478466601111,113.01478466601111,113.01478466601111,113.45926499995403,114.50666708301287,113.42613724962963,,115.05628866597544,116.1106475830311,115.02250404161556,,113.01478466601111,118.31598554097582,113.01478466601111,118.31598554097582,118.22173520794604,119.10106304101646,113.01478466601111,2,1,2.0705427930224687,,reldom2_s035,001,2025-03-13_16h16.26.176,practice_test1_AC,2022.2.5,None,
12,Second_Order,2.0,audwhere,stimulus/audwhere_stim/left_toward_270h.wav,stimulus/audwhere_stim/right_toward_300h.wav,stimulus/audwhere_stim/right_toward_300h.wav,stimulus/audwhere_stim/right_away_270h.wav,stimulus/viswhere_stim/match_blank.png,stimulus/viswhere_stim/match_box.png,stimulus/viswhere_stim/match_yes.png,stimulus/viswhere_stim/match_no.png,2.0,Match,Direction,Side,2,5.25,0,5.25,0,5.25,0,5.25,0,0.75,0.75,0,0.0,0,0.0,0,0.0,0,0.0,1,0.5,1,2.125,1,0.5,1,2.125,0,,,,,0,15,15,15,,,,,119.10106304101646,124.3470325829694,119.10106304101646,119.10106304101646,119.10106304101646,119.10106304101646,119.54747608292382,120.53893270797562,119.5553024166186,120.54790041595697,121.17340262501966,122.17237016593572,121.18070429162277,,124.3470325829694,125.20586741599254,127.24934574996587,131.11593129101675,125.20586741599254,125.20586741599254,130.50104287499562,125.20586741599254,125.20586741599254,125.20586741599254,125.20586741599254,125.64957991603296,126.6993658329593,125.6168113746137,,127.24934574996587,128.30002487497404,127.21586312464594,,125.20586741599254,130.50104287499562,125.20586741599254,130.50104287499562,130.40687841596082,131.3994201659225,125.20586741599254,2,1,2.1848254170035943,,reldom2_s035,001,2025-03-13_16h16.26.176,practice_test1_AC,2022.2.5,None,
0,0.0,None,fixation,stimulus/viswhere_stim/blank_white.png,stimulus/viswhere_stim/blank_white.png,stimulus/audwhere_stim/blank_white.png,stimulus/audwhere_stim/blank_white.png,stimulus/viswhere_stim/blank_white.png,stimulus/viswhere_stim/blank_white.png,stimulus/viswhere_stim/blank_white.png,stimulus/viswhere_stim/blank_white.png,0.0,0.0,0.0,0.0,0,0.0,0,0.0,0,0.0,0,0.0,0,0.0,0.0,0,0.0,0,0.0,0,0.0,0,0.0,0,0.0,0,0.0,0,0.0,0,0.0,5,,,,,0,16,16,16,,,,,131.3994201659225,131.3994201659225,131.3994201659225,131.3994201659225,131.3994201659225,131.3994201659225,131.3994201659225,131.3994201659225,131.2933124163266,131.3994201659225,131.3994201659225,131.3994201659225,131.2933124163266,131.3994201659225,131.3994201659225,131.3994201659225,131.3994201659225,131.3994201659225,131.3994201659225,131.3994201659225,131.3994201659225,131.3994201659225,131.3994201659225,131.3994201659225,131.3994201659225,131.3994201659225,131.3994201659225,131.34331241632657,131.3994201659225,131.3994201659225,131.3994201659225,131.34331241632657,131.3994201659225,131.3994201659225,131.3994201659225,131.3994201659225,131.3994201659225,136.7515249159187,136.7515249159187,136.4898196249269,None,0,,,reldom2_s035,001,2025-03-13_16h16.26.176,practice_test1_AC,2022.2.5,None,
13,First_Order,3.0,viswhat,stimulus/viswhat_stim/blank_white.png,stimulus/viswhat_stim/blank_white.png,stimulus/viswhat_stim/land_animal-ostrich.png,stimulus/viswhat_stim/land_vehicle-trolley.png,stimulus/viswhat_stim/blank_white.png,stimulus/viswhat_stim/location_box.png,stimulus/viswhat_stim/location_yes.png,stimulus/viswhat_stim/location_no.png,None,Location,None,Location,1,0.0,0,5.25,0,5.25,0,5.25,0,0.0,0.75,0,0.0,0,0.0,1,0.5,1,2.125,0,0.0,0,0.0,0,0.0,0,0.0,0,,,,,0,17,17,17,,,,,136.7515249159187,136.7515249159187,136.7515249159187,136.7515249159187,136.7515249159187,136.7515249159187,136.7515249159187,136.7515249159187,136.71281508267083,136.7515249159187,136.7515249159187,136.7515249159187,136.71281508267083,136.7515249159187,136.7515249159187,136.7515249159187,138.8400558750145,142.920047624968,136.7515249159187,136.7515249159187,142.01686645799782,137.22612158302218,138.26083258294966,138.8400558750145,139.87691387499217,136.7515249159187,136.7515249159187,136.72948174933748,136.7515249159187,136.7515249159187,136.7515249159187,136.72948174933748,136.7515249159187,136.7515249159187,142.01686645799782,136.7515249159187,142.01686645799782,141.96743479103316,142.920047624968,136.7515249159187,1,1,1.127755208988674,,reldom2_s035,001,2025-03-13_16h16.26.176,practice_test1_AC,2022.2.5,None,
14,First_Order,3.0,viswhat,stimulus/viswhat_stim/blank_white.png,stimulus/viswhat_stim/blank_white.png,stimulus/viswhat_stim/water_vehicle-cruiser.png,stimulus/viswhat_stim/water_animal-stingray.png,stimulus/viswhat_stim/blank_white.png,stimulus/viswhat_stim/location_box.png,stimulus/viswhat_stim/location_yes.png,stimulus/viswhat_stim/location_no.png,None,Location,None,Location,1,0.0,0,5.25,0,5.25,0,5.25,0,0.0,0.75,0,0.0,0,0.0,1,0.5,1,2.125,0,0.0,0,0.0,0,0.0,0,0.0,0,,,,,0,18,18,18,,,,,142.920047624968,142.920047624968,142.920047624968,142.920047624968,142.920047624968,142.920047624968,142.920047624968,142.920047624968,142.80257600001062,142.920047624968,142.920047624968,142.920047624968,142.80257600001062,142.920047624968,142.920047624968,142.920047624968,145.016648040968,148.8674818329746,142.920047624968,142.920047624968,148.25659616594203,143.39329870801885,144.47733604093082,145.016648040968,146.1016638749279,142.920047624968,142.920047624968,142.8525760000106,142.920047624968,142.920047624968,142.920047624968,142.8525760000106,142.920047624968,142.920047624968,148.25659616594203,142.920047624968,148.25659616594203,148.1279706659261,149.0934680829523,142.920047624968,1,1,0.8353752089897171,,reldom2_s035,001,2025-03-13_16h16.26.176,practice_test1_AC,2022.2.5,None,
15,First_Order,3.0,viswhat,stimulus/viswhat_stim/blank_white.png,stimulus/viswhat_stim/blank_white.png,stimulus/viswhat_stim/water_vehicle-cargoboat.png,stimulus/viswhat_stim/water_animal-squid.png,stimulus/viswhat_stim/blank_white.png,stimulus/viswhat_stim/type_box.png,stimulus/viswhat_stim/type_yes.png,stimulus/viswhat_stim/type_no.png,None,Type,None,Location,2,0.0,0,5.25,0,5.25,0,5.25,0,0.0,0.75,0,0.0,0,0.0,1,0.5,1,2.125,0,0.0,0,0.0,0,0.0,0,0.0,0,,,,,0,19,19,19,,,,,149.0934680829523,149.0934680829523,149.0934680829523,149.0934680829523,149.0934680829523,149.0934680829523,149.0934680829523,149.0934680829523,149.03414849964128,149.0934680829523,149.0934680829523,149.0934680829523,149.03414849964128,149.0934680829523,149.0934680829523,149.0934680829523,151.19892220792826,155.20243858301546,149.0934680829523,149.0934680829523,154.36495787499007,149.5757673329208,150.6131852909457,151.19892220792826,152.24144445802085,149.0934680829523,149.0934680829523,149.0674818329746,149.0934680829523,149.0934680829523,149.0934680829523,149.0674818329746,149.0934680829523,149.0934680829523,154.36495787499007,149.0934680829523,154.36495787499007,154.30229683301877,155.20243858301546,149.0934680829523,2,1,0.7850501671200618,,reldom2_s035,001,2025-03-13_16h16.26.176,practice_test1_AC,2022.2.5,None,
16,First_Order,3.0,viswhat,stimulus/viswhat_stim/blank_white.png,stimulus/viswhat_stim/blank_white.png,stimulus/viswhat_stim/water_vehicle-ferryboat.png,stimulus/viswhat_stim/water_animal-seaturtle.png,stimulus/viswhat_stim/blank_white.png,stimulus/viswhat_stim/type_box.png,stimulus/viswhat_stim/type_yes.png,stimulus/viswhat_stim/type_no.png,None,Type,None,Location,2,0.0,0,5.25,0,5.25,0,5.25,0,0.0,0.75,0,0.0,0,0.0,1,0.5,1,2.125,0,0.0,0,0.0,0,0.0,0,0.0,0,,,,,0,20,20,20,,,,,155.20243858301546,155.20243858301546,155.20243858301546,155.20243858301546,155.20243858301546,155.20243858301546,155.20243858301546,155.20243858301546,155.13957433300095,155.20243858301546,155.20243858301546,155.20243858301546,155.13957433300095,155.20243858301546,155.20243858301546,155.20243858301546,157.30935783300083,161.15108250000048,155.20243858301546,155.20243858301546,160.49793154094368,155.69163858296815,156.74498104094528,157.30935783300083,158.36479729099665,155.20243858301546,155.20243858301546,155.17290766633428,155.20243858301546,155.20243858301546,155.20243858301546,155.17290766633428,155.20243858301546,155.20243858301546,160.49793154094368,155.20243858301546,160.49793154094368,160.42893599998206,161.3988024579594,155.20243858301546,2,1,0.8162032510153949,,reldom2_s035,001,2025-03-13_16h16.26.176,practice_test1_AC,2022.2.5,None,
0,0.0,None,fixation,stimulus/viswhat_stim/blank_white.png,stimulus/viswhat_stim/blank_white.png,stimulus/audwhat_stim/blank_white.png,stimulus/audwhat_stim/blank_white.png,stimulus/viswhat_stim/blank_white.png,stimulus/viswhat_stim/blank_white.png,stimulus/viswhere_stim/blank_white.png,stimulus/viswhere_stim/blank_white.png,0.0,0.0,0.0,0.0,0,0.0,0,0.0,0,0.0,0,0.0,0,0.0,0.0,0,0.0,0,0.0,0,0.0,0,0.0,0,0.0,0,0.0,0,0.0,0,0.0,5,,,,,0,21,21,21,,,,,161.3988024579594,161.3988024579594,161.3988024579594,161.3988024579594,161.3988024579594,161.3988024579594,161.3988024579594,161.3988024579594,161.29908962463185,161.3988024579594,161.3988024579594,161.3988024579594,161.29908962463185,161.3988024579594,161.3988024579594,161.3988024579594,161.3988024579594,161.3988024579594,161.3988024579594,161.3988024579594,161.3988024579594,161.3988024579594,161.3988024579594,161.3988024579594,161.3988024579594,161.3988024579594,161.3988024579594,161.34908962463186,161.3988024579594,161.3988024579594,161.3988024579594,161.34908962463186,161.3988024579594,161.3988024579594,161.3988024579594,161.3988024579594,161.3988024579594,166.67183745792136,166.67183745792136,166.4793874999741,None,0,,,reldom2_s035,001,2025-03-13_16h16.26.176,practice_test1_AC,2022.2.5,None,
17,Second_Order,3.0,viswhat,stimulus/viswhat_stim/land_vehicle-motorcycle.png,stimulus/viswhat_stim/land_animal-dog.png,stimulus/viswhat_stim/water_animal-seahorse.png,stimulus/viswhat_stim/water_vehicle-cargoboat.png,stimulus/viswhere_stim/match_blank.png,stimulus/viswhere_stim/match_box.png,stimulus/viswhere_stim/match_yes.png,stimulus/viswhere_stim/match_no.png,1.0,Match,Location,Location,1,5.25,0,5.25,0,5.25,0,5.25,0,0.75,0.75,1,0.5,1,2.125,1,0.5,1,2.125,0,0.0,0,0.0,0,0.0,0,0.0,0,,,,,0,22,22,22,,,,,166.67183745792136,171.91383866593242,167.13950116594788,168.1387974160025,168.75721029099077,169.75373620796017,166.67183745792136,166.67183745792136,166.66877791626226,166.67183745792136,166.67183745792136,166.67183745792136,166.66877791626226,166.67183745792136,171.91383866593242,172.73108254093677,174.80736658303067,178.66692487499677,172.73108254093677,172.73108254093677,178.00286383298226,173.16171599994414,174.1716880829772,174.80736658303067,175.8256637499435,172.73108254093677,172.73108254093677,172.6983281250112,172.73108254093677,172.73108254093677,172.73108254093677,172.6983281250112,172.73108254093677,172.73108254093677,178.00286383298226,172.73108254093677,178.00286383298226,177.9294321249472,178.72784083301667,172.73108254093677,1,1,0.5946057090768591,,reldom2_s035,001,2025-03-13_16h16.26.176,practice_test1_AC,2022.2.5,None,
18,Second_Order,3.0,viswhat,stimulus/viswhat_stim/water_animal-squid.png,stimulus/viswhat_stim/land_animal-snake.png,stimulus/viswhat_stim/land_animal-fox.png,stimulus/viswhat_stim/land_vehicle-oldcar.png,stimulus/viswhere_stim/match_blank.png,stimulus/viswhere_stim/match_box.png,stimulus/viswhere_stim/match_yes.png,stimulus/viswhere_stim/match_no.png,2.0,Match,Type,Location,2,5.25,0,5.25,0,5.25,0,5.25,0,0.75,0.75,1,0.5,1,2.125,1,0.5,1,2.125,0,0.0,0,0.0,0,0.0,0,0.0,0,,,,,0,23,23,23,,,,,178.72784083301667,183.97412033297587,179.1899239999475,180.18897258292418,180.8223776660161,181.81321945798118,178.72784083301667,178.72784083301667,178.73359154166346,178.72784083301667,178.72784083301667,178.72784083301667,178.73359154166346,178.72784083301667,183.97412033297587,184.82814504101407,186.88905754103325,190.73918516596314,184.82814504101407,184.82814504101407,190.1220294579398,185.2767219999805,186.30924037494697,186.88905754103325,187.9219526660163,184.82814504101407,184.82814504101407,184.78160337465042,184.82814504101407,184.82814504101407,184.82814504101407,184.78160337465042,184.82814504101407,184.82814504101407,190.1220294579398,184.82814504101407,190.1220294579398,189.99329766596202,190.974439124926,184.82814504101407,2,1,1.0194723340682685,,reldom2_s035,001,2025-03-13_16h16.26.176,practice_test1_AC,2022.2.5,None,
0,0.0,None,fixation,stimulus/viswhat_stim/blank_white.png,stimulus/viswhat_stim/blank_white.png,stimulus/audwhat_stim/blank_white.png,stimulus/audwhat_stim/blank_white.png,stimulus/viswhat_stim/blank_white.png,stimulus/viswhat_stim/blank_white.png,stimulus/viswhere_stim/blank_white.png,stimulus/viswhere_stim/blank_white.png,0.0,0.0,0.0,0.0,0,0.0,0,0.0,0,0.0,0,0.0,0,0.0,0.0,0,0.0,0,0.0,0,0.0,0,0.0,0,0.0,0,0.0,0,0.0,0,0.0,6,,,,,0,24,24,24,,,,,190.974439124926,190.974439124926,190.974439124926,190.974439124926,190.974439124926,190.974439124926,190.974439124926,190.974439124926,190.8725184992965,190.974439124926,190.974439124926,190.974439124926,190.8725184992965,190.974439124926,190.974439124926,190.974439124926,190.974439124926,190.974439124926,190.974439124926,190.974439124926,190.974439124926,190.974439124926,190.974439124926,190.974439124926,190.974439124926,190.974439124926,190.974439124926,190.92251849929647,190.974439124926,190.974439124926,190.974439124926,190.92251849929647,190.974439124926,190.974439124926,190.974439124926,190.974439124926,190.974439124926,196.16426870797295,196.16426870797295,197.254872957943,None,0,,,reldom2_s035,001,2025-03-13_16h16.26.176,practice_test1_AC,2022.2.5,None,
19,First_Order,4.0,audwhat,stimulus/audwhat_stim/dummy.wav,stimulus/audwhat_stim/dummy.wav,stimulus/audwhat_stim/percussion xylophone_high-pitch_D_loud.wav,stimulus/audwhat_stim/string viola_high-pitch_D_loud.wav,stimulus/audwhat_stim/blank_white.png,stimulus/audwhat_stim/pitch_box.png,stimulus/audwhat_stim/pitch_yes.png,stimulus/audwhat_stim/pitch_no.png,None,Pitch,None,Pitch,1,0.0,0,5.25,0,5.25,0,5.25,0,0.0,0.75,0,0.0,0,0.0,0,0.0,0,0.0,0,0.0,0,0.0,1,0.5,1,2.125,0,,,,,0,25,25,25,,,,,197.254872957943,197.254872957943,197.254872957943,197.254872957943,197.254872957943,197.254872957943,197.254872957943,197.254872957943,197.17463754167937,197.254872957943,197.254872957943,197.254872957943,197.17463754167937,197.254872957943,197.254872957943,197.254872957943,199.35673775000032,203.23071824992076,197.254872957943,197.254872957943,202.57028879097197,197.254872957943,197.254872957943,197.254872957943,197.254872957943,197.70522775000427,198.75587916595396,197.67185274960164,198.70568862499204,199.35673775000032,200.41389241593424,199.32299524959333,,197.254872957943,202.57028879097197,197.254872957943,202.57028879097197,202.4755980829941,203.45199966593646,197.254872957943,1,1,1.9961062090005726,,reldom2_s035,001,2025-03-13_16h16.26.176,practice_test1_AC,2022.2.5,None,
20,First_Order,4.0,audwhat,stimulus/audwhat_stim/dummy.wav,stimulus/audwhat_stim/dummy.wav,stimulus/audwhat_stim/string cello_high-pitch_Ftri_loud.wav,stimulus/audwhat_stim/string viola_low-pitch_F_loud.wav,stimulus/audwhat_stim/blank_white.png,stimulus/audwhat_stim/pitch_box.png,stimulus/audwhat_stim/pitch_yes.png,stimulus/audwhat_stim/pitch_no.png,None,Pitch,None,Category,2,0.0,0,5.25,0,5.25,0,5.25,0,0.0,0.75,0,0.0,0,0.0,0,0.0,0,0.0,0,0.0,0,0.0,1,0.5,1,2.125,0,,,,,0,26,26,26,,,,,203.45199966593646,203.45199966593646,203.45199966593646,203.45199966593646,203.45199966593646,203.45199966593646,203.45199966593646,203.45199966593646,203.3640515832541,203.45199966593646,203.45199966593646,203.45199966593646,203.3640515832541,203.45199966593646,203.45199966593646,203.45199966593646,205.55964741599746,209.39370966597926,203.45199966593646,203.45199966593646,208.76587229094002,203.45199966593646,203.45199966593646,203.45199966593646,203.45199966593646,203.90475770796183,204.95848583301995,203.87025966664467,,205.55964741599746,206.6164876660332,205.52559237467747,,203.45199966593646,208.76587229094002,203.45199966593646,208.76587229094002,208.67117212503217,209.65807666594628,203.45199966593646,2,1,1.5394539589760825,,reldom2_s035,001,2025-03-13_16h16.26.176,practice_test1_AC,2022.2.5,None,
21,First_Order,4.0,audwhat,stimulus/audwhat_stim/dummy.wav,stimulus/audwhat_stim/dummy.wav,stimulus/audwhat_stim/string viola_high-pitch_D_loud.wav,stimulus/audwhat_stim/percussion xylophone_high-pitch_D_loud.wav,stimulus/audwhat_stim/blank_white.png,stimulus/audwhat_stim/pitch_box.png,stimulus/audwhat_stim/pitch_yes.png,stimulus/audwhat_stim/pitch_no.png,None,Pitch,None,Pitch,1,0.0,0,5.25,0,5.25,0,5.25,0,0.0,0.75,0,0.0,0,0.0,0,0.0,0,0.0,0,0.0,0,0.0,1,0.5,1,2.125,0,,,,,0,27,27,27,,,,,209.65807666594628,209.65807666594628,209.65807666594628,209.65807666594628,209.65807666594628,209.65807666594628,209.65807666594628,209.65807666594628,209.5708458742903,209.65807666594628,209.65807666594628,209.65807666594628,209.5708458742903,209.65807666594628,209.65807666594628,209.65807666594628,211.770754499943,215.60591774992645,209.65807666594628,209.65807666594628,214.94454966601916,209.65807666594628,209.65807666594628,209.65807666594628,209.65807666594628,210.1141197499819,211.16955350001808,210.07909329160273,,211.770754499943,212.83356633293442,211.73734616669051,212.7830278329784,209.65807666594628,214.94454966601916,209.65807666594628,214.94454966601916,214.9005038329633,215.87046245799866,209.65807666594628,1,1,1.2984400009736419,,reldom2_s035,001,2025-03-13_16h16.26.176,practice_test1_AC,2022.2.5,None,
22,First_Order,4.0,audwhat,stimulus/audwhat_stim/dummy.wav,stimulus/audwhat_stim/dummy.wav,stimulus/audwhat_stim/string cello_low-pitch_F_loud.wav,stimulus/audwhat_stim/string viola_high-pitch_Ftri_loud.wav,stimulus/audwhat_stim/blank_white.png,stimulus/audwhat_stim/category_box.png,stimulus/audwhat_stim/category_yes.png,stimulus/audwhat_stim/category_no.png,None,Category,None,Category,1,0.0,0,5.25,0,5.25,0,5.25,0,0.0,0.75,0,0.0,0,0.0,0,0.0,0,0.0,0,0.0,0,0.0,1,0.5,1,2.125,0,,,,,0,28,28,28,,,,,215.87046245799866,215.87046245799866,215.87046245799866,215.87046245799866,215.87046245799866,215.87046245799866,215.87046245799866,215.87046245799866,215.78305258325614,215.87046245799866,215.87046245799866,215.87046245799866,215.78305258325614,215.87046245799866,215.87046245799866,215.87046245799866,217.98313479102217,221.8152626659721,215.87046245799866,215.87046245799866,221.1533699160209,215.87046245799866,215.87046245799866,215.87046245799866,215.87046245799866,216.32315016596112,217.38246420794167,216.2894839576368,,217.98313479102217,219.0394044580171,217.94972733263083,,215.87046245799866,221.1533699160209,215.87046245799866,221.1533699160209,221.10950987495016,222.09688179101795,215.87046245799866,1,1,2.1825049170292914,,reldom2_s035,001,2025-03-13_16h16.26.176,practice_test1_AC,2022.2.5,None,
0,0.0,None,fixation,stimulus/viswhat_stim/blank_white.png,stimulus/viswhat_stim/blank_white.png,stimulus/audwhat_stim/blank_white.png,stimulus/audwhat_stim/blank_white.png,stimulus/viswhat_stim/blank_white.png,stimulus/viswhat_stim/blank_white.png,stimulus/viswhere_stim/blank_white.png,stimulus/viswhere_stim/blank_white.png,0.0,0.0,0.0,0.0,0,0.0,0,0.0,0,0.0,0,0.0,0,0.0,0.0,0,0.0,0,0.0,0,0.0,0,0.0,0,0.0,0,0.0,0,0.0,0,0.0,5,,,,,0,29,29,29,,,,,222.09688179101795,222.09688179101795,222.09688179101795,222.09688179101795,222.09688179101795,222.09688179101795,222.09688179101795,222.09688179101795,221.99260508330386,222.09688179101795,222.09688179101795,222.09688179101795,221.99260508330386,222.09688179101795,222.09688179101795,222.09688179101795,222.09688179101795,222.09688179101795,222.09688179101795,222.09688179101795,222.09688179101795,222.09688179101795,222.09688179101795,222.09688179101795,222.09688179101795,222.09688179101795,222.09688179101795,222.04260508330384,222.09688179101795,222.09688179101795,222.09688179101795,222.04260508330384,222.09688179101795,222.09688179101795,222.09688179101795,222.09688179101795,222.09688179101795,227.39874916593544,227.39874916593544,227.18963366595563,None,0,,,reldom2_s035,001,2025-03-13_16h16.26.176,practice_test1_AC,2022.2.5,None,
23,Second_Order,4.0,audwhat,stimulus/audwhat_stim/percussion mallet_high-pitch_D_loud.wav,stimulus/audwhat_stim/string cello_high-pitch_D_loud.wav,stimulus/audwhat_stim/percussion mallet_low-pitch_F_loud.wav,stimulus/audwhat_stim/percussion xylophone_high-pitch_Ftri_loud.wav,stimulus/viswhere_stim/match_blank.png,stimulus/viswhere_stim/match_box.png,stimulus/viswhere_stim/match_yes.png,stimulus/viswhere_stim/match_no.png,2.0,Match,Pitch,Category,2,5.25,0,5.25,0,5.25,0,5.25,0,0.75,0.75,0,0.0,0,0.0,0,0.0,0,0.0,1,0.5,1,2.125,1,0.5,1,2.125,0,,,,,0,30,30,30,,,,,227.39874916593544,232.64010108297225,227.39874916593544,227.39874916593544,227.39874916593544,227.39874916593544,227.84777466591913,228.84824237495195,227.8521621246512,,229.4727537499275,230.46474266599398,229.48152420769136,,232.64010108297225,233.5108556660125,235.56692491599824,239.44796516594943,233.5108556660125,233.5108556660125,238.82877033296973,233.5108556660125,233.5108556660125,233.5108556660125,233.5108556660125,233.91588787501678,234.96613304095808,233.88294649968546,,235.56692491599824,236.62447874993086,235.53311004169908,236.57455941592343,233.5108556660125,238.82877033296973,233.5108556660125,238.82877033296973,238.68477191601414,239.57593674992677,233.5108556660125,1,0,2.706662042066455,,reldom2_s035,001,2025-03-13_16h16.26.176,practice_test1_AC,2022.2.5,None,
24,Second_Order,4.0,audwhat,stimulus/audwhat_stim/percussion mallet_low-pitch_Ftri_loud.wav,stimulus/audwhat_stim/percussion xylophone_high-pitch_F_loud.wav,stimulus/audwhat_stim/string cello_low-pitch_F_loud.wav,stimulus/audwhat_stim/string cello_high-pitch_Ftri_loud.wav,stimulus/viswhere_stim/match_blank.png,stimulus/viswhere_stim/match_box.png,stimulus/viswhere_stim/match_yes.png,stimulus/viswhere_stim/match_no.png,1.0,Match,Category,Category,1,5.25,0,5.25,0,5.25,0,5.25,0,0.75,0.75,0,0.0,0,0.0,0,0.0,0,0.0,1,0.5,1,2.125,1,0.5,1,2.125,0,,,,,0,31,31,31,,,,,239.57593674992677,244.8348857499659,239.57593674992677,239.57593674992677,239.57593674992677,239.57593674992677,240.02246016601566,241.01424079097342,240.0313982075934,,241.6479831659235,242.63793824997265,241.65568283264682,242.6550065409392,244.8348857499659,245.69953624997288,247.75036704097874,251.6274607910309,245.69953624997288,245.69953624997288,251.01162749994546,245.69953624997288,245.69953624997288,245.69953624997288,245.69953624997288,246.14912900002673,247.1988296250347,246.11616445769712,,247.75036704097874,248.79924670793116,247.71683354169753,,245.69953624997288,251.01162749994546,245.69953624997288,251.01162749994546,250.86646437493619,251.87307774997316,245.69953624997288,2,0,1.2925311260623857,,reldom2_s035,001,2025-03-13_16h16.26.176,practice_test1_AC,2022.2.5,None,
0,0.0,None,fixation,stimulus/viswhat_stim/blank_white.png,stimulus/viswhat_stim/blank_white.png,stimulus/audwhat_stim/blank_white.png,stimulus/audwhat_stim/blank_white.png,stimulus/viswhat_stim/blank_white.png,stimulus/viswhat_stim/blank_white.png,stimulus/viswhere_stim/blank_white.png,stimulus/viswhere_stim/blank_white.png,0.0,0.0,0.0,0.0,0,0.0,0,0.0,0,0.0,0,0.0,0,0.0,0.0,0,0.0,0,0.0,0,0.0,0,0.0,0,0.0,0,0.0,0,0.0,0,0.0,5,,,,,0,32,32,32,,,,,251.87307774997316,251.87307774997316,251.87307774997316,251.87307774997316,251.87307774997316,251.87307774997316,251.87307774997316,251.87307774997316,251.7774607910309,251.87307774997316,251.87307774997316,251.87307774997316,251.7774607910309,251.87307774997316,251.87307774997316,251.87307774997316,251.87307774997316,251.87307774997316,251.87307774997316,251.87307774997316,251.87307774997316,251.87307774997316,251.87307774997316,251.87307774997316,251.87307774997316,251.87307774997316,251.87307774997316,251.82746079103092,251.87307774997316,251.87307774997316,251.87307774997316,251.82746079103092,251.87307774997316,251.87307774997316,251.87307774997316,251.87307774997316,251.87307774997316,257.1537554579554,257.1537554579554,256.9454946250189,None,0,,,reldom2_s035,001,2025-03-13_16h16.26.176,practice_test1_AC,2022.2.5,None,
,,,,,,,,,,,,,,,,,,,,,,,,,,,,,,,,,,,,,,,,,,,,,,,,,,,,,,,,,,,,,,,,,,,,,,,,,,,,,,,,,,,,,,,,,,,,,,,,,,,257.1537554579554,,,,,,,
