Trial,Order,Block,Type,Stimuli_File1,Stimuli_File2,Stimuli_File3,Stimuli_File4,Cue_File1,Cue_File2,Response_File_Yes,Response_File_No,Match,Cue_Dimension,Pair1_Dimension,Pair2_Dimension,Key,Cue1_Duration,Cue1_Onset,Cue2_Duration,Cue2_Onset,ResponseYes_Duration,ResponseYes_Onset,ResponseNo_Duration,ResponseNo_Onset,ITI_Within,ITI_Between,Image1_Duration,Image1_Onset,Image2_Duration,Image2_Onset,Image3_Duration,Image3_Onset,Image4_Duration,Image4_Onset,Sound1_Duration,Sound1_Onset,Sound2_Duration,Sound2_Onset,Sound3_Duration,Sound3_Onset,Sound4_Duration,Sound4_Onset,Fixation_Duration,trials_2.thisRepN,trials_2.thisTrialN,trials_2.thisN,trials_2.thisIndex,trials.thisRepN,trials.thisTrialN,trials.thisN,trials.thisIndex,text_start.started,key_resp_start.started,key_resp_start.keys,key_resp_start.rt,cue_file1.started,cue_file1.stopped,image_1.started,image_1.stopped,image_2.started,image_2.stopped,sound_icon1.started,sound_icon1.stopped,sound_1.started,sound_1.stopped,sound_icon2.started,sound_icon2.stopped,sound_2.started,sound_2.stopped,image_blank_1.started,image_blank_1.stopped,key_press.started,key_press.stopped,fixation_text.started,cue_file2.started,cue_file2.stopped,image_3.started,image_3.stopped,image_4.started,image_4.stopped,sound_icon3.started,sound_icon3.stopped,sound_3.started,sound_3.stopped,sound_icon4.started,sound_icon4.stopped,sound_4.started,sound_4.stopped,response_yes.started,response_yes.stopped,response_no.started,response_no.stopped,iti_blank.started,iti_blank.stopped,fixation_text.stopped,key_press.keys,key_press.corr,key_press.rt,text_score.started,participant,session,date,expName,psychopyVersion,frameRate,
,,,,,,,,,,,,,,,,,,,,,,,,,,,,,,,,,,,,,,,,,,,,,,,,,,,,8.470054917001107,8.470054917001107,2,1.6193349169989233,,,,,,,,,,,,,,,,,,,,,,,,,,,,,,,,,,,,,,,,,,,,,reldom2_s036,001,2025-03-14_12h00.02.032,practice_test2_AC,2022.2.5,None,
,,,,,,,,,,,,,,,,,,,,,,,,,,,,,,,,,,,,,,,,,,,,0,0,0,0,,,,,,,,,,,,,,,,,,,,,,,,,,,,,,,,,,,,,,,,,,,,,,,,,,,,,reldom2_s036,001,2025-03-14_12h00.02.032,practice_test2_AC,2022.2.5,None,
,,,,,,,,,,,,,,,,,,,,,,,,,,,,,,,,,,,,,,,,,,,,1,0,1,0,,,,,,,,,,,,,,,,,,,,,,,,,,,,,,,,,,,,,,,,,,,,,,,,,,,,,reldom2_s036,001,2025-03-14_12h00.02.032,practice_test2_AC,2022.2.5,None,
,,,,,,,,,,,,,,,,,,,,,,,,,,,,,,,,,,,,,,,,,,,,2,0,2,0,,,,,,,,,,,,,,,,,,,,,,,,,,,,,,,,,,,,,,,,,,,,,,,,,,,,,reldom2_s036,001,2025-03-14_12h00.02.032,practice_test2_AC,2022.2.5,None,
,,,,,,,,,,,,,,,,,,,,,,,,,,,,,,,,,,,,,,,,,,,,3,0,3,0,,,,,,,,,,,,,,,,,,,,,,,,,,,,,,,,,,,,,,,,,,,,,,,,,,,,,reldom2_s036,001,2025-03-14_12h00.02.032,practice_test2_AC,2022.2.5,None,
0,0.0,None,fixation,stimulus/viswhat_stim/blank_white.png,stimulus/viswhat_stim/blank_white.png,stimulus/audwhat_stim/blank_white.png,stimulus/audwhat_stim/blank_white.png,stimulus/viswhat_stim/blank_white.png,stimulus/viswhat_stim/blank_white.png,stimulus/viswhat_stim/blank_white.png,stimulus/viswhat_stim/blank_white.png,0.0,0.0,0.0,0.0,0,0.0,0,0.0,0,0.0,0,0.0,0,0.0,0.0,0,0.0,0,0.0,0,0.0,0,0.0,0,0.0,0,0.0,0,0.0,0,0.0,6,,,,,0,0,0,0,,,,,10.32633395800076,10.32633395800076,10.32633395800076,10.32633395800076,10.32633395800076,10.32633395800076,10.32633395800076,10.32633395800076,10.20950666666419,10.32633395800076,10.32633395800076,10.32633395800076,10.20950666666419,10.32633395800076,10.32633395800076,10.32633395800076,10.32633395800076,10.32633395800076,10.32633395800076,10.32633395800076,10.32633395800076,10.32633395800076,10.32633395800076,10.32633395800076,10.32633395800076,10.32633395800076,10.32633395800076,10.276173333330856,10.32633395800076,10.32633395800076,10.32633395800076,10.276173333330856,10.32633395800076,10.32633395800076,10.32633395800076,10.32633395800076,10.32633395800076,15.48600854200049,15.48600854200049,16.544529291997605,None,0,,,reldom2_s036,001,2025-03-14_12h00.02.032,practice_test2_AC,2022.2.5,None,
1,First_Order,1.0,viswhat,stimulus/viswhat_stim/blank_white.png,stimulus/viswhat_stim/blank_white.png,stimulus/viswhat_stim/land_vehicle-vespa.png,stimulus/viswhat_stim/water_vehicle-yacht.png,stimulus/viswhat_stim/blank_white.png,stimulus/viswhat_stim/type_box.png,stimulus/viswhat_stim/type_yes.png,stimulus/viswhat_stim/type_no.png,None,Type,None,Type,1,0.0,0,5.25,0,5.25,0,5.25,0,0.0,0.75,0,0.0,0,0.0,1,0.5,1,2.125,0,0.0,0,0.0,0,0.0,0,0.0,0,,,,,0,1,1,1,,,,,16.544529291997605,16.544529291997605,16.544529291997605,16.544529291997605,16.544529291997605,16.544529291997605,16.544529291997605,16.544529291997605,16.47650383299915,16.544529291997605,16.544529291997605,16.544529291997605,16.47650383299915,16.544529291997605,16.544529291997605,16.544529291997605,18.63028525000118,22.521643125000992,16.544529291997605,16.544529291997605,21.815189583001484,17.022303167002974,18.06764120799926,18.63028525000118,19.680320958002994,16.544529291997605,16.544529291997605,16.509837166332485,16.544529291997605,16.544529291997605,16.544529291997605,16.509837166332485,16.544529291997605,16.544529291997605,21.815189583001484,16.544529291997605,21.815189583001484,21.7777736249991,22.714347833003558,16.544529291997605,1,1,1.5528361670003505,,reldom2_s036,001,2025-03-14_12h00.02.032,practice_test2_AC,2022.2.5,None,
2,First_Order,1.0,viswhat,stimulus/viswhat_stim/blank_white.png,stimulus/viswhat_stim/blank_white.png,stimulus/viswhat_stim/water_vehicle-cargoboat.png,stimulus/viswhat_stim/land_vehicle-oldcar.png,stimulus/viswhat_stim/blank_white.png,stimulus/viswhat_stim/location_box.png,stimulus/viswhat_stim/location_yes.png,stimulus/viswhat_stim/location_no.png,None,Location,None,Type,2,0.0,0,5.25,0,5.25,0,5.25,0,0.0,0.75,0,0.0,0,0.0,1,0.5,1,2.125,0,0.0,0,0.0,0,0.0,0,0.0,0,,,,,0,2,2,2,,,,,22.714347833003558,22.714347833003558,22.714347833003558,22.714347833003558,22.714347833003558,22.714347833003558,22.714347833003558,22.714347833003558,22.63830979166766,22.714347833003558,22.714347833003558,22.714347833003558,22.63830979166766,22.714347833003558,22.714347833003558,22.714347833003558,24.80484858300042,28.66214562499954,22.714347833003558,22.714347833003558,28.010044250004285,23.205534917004115,24.272430999997596,24.80484858300042,25.83320283300418,22.714347833003558,22.714347833003558,22.67164312500099,22.714347833003558,22.714347833003558,22.714347833003558,22.67164312500099,22.714347833003558,22.714347833003558,28.010044250004285,22.714347833003558,28.010044250004285,27.927652167003544,28.895868083003734,22.714347833003558,2,1,0.9743260420000297,,reldom2_s036,001,2025-03-14_12h00.02.032,practice_test2_AC,2022.2.5,None,
3,First_Order,1.0,viswhat,stimulus/viswhat_stim/blank_white.png,stimulus/viswhat_stim/blank_white.png,stimulus/viswhat_stim/land_vehicle-vespa.png,stimulus/viswhat_stim/water_vehicle-sailboat.png,stimulus/viswhat_stim/blank_white.png,stimulus/viswhat_stim/type_box.png,stimulus/viswhat_stim/type_yes.png,stimulus/viswhat_stim/type_no.png,None,Type,None,Type,1,0.0,0,5.25,0,5.25,0,5.25,0,0.0,0.75,0,0.0,0,0.0,1,0.5,1,2.125,0,0.0,0,0.0,0,0.0,0,0.0,0,,,,,0,3,3,3,,,,,28.895868083003734,28.895868083003734,28.895868083003734,28.895868083003734,28.895868083003734,28.895868083003734,28.895868083003734,28.895868083003734,28.778812291666206,28.895868083003734,28.895868083003734,28.895868083003734,28.778812291666206,28.895868083003734,28.895868083003734,28.895868083003734,30.978677332997904,34.857416457998625,28.895868083003734,28.895868083003734,34.24521283300419,29.33600783300062,30.423287999998138,30.978677332997904,32.03593220800394,28.895868083003734,28.895868083003734,28.845478958332873,28.895868083003734,28.895868083003734,28.895868083003734,28.845478958332873,28.895868083003734,28.895868083003734,34.24521283300419,28.895868083003734,34.24521283300419,34.127704167003685,35.437294832998305,28.895868083003734,1,1,0.8845172079963959,,reldom2_s036,001,2025-03-14_12h00.02.032,practice_test2_AC,2022.2.5,None,
4,First_Order,1.0,viswhat,stimulus/viswhat_stim/blank_white.png,stimulus/viswhat_stim/blank_white.png,stimulus/viswhat_stim/land_animal-elephant.png,stimulus/viswhat_stim/water_animal-lobster.png,stimulus/viswhat_stim/blank_white.png,stimulus/viswhat_stim/location_box.png,stimulus/viswhat_stim/location_yes.png,stimulus/viswhat_stim/location_no.png,None,Location,None,Type,2,0.0,0,5.25,0,5.25,0,5.25,0,0.0,0.75,0,0.0,0,0.0,1,0.5,1,2.125,0,0.0,0,0.0,0,0.0,0,0.0,0,,,,,0,4,4,4,,,,,35.437294832998305,35.437294832998305,35.437294832998305,35.437294832998305,35.437294832998305,35.437294832998305,35.437294832998305,35.437294832998305,35.079496749664635,35.437294832998305,35.437294832998305,35.437294832998305,35.079496749664635,35.437294832998305,35.437294832998305,35.437294832998305,37.41238020799938,41.35203220800031,35.437294832998305,35.437294832998305,41.00543620799726,35.795371874999546,37.05452008300199,37.41238020799938,38.675766833002854,35.437294832998305,35.437294832998305,35.26283008299797,35.437294832998305,35.437294832998305,35.437294832998305,35.26283008299797,35.437294832998305,35.437294832998305,41.00543620799726,35.437294832998305,41.00543620799726,40.652325875002134,42.02227745800337,35.437294832998305,2,1,0.8588703330024146,,reldom2_s036,001,2025-03-14_12h00.02.032,practice_test2_AC,2022.2.5,None,
0,0.0,None,fixation,stimulus/viswhat_stim/blank_white.png,stimulus/viswhat_stim/blank_white.png,stimulus/audwhat_stim/blank_white.png,stimulus/audwhat_stim/blank_white.png,stimulus/viswhat_stim/blank_white.png,stimulus/viswhat_stim/blank_white.png,stimulus/viswhat_stim/blank_white.png,stimulus/viswhat_stim/blank_white.png,0.0,0.0,0.0,0.0,0,0.0,0,0.0,0,0.0,0,0.0,0,0.0,0.0,0,0.0,0,0.0,0,0.0,0,0.0,0,0.0,0,0.0,0,0.0,0,0.0,6,,,,,0,5,5,5,,,,,42.02227745800337,42.02227745800337,42.02227745800337,42.02227745800337,42.02227745800337,42.02227745800337,42.02227745800337,42.02227745800337,41.92613770800235,42.02227745800337,42.02227745800337,42.02227745800337,41.92613770800235,42.02227745800337,42.02227745800337,42.02227745800337,42.02227745800337,42.02227745800337,42.02227745800337,42.02227745800337,42.02227745800337,42.02227745800337,42.02227745800337,42.02227745800337,42.02227745800337,42.02227745800337,42.02227745800337,41.97613770800235,42.02227745800337,42.02227745800337,42.02227745800337,41.97613770800235,42.02227745800337,42.02227745800337,42.02227745800337,42.02227745800337,42.02227745800337,47.24927833300171,47.24927833300171,48.20312120800372,None,0,,,reldom2_s036,001,2025-03-14_12h00.02.032,practice_test2_AC,2022.2.5,None,
5,Second_Order,1.0,viswhat,stimulus/viswhat_stim/land_animal-giraffe.png,stimulus/viswhat_stim/water_animal-stingray.png,stimulus/viswhat_stim/land_vehicle-trolley.png,stimulus/viswhat_stim/land_animal-elephant.png,stimulus/viswhat_stim/match_blank.png,stimulus/viswhat_stim/match_box.png,stimulus/viswhat_stim/match_yes.png,stimulus/viswhat_stim/match_no.png,2.0,Match,Type,Location,2,5.25,0,5.25,0,5.25,0,5.25,0,0.75,0.75,1,0.5,1,2.125,1,0.5,1,2.125,0,0.0,0,0.0,0,0.0,0,0.0,0,,,,,0,6,6,6,,,,,48.20312120800372,53.44598566700006,48.65488154200284,49.64644070799841,50.27362516699941,51.27591283299989,48.20312120800372,48.20312120800372,48.20689533300028,48.20312120800372,48.20312120800372,48.20312120800372,48.20689533300028,48.20312120800372,53.44598566700006,54.335688375002064,56.37083474999963,60.26301450000028,54.335688375002064,54.335688375002064,59.65127370799746,54.76588329199876,55.815489166998304,56.37083474999963,57.422896208001475,54.335688375002064,54.335688375002064,54.28166379199829,54.335688375002064,54.335688375002064,54.335688375002064,54.28166379199829,54.335688375002064,54.335688375002064,59.65127370799746,54.335688375002064,59.65127370799746,59.532616582997434,60.47312179199798,54.335688375002064,2,1,1.7661387080006534,,reldom2_s036,001,2025-03-14_12h00.02.032,practice_test2_AC,2022.2.5,None,
6,Second_Order,1.0,viswhat,stimulus/viswhat_stim/land_vehicle-scooter.png,stimulus/viswhat_stim/land_animal-moose.png,stimulus/viswhat_stim/water_vehicle-powercruiser.png,stimulus/viswhat_stim/land_vehicle-truck.png,stimulus/viswhat_stim/match_blank.png,stimulus/viswhat_stim/match_box.png,stimulus/viswhat_stim/match_yes.png,stimulus/viswhat_stim/match_no.png,2.0,Match,Location,Type,2,5.25,0,5.25,0,5.25,0,5.25,0,0.75,0.75,1,0.5,1,2.125,1,0.5,1,2.125,0,0.0,0,0.0,0,0.0,0,0.0,0,,,,,0,7,7,7,,,,,60.47312179199798,65.7263420829986,60.91325370800041,61.90653116699832,62.544049374999304,63.53848187500262,60.47312179199798,60.47312179199798,60.46891762500163,60.47312179199798,60.47312179199798,60.47312179199798,60.46891762500163,60.47312179199798,65.7263420829986,66.5333057079988,68.61823970799742,72.64657570800046,66.5333057079988,66.5333057079988,71.7952459579974,66.98341349999828,67.9969480830041,68.61823970799742,69.6391463750042,66.5333057079988,66.5333057079988,66.50981633300107,66.5333057079988,66.5333057079988,66.5333057079988,66.50981633300107,66.5333057079988,66.5333057079988,71.7952459579974,66.5333057079988,71.7952459579974,71.72434475000045,72.64657570800046,66.5333057079988,2,1,1.8396844169983524,,reldom2_s036,001,2025-03-14_12h00.02.032,practice_test2_AC,2022.2.5,None,
0,0.0,None,fixation,stimulus/viswhat_stim/blank_white.png,stimulus/viswhat_stim/blank_white.png,stimulus/audwhat_stim/blank_white.png,stimulus/audwhat_stim/blank_white.png,stimulus/viswhat_stim/blank_white.png,stimulus/viswhat_stim/blank_white.png,stimulus/viswhat_stim/blank_white.png,stimulus/viswhat_stim/blank_white.png,0.0,0.0,0.0,0.0,0,0.0,0,0.0,0,0.0,0,0.0,0,0.0,0.0,0,0.0,0,0.0,0,0.0,0,0.0,0,0.0,0,0.0,0,0.0,0,0.0,7,,,,,0,8,8,8,,,,,72.64657570800046,72.64657570800046,72.64657570800046,72.64657570800046,72.64657570800046,72.64657570800046,72.64657570800046,72.64657570800046,72.54094395833575,72.64657570800046,72.64657570800046,72.64657570800046,72.54094395833575,72.64657570800046,72.64657570800046,72.64657570800046,72.64657570800046,72.64657570800046,72.64657570800046,72.64657570800046,72.64657570800046,72.64657570800046,72.64657570800046,72.64657570800046,72.64657570800046,72.64657570800046,72.64657570800046,72.59094395833574,72.64657570800046,72.64657570800046,72.64657570800046,72.59094395833574,72.64657570800046,72.64657570800046,72.64657570800046,72.64657570800046,72.64657570800046,77.87012258300092,77.87012258300092,79.9107178330014,None,0,,,reldom2_s036,001,2025-03-14_12h00.02.032,practice_test2_AC,2022.2.5,None,
7,First_Order,2.0,audwhat,stimulus/audwhat_stim/dummy.wav,stimulus/audwhat_stim/dummy.wav,stimulus/audwhat_stim/percussion xylophone_high-pitch_Ftri_loud.wav,stimulus/audwhat_stim/percussion mallet_low-pitch_F_loud.wav,stimulus/audwhat_stim/blank_white.png,stimulus/audwhat_stim/category_box.png,stimulus/audwhat_stim/category_yes.png,stimulus/audwhat_stim/category_no.png,None,Category,None,Category,1,0.0,0,5.25,0,5.25,0,5.25,0,0.0,0.75,0,0.0,0,0.0,0,0.0,0,0.0,0,0.0,0,0.0,1,0.5,1,2.125,0,,,,,0,9,9,9,,,,,79.9107178330014,79.9107178330014,79.9107178330014,79.9107178330014,79.9107178330014,79.9107178330014,79.9107178330014,79.9107178330014,79.8224916250023,79.9107178330014,79.9107178330014,79.9107178330014,79.8224916250023,79.9107178330014,79.9107178330014,79.9107178330014,81.98001054199995,85.87698745800299,79.9107178330014,79.9107178330014,85.19145308300358,79.9107178330014,79.9107178330014,79.9107178330014,79.9107178330014,80.3540494580011,81.38912983299815,80.32139795866921,81.38912983299815,81.98001054199995,83.01671408300172,81.9468714586658,,79.9107178330014,85.19145308300358,79.9107178330014,85.19145308300358,85.1479523750022,86.13165237499925,79.9107178330014,1,1,1.3987963749968912,,reldom2_s036,001,2025-03-14_12h00.02.032,practice_test2_AC,2022.2.5,None,
8,First_Order,2.0,audwhat,stimulus/audwhat_stim/dummy.wav,stimulus/audwhat_stim/dummy.wav,stimulus/audwhat_stim/percussion xylophone_high-pitch_F_loud.wav,stimulus/audwhat_stim/percussion mallet_low-pitch_D_loud.wav,stimulus/audwhat_stim/blank_white.png,stimulus/audwhat_stim/pitch_box.png,stimulus/audwhat_stim/pitch_yes.png,stimulus/audwhat_stim/pitch_no.png,None,Pitch,None,Category,2,0.0,0,5.25,0,5.25,0,5.25,0,0.0,0.75,0,0.0,0,0.0,0,0.0,0,0.0,0,0.0,0,0.0,1,0.5,1,2.125,0,,,,,0,10,10,10,,,,,86.13165237499925,86.13165237499925,86.13165237499925,86.13165237499925,86.13165237499925,86.13165237499925,86.13165237499925,86.13165237499925,86.05294541633532,86.13165237499925,86.13165237499925,86.13165237499925,86.05294541633532,86.13165237499925,86.13165237499925,86.13165237499925,88.2464852080011,92.09392516699882,86.13165237499925,86.13165237499925,91.44896258300287,86.13165237499925,86.13165237499925,86.13165237499925,86.13165237499925,86.62470533300075,87.65694379200431,86.59215683366735,87.65694379200431,88.2464852080011,89.28160850000131,88.21381133366619,,86.13165237499925,91.44896258300287,86.13165237499925,91.44896258300287,91.35665379199781,92.30752312500408,86.13165237499925,2,1,1.6851036660009413,,reldom2_s036,001,2025-03-14_12h00.02.032,practice_test2_AC,2022.2.5,None,
9,First_Order,2.0,audwhat,stimulus/audwhat_stim/dummy.wav,stimulus/audwhat_stim/dummy.wav,stimulus/audwhat_stim/percussion mallet_low-pitch_Dtri_loud.wav,stimulus/audwhat_stim/string viola_low-pitch_Dtri_loud.wav,stimulus/audwhat_stim/blank_white.png,stimulus/audwhat_stim/category_box.png,stimulus/audwhat_stim/category_yes.png,stimulus/audwhat_stim/category_no.png,None,Category,None,Pitch,2,0.0,0,5.25,0,5.25,0,5.25,0,0.0,0.75,0,0.0,0,0.0,0,0.0,0,0.0,0,0.0,0,0.0,1,0.5,1,2.125,0,,,,,0,11,11,11,,,,,92.30752312500408,92.30752312500408,92.30752312500408,92.30752312500408,92.30752312500408,92.30752312500408,92.30752312500408,92.30752312500408,92.22725850033214,92.30752312500408,92.30752312500408,92.30752312500408,92.22725850033214,92.30752312500408,92.30752312500408,92.30752312500408,94.39274745799776,98.28334845800418,92.30752312500408,92.30752312500408,97.63268379199872,92.30752312500408,92.30752312500408,92.30752312500408,92.30752312500408,92.7557857080028,93.79848841700004,92.72252416666403,,94.39274745799776,95.43961741700332,94.35931345866653,,92.30752312500408,97.63268379199872,92.30752312500408,97.63268379199872,97.53915024999878,98.49794791699969,92.30752312500408,2,1,1.2242970000006608,,reldom2_s036,001,2025-03-14_12h00.02.032,practice_test2_AC,2022.2.5,None,
10,First_Order,2.0,audwhat,stimulus/audwhat_stim/dummy.wav,stimulus/audwhat_stim/dummy.wav,stimulus/audwhat_stim/percussion mallet_low-pitch_F_loud.wav,stimulus/audwhat_stim/percussion mallet_high-pitch_Ftri_loud.wav,stimulus/audwhat_stim/blank_white.png,stimulus/audwhat_stim/category_box.png,stimulus/audwhat_stim/category_yes.png,stimulus/audwhat_stim/category_no.png,None,Category,None,Category,1,0.0,0,5.25,0,5.25,0,5.25,0,0.0,0.75,0,0.0,0,0.0,0,0.0,0,0.0,0,0.0,0,0.0,1,0.5,1,2.125,0,,,,,0,12,12,12,,,,,98.49794791699969,98.49794791699969,98.49794791699969,98.49794791699969,98.49794791699969,98.49794791699969,98.49794791699969,98.49794791699969,98.41668179133751,98.49794791699969,98.49794791699969,98.49794791699969,98.41668179133751,98.49794791699969,98.49794791699969,98.49794791699969,100.58982537499833,104.47938395800156,98.49794791699969,98.49794791699969,103.78372904199932,98.49794791699969,98.49794791699969,98.49794791699969,98.49794791699969,98.94740141699731,99.99000833299942,98.91403608366478,,100.58982537499833,101.63990495799953,100.55612224966559,,98.49794791699969,103.78372904199932,98.49794791699969,103.78372904199932,103.74070120800025,104.71289783300017,98.49794791699969,1,1,1.314044708997244,,reldom2_s036,001,2025-03-14_12h00.02.032,practice_test2_AC,2022.2.5,None,
0,0.0,None,fixation,stimulus/viswhat_stim/blank_white.png,stimulus/viswhat_stim/blank_white.png,stimulus/audwhat_stim/blank_white.png,stimulus/audwhat_stim/blank_white.png,stimulus/viswhat_stim/blank_white.png,stimulus/viswhat_stim/blank_white.png,stimulus/viswhat_stim/blank_white.png,stimulus/viswhat_stim/blank_white.png,0.0,0.0,0.0,0.0,0,0.0,0,0.0,0,0.0,0,0.0,0,0.0,0.0,0,0.0,0,0.0,0,0.0,0,0.0,0,0.0,0,0.0,0,0.0,0,0.0,6,,,,,0,13,13,13,,,,,104.71289783300017,104.71289783300017,104.71289783300017,104.71289783300017,104.71289783300017,104.71289783300017,104.71289783300017,104.71289783300017,104.61271729133489,104.71289783300017,104.71289783300017,104.71289783300017,104.61271729133489,104.71289783300017,104.71289783300017,104.71289783300017,104.71289783300017,104.71289783300017,104.71289783300017,104.71289783300017,104.71289783300017,104.71289783300017,104.71289783300017,104.71289783300017,104.71289783300017,104.71289783300017,104.71289783300017,104.6627172913349,104.71289783300017,104.71289783300017,104.71289783300017,104.6627172913349,104.71289783300017,104.71289783300017,104.71289783300017,104.71289783300017,104.71289783300017,109.9220912919991,109.9220912919991,110.84418933300185,None,0,,,reldom2_s036,001,2025-03-14_12h00.02.032,practice_test2_AC,2022.2.5,None,
11,Second_Order,2.0,audwhat,stimulus/audwhat_stim/string cello_low-pitch_D_loud.wav,stimulus/audwhat_stim/string viola_high-pitch_Dtri_loud.wav,stimulus/audwhat_stim/percussion mallet_high-pitch_F_loud.wav,stimulus/audwhat_stim/percussion mallet_low-pitch_Dtri_loud.wav,stimulus/viswhat_stim/match_blank.png,stimulus/viswhat_stim/match_box.png,stimulus/viswhat_stim/match_yes.png,stimulus/viswhat_stim/match_no.png,1.0,Match,Category,Category,1,5.25,0,5.25,0,5.25,0,5.25,0,0.75,0.75,0,0.0,0,0.0,0,0.0,0,0.0,1,0.5,1,2.125,1,0.5,1,2.125,0,,,,,0,14,14,14,,,,,110.84418933300185,116.09640441700321,110.84418933300185,110.84418933300185,110.84418933300185,110.84418933300185,111.29306245800399,112.2840094580024,111.30271266666774,,112.92143650000071,113.9224231249973,112.93021779166544,,116.09640441700321,116.95486858300137,118.99029562500073,122.86816337500204,116.95486858300137,116.95486858300137,122.26039904200297,116.95486858300137,116.95486858300137,116.95486858300137,116.95486858300137,117.40449766699749,118.44660916700377,117.37190262466562,,118.99029562500073,120.03318562499771,118.95717349966823,,116.95486858300137,122.26039904200297,116.95486858300137,122.26039904200297,122.11776458300301,122.98966866700357,116.95486858300137,1,1,1.5609804580017226,,reldom2_s036,001,2025-03-14_12h00.02.032,practice_test2_AC,2022.2.5,None,
12,Second_Order,2.0,audwhat,stimulus/audwhat_stim/string viola_high-pitch_Dtri_loud.wav,stimulus/audwhat_stim/percussion xylophone_high-pitch_Dtri_loud.wav,stimulus/audwhat_stim/string viola_low-pitch_Ftri_loud.wav,stimulus/audwhat_stim/percussion mallet_low-pitch_Ftri_loud.wav,stimulus/viswhat_stim/match_blank.png,stimulus/viswhat_stim/match_box.png,stimulus/viswhat_stim/match_yes.png,stimulus/viswhat_stim/match_no.png,1.0,Match,Pitch,Pitch,1,5.25,0,5.25,0,5.25,0,5.25,0,0.75,0.75,0,0.0,0,0.0,0,0.0,0,0.0,1,0.5,1,2.125,1,0.5,1,2.125,0,,,,,0,15,15,15,,,,,122.98966866700357,128.22990050000226,122.98966866700357,122.98966866700357,122.98966866700357,122.98966866700357,123.43897149999975,124.42978408300405,123.44676283366813,,125.06836366700009,126.06269779200375,125.07539612467032,126.06958937500167,128.22990050000226,129.0924447080033,131.1684099999984,135.03485870800068,129.0924447080033,129.0924447080033,134.38640699999814,129.0924447080033,129.0924447080033,129.0924447080033,129.0924447080033,129.5400969580005,130.57660441700136,129.50741616666735,,131.1684099999984,132.20980858300027,131.13562299967114,,129.0924447080033,134.38640699999814,129.0924447080033,134.38640699999814,134.29371712500142,135.26762233299814,129.0924447080033,1,1,2.102800707994902,,reldom2_s036,001,2025-03-14_12h00.02.032,practice_test2_AC,2022.2.5,None,
0,0.0,None,fixation,stimulus/viswhat_stim/blank_white.png,stimulus/viswhat_stim/blank_white.png,stimulus/audwhat_stim/blank_white.png,stimulus/audwhat_stim/blank_white.png,stimulus/viswhat_stim/blank_white.png,stimulus/viswhat_stim/blank_white.png,stimulus/viswhat_stim/blank_white.png,stimulus/viswhat_stim/blank_white.png,0.0,0.0,0.0,0.0,0,0.0,0,0.0,0,0.0,0,0.0,0,0.0,0.0,0,0.0,0,0.0,0,0.0,0,0.0,0,0.0,0,0.0,0,0.0,0,0.0,6,,,,,0,16,16,16,,,,,135.26762233299814,135.26762233299814,135.26762233299814,135.26762233299814,135.26762233299814,135.26762233299814,135.26762233299814,135.26762233299814,135.16819204133404,135.26762233299814,135.26762233299814,135.26762233299814,135.16819204133404,135.26762233299814,135.26762233299814,135.26762233299814,135.26762233299814,135.26762233299814,135.26762233299814,135.26762233299814,135.26762233299814,135.26762233299814,135.26762233299814,135.26762233299814,135.26762233299814,135.26762233299814,135.26762233299814,135.21819204133402,135.26762233299814,135.26762233299814,135.26762233299814,135.21819204133402,135.26762233299814,135.26762233299814,135.26762233299814,135.26762233299814,135.26762233299814,140.46906729200418,140.46906729200418,141.54412141699868,None,0,,,reldom2_s036,001,2025-03-14_12h00.02.032,practice_test2_AC,2022.2.5,None,
13,First_Order,3.0,audwhere,stimulus/audwhere_stim/dummy.wav,stimulus/audwhere_stim/dummy.wav,stimulus/audwhere_stim/left_toward_270h.wav,stimulus/audwhere_stim/right_toward_270h.wav,stimulus/audwhere_stim/blank_white.png,stimulus/audwhere_stim/direction_box.png,stimulus/audwhere_stim/direction_yes.png,stimulus/audwhere_stim/direction_no.png,None,Direction,None,Direction,1,0.0,0,5.25,0,5.25,0,5.25,0,0.0,0.75,0,0.0,0,0.0,0,0.0,0,0.0,0,0.0,0,0.0,1,0.5,1,2.125,0,,,,,0,17,17,17,,,,,141.54412141699868,141.54412141699868,141.54412141699868,141.54412141699868,141.54412141699868,141.54412141699868,141.54412141699868,141.54412141699868,141.468652958664,141.54412141699868,141.54412141699868,141.54412141699868,141.468652958664,141.54412141699868,141.54412141699868,141.54412141699868,143.64069387500058,147.48411591700278,141.54412141699868,141.54412141699868,146.8341226249977,141.54412141699868,141.54412141699868,141.54412141699868,141.54412141699868,141.99191120800242,143.03980020800373,141.95878054167068,,143.64069387500058,144.69011704200238,143.60659774966578,,141.54412141699868,146.8341226249977,141.54412141699868,146.8341226249977,146.74095037500228,147.700037583003,141.54412141699868,1,1,2.7214042499981588,,reldom2_s036,001,2025-03-14_12h00.02.032,practice_test2_AC,2022.2.5,None,
14,First_Order,3.0,audwhere,stimulus/audwhere_stim/dummy.wav,stimulus/audwhere_stim/dummy.wav,stimulus/audwhere_stim/right_away_280h.wav,stimulus/audwhere_stim/right_toward_290h.wav,stimulus/audwhere_stim/blank_white.png,stimulus/audwhere_stim/side_box.png,stimulus/audwhere_stim/side_yes.png,stimulus/audwhere_stim/side_no.png,None,Side,None,Side,1,0.0,0,5.25,0,5.25,0,5.25,0,0.0,0.75,0,0.0,0,0.0,0,0.0,0,0.0,0,0.0,0,0.0,1,0.5,1,2.125,0,,,,,0,18,18,18,,,,,147.700037583003,147.700037583003,147.700037583003,147.700037583003,147.700037583003,147.700037583003,147.700037583003,147.700037583003,147.61744925033614,147.700037583003,147.700037583003,147.700037583003,147.61744925033614,147.700037583003,147.700037583003,147.700037583003,149.7900846670018,153.68208125000092,147.700037583003,147.700037583003,152.98408958299842,147.700037583003,147.700037583003,147.700037583003,147.700037583003,148.14798708300077,149.1961229169974,148.11491041666548,,149.7900846670018,150.84027012500155,149.7568774586655,150.79036108300352,147.700037583003,152.98408958299842,147.700037583003,152.98408958299842,152.9399014169976,153.89891612499923,147.700037583003,1,1,0.9841288749958039,,reldom2_s036,001,2025-03-14_12h00.02.032,practice_test2_AC,2022.2.5,None,
15,First_Order,3.0,audwhere,stimulus/audwhere_stim/dummy.wav,stimulus/audwhere_stim/dummy.wav,stimulus/audwhere_stim/right_away_270h.wav,stimulus/audwhere_stim/right_toward_300h.wav,stimulus/audwhere_stim/blank_white.png,stimulus/audwhere_stim/side_box.png,stimulus/audwhere_stim/side_yes.png,stimulus/audwhere_stim/side_no.png,None,Side,None,Side,1,0.0,0,5.25,0,5.25,0,5.25,0,0.0,0.75,0,0.0,0,0.0,0,0.0,0,0.0,0,0.0,0,0.0,1,0.5,1,2.125,0,,,,,0,19,19,19,,,,,153.89891612499923,153.89891612499923,153.89891612499923,153.89891612499923,153.89891612499923,153.89891612499923,153.89891612499923,153.89891612499923,153.81541458333427,153.89891612499923,153.89891612499923,153.89891612499923,153.81541458333427,153.89891612499923,153.89891612499923,153.89891612499923,155.99752479200106,159.84356158300216,153.89891612499923,153.89891612499923,159.19162708300428,153.89891612499923,153.89891612499923,153.89891612499923,153.89891612499923,154.34842441700312,155.39708929200424,154.31468999966845,,155.99752479200106,157.04950179200387,155.9639419166672,,153.89891612499923,159.19162708300428,153.89891612499923,159.19162708300428,159.09846975000255,160.05920958299976,153.89891612499923,1,1,0.9955800419993466,,reldom2_s036,001,2025-03-14_12h00.02.032,practice_test2_AC,2022.2.5,None,
16,First_Order,3.0,audwhere,stimulus/audwhere_stim/dummy.wav,stimulus/audwhere_stim/dummy.wav,stimulus/audwhere_stim/right_toward_300h.wav,stimulus/audwhere_stim/right_away_290h.wav,stimulus/audwhere_stim/blank_white.png,stimulus/audwhere_stim/direction_box.png,stimulus/audwhere_stim/direction_yes.png,stimulus/audwhere_stim/direction_no.png,None,Direction,None,Side,2,0.0,0,5.25,0,5.25,0,5.25,0,0.0,0.75,0,0.0,0,0.0,0,0.0,0,0.0,0,0.0,0,0.0,1,0.5,1,2.125,0,,,,,0,20,20,20,,,,,160.05920958299976,160.05920958299976,160.05920958299976,160.05920958299976,160.05920958299976,160.05920958299976,160.05920958299976,160.05920958299976,159.9768949163355,160.05920958299976,160.05920958299976,160.05920958299976,159.9768949163355,160.05920958299976,160.05920958299976,160.05920958299976,162.15901387500344,166.02063450000423,160.05920958299976,160.05920958299976,165.3624924579999,160.05920958299976,160.05920958299976,160.05920958299976,160.05920958299976,160.50956245799898,161.55973654200352,160.47601424967095,,162.15901387500344,163.20988141700218,162.12628437467018,,160.05920958299976,165.3624924579999,160.05920958299976,165.3624924579999,165.26793924999947,166.25609416700172,160.05920958299976,2,1,1.3206648749983287,,reldom2_s036,001,2025-03-14_12h00.02.032,practice_test2_AC,2022.2.5,None,
0,0.0,None,fixation,stimulus/viswhere_stim/blank_white.png,stimulus/viswhere_stim/blank_white.png,stimulus/audwhere_stim/blank_white.png,stimulus/audwhere_stim/blank_white.png,stimulus/viswhere_stim/blank_white.png,stimulus/viswhere_stim/blank_white.png,stimulus/viswhat_stim/blank_white.png,stimulus/viswhat_stim/blank_white.png,0.0,0.0,0.0,0.0,0,0.0,0,0.0,0,0.0,0,0.0,0,0.0,0.0,0,0.0,0,0.0,0,0.0,0,0.0,0,0.0,0,0.0,0,0.0,0,0.0,5,,,,,0,21,21,21,,,,,166.25609416700172,166.25609416700172,166.25609416700172,166.25609416700172,166.25609416700172,166.25609416700172,166.25609416700172,166.25609416700172,166.1539678333376,166.25609416700172,166.25609416700172,166.25609416700172,166.1539678333376,166.25609416700172,166.25609416700172,166.25609416700172,166.25609416700172,166.25609416700172,166.25609416700172,166.25609416700172,166.25609416700172,166.25609416700172,166.25609416700172,166.25609416700172,166.25609416700172,166.25609416700172,166.25609416700172,166.20396783333757,166.25609416700172,166.25609416700172,166.25609416700172,166.20396783333757,166.25609416700172,166.25609416700172,166.25609416700172,166.25609416700172,166.25609416700172,171.5450246670007,171.5450246670007,171.34128025000246,None,0,,,reldom2_s036,001,2025-03-14_12h00.02.032,practice_test2_AC,2022.2.5,None,
17,Second_Order,3.0,audwhere,stimulus/audwhere_stim/right_toward_270h.wav,stimulus/audwhere_stim/left_toward_290h.wav,stimulus/audwhere_stim/left_away_270h.wav,stimulus/audwhere_stim/left_toward_290h.wav,stimulus/viswhat_stim/match_blank.png,stimulus/viswhat_stim/match_box.png,stimulus/viswhat_stim/match_yes.png,stimulus/viswhat_stim/match_no.png,2.0,Match,Direction,Side,2,5.25,0,5.25,0,5.25,0,5.25,0,0.75,0.75,0,0.0,0,0.0,0,0.0,0,0.0,1,0.5,1,2.125,1,0.5,1,2.125,0,,,,,0,22,22,22,,,,,171.5450246670007,176.78566183300427,171.5450246670007,171.5450246670007,171.5450246670007,171.5450246670007,172.006111374998,173.0029134580036,172.0138427086679,,173.61867158300447,174.61047445800068,173.6272872916709,174.61666633300047,176.78566183300427,177.64382625000144,179.69408795799973,183.54682441700425,177.64382625000144,177.64382625000144,182.93795849999879,177.64382625000144,177.64382625000144,177.64382625000144,177.64382625000144,178.09959241699835,179.14460150000377,178.06613508367107,,179.69408795799973,180.74427945799835,179.6607053336668,180.69370004200027,177.64382625000144,182.93795849999879,177.64382625000144,182.93795849999879,182.84404033300234,183.71052141700056,177.64382625000144,2,1,1.1432689590001246,,reldom2_s036,001,2025-03-14_12h00.02.032,practice_test2_AC,2022.2.5,None,
18,Second_Order,3.0,audwhere,stimulus/audwhere_stim/left_toward_270h.wav,stimulus/audwhere_stim/right_toward_300h.wav,stimulus/audwhere_stim/right_toward_300h.wav,stimulus/audwhere_stim/right_away_270h.wav,stimulus/viswhat_stim/match_blank.png,stimulus/viswhat_stim/match_box.png,stimulus/viswhat_stim/match_yes.png,stimulus/viswhat_stim/match_no.png,2.0,Match,Direction,Side,2,5.25,0,5.25,0,5.25,0,5.25,0,0.75,0.75,0,0.0,0,0.0,0,0.0,0,0.0,1,0.5,1,2.125,1,0.5,1,2.125,0,,,,,0,23,23,23,,,,,183.71052141700056,188.95875679200253,183.71052141700056,183.71052141700056,183.71052141700056,183.71052141700056,184.16231145799975,185.1569435420024,184.1711357916686,,185.79278762500326,186.78330179199838,185.80116208366624,,188.95875679200253,189.81448466700385,191.85315195799922,195.75003362500138,189.81448466700385,189.81448466700385,195.09613062500284,189.81448466700385,189.81448466700385,189.81448466700385,189.81448466700385,190.26545708299818,191.30918566699984,190.2327983336693,,191.85315195799922,192.90255533299933,191.8201746246671,,189.81448466700385,195.09613062500284,189.81448466700385,195.09613062500284,195.00290470800246,195.98469495800236,189.81448466700385,2,1,1.2161685000028228,,reldom2_s036,001,2025-03-14_12h00.02.032,practice_test2_AC,2022.2.5,None,
0,0.0,None,fixation,stimulus/viswhere_stim/blank_white.png,stimulus/viswhere_stim/blank_white.png,stimulus/audwhere_stim/blank_white.png,stimulus/audwhere_stim/blank_white.png,stimulus/viswhere_stim/blank_white.png,stimulus/viswhere_stim/blank_white.png,stimulus/viswhat_stim/blank_white.png,stimulus/viswhat_stim/blank_white.png,0.0,0.0,0.0,0.0,0,0.0,0,0.0,0,0.0,0,0.0,0,0.0,0.0,0,0.0,0,0.0,0,0.0,0,0.0,0,0.0,0,0.0,0,0.0,0,0.0,5,,,,,0,24,24,24,,,,,195.98469495800236,195.98469495800236,195.98469495800236,195.98469495800236,195.98469495800236,195.98469495800236,195.98469495800236,195.98469495800236,195.88336695833473,195.98469495800236,195.98469495800236,195.98469495800236,195.88336695833473,195.98469495800236,195.98469495800236,195.98469495800236,195.98469495800236,195.98469495800236,195.98469495800236,195.98469495800236,195.98469495800236,195.98469495800236,195.98469495800236,195.98469495800236,195.98469495800236,195.98469495800236,195.98469495800236,195.93336695833472,195.98469495800236,195.98469495800236,195.98469495800236,195.93336695833472,195.98469495800236,195.98469495800236,195.98469495800236,195.98469495800236,195.98469495800236,201.300469875001,201.300469875001,201.05665908299852,None,0,,,reldom2_s036,001,2025-03-14_12h00.02.032,practice_test2_AC,2022.2.5,None,
19,First_Order,4.0,viswhere,stimulus/viswhere_stim/blank_white.png,stimulus/viswhere_stim/blank_white.png,stimulus/viswhere_stim/90-deg_dot-right_peru.png,stimulus/viswhere_stim/120-deg_dot-right_slateblue.png,stimulus/viswhere_stim/blank_white.png,stimulus/viswhere_stim/dot_box.png,stimulus/viswhere_stim/dot_yes.png,stimulus/viswhere_stim/dot_no.png,None,Dot,None,Dot,1,0.0,0,5.25,0,5.25,0,5.25,0,0.0,0.75,0,0.0,0,0.0,1,0.5,1,2.125,0,0.0,0,0.0,0,0.0,0,0.0,0,,,,,0,25,25,25,,,,,201.300469875001,201.300469875001,201.300469875001,201.300469875001,201.300469875001,201.300469875001,201.300469875001,201.300469875001,201.27842979166843,201.300469875001,201.300469875001,201.300469875001,201.27842979166843,201.300469875001,201.300469875001,201.300469875001,203.40434816700144,207.36571695800376,201.300469875001,201.300469875001,206.5605220830039,201.7793157499982,202.79000566700415,203.40434816700144,204.41658854200068,201.300469875001,201.300469875001,201.27842979166843,201.300469875001,201.300469875001,201.300469875001,201.27842979166843,201.300469875001,201.300469875001,206.5605220830039,201.300469875001,206.5605220830039,206.52104158300062,207.36571695800376,201.300469875001,1,1,1.7850016669981414,,reldom2_s036,001,2025-03-14_12h00.02.032,practice_test2_AC,2022.2.5,None,
20,First_Order,4.0,viswhere,stimulus/viswhere_stim/blank_white.png,stimulus/viswhere_stim/blank_white.png,stimulus/viswhere_stim/30-deg_dot-right_turquoise.png,stimulus/viswhere_stim/60-deg_dot-right_seagreen.png,stimulus/viswhere_stim/blank_white.png,stimulus/viswhere_stim/line_box.png,stimulus/viswhere_stim/line_yes.png,stimulus/viswhere_stim/line_no.png,None,Line,None,Dot,2,0.0,0,5.25,0,5.25,0,5.25,0,0.0,0.75,0,0.0,0,0.0,1,0.5,1,2.125,0,0.0,0,0.0,0,0.0,0,0.0,0,,,,,0,26,26,26,,,,,207.36571695800376,207.36571695800376,207.36571695800376,207.36571695800376,207.36571695800376,207.36571695800376,207.36571695800376,207.36571695800376,207.3427103753323,207.36571695800376,207.36571695800376,207.36571695800376,207.3427103753323,207.36571695800376,207.36571695800376,207.36571695800376,209.47288400000252,213.43759245800175,207.36571695800376,207.36571695800376,212.63604425000085,207.84529116700287,208.85571137499937,209.47288400000252,210.48807354200108,207.36571695800376,207.36571695800376,207.3427103753323,207.36571695800376,207.36571695800376,207.36571695800376,207.3427103753323,207.36571695800376,207.36571695800376,212.63604425000085,207.36571695800376,212.63604425000085,212.59633708299953,213.43759245800175,207.36571695800376,2,1,1.1876420420012437,,reldom2_s036,001,2025-03-14_12h00.02.032,practice_test2_AC,2022.2.5,None,
21,First_Order,4.0,viswhere,stimulus/viswhere_stim/blank_white.png,stimulus/viswhere_stim/blank_white.png,stimulus/viswhere_stim/120-deg_dot-left_goldenrod.png,stimulus/viswhere_stim/90-deg_dot-left_seagreen.png,stimulus/viswhere_stim/blank_white.png,stimulus/viswhere_stim/line_box.png,stimulus/viswhere_stim/line_yes.png,stimulus/viswhere_stim/line_no.png,None,Line,None,Dot,2,0.0,0,5.25,0,5.25,0,5.25,0,0.0,0.75,0,0.0,0,0.0,1,0.5,1,2.125,0,0.0,0,0.0,0,0.0,0,0.0,0,,,,,0,27,27,27,,,,,213.43759245800175,213.43759245800175,213.43759245800175,213.43759245800175,213.43759245800175,213.43759245800175,213.43759245800175,213.43759245800175,213.41368533333784,213.43759245800175,213.43759245800175,213.43759245800175,213.41368533333784,213.43759245800175,213.43759245800175,213.43759245800175,215.54569987500145,219.40516266700433,213.43759245800175,213.43759245800175,218.68887841700052,213.9186654580044,214.92967108300218,215.54569987500145,216.56277550000232,213.43759245800175,213.43759245800175,213.43035200000452,213.43759245800175,213.43759245800175,213.43759245800175,213.43035200000452,213.43759245800175,213.43759245800175,218.68887841700052,213.43759245800175,218.68887841700052,218.6716030000025,219.5136011249997,213.43759245800175,2,1,0.9145002079967526,,reldom2_s036,001,2025-03-14_12h00.02.032,practice_test2_AC,2022.2.5,None,
22,First_Order,4.0,viswhere,stimulus/viswhere_stim/blank_white.png,stimulus/viswhere_stim/blank_white.png,stimulus/viswhere_stim/150-deg_dot-right_royalblue.png,stimulus/viswhere_stim/150-deg_dot-left_slateblue.png,stimulus/viswhere_stim/blank_white.png,stimulus/viswhere_stim/dot_box.png,stimulus/viswhere_stim/dot_yes.png,stimulus/viswhere_stim/dot_no.png,None,Dot,None,Line,2,0.0,0,5.25,0,5.25,0,5.25,0,0.0,0.75,0,0.0,0,0.0,1,0.5,1,2.125,0,0.0,0,0.0,0,0.0,0,0.0,0,,,,,0,28,28,28,,,,,219.5136011249997,219.5136011249997,219.5136011249997,219.5136011249997,219.5136011249997,219.5136011249997,219.5136011249997,219.5136011249997,219.48849600033768,219.5136011249997,219.5136011249997,219.5136011249997,219.48849600033768,219.5136011249997,219.5136011249997,219.5136011249997,221.61882233300275,225.48453545800294,219.5136011249997,219.5136011249997,224.7847069999989,219.99829583300016,221.01945091700327,221.61882233300275,222.64226158300153,219.5136011249997,219.5136011249997,219.50516266700436,219.5136011249997,219.5136011249997,219.5136011249997,219.50516266700436,219.5136011249997,219.5136011249997,224.7847069999989,219.5136011249997,224.7847069999989,224.74462658300035,225.66769866699906,219.5136011249997,2,1,1.4929063329982455,,reldom2_s036,001,2025-03-14_12h00.02.032,practice_test2_AC,2022.2.5,None,
0,0.0,None,fixation,stimulus/viswhere_stim/blank_white.png,stimulus/viswhere_stim/blank_white.png,stimulus/audwhere_stim/blank_white.png,stimulus/audwhere_stim/blank_white.png,stimulus/viswhere_stim/blank_white.png,stimulus/viswhere_stim/blank_white.png,stimulus/viswhat_stim/blank_white.png,stimulus/viswhat_stim/blank_white.png,0.0,0.0,0.0,0.0,0,0.0,0,0.0,0,0.0,0,0.0,0,0.0,0.0,0,0.0,0,0.0,0,0.0,0,0.0,0,0.0,0,0.0,0,0.0,0,0.0,5,,,,,0,29,29,29,,,,,225.66769866699906,225.66769866699906,225.66769866699906,225.66769866699906,225.66769866699906,225.66769866699906,225.66769866699906,225.66769866699906,225.56786879133628,225.66769866699906,225.66769866699906,225.66769866699906,225.56786879133628,225.66769866699906,225.66769866699906,225.66769866699906,225.66769866699906,225.66769866699906,225.66769866699906,225.66769866699906,225.66769866699906,225.66769866699906,225.66769866699906,225.66769866699906,225.66769866699906,225.66769866699906,225.66769866699906,225.6178687913363,225.66769866699906,225.66769866699906,225.66769866699906,225.6178687913363,225.66769866699906,225.66769866699906,225.66769866699906,225.66769866699906,225.66769866699906,230.9138773750019,230.9138773750019,230.73679770799936,None,0,,,reldom2_s036,001,2025-03-14_12h00.02.032,practice_test2_AC,2022.2.5,None,
23,Second_Order,4.0,viswhere,stimulus/viswhere_stim/150-deg_dot-right_slateblue.png,stimulus/viswhere_stim/150-deg_dot-left_turquoise.png,stimulus/viswhere_stim/90-deg_dot-left_mediumslateblue.png,stimulus/viswhere_stim/90-deg_dot-right_peru.png,stimulus/viswhat_stim/match_blank.png,stimulus/viswhat_stim/match_box.png,stimulus/viswhat_stim/match_yes.png,stimulus/viswhat_stim/match_no.png,1.0,Match,Line,Line,1,5.25,0,5.25,0,5.25,0,5.25,0,0.75,0.75,1,0.5,1,2.125,1,0.5,1,2.125,0,0.0,0,0.0,0,0.0,0,0.0,0,,,,,0,30,30,30,,,,,230.9138773750019,236.15883470800327,231.38707462500315,232.38260291700135,233.01291283300088,234.00852429200313,230.9138773750019,230.9138773750019,230.9095274586706,230.9138773750019,230.9138773750019,230.9138773750019,230.9095274586706,230.9138773750019,236.15883470800327,236.96051120800257,239.0301211670012,242.9009208330026,236.96051120800257,236.96051120800257,242.21748820799985,237.4090378750043,238.43320920800033,239.0301211670012,240.05658958300046,236.96051120800257,236.96051120800257,236.94256249999745,236.96051120800257,236.96051120800257,236.96051120800257,236.94256249999745,236.96051120800257,236.96051120800257,242.21748820799985,236.96051120800257,242.21748820799985,242.15462241700152,242.9405787920041,236.96051120800257,1,1,0.8419347499948344,,reldom2_s036,001,2025-03-14_12h00.02.032,practice_test2_AC,2022.2.5,None,
24,Second_Order,4.0,viswhere,stimulus/viswhere_stim/150-deg_dot-right_mediumslateblue.png,stimulus/viswhere_stim/30-deg_dot-right_salmon.png,stimulus/viswhere_stim/120-deg_dot-right_royalblue.png,stimulus/viswhere_stim/120-deg_dot-left_salmon.png,stimulus/viswhat_stim/match_blank.png,stimulus/viswhat_stim/match_box.png,stimulus/viswhat_stim/match_yes.png,stimulus/viswhat_stim/match_no.png,2.0,Match,Dot,Line,2,5.25,0,5.25,0,5.25,0,5.25,0,0.75,0.75,1,0.5,1,2.125,1,0.5,1,2.125,0,0.0,0,0.0,0,0.0,0,0.0,0,,,,,0,31,31,31,,,,,242.9405787920041,248.1840282080011,243.42115454200393,244.41260054200393,245.0523747920015,246.04568950000248,242.9405787920041,242.9405787920041,242.9509208330026,242.9405787920041,242.9405787920041,242.9405787920041,242.9509208330026,242.9405787920041,248.1840282080011,248.97936416700395,251.0585371249981,254.92404641699977,248.97936416700395,248.97936416700395,254.2285447079994,249.42512004200398,250.43981483300013,251.0585371249981,252.0762614999985,248.97936416700395,248.97936416700395,248.95267070833557,248.97936416700395,248.97936416700395,248.97936416700395,248.95267070833557,248.97936416700395,248.97936416700395,254.2285447079994,248.97936416700395,254.2285447079994,254.18858349999937,255.11036095800227,248.97936416700395,2,1,0.964032000003499,,reldom2_s036,001,2025-03-14_12h00.02.032,practice_test2_AC,2022.2.5,None,
0,0.0,None,fixation,stimulus/viswhere_stim/blank_white.png,stimulus/viswhere_stim/blank_white.png,stimulus/audwhere_stim/blank_white.png,stimulus/audwhere_stim/blank_white.png,stimulus/viswhere_stim/blank_white.png,stimulus/viswhere_stim/blank_white.png,stimulus/viswhat_stim/blank_white.png,stimulus/viswhat_stim/blank_white.png,0.0,0.0,0.0,0.0,0,0.0,0,0.0,0,0.0,0,0.0,0,0.0,0.0,0,0.0,0,0.0,0,0.0,0,0.0,0,0.0,0,0.0,0,0.0,0,0.0,7,,,,,0,32,32,32,,,,,255.11036095800227,255.11036095800227,255.11036095800227,255.11036095800227,255.11036095800227,255.11036095800227,255.11036095800227,255.11036095800227,255.00737975033311,255.11036095800227,255.11036095800227,255.11036095800227,255.00737975033311,255.11036095800227,255.11036095800227,255.11036095800227,255.11036095800227,255.11036095800227,255.11036095800227,255.11036095800227,255.11036095800227,255.11036095800227,255.11036095800227,255.11036095800227,255.11036095800227,255.11036095800227,255.11036095800227,255.05737975033313,255.11036095800227,255.11036095800227,255.11036095800227,255.05737975033313,255.11036095800227,255.11036095800227,255.11036095800227,255.11036095800227,255.11036095800227,260.33153712499916,260.33153712499916,262.2649434999985,None,0,,,reldom2_s036,001,2025-03-14_12h00.02.032,practice_test2_AC,2022.2.5,None,
,,,,,,,,,,,,,,,,,,,,,,,,,,,,,,,,,,,,,,,,,,,,,,,,,,,,,,,,,,,,,,,,,,,,,,,,,,,,,,,,,,,,,,,,,,,,,,,,,,,262.2649434999985,,,,,,,
