Trial,Order,Block,Type,Stimuli_File1,Stimuli_File2,Stimuli_File3,Stimuli_File4,Cue_File1,Cue_File2,Response_File_Yes,Response_File_No,Match,Cue_Dimension,Pair1_Dimension,Pair2_Dimension,Key,Cue1_Duration,Cue1_Onset,Cue2_Duration,Cue2_Onset,ResponseYes_Duration,ResponseYes_Onset,ResponseNo_Duration,ResponseNo_Onset,ITI_Within,ITI_Between,Image1_Duration,Image1_Onset,Image2_Duration,Image2_Onset,Image3_Duration,Image3_Onset,Image4_Duration,Image4_Onset,Sound1_Duration,Sound1_Onset,Sound2_Duration,Sound2_Onset,Sound3_Duration,Sound3_Onset,Sound4_Duration,Sound4_Onset,Fixation_Duration,trials_2.thisRepN,trials_2.thisTrialN,trials_2.thisN,trials_2.thisIndex,trials.thisRepN,trials.thisTrialN,trials.thisN,trials.thisIndex,text_start.started,key_resp_start.started,key_resp_start.keys,key_resp_start.rt,text2.started,key_resp_2.started,key_resp_2.keys,key_resp_2.rt,cue_file1.started,cue_file1.stopped,image_1.started,image_1.stopped,image_2.started,image_2.stopped,sound_icon1.started,sound_icon1.stopped,sound_1.started,sound_1.stopped,sound_icon2.started,sound_icon2.stopped,sound_2.started,sound_2.stopped,image_blank_1.started,image_blank_1.stopped,key_press.started,key_press.stopped,fixation_text.started,cue_file2.started,cue_file2.stopped,image_3.started,image_3.stopped,image_4.started,image_4.stopped,sound_icon3.started,sound_icon3.stopped,sound_3.started,sound_3.stopped,sound_icon4.started,sound_icon4.stopped,sound_4.started,sound_4.stopped,response_yes.started,response_yes.stopped,response_no.started,response_no.stopped,iti_blank.started,iti_blank.stopped,fixation_text.stopped,key_press.keys,key_press.corr,key_press.rt,participant,session,date,expName,psychopyVersion,frameRate,
,,,,,,,,,,,,,,,,,,,,,,,,,,,,,,,,,,,,,,,,,,,,,,,,,,,,7.395451042000786,7.395451042000786,2,0.9183417079912033,,,,,,,,,,,,,,,,,,,,,,,,,,,,,,,,,,,,,,,,,,,,,,,,reldom2_s036,001,2025-03-14_12h20.21.967,What-A-Scan_AC,2022.2.5,None,
,,,,,,,,,,,,,,,,,,,,,,,,,,,,,,,,,,,,,,,,,,,,0,0,0,0,,,,,,,,,8.345682792001753,8.345682792001753,5,14.447851874989283,,,,,,,,,,,,,,,,,,,,,,,,,,,,,,,,,,,,,,,,,,,,reldom2_s036,001,2025-03-14_12h20.21.967,What-A-Scan_AC,2022.2.5,None,
,,,,,,,,,,,,,,,,,,,,,,,,,,,,,,,,,,,,,,,,,,,,1,0,1,0,,,,,,,,,22.805062875006115,22.805062875006115,5,1.989233415995841,,,,,,,,,,,,,,,,,,,,,,,,,,,,,,,,,,,,,,,,,,,,reldom2_s036,001,2025-03-14_12h20.21.967,What-A-Scan_AC,2022.2.5,None,
,,,,,,,,,,,,,,,,,,,,,,,,,,,,,,,,,,,,,,,,,,,,2,0,2,0,,,,,,,,,24.816227000002982,24.816227000002982,5,1.9764527499937685,,,,,,,,,,,,,,,,,,,,,,,,,,,,,,,,,,,,,,,,,,,,reldom2_s036,001,2025-03-14_12h20.21.967,What-A-Scan_AC,2022.2.5,None,
,,,,,,,,,,,,,,,,,,,,,,,,,,,,,,,,,,,,,,,,,,,,3,0,3,0,,,,,,,,,26.812522416999855,26.812522416999855,5,1.9816294999909587,,,,,,,,,,,,,,,,,,,,,,,,,,,,,,,,,,,,,,,,,,,,reldom2_s036,001,2025-03-14_12h20.21.967,What-A-Scan_AC,2022.2.5,None,
0,0.0,None,fixation,stimulus/audwhat_stim/blank_white.png,stimulus/audwhat_stim/blank_white.png,stimulus/viswhat_stim/blank_white.png,stimulus/viswhat_stim/blank_white.png,stimulus/audwhat_stim/blank_white.png,stimulus/audwhat_stim/blank_white.png,stimulus/audwhat_stim/blank_white.png,stimulus/audwhat_stim/blank_white.png,0.0,0.0,0.0,0.0,0,0.0,0,0.0,0,0.0,0,0.0,0,0.0,0.0,0,0.0,0,0.0,0,0.0,0,0.0,0,0.0,0,0.0,0,0.0,0,0.0,16,,,,,0,0,0,0,,,,,,,,,29.0068690420012,29.0068690420012,29.0068690420012,29.0068690420012,29.0068690420012,29.0068690420012,29.0068690420012,29.0068690420012,28.913110166669746,29.0068690420012,29.0068690420012,29.0068690420012,28.913110166669746,29.0068690420012,29.0068690420012,29.0068690420012,29.0068690420012,29.0068690420012,29.0068690420012,29.0068690420012,29.0068690420012,29.0068690420012,29.0068690420012,29.0068690420012,29.0068690420012,29.0068690420012,29.0068690420012,28.963110166669743,29.0068690420012,29.0068690420012,29.0068690420012,28.963110166669743,29.0068690420012,29.0068690420012,29.0068690420012,29.0068690420012,29.0068690420012,34.22769554200204,34.22769554200204,45.23228879200178,None,0,,reldom2_s036,001,2025-03-14_12h20.21.967,What-A-Scan_AC,2022.2.5,None,
1,First_Order,1.0,audwhat,stimulus/audwhat_stim/dummy.wav,stimulus/audwhat_stim/dummy.wav,stimulus/audwhat_stim/percussion mallet_low-pitch_Dtri_loud.wav,stimulus/audwhat_stim/percussion xylophone_high-pitch_F_loud.wav,stimulus/audwhat_stim/blank_white.png,stimulus/audwhat_stim/pitch_box.png,stimulus/audwhat_stim/pitch_yes.png,stimulus/audwhat_stim/pitch_no.png,None,Pitch,None,Category,2,0.0,0,5.125,0,5.125,0,5.125,0,0.0,0.625,0,0.0,0,0.0,0,0.0,0,0.0,0,0.0,0,0.0,1,0.5,1,2.125,0,,,,,0,1,1,1,,,,,,,,,45.23228879200178,45.23228879200178,45.23228879200178,45.23228879200178,45.23228879200178,45.23228879200178,45.23228879200178,45.23228879200178,45.163226500006566,45.23228879200178,45.23228879200178,45.23228879200178,45.163226500006566,45.23228879200178,45.23228879200178,45.23228879200178,47.30500216700602,51.33803629199974,45.23228879200178,45.23228879200178,50.39447908400325,45.23228879200178,45.23228879200178,45.23228879200178,45.23228879200178,45.71718900000269,46.774520459002815,45.689727708672095,,47.30500216700602,48.36489462500322,47.27738095866904,48.3208611250011,45.23228879200178,50.39447908400325,45.23228879200178,50.39447908400325,50.433730834003654,51.09666200000356,45.23228879200178,2,1,1.2602730419966974,reldom2_s036,001,2025-03-14_12h20.21.967,What-A-Scan_AC,2022.2.5,None,
2,First_Order,1.0,audwhat,stimulus/audwhat_stim/dummy.wav,stimulus/audwhat_stim/dummy.wav,stimulus/audwhat_stim/percussion xylophone_high-pitch_Dtri_loud.wav,stimulus/audwhat_stim/percussion mallet_low-pitch_D_loud.wav,stimulus/audwhat_stim/blank_white.png,stimulus/audwhat_stim/pitch_box.png,stimulus/audwhat_stim/pitch_yes.png,stimulus/audwhat_stim/pitch_no.png,None,Pitch,None,Category,2,0.0,0,5.125,0,5.125,0,5.125,0,0.0,0.625,0,0.0,0,0.0,0,0.0,0,0.0,0,0.0,0,0.0,1,0.5,1,2.125,0,,,,,0,2,2,2,,,,,,,,,51.33803629199974,51.33803629199974,51.33803629199974,51.33803629199974,51.33803629199974,51.33803629199974,51.33803629199974,51.33803629199974,51.26866670833454,51.33803629199974,51.33803629199974,51.33803629199974,51.26866670833454,51.33803629199974,51.33803629199974,51.33803629199974,53.4204796250051,,51.33803629199974,51.33803629199974,56.524906792001275,51.33803629199974,51.33803629199974,51.33803629199974,51.33803629199974,51.82676758400339,52.889565750003385,51.798828291666965,52.84541112500301,53.4204796250051,54.487881084001856,53.39280045866714,,51.33803629199974,56.524906792001275,51.33803629199974,56.524906792001275,56.56420912500471,57.22728362500493,51.33803629199974,2,1,0.9934405419917312,reldom2_s036,001,2025-03-14_12h20.21.967,What-A-Scan_AC,2022.2.5,None,
3,First_Order,1.0,audwhat,stimulus/audwhat_stim/dummy.wav,stimulus/audwhat_stim/dummy.wav,stimulus/audwhat_stim/percussion mallet_low-pitch_F_loud.wav,stimulus/audwhat_stim/percussion xylophone_high-pitch_Ftri_loud.wav,stimulus/audwhat_stim/blank_white.png,stimulus/audwhat_stim/category_box.png,stimulus/audwhat_stim/category_yes.png,stimulus/audwhat_stim/category_no.png,None,Category,None,Category,1,0.0,0,5.125,0,5.125,0,5.125,0,0.0,0.625,0,0.0,0,0.0,0,0.0,0,0.0,0,0.0,0,0.0,1,0.5,1,2.125,0,,,,,0,3,3,3,,,,,,,,,57.43048658400221,57.43048658400221,57.43048658400221,57.43048658400221,57.43048658400221,57.43048658400221,57.43048658400221,57.43048658400221,57.36061695833826,57.43048658400221,57.43048658400221,57.43048658400221,57.36061695833826,57.43048658400221,57.43048658400221,57.43048658400221,59.52616720900551,,57.43048658400221,57.43048658400221,62.60737195900583,57.43048658400221,57.43048658400221,57.43048658400221,57.43048658400221,57.91997979200096,58.9471526250054,57.8921749166732,,59.52616720900551,60.55451391700626,59.49798829167072,60.55451391700626,57.43048658400221,62.60737195900583,57.43048658400221,62.60737195900583,62.64681258400378,63.31393633400148,57.43048658400221,1,1,1.211346791991673,reldom2_s036,001,2025-03-14_12h20.21.967,What-A-Scan_AC,2022.2.5,None,
4,First_Order,1.0,audwhat,stimulus/audwhat_stim/dummy.wav,stimulus/audwhat_stim/dummy.wav,stimulus/audwhat_stim/percussion mallet_low-pitch_Dtri_loud.wav,stimulus/audwhat_stim/percussion mallet_high-pitch_F_loud.wav,stimulus/audwhat_stim/blank_white.png,stimulus/audwhat_stim/category_box.png,stimulus/audwhat_stim/category_yes.png,stimulus/audwhat_stim/category_no.png,None,Category,None,Category,1,0.0,0,5.125,0,5.125,0,5.125,0,0.0,0.625,0,0.0,0,0.0,0,0.0,0,0.0,0,0.0,0,0.0,1,0.5,1,2.125,0,,,,,0,4,4,4,,,,,,,,,63.51752912500524,63.51752912500524,63.51752912500524,63.51752912500524,63.51752912500524,63.51752912500524,63.51752912500524,63.51752912500524,63.447269667334815,63.51752912500524,63.51752912500524,63.51752912500524,63.447269667334815,63.51752912500524,63.51752912500524,63.51752912500524,65.61984183400637,,63.51752912500524,63.51752912500524,68.70618029199977,63.51752912500524,63.51752912500524,63.51752912500524,63.51752912500524,64.0092880000011,65.03908075000072,63.98115716666895,,65.61984183400637,66.64972595900326,65.59167145866765,,63.51752912500524,68.70618029199977,63.51752912500524,68.70618029199977,68.74561670900584,69.41317629200057,63.51752912500524,1,1,1.1217087499899208,reldom2_s036,001,2025-03-14_12h20.21.967,What-A-Scan_AC,2022.2.5,None,
0,0.0,None,fixation,stimulus/audwhat_stim/blank_white.png,stimulus/audwhat_stim/blank_white.png,stimulus/viswhat_stim/blank_white.png,stimulus/viswhat_stim/blank_white.png,stimulus/audwhat_stim/blank_white.png,stimulus/audwhat_stim/blank_white.png,stimulus/audwhat_stim/blank_white.png,stimulus/audwhat_stim/blank_white.png,0.0,0.0,0.0,0.0,0,0.0,0,0.0,0,0.0,0,0.0,0,0.0,0.0,0,0.0,0,0.0,0,0.0,0,0.0,0,0.0,0,0.0,0,0.0,0,0.0,10,,,,,0,5,5,5,,,,,,,,,69.63665562500682,69.63665562500682,69.63665562500682,69.63665562500682,69.63665562500682,69.63665562500682,69.63665562500682,69.63665562500682,69.5465096253339,69.63665562500682,69.63665562500682,69.63665562500682,69.5465096253339,69.63665562500682,69.63665562500682,69.63665562500682,69.63665562500682,69.63665562500682,69.63665562500682,69.63665562500682,69.63665562500682,69.63665562500682,69.63665562500682,69.63665562500682,69.63665562500682,69.63665562500682,69.63665562500682,69.59650962533391,69.63665562500682,69.63665562500682,69.63665562500682,69.59650962533391,69.63665562500682,69.63665562500682,69.63665562500682,69.63665562500682,69.63665562500682,74.84635012500075,74.84635012500075,79.80005225000059,None,0,,reldom2_s036,001,2025-03-14_12h20.21.967,What-A-Scan_AC,2022.2.5,None,
5,Second_Order,1.0,audwhat,stimulus/audwhat_stim/string cello_low-pitch_D_loud.wav,stimulus/audwhat_stim/string viola_high-pitch_Dtri_loud.wav,stimulus/audwhat_stim/percussion mallet_low-pitch_D_loud.wav,stimulus/audwhat_stim/string viola_low-pitch_D_loud.wav,stimulus/audwhat_stim/match_blank.png,stimulus/audwhat_stim/match_box.png,stimulus/audwhat_stim/match_yes.png,stimulus/audwhat_stim/match_no.png,2.0,Match,Category,Pitch,2,5.125,0,5.125,0,5.125,0,5.125,0,0.75,0.75,0,0.0,0,0.0,0,0.0,0,0.0,1,0.5,1,2.125,1,0.5,1,2.125,0,,,,,0,6,6,6,,,,,,,,,79.80005225000059,84.9214501250026,79.80005225000059,79.80005225000059,79.80005225000059,79.80005225000059,80.24681362500269,81.23362729200016,80.26051958366976,,81.88068500000372,82.8699979170051,81.88463633366725,,84.9214501250026,85.7752716670002,87.82339195900568,91.77054020899959,85.7752716670002,85.7752716670002,90.95284675000585,85.7752716670002,85.7752716670002,85.7752716670002,85.7752716670002,86.21993262500473,87.29060416700668,86.19213045866879,,87.82339195900568,88.8957133340009,87.79524754167166,,85.7752716670002,90.95284675000585,85.7752716670002,90.95284675000585,90.95284675000585,,85.7752716670002,2,1,2.1320771659957245,reldom2_s036,001,2025-03-14_12h20.21.967,What-A-Scan_AC,2022.2.5,None,
6,Second_Order,1.0,audwhat,stimulus/audwhat_stim/string cello_high-pitch_Dtri_loud.wav,stimulus/audwhat_stim/percussion mallet_high-pitch_Dtri_loud.wav,stimulus/audwhat_stim/percussion mallet_low-pitch_Ftri_loud.wav,stimulus/audwhat_stim/string cello_low-pitch_Ftri_loud.wav,stimulus/audwhat_stim/match_blank.png,stimulus/audwhat_stim/match_box.png,stimulus/audwhat_stim/match_yes.png,stimulus/audwhat_stim/match_no.png,1.0,Match,Pitch,Pitch,1,5.125,0,5.125,0,5.125,0,5.125,0,0.625,0.625,0,0.0,0,0.0,0,0.0,0,0.0,1,0.5,1,2.125,1,0.5,1,2.125,0,,,,,0,7,7,7,,,,,,,,,91.77054020899959,96.88675704200432,91.77054020899959,91.77054020899959,91.77054020899959,91.77054020899959,92.22539083400625,93.2235783340002,92.23814545866868,,93.84597762500198,94.84415362500295,93.85892237566829,94.84754754200549,96.88675704200432,97.61783508400549,99.66358333400422,103.71151441700204,97.61783508400549,97.61783508400549,102.78341008400457,97.61783508400549,97.61783508400549,97.61783508400549,97.61783508400549,98.06050150000374,99.12998625000182,98.03250962566769,,99.66358333400422,100.73285400000168,99.63563225067288,,97.61783508400549,102.78341008400457,97.61783508400549,102.78341008400457,102.78341008400457,103.44935100000293,97.61783508400549,2,0,1.8396332919946872,reldom2_s036,001,2025-03-14_12h20.21.967,What-A-Scan_AC,2022.2.5,None,
0,0.0,None,fixation,stimulus/audwhat_stim/blank_white.png,stimulus/audwhat_stim/blank_white.png,stimulus/viswhat_stim/blank_white.png,stimulus/viswhat_stim/blank_white.png,stimulus/audwhat_stim/blank_white.png,stimulus/audwhat_stim/blank_white.png,stimulus/audwhat_stim/blank_white.png,stimulus/audwhat_stim/blank_white.png,0.0,0.0,0.0,0.0,0,0.0,0,0.0,0,0.0,0,0.0,0,0.0,0.0,0,0.0,0,0.0,0,0.0,0,0.0,0,0.0,0,0.0,0,0.0,0,0.0,9,,,,,0,8,8,8,,,,,,,,,103.71151441700204,103.71151441700204,103.71151441700204,103.71151441700204,103.71151441700204,103.71151441700204,103.71151441700204,103.71151441700204,103.62177416733368,103.71151441700204,103.71151441700204,103.71151441700204,103.62177416733368,103.71151441700204,103.71151441700204,103.71151441700204,103.71151441700204,103.71151441700204,103.71151441700204,103.71151441700204,103.71151441700204,103.71151441700204,103.71151441700204,103.71151441700204,103.71151441700204,103.71151441700204,103.71151441700204,103.6717741673337,103.71151441700204,103.71151441700204,103.71151441700204,103.6717741673337,103.71151441700204,103.71151441700204,103.71151441700204,103.71151441700204,103.71151441700204,108.91300629200123,108.91300629200123,112.93201954200049,None,0,,reldom2_s036,001,2025-03-14_12h20.21.967,What-A-Scan_AC,2022.2.5,None,
7,First_Order,2.0,audwhat,stimulus/audwhat_stim/dummy.wav,stimulus/audwhat_stim/dummy.wav,stimulus/audwhat_stim/string cello_low-pitch_F_loud.wav,stimulus/audwhat_stim/percussion mallet_low-pitch_F_loud.wav,stimulus/audwhat_stim/blank_white.png,stimulus/audwhat_stim/pitch_box.png,stimulus/audwhat_stim/pitch_yes.png,stimulus/audwhat_stim/pitch_no.png,None,Pitch,None,Pitch,1,0.0,0,5.125,0,5.125,0,5.125,0,0.0,0.625,0,0.0,0,0.0,0,0.0,0,0.0,0,0.0,0,0.0,1,0.5,1,2.125,0,,,,,0,9,9,9,,,,,,,,,112.93201954200049,112.93201954200049,112.93201954200049,112.93201954200049,112.93201954200049,112.93201954200049,112.93201954200049,112.93201954200049,112.8502282090034,112.93201954200049,112.93201954200049,112.93201954200049,112.8502282090034,112.93201954200049,112.93201954200049,112.93201954200049,115.00837345900072,,112.93201954200049,112.93201954200049,118.11423112500052,112.93201954200049,112.93201954200049,112.93201954200049,112.93201954200049,113.3818788750068,114.41546066700539,113.35325129166837,,115.00837345900072,116.04703345900634,114.97950408367275,,112.93201954200049,118.11423112500052,112.93201954200049,118.11423112500052,118.15397020900127,118.82875829200202,112.93201954200049,1,1,1.8224680829953286,reldom2_s036,001,2025-03-14_12h20.21.967,What-A-Scan_AC,2022.2.5,None,
8,First_Order,2.0,audwhat,stimulus/audwhat_stim/dummy.wav,stimulus/audwhat_stim/dummy.wav,stimulus/audwhat_stim/string cello_low-pitch_Dtri_loud.wav,stimulus/audwhat_stim/percussion mallet_low-pitch_Dtri_loud.wav,stimulus/audwhat_stim/blank_white.png,stimulus/audwhat_stim/category_box.png,stimulus/audwhat_stim/category_yes.png,stimulus/audwhat_stim/category_no.png,None,Category,None,Pitch,2,0.0,0,5.125,0,5.125,0,5.125,0,0.0,0.625,0,0.0,0,0.0,0,0.0,0,0.0,0,0.0,0,0.0,1,0.5,1,2.125,0,,,,,0,10,10,10,,,,,,,,,119.03677312500076,119.03677312500076,119.03677312500076,119.03677312500076,119.03677312500076,119.03677312500076,119.03677312500076,119.03677312500076,118.96209162533535,119.03677312500076,119.03677312500076,119.03677312500076,118.96209162533535,119.03677312500076,119.03677312500076,119.03677312500076,121.12227429199993,,119.03677312500076,119.03677312500076,124.20681875000446,119.03677312500076,119.03677312500076,119.03677312500076,119.03677312500076,119.4904243340061,120.53246695900452,119.46166950066642,,121.12227429199993,122.16598187500495,121.09298470867022,,119.03677312500076,124.20681875000446,119.03677312500076,124.20681875000446,124.24697949999972,124.92492008400586,119.03677312500076,2,1,1.6945279999999912,reldom2_s036,001,2025-03-14_12h20.21.967,What-A-Scan_AC,2022.2.5,None,
9,First_Order,2.0,audwhat,stimulus/audwhat_stim/dummy.wav,stimulus/audwhat_stim/dummy.wav,stimulus/audwhat_stim/string cello_high-pitch_F_loud.wav,stimulus/audwhat_stim/percussion mallet_high-pitch_F_loud.wav,stimulus/audwhat_stim/blank_white.png,stimulus/audwhat_stim/pitch_box.png,stimulus/audwhat_stim/pitch_yes.png,stimulus/audwhat_stim/pitch_no.png,None,Pitch,None,Pitch,1,0.0,0,5.125,0,5.125,0,5.125,0,0.0,0.625,0,0.0,0,0.0,0,0.0,0,0.0,0,0.0,0,0.0,1,0.5,1,2.125,0,,,,,0,11,11,11,,,,,,,,,125.13333062500169,125.13333062500169,125.13333062500169,125.13333062500169,125.13333062500169,125.13333062500169,125.13333062500169,125.13333062500169,125.05825341733919,125.13333062500169,125.13333062500169,125.13333062500169,125.05825341733919,125.13333062500169,125.13333062500169,125.13333062500169,127.21575687500444,131.25582145900262,125.13333062500169,125.13333062500169,130.29280187500262,125.13333062500169,125.13333062500169,125.13333062500169,125.13333062500169,125.58604345900676,126.6255056250011,125.55702941667211,,127.21575687500444,128.25786454199988,127.1867978756675,,125.13333062500169,130.29280187500262,125.13333062500169,130.29280187500262,130.33263575000456,131.0081889590001,125.13333062500169,1,1,0.9636861669932841,reldom2_s036,001,2025-03-14_12h20.21.967,What-A-Scan_AC,2022.2.5,None,
10,First_Order,2.0,audwhat,stimulus/audwhat_stim/dummy.wav,stimulus/audwhat_stim/dummy.wav,stimulus/audwhat_stim/percussion xylophone_high-pitch_D_loud.wav,stimulus/audwhat_stim/string cello_high-pitch_D_loud.wav,stimulus/audwhat_stim/blank_white.png,stimulus/audwhat_stim/category_box.png,stimulus/audwhat_stim/category_yes.png,stimulus/audwhat_stim/category_no.png,None,Category,None,Pitch,2,0.0,0,5.125,0,5.125,0,5.125,0,0.0,0.625,0,0.0,0,0.0,0,0.0,0,0.0,0,0.0,0,0.0,1,0.5,1,2.125,0,,,,,0,12,12,12,,,,,,,,,131.25582145900262,131.25582145900262,131.25582145900262,131.25582145900262,131.25582145900262,131.25582145900262,131.25582145900262,131.25582145900262,131.18085525033726,131.25582145900262,131.25582145900262,131.25582145900262,131.18085525033726,131.25582145900262,131.25582145900262,131.25582145900262,133.3539901250042,137.39900970900635,131.25582145900262,131.25582145900262,136.40982741700282,131.25582145900262,131.25582145900262,131.25582145900262,131.25582145900262,131.71140525000374,132.76086366700474,131.68187916667037,132.71544075000565,133.3539901250042,134.40571608400205,133.32516762567346,,131.25582145900262,136.40982741700282,131.25582145900262,136.40982741700282,136.45002775000466,137.1314557500009,131.25582145900262,2,1,0.7293404169977293,reldom2_s036,001,2025-03-14_12h20.21.967,What-A-Scan_AC,2022.2.5,None,
0,0.0,None,fixation,stimulus/audwhat_stim/blank_white.png,stimulus/audwhat_stim/blank_white.png,stimulus/viswhat_stim/blank_white.png,stimulus/viswhat_stim/blank_white.png,stimulus/audwhat_stim/blank_white.png,stimulus/audwhat_stim/blank_white.png,stimulus/audwhat_stim/blank_white.png,stimulus/audwhat_stim/blank_white.png,0.0,0.0,0.0,0.0,0,0.0,0,0.0,0,0.0,0,0.0,0,0.0,0.0,0,0.0,0,0.0,0,0.0,0,0.0,0,0.0,0,0.0,0,0.0,0,0.0,10,,,,,0,13,13,13,,,,,,,,,137.39900970900635,137.39900970900635,137.39900970900635,137.39900970900635,137.39900970900635,137.39900970900635,137.39900970900635,137.39900970900635,137.3043618753383,137.39900970900635,137.39900970900635,137.39900970900635,137.3043618753383,137.39900970900635,137.39900970900635,137.39900970900635,137.39900970900635,137.39900970900635,137.39900970900635,137.39900970900635,137.39900970900635,137.39900970900635,137.39900970900635,137.39900970900635,137.39900970900635,137.39900970900635,137.39900970900635,137.35436187533827,137.39900970900635,137.39900970900635,137.39900970900635,137.35436187533827,137.39900970900635,137.39900970900635,137.39900970900635,137.39900970900635,137.39900970900635,142.61432720900484,142.61432720900484,147.56799612500618,None,0,,reldom2_s036,001,2025-03-14_12h20.21.967,What-A-Scan_AC,2022.2.5,None,
11,Second_Order,2.0,audwhat,stimulus/audwhat_stim/string viola_high-pitch_D_loud.wav,stimulus/audwhat_stim/percussion xylophone_high-pitch_D_loud.wav,stimulus/audwhat_stim/percussion mallet_low-pitch_F_loud.wav,stimulus/audwhat_stim/string viola_low-pitch_F_loud.wav,stimulus/audwhat_stim/match_blank.png,stimulus/audwhat_stim/match_box.png,stimulus/audwhat_stim/match_yes.png,stimulus/audwhat_stim/match_no.png,1.0,Match,Pitch,Pitch,1,5.125,0,5.125,0,5.125,0,5.125,0,0.75,0.75,0,0.0,0,0.0,0,0.0,0,0.0,1,0.5,1,2.125,1,0.5,1,2.125,0,,,,,0,14,14,14,,,,,,,,,147.56799612500618,152.68246687500505,147.56799612500618,147.56799612500618,147.56799612500618,147.56799612500618,148.0209594590051,149.01910562500416,148.0339746256689,,149.64241933400626,150.63963579200208,149.65455383366887,150.64296350000222,152.68246687500505,153.53097308400174,155.59821379200002,,153.53097308400174,153.53097308400174,158.71313070900214,153.53097308400174,153.53097308400174,153.53097308400174,153.53097308400174,153.97768154200458,155.01252591700177,153.94908641666942,,155.59821379200002,156.6379774590023,155.56947258366952,,153.53097308400174,158.71313070900214,153.53097308400174,158.71313070900214,158.71313070900214,,153.53097308400174,1,1,0.9975589999958174,reldom2_s036,001,2025-03-14_12h20.21.967,What-A-Scan_AC,2022.2.5,None,
12,Second_Order,2.0,audwhat,stimulus/audwhat_stim/percussion mallet_high-pitch_Dtri_loud.wav,stimulus/audwhat_stim/string viola_high-pitch_Dtri_loud.wav,stimulus/audwhat_stim/string viola_low-pitch_Dtri_loud.wav,stimulus/audwhat_stim/percussion mallet_low-pitch_Dtri_loud.wav,stimulus/audwhat_stim/match_blank.png,stimulus/audwhat_stim/match_box.png,stimulus/audwhat_stim/match_yes.png,stimulus/audwhat_stim/match_no.png,1.0,Match,Pitch,Pitch,1,5.125,0,5.125,0,5.125,0,5.125,0,0.625,0.625,0,0.0,0,0.0,0,0.0,0,0.0,1,0.5,1,2.125,1,0.5,1,2.125,0,,,,,0,15,15,15,,,,,,,,,159.50315125000634,164.62669358400308,159.50315125000634,159.50315125000634,159.50315125000634,159.50315125000634,159.96097920900502,160.950368292004,159.9657812916669,160.96360020900465,161.58702237500256,162.5837847090006,161.59837287567305,,164.62669358400308,165.35595241700503,167.41165600000386,171.44915954200405,165.35595241700503,165.35595241700503,170.5105198750025,165.35595241700503,165.35595241700503,165.35595241700503,165.35595241700503,165.80138670900487,166.87450683400675,165.77333229167223,,167.41165600000386,168.44449537500623,167.38329325066687,,165.35595241700503,170.5105198750025,165.35595241700503,170.5105198750025,170.5502335420024,171.2237855420026,165.35595241700503,1,1,1.1189972499923897,reldom2_s036,001,2025-03-14_12h20.21.967,What-A-Scan_AC,2022.2.5,None,
0,0.0,None,fixation,stimulus/audwhat_stim/blank_white.png,stimulus/audwhat_stim/blank_white.png,stimulus/viswhat_stim/blank_white.png,stimulus/viswhat_stim/blank_white.png,stimulus/audwhat_stim/blank_white.png,stimulus/audwhat_stim/blank_white.png,stimulus/audwhat_stim/blank_white.png,stimulus/audwhat_stim/blank_white.png,0.0,0.0,0.0,0.0,0,0.0,0,0.0,0,0.0,0,0.0,0,0.0,0.0,0,0.0,0,0.0,0,0.0,0,0.0,0,0.0,0,0.0,0,0.0,0,0.0,8,,,,,0,16,16,16,,,,,,,,,171.44915954200405,171.44915954200405,171.44915954200405,171.44915954200405,171.44915954200405,171.44915954200405,171.44915954200405,171.44915954200405,171.35711887533594,171.44915954200405,171.44915954200405,171.44915954200405,171.35711887533594,171.44915954200405,171.44915954200405,171.44915954200405,171.44915954200405,171.44915954200405,171.44915954200405,171.44915954200405,171.44915954200405,171.44915954200405,171.44915954200405,171.44915954200405,171.44915954200405,171.44915954200405,171.44915954200405,171.40711887533593,171.44915954200405,171.44915954200405,171.44915954200405,171.40711887533593,171.44915954200405,171.44915954200405,171.44915954200405,171.44915954200405,171.44915954200405,176.6579340840035,176.6579340840035,179.80844104200514,None,0,,reldom2_s036,001,2025-03-14_12h20.21.967,What-A-Scan_AC,2022.2.5,None,
13,First_Order,3.0,viswhat,stimulus/viswhat_stim/blank_white.png,stimulus/viswhat_stim/blank_white.png,stimulus/viswhat_stim/water_vehicle-cruiseship.png,stimulus/viswhat_stim/land_vehicle-pickuptruck.png,stimulus/viswhat_stim/blank_white.png,stimulus/viswhat_stim/type_box.png,stimulus/viswhat_stim/type_yes.png,stimulus/viswhat_stim/type_no.png,None,Type,None,Type,1,0.0,0,5.125,0,5.125,0,5.125,0,0.0,0.625,0,0.0,0,0.0,1,0.5,1,2.125,0,0.0,0,0.0,0,0.0,0,0.0,0,,,,,0,17,17,17,,,,,,,,,179.80844104200514,179.80844104200514,179.80844104200514,179.80844104200514,179.80844104200514,179.80844104200514,179.80844104200514,179.80844104200514,179.59863683400036,179.80844104200514,179.80844104200514,179.80844104200514,179.59863683400036,179.80844104200514,179.80844104200514,179.80844104200514,181.8176945840023,,179.80844104200514,179.80844104200514,185.07427304200246,180.19133341700217,181.3395314590016,181.8176945840023,182.96945066700573,179.80844104200514,179.80844104200514,179.71530350066703,179.80844104200514,179.80844104200514,179.80844104200514,179.71530350066703,179.80844104200514,179.80844104200514,185.07427304200246,179.80844104200514,185.07427304200246,184.98416425000323,,179.80844104200514,1,1,1.7076153749949299,reldom2_s036,001,2025-03-14_12h20.21.967,What-A-Scan_AC,2022.2.5,None,
14,First_Order,3.0,viswhat,stimulus/viswhat_stim/blank_white.png,stimulus/viswhat_stim/blank_white.png,stimulus/viswhat_stim/water_animal-lobster.png,stimulus/viswhat_stim/water_vehicle-cruiseship.png,stimulus/viswhat_stim/blank_white.png,stimulus/viswhat_stim/location_box.png,stimulus/viswhat_stim/location_yes.png,stimulus/viswhat_stim/location_no.png,None,Location,None,Location,1,0.0,0,5.125,0,5.125,0,5.125,0,0.0,0.625,0,0.0,0,0.0,1,0.5,1,2.125,0,0.0,0,0.0,0,0.0,0,0.0,0,,,,,0,18,18,18,,,,,,,,,186.19418870899972,186.19418870899972,186.19418870899972,186.19418870899972,186.19418870899972,186.19418870899972,186.19418870899972,186.19418870899972,185.75928670834014,186.19418870899972,186.19418870899972,186.19418870899972,185.75928670834014,186.19418870899972,186.19418870899972,186.19418870899972,188.1575790420029,,186.19418870899972,186.19418870899972,191.6478622499999,186.6318221670008,187.9393505840053,188.1575790420029,189.47041945900128,186.19418870899972,186.19418870899972,185.9759533750068,186.19418870899972,186.19418870899972,186.19418870899972,185.9759533750068,186.19418870899972,186.19418870899972,191.6478622499999,186.19418870899972,191.6478622499999,191.21506291700643,,186.19418870899972,1,1,0.7787503749932512,reldom2_s036,001,2025-03-14_12h20.21.967,What-A-Scan_AC,2022.2.5,None,
15,First_Order,3.0,viswhat,stimulus/viswhat_stim/blank_white.png,stimulus/viswhat_stim/blank_white.png,stimulus/viswhat_stim/water_vehicle-cruiseship.png,stimulus/viswhat_stim/land_vehicle-bus.png,stimulus/viswhat_stim/blank_white.png,stimulus/viswhat_stim/location_box.png,stimulus/viswhat_stim/location_yes.png,stimulus/viswhat_stim/location_no.png,None,Location,None,Type,2,0.0,0,5.125,0,5.125,0,5.125,0,0.0,0.625,0,0.0,0,0.0,1,0.5,1,2.125,0,0.0,0,0.0,0,0.0,0,0.0,0,,,,,0,19,19,19,,,,,,,,,192.32753675000276,192.32753675000276,192.32753675000276,192.32753675000276,192.32753675000276,192.32753675000276,192.32753675000276,192.32753675000276,192.13119558333324,192.32753675000276,192.32753675000276,192.32753675000276,192.13119558333324,192.32753675000276,192.32753675000276,192.32753675000276,194.33582604200637,198.42951312500372,192.32753675000276,192.32753675000276,197.54397650000465,192.73052637500223,193.83677083400107,194.33582604200637,195.44205845900433,192.32753675000276,192.32753675000276,192.23119558333323,192.32753675000276,192.32753675000276,192.32753675000276,192.23119558333323,192.32753675000276,192.32753675000276,197.54397650000465,192.32753675000276,197.54397650000465,197.54397650000465,,192.32753675000276,2,1,0.6368144579901127,reldom2_s036,001,2025-03-14_12h20.21.967,What-A-Scan_AC,2022.2.5,None,
16,First_Order,3.0,viswhat,stimulus/viswhat_stim/blank_white.png,stimulus/viswhat_stim/blank_white.png,stimulus/viswhat_stim/land_vehicle-oldcar.png,stimulus/viswhat_stim/water_vehicle-pirateship.png,stimulus/viswhat_stim/blank_white.png,stimulus/viswhat_stim/type_box.png,stimulus/viswhat_stim/type_yes.png,stimulus/viswhat_stim/type_no.png,None,Type,None,Type,1,0.0,0,5.125,0,5.125,0,5.125,0,0.0,0.625,0,0.0,0,0.0,1,0.5,1,2.125,0,0.0,0,0.0,0,0.0,0,0.0,0,,,,,0,20,20,20,,,,,,,,,198.42951312500372,198.42951312500372,198.42951312500372,198.42951312500372,198.42951312500372,198.42951312500372,198.42951312500372,198.42951312500372,198.3624906670011,198.42951312500372,198.42951312500372,198.42951312500372,198.3624906670011,198.42951312500372,198.42951312500372,198.42951312500372,200.51478879200295,,198.42951312500372,198.42951312500372,203.5778439590067,198.8965515000018,199.96348395899986,200.51478879200295,201.5403374170055,198.42951312500372,198.42951312500372,198.39582400033447,198.42951312500372,198.42951312500372,198.42951312500372,198.39582400033447,198.42951312500372,198.42951312500372,203.5778439590067,198.42951312500372,203.5778439590067,203.65205408400652,204.31773700000485,198.42951312500372,1,1,0.6735664579973673,reldom2_s036,001,2025-03-14_12h20.21.967,What-A-Scan_AC,2022.2.5,None,
0,0.0,None,fixation,stimulus/audwhat_stim/blank_white.png,stimulus/audwhat_stim/blank_white.png,stimulus/viswhat_stim/blank_white.png,stimulus/viswhat_stim/blank_white.png,stimulus/audwhat_stim/blank_white.png,stimulus/audwhat_stim/blank_white.png,stimulus/audwhat_stim/blank_white.png,stimulus/audwhat_stim/blank_white.png,0.0,0.0,0.0,0.0,0,0.0,0,0.0,0,0.0,0,0.0,0,0.0,0.0,0,0.0,0,0.0,0,0.0,0,0.0,0,0.0,0,0.0,0,0.0,0,0.0,9,,,,,0,21,21,21,,,,,,,,,204.5433897920011,204.5433897920011,204.5433897920011,204.5433897920011,204.5433897920011,204.5433897920011,204.5433897920011,204.5433897920011,204.4510703333382,204.5433897920011,204.5433897920011,204.5433897920011,204.4510703333382,204.5433897920011,204.5433897920011,204.5433897920011,204.5433897920011,204.5433897920011,204.5433897920011,204.5433897920011,204.5433897920011,204.5433897920011,204.5433897920011,204.5433897920011,204.5433897920011,204.5433897920011,204.5433897920011,204.5010703333382,204.5433897920011,204.5433897920011,204.5433897920011,204.5010703333382,204.5433897920011,204.5433897920011,204.5433897920011,204.5433897920011,204.5433897920011,209.72850650000328,209.72850650000328,213.7132539170052,None,0,,reldom2_s036,001,2025-03-14_12h20.21.967,What-A-Scan_AC,2022.2.5,None,
17,Second_Order,3.0,viswhat,stimulus/viswhat_stim/water_animal-shark.png,stimulus/viswhat_stim/water_vehicle-pirateship.png,stimulus/viswhat_stim/water_animal-squid.png,stimulus/viswhat_stim/land_animal-elephant.png,stimulus/audwhat_stim/match_blank.png,stimulus/audwhat_stim/match_box.png,stimulus/audwhat_stim/match_yes.png,stimulus/audwhat_stim/match_no.png,2.0,Match,Location,Type,2,5.125,0,5.125,0,5.125,0,5.125,0,0.75,0.75,1,0.5,1,2.125,1,0.5,1,2.125,0,0.0,0,0.0,0,0.0,0,0.0,0,,,,,0,22,22,22,,,,,,,,,213.7132539170052,218.83563262500684,214.1739741670026,215.1718740840006,215.7945952920054,216.792762709003,213.7132539170052,213.7132539170052,213.72610716700584,213.7132539170052,213.7132539170052,213.7132539170052,213.72610716700584,213.7132539170052,218.83563262500684,219.7284242090027,221.76565295900218,,219.7284242090027,219.7284242090027,224.93033629200363,220.11876800000027,221.1739550420025,221.76565295900218,222.82160958400345,219.7284242090027,219.7284242090027,219.66999762500348,219.7284242090027,219.7284242090027,219.7284242090027,219.66999762500348,219.7284242090027,219.7284242090027,224.93033629200363,219.7284242090027,224.93033629200363,224.93033629200363,,219.7284242090027,2,1,0.9375350839982275,reldom2_s036,001,2025-03-14_12h20.21.967,What-A-Scan_AC,2022.2.5,None,
18,Second_Order,3.0,viswhat,stimulus/viswhat_stim/land_vehicle-pickuptruck.png,stimulus/viswhat_stim/water_vehicle-pirateship.png,stimulus/viswhat_stim/water_animal-jellyfish.png,stimulus/viswhat_stim/land_animal-snake.png,stimulus/audwhat_stim/match_blank.png,stimulus/audwhat_stim/match_box.png,stimulus/audwhat_stim/match_yes.png,stimulus/audwhat_stim/match_no.png,1.0,Match,Type,Type,1,5.125,0,5.125,0,5.125,0,5.125,0,0.625,0.625,1,0.5,1,2.125,1,0.5,1,2.125,0,0.0,0,0.0,0,0.0,0,0.0,0,,,,,0,23,23,23,,,,,,,,,225.66682575000596,230.77941300000384,226.1472886670017,227.13639333400351,227.77292429200315,228.77030408400606,225.66682575000596,225.66682575000596,225.66543020833538,225.66682575000596,225.66682575000596,225.66682575000596,225.66543020833538,225.66682575000596,230.77941300000384,231.47367737500463,233.5493879590067,237.5792645420006,231.47367737500463,231.47367737500463,236.6212864170011,231.90972212500492,232.92221420900023,233.5493879590067,234.5696822500031,231.47367737500463,231.47367737500463,231.44260150000338,231.47367737500463,231.47367737500463,231.47367737500463,231.44260150000338,231.47367737500463,231.47367737500463,236.6212864170011,231.47367737500463,236.6212864170011,236.66512725000212,237.2967910840016,231.47367737500463,1,1,0.7415359999940847,reldom2_s036,001,2025-03-14_12h20.21.967,What-A-Scan_AC,2022.2.5,None,
0,0.0,None,fixation,stimulus/audwhat_stim/blank_white.png,stimulus/audwhat_stim/blank_white.png,stimulus/viswhat_stim/blank_white.png,stimulus/viswhat_stim/blank_white.png,stimulus/audwhat_stim/blank_white.png,stimulus/audwhat_stim/blank_white.png,stimulus/audwhat_stim/blank_white.png,stimulus/audwhat_stim/blank_white.png,0.0,0.0,0.0,0.0,0,0.0,0,0.0,0,0.0,0,0.0,0,0.0,0.0,0,0.0,0,0.0,0,0.0,0,0.0,0,0.0,0,0.0,0,0.0,0,0.0,8,,,,,0,24,24,24,,,,,,,,,237.5792645420006,237.5792645420006,237.5792645420006,237.5792645420006,237.5792645420006,237.5792645420006,237.5792645420006,237.5792645420006,237.48384495900393,237.5792645420006,237.5792645420006,237.5792645420006,237.48384495900393,237.5792645420006,237.5792645420006,237.5792645420006,237.5792645420006,237.5792645420006,237.5792645420006,237.5792645420006,237.5792645420006,237.5792645420006,237.5792645420006,237.5792645420006,237.5792645420006,237.5792645420006,237.5792645420006,237.53384495900391,237.5792645420006,237.5792645420006,237.5792645420006,237.53384495900391,237.5792645420006,237.5792645420006,237.5792645420006,237.5792645420006,237.5792645420006,242.76699591700162,242.76699591700162,245.78234145900205,None,0,,reldom2_s036,001,2025-03-14_12h20.21.967,What-A-Scan_AC,2022.2.5,None,
19,First_Order,4.0,viswhat,stimulus/viswhat_stim/blank_white.png,stimulus/viswhat_stim/blank_white.png,stimulus/viswhat_stim/land_animal-wolf.png,stimulus/viswhat_stim/water_animal-squid.png,stimulus/viswhat_stim/blank_white.png,stimulus/viswhat_stim/location_box.png,stimulus/viswhat_stim/location_yes.png,stimulus/viswhat_stim/location_no.png,None,Location,None,Type,2,0.0,0,5.125,0,5.125,0,5.125,0,0.0,0.625,0,0.0,0,0.0,1,0.5,1,2.125,0,0.0,0,0.0,0,0.0,0,0.0,0,,,,,0,25,25,25,,,,,,,,,245.78234145900205,245.78234145900205,245.78234145900205,245.78234145900205,245.78234145900205,245.78234145900205,245.78234145900205,245.78234145900205,245.7277153750023,245.78234145900205,245.78234145900205,245.78234145900205,245.7277153750023,245.78234145900205,245.78234145900205,245.78234145900205,247.8714611250034,251.86640475000604,245.78234145900205,245.78234145900205,250.9379695420066,246.26598520900006,247.29710737500136,247.8714611250034,248.910153542005,245.78234145900205,245.78234145900205,245.76104870833564,245.78234145900205,245.78234145900205,245.78234145900205,245.76104870833564,245.78234145900205,245.78234145900205,250.9379695420066,245.78234145900205,250.9379695420066,250.986841542006,251.62538933400356,245.78234145900205,2,1,0.7500274169942713,reldom2_s036,001,2025-03-14_12h20.21.967,What-A-Scan_AC,2022.2.5,None,
20,First_Order,4.0,viswhat,stimulus/viswhat_stim/blank_white.png,stimulus/viswhat_stim/blank_white.png,stimulus/viswhat_stim/water_animal-jellyfish.png,stimulus/viswhat_stim/water_vehicle-motorboatraft.png,stimulus/viswhat_stim/blank_white.png,stimulus/viswhat_stim/location_box.png,stimulus/viswhat_stim/location_yes.png,stimulus/viswhat_stim/location_no.png,None,Location,None,Location,1,0.0,0,5.125,0,5.125,0,5.125,0,0.0,0.625,0,0.0,0,0.0,1,0.5,1,2.125,0,0.0,0,0.0,0,0.0,0,0.0,0,,,,,0,26,26,26,,,,,,,,,251.86640475000604,251.86640475000604,251.86640475000604,251.86640475000604,251.86640475000604,251.86640475000604,251.86640475000604,251.86640475000604,251.82279787500158,251.86640475000604,251.86640475000604,251.86640475000604,251.82279787500158,251.86640475000604,251.86640475000604,251.86640475000604,253.96615270900656,,251.86640475000604,251.86640475000604,257.00004383400665,252.33004612500372,253.34059604200593,253.96615270900656,254.98219108400372,251.86640475000604,251.86640475000604,251.83946454166824,251.86640475000604,251.86640475000604,251.86640475000604,251.83946454166824,251.86640475000604,251.86640475000604,257.00004383400665,251.86640475000604,257.00004383400665,257.08669758400356,257.73537225000473,251.86640475000604,1,1,1.0001582089971635,reldom2_s036,001,2025-03-14_12h20.21.967,What-A-Scan_AC,2022.2.5,None,
21,First_Order,4.0,viswhat,stimulus/viswhat_stim/blank_white.png,stimulus/viswhat_stim/blank_white.png,stimulus/viswhat_stim/land_animal-elephant.png,stimulus/viswhat_stim/land_vehicle-buldozer.png,stimulus/viswhat_stim/blank_white.png,stimulus/viswhat_stim/type_box.png,stimulus/viswhat_stim/type_yes.png,stimulus/viswhat_stim/type_no.png,None,Type,None,Location,2,0.0,0,5.125,0,5.125,0,5.125,0,0.0,0.625,0,0.0,0,0.0,1,0.5,1,2.125,0,0.0,0,0.0,0,0.0,0,0.0,0,,,,,0,27,27,27,,,,,,,,,258.0208850420022,258.0208850420022,258.0208850420022,258.0208850420022,258.0208850420022,258.0208850420022,258.0208850420022,258.0208850420022,257.89981887500613,258.0208850420022,258.0208850420022,258.0208850420022,257.89981887500613,258.0208850420022,258.0208850420022,258.0208850420022,260.09656370900484,,258.0208850420022,258.0208850420022,263.22485200000665,258.5035590000043,259.61285245900217,260.09656370900484,261.21233891700103,258.0208850420022,258.0208850420022,257.9664855416728,258.0208850420022,258.0208850420022,258.0208850420022,257.9664855416728,258.0208850420022,258.0208850420022,263.22485200000665,258.0208850420022,263.22485200000665,263.22485200000665,264.1238593750022,258.0208850420022,2,1,1.256454666989157,reldom2_s036,001,2025-03-14_12h20.21.967,What-A-Scan_AC,2022.2.5,None,
22,First_Order,4.0,viswhat,stimulus/viswhat_stim/blank_white.png,stimulus/viswhat_stim/blank_white.png,stimulus/viswhat_stim/water_animal-shark.png,stimulus/viswhat_stim/water_vehicle-cabincruiser.png,stimulus/viswhat_stim/blank_white.png,stimulus/viswhat_stim/type_box.png,stimulus/viswhat_stim/type_yes.png,stimulus/viswhat_stim/type_no.png,None,Type,None,Location,2,0.0,0,5.125,0,5.125,0,5.125,0,0.0,0.625,0,0.0,0,0.0,1,0.5,1,2.125,0,0.0,0,0.0,0,0.0,0,0.0,0,,,,,0,28,28,28,,,,,,,,,264.1238593750022,264.1238593750022,264.1238593750022,264.1238593750022,264.1238593750022,264.1238593750022,264.1238593750022,264.1238593750022,264.04272258334,264.1238593750022,264.1238593750022,264.1238593750022,264.04272258334,264.1238593750022,264.1238593750022,264.1238593750022,266.22003141700407,270.2554659590023,264.1238593750022,264.1238593750022,269.30860045900044,264.60281175000273,265.64896620900254,266.22003141700407,267.2685118750014,264.1238593750022,264.1238593750022,264.0760559166733,264.1238593750022,264.1238593750022,264.1238593750022,264.0760559166733,264.1238593750022,264.1238593750022,269.30860045900044,264.1238593750022,269.30860045900044,269.30860045900044,269.97686883400456,264.1238593750022,2,1,1.252564041998994,reldom2_s036,001,2025-03-14_12h20.21.967,What-A-Scan_AC,2022.2.5,None,
0,0.0,None,fixation,stimulus/audwhat_stim/blank_white.png,stimulus/audwhat_stim/blank_white.png,stimulus/viswhat_stim/blank_white.png,stimulus/viswhat_stim/blank_white.png,stimulus/audwhat_stim/blank_white.png,stimulus/audwhat_stim/blank_white.png,stimulus/audwhat_stim/blank_white.png,stimulus/audwhat_stim/blank_white.png,0.0,0.0,0.0,0.0,0,0.0,0,0.0,0,0.0,0,0.0,0,0.0,0.0,0,0.0,0,0.0,0,0.0,0,0.0,0,0.0,0,0.0,0,0.0,0,0.0,9,,,,,0,29,29,29,,,,,,,,,270.2554659590023,270.2554659590023,270.2554659590023,270.2554659590023,270.2554659590023,270.2554659590023,270.2554659590023,270.2554659590023,270.15196712533555,270.2554659590023,270.2554659590023,270.2554659590023,270.15196712533555,270.2554659590023,270.2554659590023,270.2554659590023,270.2554659590023,270.2554659590023,270.2554659590023,270.2554659590023,270.2554659590023,270.2554659590023,270.2554659590023,270.2554659590023,270.2554659590023,270.2554659590023,270.2554659590023,270.2186337920022,270.2554659590023,270.2554659590023,270.2554659590023,270.2186337920022,270.2554659590023,270.2554659590023,270.2554659590023,270.2554659590023,270.2554659590023,275.4803647500012,275.4803647500012,279.41475950000313,None,0,,reldom2_s036,001,2025-03-14_12h20.21.967,What-A-Scan_AC,2022.2.5,None,
23,Second_Order,4.0,viswhat,stimulus/viswhat_stim/water_vehicle-canoe(1).png,stimulus/viswhat_stim/land_vehicle-vespa.png,stimulus/viswhat_stim/land_animal-dog.png,stimulus/viswhat_stim/water_animal-jellyfish.png,stimulus/audwhat_stim/match_blank.png,stimulus/audwhat_stim/match_box.png,stimulus/audwhat_stim/match_yes.png,stimulus/audwhat_stim/match_no.png,1.0,Match,Type,Type,1,5.125,0,5.125,0,5.125,0,5.125,0,0.75,0.75,1,0.5,1,2.125,1,0.5,1,2.125,0,0.0,0,0.0,0,0.0,0,0.0,0,,,,,0,30,30,30,,,,,,,,,279.41475950000313,284.5367245840025,279.8751817090015,280.87404733400035,281.50855591700383,282.49790258400026,279.41475950000313,279.41475950000313,279.4147959173371,279.41475950000313,279.41475950000313,279.41475950000313,279.4147959173371,279.41475950000313,284.5367245840025,285.3510926250019,287.4291252500043,291.3206034590039,285.3510926250019,285.3510926250019,290.4837931250004,285.8045003340012,286.8313334590057,287.4291252500043,288.4615905419996,285.3510926250019,285.3510926250019,285.32081425000507,285.3510926250019,285.3510926250019,285.3510926250019,285.32081425000507,285.3510926250019,285.3510926250019,290.4837931250004,285.3510926250019,290.4837931250004,290.52962795900385,291.3206034590039,285.3510926250019,1,1,0.7610326669964707,reldom2_s036,001,2025-03-14_12h20.21.967,What-A-Scan_AC,2022.2.5,None,
24,Second_Order,4.0,viswhat,stimulus/viswhat_stim/land_vehicle-tank.png,stimulus/viswhat_stim/water_vehicle-canoe(1).png,stimulus/viswhat_stim/water_animal-orka.png,stimulus/viswhat_stim/water_vehicle-cabincruiser.png,stimulus/audwhat_stim/match_blank.png,stimulus/audwhat_stim/match_box.png,stimulus/audwhat_stim/match_yes.png,stimulus/audwhat_stim/match_no.png,2.0,Match,Type,Location,2,5.125,0,5.125,0,5.125,0,5.125,0,0.625,0.625,1,0.5,1,2.125,1,0.5,1,2.125,0,0.0,0,0.0,0,0.0,0,0.0,0,,,,,0,31,31,31,,,,,,,,,291.3206034590039,296.4432725000006,291.803191084,292.80177808400185,293.42449379200116,294.4220014590028,291.3206034590039,291.3206034590039,291.32928220866694,291.3206034590039,291.3206034590039,291.3206034590039,291.32928220866694,291.3206034590039,296.4432725000006,297.2402810840067,299.2891189590009,303.34800850000465,297.2402810840067,297.2402810840067,302.486693167004,297.6910514170013,298.7548440840037,299.2891189590009,300.35615354200127,297.2402810840067,297.2402810840067,297.17816475067036,297.2402810840067,297.2402810840067,297.2402810840067,297.17816475067036,297.2402810840067,297.2402810840067,302.486693167004,297.2402810840067,302.486693167004,302.415289250006,303.34800850000465,297.2402810840067,2,1,0.8329962079951656,reldom2_s036,001,2025-03-14_12h20.21.967,What-A-Scan_AC,2022.2.5,None,
0,0.0,None,fixation,stimulus/audwhat_stim/blank_white.png,stimulus/audwhat_stim/blank_white.png,stimulus/viswhat_stim/blank_white.png,stimulus/viswhat_stim/blank_white.png,stimulus/audwhat_stim/blank_white.png,stimulus/audwhat_stim/blank_white.png,stimulus/audwhat_stim/blank_white.png,stimulus/audwhat_stim/blank_white.png,0.0,0.0,0.0,0.0,0,0.0,0,0.0,0,0.0,0,0.0,0,0.0,0.0,0,0.0,0,0.0,0,0.0,0,0.0,0,0.0,0,0.0,0,0.0,0,0.0,9,,,,,0,32,32,32,,,,,,,,,303.34800850000465,303.34800850000465,303.34800850000465,303.34800850000465,303.34800850000465,303.34800850000465,303.34800850000465,303.34800850000465,303.25275570900266,303.34800850000465,303.34800850000465,303.34800850000465,303.25275570900266,303.34800850000465,303.34800850000465,303.34800850000465,303.34800850000465,303.34800850000465,303.34800850000465,303.34800850000465,303.34800850000465,303.34800850000465,303.34800850000465,303.34800850000465,303.34800850000465,303.34800850000465,303.34800850000465,303.30275570900267,303.34800850000465,303.34800850000465,303.34800850000465,303.30275570900267,303.34800850000465,303.34800850000465,303.34800850000465,303.34800850000465,303.34800850000465,308.5460547920011,308.5460547920011,312.5940164170024,None,0,,reldom2_s036,001,2025-03-14_12h20.21.967,What-A-Scan_AC,2022.2.5,None,
25,First_Order,5.0,audwhat,stimulus/audwhat_stim/dummy.wav,stimulus/audwhat_stim/dummy.wav,stimulus/audwhat_stim/string cello_low-pitch_Dtri_loud.wav,stimulus/audwhat_stim/percussion mallet_low-pitch_Dtri_loud.wav,stimulus/audwhat_stim/blank_white.png,stimulus/audwhat_stim/pitch_box.png,stimulus/audwhat_stim/pitch_yes.png,stimulus/audwhat_stim/pitch_no.png,None,Pitch,None,Pitch,1,0.0,0,5.125,0,5.125,0,5.125,0,0.0,0.625,0,0.0,0,0.0,0,0.0,0,0.0,0,0.0,0,0.0,1,0.5,1,2.125,0,,,,,0,33,33,33,,,,,,,,,312.5940164170024,312.5940164170024,312.5940164170024,312.5940164170024,312.5940164170024,312.5940164170024,312.5940164170024,312.5940164170024,312.5261221256684,312.5940164170024,312.5940164170024,312.5940164170024,312.5261221256684,312.5940164170024,312.5940164170024,312.5940164170024,314.69896437500574,,312.5940164170024,312.5940164170024,317.7601974999998,312.5940164170024,312.5940164170024,312.5940164170024,312.5940164170024,313.0529266250014,314.10603479200654,313.0231850836683,,314.69896437500574,315.75151179200475,314.6696640416669,,312.5940164170024,317.7601974999998,312.5940164170024,317.7601974999998,317.80054283400386,318.4818225840063,312.5940164170024,1,1,1.504202999996778,reldom2_s036,001,2025-03-14_12h20.21.967,What-A-Scan_AC,2022.2.5,None,
26,First_Order,5.0,audwhat,stimulus/audwhat_stim/dummy.wav,stimulus/audwhat_stim/dummy.wav,stimulus/audwhat_stim/string cello_low-pitch_F_loud.wav,stimulus/audwhat_stim/percussion mallet_low-pitch_F_loud.wav,stimulus/audwhat_stim/blank_white.png,stimulus/audwhat_stim/pitch_box.png,stimulus/audwhat_stim/pitch_yes.png,stimulus/audwhat_stim/pitch_no.png,None,Pitch,None,Pitch,1,0.0,0,5.125,0,5.125,0,5.125,0,0.0,0.625,0,0.0,0,0.0,0,0.0,0,0.0,0,0.0,0,0.0,1,0.5,1,2.125,0,,,,,0,34,34,34,,,,,,,,,318.6910940000016,318.6910940000016,318.6910940000016,318.6910940000016,318.6910940000016,318.6910940000016,318.6910940000016,318.6910940000016,318.6151559173396,318.6910940000016,318.6910940000016,318.6910940000016,318.6151559173396,318.6910940000016,318.6910940000016,318.6910940000016,320.800598834001,324.8100057920019,318.6910940000016,318.6910940000016,323.872040000002,318.6910940000016,318.6910940000016,318.6910940000016,318.6910940000016,319.1491214170019,320.19906245900347,319.1198467506731,,320.800598834001,321.8577321670018,320.76976070867045,,318.6910940000016,323.872040000002,318.6910940000016,323.872040000002,323.9124687500007,324.597874375002,318.6910940000016,2,0,1.2997732919902774,reldom2_s036,001,2025-03-14_12h20.21.967,What-A-Scan_AC,2022.2.5,None,
27,First_Order,5.0,audwhat,stimulus/audwhat_stim/dummy.wav,stimulus/audwhat_stim/dummy.wav,stimulus/audwhat_stim/string cello_high-pitch_D_loud.wav,stimulus/audwhat_stim/percussion mallet_high-pitch_D_loud.wav,stimulus/audwhat_stim/blank_white.png,stimulus/audwhat_stim/category_box.png,stimulus/audwhat_stim/category_yes.png,stimulus/audwhat_stim/category_no.png,None,Category,None,Pitch,2,0.0,0,5.125,0,5.125,0,5.125,0,0.0,0.625,0,0.0,0,0.0,0,0.0,0,0.0,0,0.0,0,0.0,1,0.5,1,2.125,0,,,,,0,35,35,35,,,,,,,,,324.8100057920019,324.8100057920019,324.8100057920019,324.8100057920019,324.8100057920019,324.8100057920019,324.8100057920019,324.8100057920019,324.7312077083353,324.8100057920019,324.8100057920019,324.8100057920019,324.7312077083353,324.8100057920019,324.8100057920019,324.8100057920019,326.8863607920066,,324.8100057920019,324.8100057920019,329.97191079200275,324.8100057920019,324.8100057920019,324.8100057920019,324.8100057920019,325.27235662500607,326.33378004200495,325.2426351666693,,326.8863607920066,327.94718087500223,326.85736725067204,,324.8100057920019,329.97191079200275,324.8100057920019,329.97191079200275,330.01245037500485,330.662702792004,324.8100057920019,1,0,0.9816819589977968,reldom2_s036,001,2025-03-14_12h20.21.967,What-A-Scan_AC,2022.2.5,None,
28,First_Order,5.0,audwhat,stimulus/audwhat_stim/dummy.wav,stimulus/audwhat_stim/dummy.wav,stimulus/audwhat_stim/percussion mallet_low-pitch_Ftri_loud.wav,stimulus/audwhat_stim/percussion mallet_high-pitch_F_loud.wav,stimulus/audwhat_stim/blank_white.png,stimulus/audwhat_stim/category_box.png,stimulus/audwhat_stim/category_yes.png,stimulus/audwhat_stim/category_no.png,None,Category,None,Category,1,0.0,0,5.125,0,5.125,0,5.125,0,0.0,0.625,0,0.0,0,0.0,0,0.0,0,0.0,0,0.0,0,0.0,1,0.5,1,2.125,0,,,,,0,36,36,36,,,,,,,,,330.91904016700573,330.91904016700573,330.91904016700573,330.91904016700573,330.91904016700573,330.91904016700573,330.91904016700573,330.91904016700573,330.83671637533746,330.91904016700573,330.91904016700573,330.91904016700573,330.83671637533746,330.91904016700573,330.91904016700573,330.91904016700573,332.9952951670057,337.05281412500335,330.91904016700573,330.91904016700573,336.08877395900345,330.91904016700573,330.91904016700573,330.91904016700573,330.91904016700573,331.3816150420025,332.4427732500044,331.35206766667056,,332.9952951670057,334.0588146670052,332.9658205006674,,330.91904016700573,336.08877395900345,330.91904016700573,336.08877395900345,336.1294041670044,336.77966020900203,330.91904016700573,1,1,1.2895499579899479,reldom2_s036,001,2025-03-14_12h20.21.967,What-A-Scan_AC,2022.2.5,None,
0,0.0,None,fixation,stimulus/audwhat_stim/blank_white.png,stimulus/audwhat_stim/blank_white.png,stimulus/viswhat_stim/blank_white.png,stimulus/viswhat_stim/blank_white.png,stimulus/audwhat_stim/blank_white.png,stimulus/audwhat_stim/blank_white.png,stimulus/audwhat_stim/blank_white.png,stimulus/audwhat_stim/blank_white.png,0.0,0.0,0.0,0.0,0,0.0,0,0.0,0,0.0,0,0.0,0,0.0,0.0,0,0.0,0,0.0,0,0.0,0,0.0,0,0.0,0,0.0,0,0.0,0,0.0,8,,,,,0,37,37,37,,,,,,,,,337.05281412500335,337.05281412500335,337.05281412500335,337.05281412500335,337.05281412500335,337.05281412500335,337.05281412500335,337.05281412500335,336.9546142503333,337.05281412500335,337.05281412500335,337.05281412500335,336.9546142503333,337.05281412500335,337.05281412500335,337.05281412500335,337.05281412500335,337.05281412500335,337.05281412500335,337.05281412500335,337.05281412500335,337.05281412500335,337.05281412500335,337.05281412500335,337.05281412500335,337.05281412500335,337.05281412500335,337.0046142503333,337.05281412500335,337.05281412500335,337.05281412500335,337.0046142503333,337.05281412500335,337.05281412500335,337.05281412500335,337.05281412500335,337.05281412500335,342.2395575000046,342.2395575000046,345.1824520000009,None,0,,reldom2_s036,001,2025-03-14_12h20.21.967,What-A-Scan_AC,2022.2.5,None,
29,Second_Order,5.0,audwhat,stimulus/audwhat_stim/percussion xylophone_high-pitch_Dtri_loud.wav,stimulus/audwhat_stim/percussion mallet_low-pitch_Ftri_loud.wav,stimulus/audwhat_stim/string viola_high-pitch_Ftri_loud.wav,stimulus/audwhat_stim/string viola_low-pitch_Dtri_loud.wav,stimulus/audwhat_stim/match_blank.png,stimulus/audwhat_stim/match_box.png,stimulus/audwhat_stim/match_yes.png,stimulus/audwhat_stim/match_no.png,1.0,Match,Category,Category,1,5.125,0,5.125,0,5.125,0,5.125,0,0.75,0.75,0,0.0,0,0.0,0,0.0,0,0.0,1,0.5,1,2.125,1,0.5,1,2.125,0,,,,,0,38,38,38,,,,,,,,,345.1824520000009,350.3056682919996,345.1824520000009,345.1824520000009,345.1824520000009,345.1824520000009,345.6407294170058,346.6297617090022,345.64211070866827,346.6297617090022,347.26550912500534,348.2631172090041,347.2774591666714,,350.3056682919996,351.155639042001,353.2034093340044,357.1544876670014,351.155639042001,351.155639042001,356.31056633400294,351.155639042001,351.155639042001,351.155639042001,351.155639042001,351.6087734169996,352.6553031670046,351.58016704167335,,353.2034093340044,354.25873975000286,353.1746004586714,,351.155639042001,356.31056633400294,351.155639042001,356.31056633400294,356.35109862500394,,351.155639042001,1,1,0.8018188329951954,reldom2_s036,001,2025-03-14_12h20.21.967,What-A-Scan_AC,2022.2.5,None,
30,Second_Order,5.0,audwhat,stimulus/audwhat_stim/percussion mallet_low-pitch_F_loud.wav,stimulus/audwhat_stim/percussion mallet_high-pitch_Ftri_loud.wav,stimulus/audwhat_stim/string viola_low-pitch_F_loud.wav,stimulus/audwhat_stim/string viola_high-pitch_Ftri_loud.wav,stimulus/audwhat_stim/match_blank.png,stimulus/audwhat_stim/match_box.png,stimulus/audwhat_stim/match_yes.png,stimulus/audwhat_stim/match_no.png,1.0,Match,Category,Category,1,5.125,0,5.125,0,5.125,0,5.125,0,0.625,0.625,0,0.0,0,0.0,0,0.0,0,0.0,1,0.5,1,2.125,1,0.5,1,2.125,0,,,,,0,39,39,39,,,,,,,,,357.1544876670014,362.2674896250028,357.1544876670014,357.1544876670014,357.1544876670014,357.1544876670014,357.6048085000002,358.60372004200326,357.6176880416717,,359.23834987500595,360.2287503750049,359.2413423336732,360.2287503750049,362.2674896250028,362.9938984590044,365.07279095900594,369.1005297090014,362.9938984590044,362.9938984590044,368.15559233400563,362.9938984590044,362.9938984590044,362.9938984590044,362.9938984590044,363.44370795900613,364.48253095900145,363.41512216667275,,365.07279095900594,366.11771150000277,365.0441989586727,,362.9938984590044,368.15559233400563,362.9938984590044,368.15559233400563,368.15559233400563,368.8344320840042,362.9938984590044,1,1,0.7010655829944881,reldom2_s036,001,2025-03-14_12h20.21.967,What-A-Scan_AC,2022.2.5,None,
0,0.0,None,fixation,stimulus/audwhat_stim/blank_white.png,stimulus/audwhat_stim/blank_white.png,stimulus/viswhat_stim/blank_white.png,stimulus/viswhat_stim/blank_white.png,stimulus/audwhat_stim/blank_white.png,stimulus/audwhat_stim/blank_white.png,stimulus/audwhat_stim/blank_white.png,stimulus/audwhat_stim/blank_white.png,0.0,0.0,0.0,0.0,0,0.0,0,0.0,0,0.0,0,0.0,0,0.0,0.0,0,0.0,0,0.0,0,0.0,0,0.0,0,0.0,0,0.0,0,0.0,0,0.0,9,,,,,0,40,40,40,,,,,,,,,369.1005297090014,369.1005297090014,369.1005297090014,369.1005297090014,369.1005297090014,369.1005297090014,369.1005297090014,369.1005297090014,369.00716995833693,369.1005297090014,369.1005297090014,369.1005297090014,369.00716995833693,369.1005297090014,369.1005297090014,369.1005297090014,369.1005297090014,369.1005297090014,369.1005297090014,369.1005297090014,369.1005297090014,369.1005297090014,369.1005297090014,369.1005297090014,369.1005297090014,369.1005297090014,369.1005297090014,369.05716995833694,369.1005297090014,369.1005297090014,369.1005297090014,369.05716995833694,369.1005297090014,369.1005297090014,369.1005297090014,369.1005297090014,369.1005297090014,374.3163594590005,374.3163594590005,378.3253333340035,None,0,,reldom2_s036,001,2025-03-14_12h20.21.967,What-A-Scan_AC,2022.2.5,None,
31,First_Order,6.0,audwhat,stimulus/audwhat_stim/dummy.wav,stimulus/audwhat_stim/dummy.wav,stimulus/audwhat_stim/string viola_high-pitch_F_loud.wav,stimulus/audwhat_stim/percussion xylophone_high-pitch_F_loud.wav,stimulus/audwhat_stim/blank_white.png,stimulus/audwhat_stim/category_box.png,stimulus/audwhat_stim/category_yes.png,stimulus/audwhat_stim/category_no.png,None,Category,None,Pitch,2,0.0,0,5.125,0,5.125,0,5.125,0,0.0,0.625,0,0.0,0,0.0,0,0.0,0,0.0,0,0.0,0,0.0,1,0.5,1,2.125,0,,,,,0,41,41,41,,,,,,,,,378.3253333340035,378.3253333340035,378.3253333340035,378.3253333340035,378.3253333340035,378.3253333340035,378.3253333340035,378.3253333340035,378.2561800416685,378.3253333340035,378.3253333340035,378.3253333340035,378.2561800416685,378.3253333340035,378.3253333340035,378.3253333340035,380.4379230420018,,378.3253333340035,378.3253333340035,383.48497062500246,378.3253333340035,378.3253333340035,378.3253333340035,378.3253333340035,378.78376670900616,379.8405008750051,378.7548365836667,,380.4379230420018,381.4993843750053,380.4087368336734,381.4533904590062,378.3253333340035,383.48497062500246,378.3253333340035,383.48497062500246,383.5256515000001,384.21211270900676,378.3253333340035,2,1,1.0972000830006436,reldom2_s036,001,2025-03-14_12h20.21.967,What-A-Scan_AC,2022.2.5,None,
32,First_Order,6.0,audwhat,stimulus/audwhat_stim/dummy.wav,stimulus/audwhat_stim/dummy.wav,stimulus/audwhat_stim/percussion mallet_high-pitch_F_loud.wav,stimulus/audwhat_stim/percussion mallet_low-pitch_D_loud.wav,stimulus/audwhat_stim/blank_white.png,stimulus/audwhat_stim/pitch_box.png,stimulus/audwhat_stim/pitch_yes.png,stimulus/audwhat_stim/pitch_no.png,None,Pitch,None,Category,2,0.0,0,5.125,0,5.125,0,5.125,0,0.0,0.625,0,0.0,0,0.0,0,0.0,0,0.0,0,0.0,0,0.0,1,0.5,1,2.125,0,,,,,0,42,42,42,,,,,,,,,384.42262250000203,384.42262250000203,384.42262250000203,384.42262250000203,384.42262250000203,384.42262250000203,384.42262250000203,384.42262250000203,384.3454460423401,384.42262250000203,384.42262250000203,384.42262250000203,384.3454460423401,384.42262250000203,384.42262250000203,384.42262250000203,386.5386581670027,390.5505167090014,384.42262250000203,384.42262250000203,389.6109152920035,384.42262250000203,384.42262250000203,384.42262250000203,384.42262250000203,384.8842447920033,385.94279587500205,384.85481208366787,,386.5386581670027,387.597702209001,386.5094855416721,,384.42262250000203,389.6109152920035,384.42262250000203,389.6109152920035,389.6518482090032,390.2996650000059,384.42262250000203,2,1,1.08836491699185,reldom2_s036,001,2025-03-14_12h20.21.967,What-A-Scan_AC,2022.2.5,None,
33,First_Order,6.0,audwhat,stimulus/audwhat_stim/dummy.wav,stimulus/audwhat_stim/dummy.wav,stimulus/audwhat_stim/string cello_high-pitch_D_loud.wav,stimulus/audwhat_stim/string cello_low-pitch_Dtri_loud.wav,stimulus/audwhat_stim/blank_white.png,stimulus/audwhat_stim/category_box.png,stimulus/audwhat_stim/category_yes.png,stimulus/audwhat_stim/category_no.png,None,Category,None,Category,1,0.0,0,5.125,0,5.125,0,5.125,0,0.0,0.625,0,0.0,0,0.0,0,0.0,0,0.0,0,0.0,0,0.0,1,0.5,1,2.125,0,,,,,0,43,43,43,,,,,,,,,390.5505167090014,390.5505167090014,390.5505167090014,390.5505167090014,390.5505167090014,390.5505167090014,390.5505167090014,390.5505167090014,390.4731118333385,390.5505167090014,390.5505167090014,390.5505167090014,390.4731118333385,390.5505167090014,390.5505167090014,390.5505167090014,392.6359913750057,396.6755642920034,390.5505167090014,390.5505167090014,395.7323462090062,390.5505167090014,390.5505167090014,390.5505167090014,390.5505167090014,391.0178536250023,392.0810862090002,390.98812862566797,,392.6359913750057,393.6995492920032,392.60624841667254,,390.5505167090014,395.7323462090062,390.5505167090014,395.7323462090062,395.77293979200476,396.4218545840049,390.5505167090014,1,1,0.7774585839943029,reldom2_s036,001,2025-03-14_12h20.21.967,What-A-Scan_AC,2022.2.5,None,
34,First_Order,6.0,audwhat,stimulus/audwhat_stim/dummy.wav,stimulus/audwhat_stim/dummy.wav,stimulus/audwhat_stim/string cello_high-pitch_F_loud.wav,stimulus/audwhat_stim/string viola_low-pitch_Ftri_loud.wav,stimulus/audwhat_stim/blank_white.png,stimulus/audwhat_stim/pitch_box.png,stimulus/audwhat_stim/pitch_yes.png,stimulus/audwhat_stim/pitch_no.png,None,Pitch,None,Category,2,0.0,0,5.125,0,5.125,0,5.125,0,0.0,0.625,0,0.0,0,0.0,0,0.0,0,0.0,0,0.0,0,0.0,1,0.5,1,2.125,0,,,,,0,44,44,44,,,,,,,,,396.6755642920034,396.6755642920034,396.6755642920034,396.6755642920034,396.6755642920034,396.6755642920034,396.6755642920034,396.6755642920034,396.5955948333377,396.6755642920034,396.6755642920034,396.6755642920034,396.5955948333377,396.6755642920034,396.6755642920034,396.6755642920034,398.74825512500684,,396.6755642920034,396.6755642920034,401.8394662500068,396.6755642920034,396.6755642920034,396.6755642920034,396.6755642920034,397.13902112500364,398.19692987500457,397.1100649586699,,398.74825512500684,399.8123152920016,398.7190020836681,,396.6755642920034,401.8394662500068,396.6755642920034,401.8394662500068,401.8801658340017,402.5671073340054,396.6755642920034,2,1,1.0132031670000288,reldom2_s036,001,2025-03-14_12h20.21.967,What-A-Scan_AC,2022.2.5,None,
0,0.0,None,fixation,stimulus/audwhat_stim/blank_white.png,stimulus/audwhat_stim/blank_white.png,stimulus/viswhat_stim/blank_white.png,stimulus/viswhat_stim/blank_white.png,stimulus/audwhat_stim/blank_white.png,stimulus/audwhat_stim/blank_white.png,stimulus/audwhat_stim/blank_white.png,stimulus/audwhat_stim/blank_white.png,0.0,0.0,0.0,0.0,0,0.0,0,0.0,0,0.0,0,0.0,0,0.0,0.0,0,0.0,0,0.0,0,0.0,0,0.0,0,0.0,0,0.0,0,0.0,0,0.0,10,,,,,0,45,45,45,,,,,,,,,402.800002709002,402.800002709002,402.800002709002,402.800002709002,402.800002709002,402.800002709002,402.800002709002,402.800002709002,402.70044066733874,402.800002709002,402.800002709002,402.800002709002,402.70044066733874,402.800002709002,402.800002709002,402.800002709002,402.800002709002,402.800002709002,402.800002709002,402.800002709002,402.800002709002,402.800002709002,402.800002709002,402.800002709002,402.800002709002,402.800002709002,402.800002709002,402.75044066733875,402.800002709002,402.800002709002,402.800002709002,402.75044066733875,402.800002709002,402.800002709002,402.800002709002,402.800002709002,402.800002709002,407.9935839170066,407.9935839170066,412.95645179200073,None,0,,reldom2_s036,001,2025-03-14_12h20.21.967,What-A-Scan_AC,2022.2.5,None,
35,Second_Order,6.0,audwhat,stimulus/audwhat_stim/percussion xylophone_high-pitch_D_loud.wav,stimulus/audwhat_stim/string viola_high-pitch_D_loud.wav,stimulus/audwhat_stim/percussion mallet_high-pitch_Dtri_loud.wav,stimulus/audwhat_stim/percussion mallet_low-pitch_D_loud.wav,stimulus/audwhat_stim/match_blank.png,stimulus/audwhat_stim/match_box.png,stimulus/audwhat_stim/match_yes.png,stimulus/audwhat_stim/match_no.png,2.0,Match,Pitch,Category,2,5.125,0,5.125,0,5.125,0,5.125,0,0.75,0.75,0,0.0,0,0.0,0,0.0,0,0.0,1,0.5,1,2.125,1,0.5,1,2.125,0,,,,,0,46,46,46,,,,,,,,,412.95645179200073,418.0784770840037,412.95645179200073,412.95645179200073,412.95645179200073,412.95645179200073,413.4129537500048,414.4034743750017,413.41525933367325,414.4034743750017,415.0386722500043,416.03638029200374,415.0506898756687,,418.0784770840037,418.92695795900363,420.97800358400127,,418.92695795900363,418.92695795900363,424.0927115000013,418.92695795900363,418.92695795900363,418.92695795900363,418.92695795900363,419.3784420000011,420.4283118750027,419.3492250836682,,420.97800358400127,422.0318575420024,420.94872700066867,,418.92695795900363,424.0927115000013,418.92695795900363,424.0927115000013,424.0927115000013,,418.92695795900363,2,1,1.024171249991923,reldom2_s036,001,2025-03-14_12h20.21.967,What-A-Scan_AC,2022.2.5,None,
36,Second_Order,6.0,audwhat,stimulus/audwhat_stim/percussion mallet_high-pitch_Dtri_loud.wav,stimulus/audwhat_stim/string viola_high-pitch_Dtri_loud.wav,stimulus/audwhat_stim/string cello_high-pitch_Dtri_loud.wav,stimulus/audwhat_stim/string viola_low-pitch_F_loud.wav,stimulus/audwhat_stim/match_blank.png,stimulus/audwhat_stim/match_box.png,stimulus/audwhat_stim/match_yes.png,stimulus/audwhat_stim/match_no.png,2.0,Match,Pitch,Category,2,5.125,0,5.125,0,5.125,0,5.125,0,0.625,0.625,0,0.0,0,0.0,0,0.0,0,0.0,1,0.5,1,2.125,1,0.5,1,2.125,0,,,,,0,47,47,47,,,,,,,,,424.8924573750046,430.00633329200355,424.8924573750046,424.8924573750046,424.8924573750046,424.8924573750046,425.34422454200103,426.3304490840019,425.3578940836708,,426.9662708340038,427.9635330000019,426.97837500067203,,430.00633329200355,430.73635987500165,432.7743343340044,,430.73635987500165,430.73635987500165,435.9228298750022,430.73635987500165,430.73635987500165,430.73635987500165,430.73635987500165,431.1854161670053,432.2303498340043,431.1570643336711,,432.7743343340044,433.82615612500376,432.74527733366654,,430.73635987500165,435.9228298750022,430.73635987500165,435.9228298750022,435.9228298750022,436.5984439590029,430.73635987500165,2,1,0.9272584999926039,reldom2_s036,001,2025-03-14_12h20.21.967,What-A-Scan_AC,2022.2.5,None,
0,0.0,None,fixation,stimulus/audwhat_stim/blank_white.png,stimulus/audwhat_stim/blank_white.png,stimulus/viswhat_stim/blank_white.png,stimulus/viswhat_stim/blank_white.png,stimulus/audwhat_stim/blank_white.png,stimulus/audwhat_stim/blank_white.png,stimulus/audwhat_stim/blank_white.png,stimulus/audwhat_stim/blank_white.png,0.0,0.0,0.0,0.0,0,0.0,0,0.0,0,0.0,0,0.0,0,0.0,0.0,0,0.0,0,0.0,0,0.0,0,0.0,0,0.0,0,0.0,0,0.0,0,0.0,8,,,,,0,48,48,48,,,,,,,,,436.82947433400113,436.82947433400113,436.82947433400113,436.82947433400113,436.82947433400113,436.82947433400113,436.82947433400113,436.82947433400113,436.73177729233623,436.82947433400113,436.82947433400113,436.82947433400113,436.73177729233623,436.82947433400113,436.82947433400113,436.82947433400113,436.82947433400113,436.82947433400113,436.82947433400113,436.82947433400113,436.82947433400113,436.82947433400113,436.82947433400113,436.82947433400113,436.82947433400113,436.82947433400113,436.82947433400113,436.78177729233624,436.82947433400113,436.82947433400113,436.82947433400113,436.78177729233624,436.82947433400113,436.82947433400113,436.82947433400113,436.82947433400113,436.82947433400113,442.05785195900535,442.05785195900535,445.0482670000056,None,0,,reldom2_s036,001,2025-03-14_12h20.21.967,What-A-Scan_AC,2022.2.5,None,
37,First_Order,7.0,viswhat,stimulus/viswhat_stim/blank_white.png,stimulus/viswhat_stim/blank_white.png,stimulus/viswhat_stim/land_animal-zebra.png,stimulus/viswhat_stim/water_animal-squid.png,stimulus/viswhat_stim/blank_white.png,stimulus/viswhat_stim/type_box.png,stimulus/viswhat_stim/type_yes.png,stimulus/viswhat_stim/type_no.png,None,Type,None,Type,1,0.0,0,5.125,0,5.125,0,5.125,0,0.0,0.625,0,0.0,0,0.0,1,0.5,1,2.125,0,0.0,0,0.0,0,0.0,0,0.0,0,,,,,0,49,49,49,,,,,,,,,445.0482670000056,445.0482670000056,445.0482670000056,445.0482670000056,445.0482670000056,445.0482670000056,445.0482670000056,445.0482670000056,445.0036618336695,445.0482670000056,445.0482670000056,445.0482670000056,445.0036618336695,445.0482670000056,445.0482670000056,445.0482670000056,447.12983691700356,451.37684866700147,445.0482670000056,445.0482670000056,450.20744466700125,445.52875662500446,446.55482291700173,447.12983691700356,448.1591048340051,445.0482670000056,445.0482670000056,445.02032850033623,445.0482670000056,445.0482670000056,445.0482670000056,445.02032850033623,445.0482670000056,445.0482670000056,450.20744466700125,445.0482670000056,450.20744466700125,450.26024979200156,450.90071237500524,445.0482670000056,1,1,1.374205374988378,reldom2_s036,001,2025-03-14_12h20.21.967,What-A-Scan_AC,2022.2.5,None,
38,First_Order,7.0,viswhat,stimulus/viswhat_stim/blank_white.png,stimulus/viswhat_stim/blank_white.png,stimulus/viswhat_stim/water_vehicle-submarine.png,stimulus/viswhat_stim/water_animal-lobster.png,stimulus/viswhat_stim/blank_white.png,stimulus/viswhat_stim/location_box.png,stimulus/viswhat_stim/location_yes.png,stimulus/viswhat_stim/location_no.png,None,Location,None,Location,1,0.0,0,5.125,0,5.125,0,5.125,0,0.0,0.625,0,0.0,0,0.0,1,0.5,1,2.125,0,0.0,0,0.0,0,0.0,0,0.0,0,,,,,0,50,50,50,,,,,,,,,451.37684866700147,451.37684866700147,451.37684866700147,451.37684866700147,451.37684866700147,451.37684866700147,451.37684866700147,451.37684866700147,451.0967586666719,451.37684866700147,451.37684866700147,451.37684866700147,451.0967586666719,451.37684866700147,451.37684866700147,451.37684866700147,453.48182270899997,457.48184541700175,451.37684866700147,451.37684866700147,456.63338508400193,451.82822745900194,453.0309463750018,453.48182270899997,454.68559066700254,451.37684866700147,451.37684866700147,451.23009200000524,451.37684866700147,451.37684866700147,451.37684866700147,451.23009200000524,451.37684866700147,451.37684866700147,456.63338508400193,451.37684866700147,456.63338508400193,456.48909541700414,,451.37684866700147,1,1,0.7969899159943452,reldom2_s036,001,2025-03-14_12h20.21.967,What-A-Scan_AC,2022.2.5,None,
39,First_Order,7.0,viswhat,stimulus/viswhat_stim/blank_white.png,stimulus/viswhat_stim/blank_white.png,stimulus/viswhat_stim/land_vehicle-vespa.png,stimulus/viswhat_stim/water_vehicle-yacht.png,stimulus/viswhat_stim/blank_white.png,stimulus/viswhat_stim/location_box.png,stimulus/viswhat_stim/location_yes.png,stimulus/viswhat_stim/location_no.png,None,Location,None,Type,2,0.0,0,5.125,0,5.125,0,5.125,0,0.0,0.625,0,0.0,0,0.0,1,0.5,1,2.125,0,0.0,0,0.0,0,0.0,0,0.0,0,,,,,0,51,51,51,,,,,,,,,457.48184541700175,457.48184541700175,457.48184541700175,457.48184541700175,457.48184541700175,457.48184541700175,457.48184541700175,457.48184541700175,457.418122042001,457.48184541700175,457.48184541700175,457.48184541700175,457.418122042001,457.48184541700175,457.48184541700175,457.48184541700175,459.57405970900436,463.5598243340064,457.48184541700175,457.48184541700175,462.6291142090049,457.9416541669998,458.9898422920014,459.57405970900436,460.6237763340032,457.48184541700175,457.48184541700175,457.4514553753344,457.48184541700175,457.48184541700175,457.48184541700175,457.4514553753344,457.48184541700175,457.48184541700175,462.6291142090049,457.48184541700175,462.6291142090049,462.70133416700264,463.35334429200157,457.48184541700175,2,1,2.258543665993784,reldom2_s036,001,2025-03-14_12h20.21.967,What-A-Scan_AC,2022.2.5,None,
40,First_Order,7.0,viswhat,stimulus/viswhat_stim/blank_white.png,stimulus/viswhat_stim/blank_white.png,stimulus/viswhat_stim/water_vehicle-canoe.png,stimulus/viswhat_stim/water_animal-whale (1).png,stimulus/viswhat_stim/blank_white.png,stimulus/viswhat_stim/location_box.png,stimulus/viswhat_stim/location_yes.png,stimulus/viswhat_stim/location_no.png,None,Location,None,Location,1,0.0,0,5.125,0,5.125,0,5.125,0,0.0,0.625,0,0.0,0,0.0,1,0.5,1,2.125,0,0.0,0,0.0,0,0.0,0,0.0,0,,,,,0,52,52,52,,,,,,,,,463.5598243340064,463.5598243340064,463.5598243340064,463.5598243340064,463.5598243340064,463.5598243340064,463.5598243340064,463.5598243340064,463.5226439173367,463.5598243340064,463.5598243340064,463.5598243340064,463.5226439173367,463.5598243340064,463.5598243340064,463.5598243340064,465.66198695900675,469.7048886670018,463.5598243340064,463.5598243340064,468.7047142090014,464.0263905000029,465.0510835420064,465.66198695900675,466.6915554590014,463.5598243340064,463.5598243340064,463.5393105840034,463.5598243340064,463.5598243340064,463.5598243340064,463.5393105840034,463.5598243340064,463.5598243340064,468.7047142090014,463.5598243340064,468.7047142090014,468.7752998750002,469.4111923340024,463.5598243340064,1,1,0.5655040419878787,reldom2_s036,001,2025-03-14_12h20.21.967,What-A-Scan_AC,2022.2.5,None,
0,0.0,None,fixation,stimulus/audwhat_stim/blank_white.png,stimulus/audwhat_stim/blank_white.png,stimulus/viswhat_stim/blank_white.png,stimulus/viswhat_stim/blank_white.png,stimulus/audwhat_stim/blank_white.png,stimulus/audwhat_stim/blank_white.png,stimulus/audwhat_stim/blank_white.png,stimulus/audwhat_stim/blank_white.png,0.0,0.0,0.0,0.0,0,0.0,0,0.0,0,0.0,0,0.0,0,0.0,0.0,0,0.0,0,0.0,0,0.0,0,0.0,0,0.0,0,0.0,0,0.0,0,0.0,10,,,,,0,53,53,53,,,,,,,,,469.7048886670018,469.7048886670018,469.7048886670018,469.7048886670018,469.7048886670018,469.7048886670018,469.7048886670018,469.7048886670018,469.60482812500555,469.7048886670018,469.7048886670018,469.7048886670018,469.60482812500555,469.7048886670018,469.7048886670018,469.7048886670018,469.7048886670018,469.7048886670018,469.7048886670018,469.7048886670018,469.7048886670018,469.7048886670018,469.7048886670018,469.7048886670018,469.7048886670018,469.7048886670018,469.7048886670018,469.65482812500557,469.7048886670018,469.7048886670018,469.7048886670018,469.65482812500557,469.7048886670018,469.7048886670018,469.7048886670018,469.7048886670018,469.7048886670018,474.9104530420009,474.9104530420009,479.86564937500225,None,0,,reldom2_s036,001,2025-03-14_12h20.21.967,What-A-Scan_AC,2022.2.5,None,
41,Second_Order,7.0,viswhat,stimulus/viswhat_stim/water_vehicle-cruiser.png,stimulus/viswhat_stim/land_vehicle-bus.png,stimulus/viswhat_stim/land_animal-fox.png,stimulus/viswhat_stim/water_animal-dolphin.png,stimulus/audwhat_stim/match_blank.png,stimulus/audwhat_stim/match_box.png,stimulus/audwhat_stim/match_yes.png,stimulus/audwhat_stim/match_no.png,1.0,Match,Type,Type,1,5.125,0,5.125,0,5.125,0,5.125,0,0.75,0.75,1,0.5,1,2.125,1,0.5,1,2.125,0,0.0,0,0.0,0,0.0,0,0.0,0,,,,,0,54,54,54,,,,,,,,,479.86564937500225,484.98340870900574,480.2868205420018,481.2734880000062,481.9215479590057,482.9107786670065,479.86564937500225,479.86564937500225,479.878951917336,479.86564937500225,479.86564937500225,479.86564937500225,479.878951917336,479.86564937500225,484.98340870900574,485.79186191700137,487.85444858400297,491.76962854200247,485.79186191700137,485.79186191700137,490.9199935840006,486.2343686670065,487.2537516250013,487.85444858400297,488.8809681670027,485.79186191700137,485.79186191700137,485.7674041250037,485.79186191700137,485.79186191700137,485.79186191700137,485.7674041250037,485.79186191700137,485.79186191700137,490.9199935840006,485.79186191700137,490.9199935840006,490.9818075000003,,485.79186191700137,1,1,0.7581655419926392,reldom2_s036,001,2025-03-14_12h20.21.967,What-A-Scan_AC,2022.2.5,None,
42,Second_Order,7.0,viswhat,stimulus/viswhat_stim/water_animal-whale.png,stimulus/viswhat_stim/water_vehicle-ferryboat.png,stimulus/viswhat_stim/land_vehicle-tank.png,stimulus/viswhat_stim/land_animal-wolf.png,stimulus/audwhat_stim/match_blank.png,stimulus/audwhat_stim/match_box.png,stimulus/audwhat_stim/match_yes.png,stimulus/audwhat_stim/match_no.png,1.0,Match,Location,Location,1,5.125,0,5.125,0,5.125,0,5.125,0,0.625,0.625,1,0.5,1,2.125,1,0.5,1,2.125,0,0.0,0,0.0,0,0.0,0,0.0,0,,,,,0,55,55,55,,,,,,,,,491.76962854200247,496.8937743750066,492.2329463750066,493.23120425000525,493.8541422920025,494.85151537500496,491.76962854200247,491.76962854200247,491.78455695833446,491.76962854200247,491.76962854200247,491.76962854200247,491.78455695833446,491.76962854200247,496.8937743750066,497.5708292920026,499.6507163750066,503.69123079200654,497.5708292920026,497.5708292920026,502.70543125000404,498.01290920900647,499.0217159170061,499.6507163750066,500.66611900000134,497.5708292920026,497.5708292920026,497.5577634170011,497.5708292920026,497.5708292920026,497.5708292920026,497.5577634170011,497.5708292920026,497.5708292920026,502.70543125000404,497.5708292920026,502.70543125000404,502.7713872500026,503.4094841670012,497.5708292920026,1,1,0.533208916989679,reldom2_s036,001,2025-03-14_12h20.21.967,What-A-Scan_AC,2022.2.5,None,
0,0.0,None,fixation,stimulus/audwhat_stim/blank_white.png,stimulus/audwhat_stim/blank_white.png,stimulus/viswhat_stim/blank_white.png,stimulus/viswhat_stim/blank_white.png,stimulus/audwhat_stim/blank_white.png,stimulus/audwhat_stim/blank_white.png,stimulus/audwhat_stim/blank_white.png,stimulus/audwhat_stim/blank_white.png,0.0,0.0,0.0,0.0,0,0.0,0,0.0,0,0.0,0,0.0,0,0.0,0.0,0,0.0,0,0.0,0,0.0,0,0.0,0,0.0,0,0.0,0,0.0,0,0.0,9,,,,,0,56,56,56,,,,,,,,,503.69123079200654,503.69123079200654,503.69123079200654,503.69123079200654,503.69123079200654,503.69123079200654,503.69123079200654,503.69123079200654,503.58979258333903,503.69123079200654,503.69123079200654,503.69123079200654,503.58979258333903,503.69123079200654,503.69123079200654,503.69123079200654,503.69123079200654,503.69123079200654,503.69123079200654,503.69123079200654,503.69123079200654,503.69123079200654,503.69123079200654,503.69123079200654,503.69123079200654,503.69123079200654,503.69123079200654,503.63979258333904,503.69123079200654,503.69123079200654,503.69123079200654,503.63979258333904,503.69123079200654,503.69123079200654,503.69123079200654,503.69123079200654,503.69123079200654,508.8828168750042,508.8828168750042,512.8927339590009,None,0,,reldom2_s036,001,2025-03-14_12h20.21.967,What-A-Scan_AC,2022.2.5,None,
43,First_Order,8.0,viswhat,stimulus/viswhat_stim/blank_white.png,stimulus/viswhat_stim/blank_white.png,stimulus/viswhat_stim/water_vehicle-canoe.png,stimulus/viswhat_stim/water_animal-octopus.png,stimulus/viswhat_stim/blank_white.png,stimulus/viswhat_stim/type_box.png,stimulus/viswhat_stim/type_yes.png,stimulus/viswhat_stim/type_no.png,None,Type,None,Location,2,0.0,0,5.125,0,5.125,0,5.125,0,0.0,0.625,0,0.0,0,0.0,1,0.5,1,2.125,0,0.0,0,0.0,0,0.0,0,0.0,0,,,,,0,57,57,57,,,,,,,,,512.8927339590009,512.8927339590009,512.8927339590009,512.8927339590009,512.8927339590009,512.8927339590009,512.8927339590009,512.8927339590009,512.842748791673,512.8927339590009,512.8927339590009,512.8927339590009,512.842748791673,512.8927339590009,512.8927339590009,512.8927339590009,514.973550792005,518.9732887920036,512.8927339590009,512.8927339590009,518.0428304590023,513.3704388750048,514.3923534170026,514.973550792005,515.9998528750002,512.8927339590009,512.8927339590009,512.8594154583396,512.8927339590009,512.8927339590009,512.8927339590009,512.8594154583396,512.8927339590009,512.8927339590009,518.0428304590023,512.8927339590009,518.0428304590023,518.1001701250061,518.7563068340023,512.8927339590009,2,1,0.7018062499992084,reldom2_s036,001,2025-03-14_12h20.21.967,What-A-Scan_AC,2022.2.5,None,
44,First_Order,8.0,viswhat,stimulus/viswhat_stim/blank_white.png,stimulus/viswhat_stim/blank_white.png,stimulus/viswhat_stim/water_animal-octopus.png,stimulus/viswhat_stim/land_animal-snake.png,stimulus/viswhat_stim/blank_white.png,stimulus/viswhat_stim/type_box.png,stimulus/viswhat_stim/type_yes.png,stimulus/viswhat_stim/type_no.png,None,Type,None,Type,1,0.0,0,5.125,0,5.125,0,5.125,0,0.0,0.625,0,0.0,0,0.0,1,0.5,1,2.125,0,0.0,0,0.0,0,0.0,0,0.0,0,,,,,0,58,58,58,,,,,,,,,518.9732887920036,518.9732887920036,518.9732887920036,518.9732887920036,518.9732887920036,518.9732887920036,518.9732887920036,518.9732887920036,518.9307794586692,518.9732887920036,518.9732887920036,518.9732887920036,518.9307794586692,518.9732887920036,518.9732887920036,518.9732887920036,521.0583341670063,,518.9732887920036,518.9732887920036,524.1374628340054,519.4408746670015,520.4667232920037,521.0583341670063,522.0878072920023,518.9732887920036,518.9732887920036,518.9474461253359,518.9732887920036,518.9732887920036,518.9732887920036,518.9474461253359,518.9732887920036,518.9732887920036,524.1374628340054,518.9732887920036,524.1374628340054,524.1885036250023,524.8251115000021,518.9732887920036,1,1,0.9245568749975064,reldom2_s036,001,2025-03-14_12h20.21.967,What-A-Scan_AC,2022.2.5,None,
45,First_Order,8.0,viswhat,stimulus/viswhat_stim/blank_white.png,stimulus/viswhat_stim/blank_white.png,stimulus/viswhat_stim/land_vehicle-schoolbus.png,stimulus/viswhat_stim/land_animal-pig.png,stimulus/viswhat_stim/blank_white.png,stimulus/viswhat_stim/type_box.png,stimulus/viswhat_stim/type_yes.png,stimulus/viswhat_stim/type_no.png,None,Type,None,Location,2,0.0,0,5.125,0,5.125,0,5.125,0,0.0,0.625,0,0.0,0,0.0,1,0.5,1,2.125,0,0.0,0,0.0,0,0.0,0,0.0,0,,,,,0,59,59,59,,,,,,,,,525.0443964170045,525.0443964170045,525.0443964170045,525.0443964170045,525.0443964170045,525.0443964170045,525.0443964170045,525.0443964170045,525.0010510000008,525.0443964170045,525.0443964170045,525.0443964170045,525.0010510000008,525.0443964170045,525.0443964170045,525.0443964170045,527.1494189170044,531.1574650420007,525.0443964170045,525.0443964170045,530.1861366250014,525.5170656250048,526.5429612090011,527.1494189170044,528.1810681250063,525.0443964170045,525.0443964170045,525.0343843333341,525.0443964170045,525.0443964170045,525.0443964170045,525.0343843333341,525.0443964170045,525.0443964170045,530.1861366250014,525.0443964170045,530.1861366250014,530.2687259170052,530.9105845420054,525.0443964170045,2,1,0.9416161249973811,reldom2_s036,001,2025-03-14_12h20.21.967,What-A-Scan_AC,2022.2.5,None,
46,First_Order,8.0,viswhat,stimulus/viswhat_stim/blank_white.png,stimulus/viswhat_stim/blank_white.png,stimulus/viswhat_stim/land_vehicle-oldcar.png,stimulus/viswhat_stim/water_vehicle-powercruiser.png,stimulus/viswhat_stim/blank_white.png,stimulus/viswhat_stim/location_box.png,stimulus/viswhat_stim/location_yes.png,stimulus/viswhat_stim/location_no.png,None,Location,None,Type,2,0.0,0,5.125,0,5.125,0,5.125,0,0.0,0.625,0,0.0,0,0.0,1,0.5,1,2.125,0,0.0,0,0.0,0,0.0,0,0.0,0,,,,,0,60,60,60,,,,,,,,,531.1574650420007,531.1574650420007,531.1574650420007,531.1574650420007,531.1574650420007,531.1574650420007,531.1574650420007,531.1574650420007,531.0934071670068,531.1574650420007,531.1574650420007,531.1574650420007,531.0934071670068,531.1574650420007,531.1574650420007,531.1574650420007,533.2552491670067,,531.1574650420007,531.1574650420007,536.3394028340044,531.609608042003,532.6373592500022,533.2552491670067,534.2860148340042,531.1574650420007,531.1574650420007,531.1267405003401,531.1574650420007,531.1574650420007,531.1574650420007,531.1267405003401,531.1574650420007,531.1574650420007,536.3394028340044,531.1574650420007,536.3394028340044,536.3750333340067,537.0502273750026,531.1574650420007,2,1,1.0919306669893558,reldom2_s036,001,2025-03-14_12h20.21.967,What-A-Scan_AC,2022.2.5,None,
0,0.0,None,fixation,stimulus/audwhat_stim/blank_white.png,stimulus/audwhat_stim/blank_white.png,stimulus/viswhat_stim/blank_white.png,stimulus/viswhat_stim/blank_white.png,stimulus/audwhat_stim/blank_white.png,stimulus/audwhat_stim/blank_white.png,stimulus/audwhat_stim/blank_white.png,stimulus/audwhat_stim/blank_white.png,0.0,0.0,0.0,0.0,0,0.0,0,0.0,0,0.0,0,0.0,0,0.0,0.0,0,0.0,0,0.0,0,0.0,0,0.0,0,0.0,0,0.0,0,0.0,0,0.0,9,,,,,0,61,61,61,,,,,,,,,537.2758157920034,537.2758157920034,537.2758157920034,537.2758157920034,537.2758157920034,537.2758157920034,537.2758157920034,537.2758157920034,537.1835607083359,537.2758157920034,537.2758157920034,537.2758157920034,537.1835607083359,537.2758157920034,537.2758157920034,537.2758157920034,537.2758157920034,537.2758157920034,537.2758157920034,537.2758157920034,537.2758157920034,537.2758157920034,537.2758157920034,537.2758157920034,537.2758157920034,537.2758157920034,537.2758157920034,537.2335607083359,537.2758157920034,537.2758157920034,537.2758157920034,537.2335607083359,537.2758157920034,537.2758157920034,537.2758157920034,537.2758157920034,537.2758157920034,542.4956957090035,542.4956957090035,546.4738795000012,None,0,,reldom2_s036,001,2025-03-14_12h20.21.967,What-A-Scan_AC,2022.2.5,None,
47,Second_Order,8.0,viswhat,stimulus/viswhat_stim/water_animal-dolphin.png,stimulus/viswhat_stim/water_vehicle-cruiseship.png,stimulus/viswhat_stim/land_vehicle-oldcar.png,stimulus/viswhat_stim/land_animal-giraffe.png,stimulus/audwhat_stim/match_blank.png,stimulus/audwhat_stim/match_box.png,stimulus/audwhat_stim/match_yes.png,stimulus/audwhat_stim/match_no.png,1.0,Match,Location,Location,1,5.125,0,5.125,0,5.125,0,5.125,0,0.75,0.75,1,0.5,1,2.125,1,0.5,1,2.125,0,0.0,0,0.0,0,0.0,0,0.0,0,,,,,0,62,62,62,,,,,,,,,546.4738795000012,551.5869814170001,546.8738801250001,547.8614682500047,548.4981760420051,549.4946462500011,546.4738795000012,546.4738795000012,546.4735987090054,546.4738795000012,546.4738795000012,546.4738795000012,546.4735987090054,546.4738795000012,551.5869814170001,552.477012125004,554.5245918750006,558.4572214170039,552.477012125004,552.477012125004,557.7016989590047,552.873659667006,553.9292061670058,554.5245918750006,555.587764584001,552.477012125004,552.477012125004,552.4205030000027,552.477012125004,552.477012125004,552.477012125004,552.4205030000027,552.477012125004,552.477012125004,557.7016989590047,552.477012125004,557.7016989590047,557.6408347920005,,552.477012125004,1,1,0.5603045419920818,reldom2_s036,001,2025-03-14_12h20.21.967,What-A-Scan_AC,2022.2.5,None,
48,Second_Order,8.0,viswhat,stimulus/viswhat_stim/land_animal-ostrich.png,stimulus/viswhat_stim/water_animal-shark.png,stimulus/viswhat_stim/water_animal-whale.png,stimulus/viswhat_stim/water_vehicle-cargoboat.png,stimulus/audwhat_stim/match_blank.png,stimulus/audwhat_stim/match_box.png,stimulus/audwhat_stim/match_yes.png,stimulus/audwhat_stim/match_no.png,2.0,Match,Type,Location,2,5.125,0,5.125,0,5.125,0,5.125,0,0.625,0.625,1,0.5,1,2.125,1,0.5,1,2.125,0,0.0,0,0.0,0,0.0,0,0.0,0,,,,,0,63,63,63,,,,,,,,,558.4572214170039,563.5822419169999,558.9200245419997,559.9189681670032,560.5417529170008,561.5390589170056,558.4572214170039,558.4572214170039,558.47153325067,558.4572214170039,558.4572214170039,558.4572214170039,558.47153325067,558.4572214170039,563.5822419169999,564.2753089590042,566.3388911250004,570.3876449170057,564.2753089590042,564.2753089590042,569.4160429590047,564.7248000420004,565.7588246250016,566.3388911250004,567.3527038340035,564.2753089590042,564.2753089590042,564.2453607500036,564.2753089590042,564.2753089590042,564.2753089590042,564.2453607500036,564.2753089590042,564.2753089590042,569.4160429590047,564.2753089590042,569.4160429590047,569.4580561670009,570.1060209999996,564.2753089590042,2,1,0.5145443749934202,reldom2_s036,001,2025-03-14_12h20.21.967,What-A-Scan_AC,2022.2.5,None,
0,0.0,None,fixation,stimulus/audwhat_stim/blank_white.png,stimulus/audwhat_stim/blank_white.png,stimulus/viswhat_stim/blank_white.png,stimulus/viswhat_stim/blank_white.png,stimulus/audwhat_stim/blank_white.png,stimulus/audwhat_stim/blank_white.png,stimulus/audwhat_stim/blank_white.png,stimulus/audwhat_stim/blank_white.png,0.0,0.0,0.0,0.0,0,0.0,0,0.0,0,0.0,0,0.0,0,0.0,0.0,0,0.0,0,0.0,0,0.0,0,0.0,0,0.0,0,0.0,0,0.0,0,0.0,16,,,,,0,64,64,64,,,,,,,,,570.3876449170057,570.3876449170057,570.3876449170057,570.3876449170057,570.3876449170057,570.3876449170057,570.3876449170057,570.3876449170057,570.2892821250003,570.3876449170057,570.3876449170057,570.3876449170057,570.2892821250003,570.3876449170057,570.3876449170057,570.3876449170057,570.3876449170057,570.3876449170057,570.3876449170057,570.3876449170057,570.3876449170057,570.3876449170057,570.3876449170057,570.3876449170057,570.3876449170057,570.3876449170057,570.3876449170057,570.3392821250003,570.3876449170057,570.3876449170057,570.3876449170057,570.3392821250003,570.3876449170057,570.3876449170057,570.3876449170057,570.3876449170057,570.3876449170057,575.5910920000024,575.5910920000024,586.5487966250003,None,0,,reldom2_s036,001,2025-03-14_12h20.21.967,What-A-Scan_AC,2022.2.5,None,
