Trial,Order,Block,Type,Stimuli_File1,Stimuli_File2,Stimuli_File3,Stimuli_File4,Cue_File1,Cue_File2,Response_File_Yes,Response_File_No,Match,Cue_Dimension,Pair1_Dimension,Pair2_Dimension,Key,Cue1_Duration,Cue1_Onset,Cue2_Duration,Cue2_Onset,ResponseYes_Duration,ResponseYes_Onset,ResponseNo_Duration,ResponseNo_Onset,ITI_Within,ITI_Between,Image1_Duration,Image1_Onset,Image2_Duration,Image2_Onset,Image3_Duration,Image3_Onset,Image4_Duration,Image4_Onset,Sound1_Duration,Sound1_Onset,Sound2_Duration,Sound2_Onset,Sound3_Duration,Sound3_Onset,Sound4_Duration,Sound4_Onset,Fixation_Duration,trials_2.thisRepN,trials_2.thisTrialN,trials_2.thisN,trials_2.thisIndex,trials.thisRepN,trials.thisTrialN,trials.thisN,trials.thisIndex,text_start.started,key_resp_start.started,key_resp_start.keys,key_resp_start.rt,text2.started,key_resp_2.started,key_resp_2.keys,key_resp_2.rt,cue_file1.started,cue_file1.stopped,image_1.started,image_1.stopped,image_2.started,image_2.stopped,sound_icon1.started,sound_icon1.stopped,sound_1.started,sound_1.stopped,sound_icon2.started,sound_icon2.stopped,sound_2.started,sound_2.stopped,image_blank_1.started,image_blank_1.stopped,key_press.started,key_press.stopped,fixation_text.started,cue_file2.started,cue_file2.stopped,image_3.started,image_3.stopped,image_4.started,image_4.stopped,sound_icon3.started,sound_icon3.stopped,sound_3.started,sound_3.stopped,sound_icon4.started,sound_icon4.stopped,sound_4.started,sound_4.stopped,response_yes.started,response_yes.stopped,response_no.started,response_no.stopped,iti_blank.started,iti_blank.stopped,fixation_text.stopped,key_press.keys,key_press.corr,key_press.rt,participant,session,date,expName,psychopyVersion,frameRate,
,,,,,,,,,,,,,,,,,,,,,,,,,,,,,,,,,,,,,,,,,,,,,,,,,,,,11.861758249993727,11.861758249993727,2,0.9974799170086044,,,,,,,,,,,,,,,,,,,,,,,,,,,,,,,,,,,,,,,,,,,,,,,,reldom2_s036,001,2025-03-14_12h42.43.922,Aud-A-Scan_AC,2022.2.5,None,
,,,,,,,,,,,,,,,,,,,,,,,,,,,,,,,,,,,,,,,,,,,,0,0,0,0,,,,,,,,,12.896929457994702,12.896929457994702,5,17.49753912500455,,,,,,,,,,,,,,,,,,,,,,,,,,,,,,,,,,,,,,,,,,,,reldom2_s036,001,2025-03-14_12h42.43.922,Aud-A-Scan_AC,2022.2.5,None,
,,,,,,,,,,,,,,,,,,,,,,,,,,,,,,,,,,,,,,,,,,,,1,0,1,0,,,,,,,,,30.407085707993247,30.407085707993247,5,1.9867778750049183,,,,,,,,,,,,,,,,,,,,,,,,,,,,,,,,,,,,,,,,,,,,reldom2_s036,001,2025-03-14_12h42.43.922,Aud-A-Scan_AC,2022.2.5,None,
,,,,,,,,,,,,,,,,,,,,,,,,,,,,,,,,,,,,,,,,,,,,2,0,2,0,,,,,,,,,32.40096320799785,32.40096320799785,5,1.9941640840042965,,,,,,,,,,,,,,,,,,,,,,,,,,,,,,,,,,,,,,,,,,,,reldom2_s036,001,2025-03-14_12h42.43.922,Aud-A-Scan_AC,2022.2.5,None,
,,,,,,,,,,,,,,,,,,,,,,,,,,,,,,,,,,,,,,,,,,,,3,0,3,0,,,,,,,,,34.40886891599803,34.40886891599803,5,1.9854358340089675,,,,,,,,,,,,,,,,,,,,,,,,,,,,,,,,,,,,,,,,,,,,reldom2_s036,001,2025-03-14_12h42.43.922,Aud-A-Scan_AC,2022.2.5,None,
0,0.0,None,fixation,stimulus/audwhere_stim/blank_white.png,stimulus/audwhere_stim/blank_white.png,stimulus/audwhat_stim/blank_white.png,stimulus/audwhat_stim/blank_white.png,stimulus/audwhere_stim/blank_white.png,stimulus/audwhere_stim/blank_white.png,stimulus/audwhere_stim/blank_white.png,stimulus/audwhere_stim/blank_white.png,0.0,0.0,0.0,0.0,0,0.0,0,0.0,0,0.0,0,0.0,0,0.0,0.0,0,0,0,0,0,0,0,0,0,0.0,0,0.0,0,0.0,0,0.0,16,,,,,0,0,0,0,,,,,,,,,36.616101582993,36.616101582993,36.616101582993,36.616101582993,36.616101582993,36.616101582993,36.616101582993,36.616101582993,36.521640707664,36.616101582993,36.616101582993,36.616101582993,36.521640707664,36.616101582993,36.616101582993,36.616101582993,36.616101582993,36.616101582993,36.616101582993,36.616101582993,36.616101582993,36.616101582993,36.616101582993,36.616101582993,36.616101582993,36.616101582993,36.616101582993,36.571640707663995,36.616101582993,36.616101582993,36.616101582993,36.571640707663995,36.616101582993,36.616101582993,36.616101582993,36.616101582993,36.616101582993,41.79338187499525,41.79338187499525,52.833454790998076,None,0,,reldom2_s036,001,2025-03-14_12h42.43.922,Aud-A-Scan_AC,2022.2.5,None,
1,First_Order,1.0,audwhere,stimulus/audwhere_stim/dummy.wav,stimulus/audwhere_stim/dummy.wav,stimulus/audwhere_stim/left_away_280h.wav,stimulus/audwhere_stim/right_away_290h.wav,stimulus/audwhere_stim/blank_white.png,stimulus/audwhere_stim/direction_box.png,stimulus/audwhere_stim/direction_yes.png,stimulus/audwhere_stim/direction_no.png,None,Direction,None,Direction,1,0.0,0,5.125,0,5.125,0,5.125,0,0.0,0.625,0,0,0,0,0,0,0,0,0,0.0,0,0.0,1,0.5,1,2.125,0,,,,,0,1,1,1,,,,,,,,,52.833454790998076,52.833454790998076,52.833454790998076,52.833454790998076,52.833454790998076,52.833454790998076,52.833454790998076,52.833454790998076,52.76397437499545,52.833454790998076,52.833454790998076,52.833454790998076,52.76397437499545,52.833454790998076,52.833454790998076,52.833454790998076,54.91198549999535,58.95640904099855,52.833454790998076,52.833454790998076,57.99488945799385,52.833454790998076,52.833454790998076,52.833454790998076,52.833454790998076,53.2861144579947,54.32279504100006,53.25745008266337,,54.91198549999535,55.95143149999785,54.88326599966628,,52.833454790998076,57.99488945799385,52.833454790998076,57.99488945799385,58.03449983299652,58.710441832998185,52.833454790998076,1,1,1.3026780000000144,reldom2_s036,001,2025-03-14_12h42.43.922,Aud-A-Scan_AC,2022.2.5,None,
2,First_Order,1.0,audwhere,stimulus/audwhere_stim/dummy.wav,stimulus/audwhere_stim/dummy.wav,stimulus/audwhere_stim/left_away_270h.wav,stimulus/audwhere_stim/left_toward_270h.wav,stimulus/audwhere_stim/blank_white.png,stimulus/audwhere_stim/direction_box.png,stimulus/audwhere_stim/direction_yes.png,stimulus/audwhere_stim/direction_no.png,None,Direction,None,Side,2,0.0,0,5.125,0,5.125,0,5.125,0,0.0,0.625,0,0,0,0,0,0,0,0,0,0.0,0,0.0,1,0.5,1,2.125,0,,,,,0,2,2,2,,,,,,,,,58.95640904099855,58.95640904099855,58.95640904099855,58.95640904099855,58.95640904099855,58.95640904099855,58.95640904099855,58.95640904099855,58.883187499328535,58.95640904099855,58.95640904099855,58.95640904099855,58.883187499328535,58.95640904099855,58.95640904099855,58.95640904099855,61.04395466599817,65.06740079099836,58.95640904099855,58.95640904099855,64.13902487499581,58.95640904099855,58.95640904099855,58.95640904099855,58.95640904099855,59.40847962499538,60.45291370799532,59.379467166665805,,61.04395466599817,62.08946887499769,61.014667541665645,62.04383929100004,58.95640904099855,64.13902487499581,58.95640904099855,64.13902487499581,64.17924383299396,64.85984987499978,58.95640904099855,2,1,1.1555810840072809,reldom2_s036,001,2025-03-14_12h42.43.922,Aud-A-Scan_AC,2022.2.5,None,
3,First_Order,1.0,audwhere,stimulus/audwhere_stim/dummy.wav,stimulus/audwhere_stim/dummy.wav,stimulus/audwhere_stim/left_toward_300h.wav,stimulus/audwhere_stim/left_away_280h.wav,stimulus/audwhere_stim/blank_white.png,stimulus/audwhere_stim/direction_box.png,stimulus/audwhere_stim/direction_yes.png,stimulus/audwhere_stim/direction_no.png,None,Direction,None,Side,2,0.0,0,5.125,0,5.125,0,5.125,0,0.0,0.625,0,0,0,0,0,0,0,0,0,0.0,0,0.0,1,0.5,1,2.125,0,,,,,0,3,3,3,,,,,,,,,65.06740079099836,65.06740079099836,65.06740079099836,65.06740079099836,65.06740079099836,65.06740079099836,65.06740079099836,65.06740079099836,64.99318320833311,65.06740079099836,65.06740079099836,65.06740079099836,64.99318320833311,65.06740079099836,65.06740079099836,65.06740079099836,67.16640687499603,,65.06740079099836,65.06740079099836,70.22736437499407,65.06740079099836,65.06740079099836,65.06740079099836,65.06740079099836,65.52379833299347,66.57444249999389,65.49480808266186,,67.16640687499603,68.21905258299375,67.13750874966014,,65.06740079099836,70.22736437499407,65.06740079099836,70.22736437499407,70.26725370799977,70.95101987499947,65.06740079099836,2,1,1.403101626005082,reldom2_s036,001,2025-03-14_12h42.43.922,Aud-A-Scan_AC,2022.2.5,None,
4,First_Order,1.0,audwhere,stimulus/audwhere_stim/dummy.wav,stimulus/audwhere_stim/dummy.wav,stimulus/audwhere_stim/left_away_270h.wav,stimulus/audwhere_stim/left_toward_290h.wav,stimulus/audwhere_stim/blank_white.png,stimulus/audwhere_stim/side_box.png,stimulus/audwhere_stim/side_yes.png,stimulus/audwhere_stim/side_no.png,None,Side,None,Side,1,0.0,0,5.125,0,5.125,0,5.125,0,0.0,0.625,0,0,0,0,0,0,0,0,0,0.0,0,0.0,1,0.5,1,2.125,0,,,,,0,4,4,4,,,,,,,,,71.15865608299646,71.15865608299646,71.15865608299646,71.15865608299646,71.15865608299646,71.15865608299646,71.15865608299646,71.15865608299646,71.0843532083328,71.15865608299646,71.15865608299646,71.15865608299646,71.0843532083328,71.15865608299646,71.15865608299646,71.15865608299646,73.25534483299998,,71.15865608299646,71.15865608299646,76.31473191599798,71.15865608299646,71.15865608299646,71.15865608299646,71.15865608299646,71.614259957998,72.66267849999713,71.58527833266659,,73.25534483299998,74.3068261659937,73.22601174966645,,71.15865608299646,76.31473191599798,71.15865608299646,76.31473191599798,76.35467162499845,77.04116349999822,71.15865608299646,1,1,1.1572288340103114,reldom2_s036,001,2025-03-14_12h42.43.922,Aud-A-Scan_AC,2022.2.5,None,
0,0.0,None,fixation,stimulus/audwhere_stim/blank_white.png,stimulus/audwhere_stim/blank_white.png,stimulus/audwhat_stim/blank_white.png,stimulus/audwhat_stim/blank_white.png,stimulus/audwhere_stim/blank_white.png,stimulus/audwhere_stim/blank_white.png,stimulus/audwhere_stim/blank_white.png,stimulus/audwhere_stim/blank_white.png,0.0,0.0,0.0,0.0,0,0.0,0,0.0,0,0.0,0,0.0,0,0.0,0.0,0,0,0,0,0,0,0,0,0,0.0,0,0.0,0,0.0,0,0.0,9,,,,,0,5,5,5,,,,,,,,,77.27006899999833,77.27006899999833,77.27006899999833,77.27006899999833,77.27006899999833,77.27006899999833,77.27006899999833,77.27006899999833,77.17449683333155,77.27006899999833,77.27006899999833,77.27006899999833,77.17449683333155,77.27006899999833,77.27006899999833,77.27006899999833,77.27006899999833,77.27006899999833,77.27006899999833,77.27006899999833,77.27006899999833,77.27006899999833,77.27006899999833,77.27006899999833,77.27006899999833,77.27006899999833,77.27006899999833,77.22449683333156,77.27006899999833,77.27006899999833,77.27006899999833,77.22449683333156,77.27006899999833,77.27006899999833,77.27006899999833,77.27006899999833,77.27006899999833,82.479454040993,82.479454040993,86.41087629099638,None,0,,reldom2_s036,001,2025-03-14_12h42.43.922,Aud-A-Scan_AC,2022.2.5,None,
5,Second_Order,1.0,audwhere,stimulus/audwhere_stim/left_away_290h.wav,stimulus/audwhere_stim/right_away_300h.wav,stimulus/audwhere_stim/right_toward_290h.wav,stimulus/audwhere_stim/left_toward_300h.wav,stimulus/audwhere_stim/match_blank.png,stimulus/audwhere_stim/match_box.png,stimulus/audwhere_stim/match_yes.png,stimulus/audwhere_stim/match_no.png,1.0,Match,Direction,Direction,1,5.125,0,5.125,0,5.125,0,5.125,0,0.75,0.75,0,0,0,0,0,0,0,0,1,0.5,1,2.125,1,0.5,1,2.125,0,,,,,0,6,6,6,,,,,,,,,86.41087629099638,91.5322530409976,86.41087629099638,86.41087629099638,86.41087629099638,86.41087629099638,86.85906695799349,87.85668087499653,86.87194674965964,,88.49181404099363,89.48070554099831,88.4954184166602,,91.5322530409976,92.38448233300005,94.42646787499689,,92.38448233300005,92.38448233300005,97.56056799999351,92.38448233300005,92.38448233300005,92.38448233300005,92.38448233300005,92.83784791599464,93.88051825000002,92.80932529166263,,94.42646787499689,95.46974745799525,94.39627279166258,95.42506379099359,92.38448233300005,97.56056799999351,92.38448233300005,97.56056799999351,97.56056799999351,,92.38448233300005,1,1,1.3070605419998174,reldom2_s036,001,2025-03-14_12h42.43.922,Aud-A-Scan_AC,2022.2.5,None,
6,Second_Order,1.0,audwhere,stimulus/audwhere_stim/left_away_280h.wav,stimulus/audwhere_stim/right_away_280h.wav,stimulus/audwhere_stim/left_away_300h.wav,stimulus/audwhere_stim/left_toward_280h.wav,stimulus/audwhere_stim/match_blank.png,stimulus/audwhere_stim/match_box.png,stimulus/audwhere_stim/match_yes.png,stimulus/audwhere_stim/match_no.png,2.0,Match,Direction,Side,2,5.125,0,5.125,0,5.125,0,5.125,0,0.625,0.625,0,0,0,0,0,0,0,0,1,0.5,1,2.125,1,0.5,1,2.125,0,,,,,0,7,7,7,,,,,,,,,98.35619854099787,103.48040629099705,98.35619854099787,98.35619854099787,98.35619854099787,98.35619854099787,98.81558408299315,99.80461958299566,98.81881916665976,,100.44127537499298,101.43870204099949,100.45245241666659,,103.48040629099705,104.21036099999765,106.28148491599859,,104.21036099999765,104.21036099999765,109.35795608299668,104.21036099999765,104.21036099999765,104.21036099999765,104.21036099999765,104.65952566599299,105.69483104099345,104.63069579166428,,106.28148491599859,107.32582283299416,106.25316487466286,,104.21036099999765,109.35795608299668,104.21036099999765,109.35795608299668,109.39815024999552,110.07343683299405,104.21036099999765,2,1,0.9953095010059769,reldom2_s036,001,2025-03-14_12h42.43.922,Aud-A-Scan_AC,2022.2.5,None,
0,0.0,None,fixation,stimulus/audwhere_stim/blank_white.png,stimulus/audwhere_stim/blank_white.png,stimulus/audwhat_stim/blank_white.png,stimulus/audwhat_stim/blank_white.png,stimulus/audwhere_stim/blank_white.png,stimulus/audwhere_stim/blank_white.png,stimulus/audwhere_stim/blank_white.png,stimulus/audwhere_stim/blank_white.png,0.0,0.0,0.0,0.0,0,0.0,0,0.0,0,0.0,0,0.0,0,0.0,0.0,0,0,0,0,0,0,0,0,0,0.0,0,0.0,0,0.0,0,0.0,10,,,,,0,8,8,8,,,,,,,,,110.30258820799645,110.30258820799645,110.30258820799645,110.30258820799645,110.30258820799645,110.30258820799645,110.30258820799645,110.30258820799645,110.20677016632737,110.30258820799645,110.30258820799645,110.30258820799645,110.20677016632737,110.30258820799645,110.30258820799645,110.30258820799645,110.30258820799645,110.30258820799645,110.30258820799645,110.30258820799645,110.30258820799645,110.30258820799645,110.30258820799645,110.30258820799645,110.30258820799645,110.30258820799645,110.30258820799645,110.25677016632739,110.30258820799645,110.30258820799645,110.30258820799645,110.25677016632739,110.30258820799645,110.30258820799645,110.30258820799645,110.30258820799645,110.30258820799645,115.52882866599975,115.52882866599975,120.57153245799418,None,0,,reldom2_s036,001,2025-03-14_12h42.43.922,Aud-A-Scan_AC,2022.2.5,None,
7,First_Order,2.0,audwhere,stimulus/audwhere_stim/dummy.wav,stimulus/audwhere_stim/dummy.wav,stimulus/audwhere_stim/left_away_300h.wav,stimulus/audwhere_stim/right_away_300h.wav,stimulus/audwhere_stim/blank_white.png,stimulus/audwhere_stim/side_box.png,stimulus/audwhere_stim/side_yes.png,stimulus/audwhere_stim/side_no.png,None,Side,None,Direction,2,0.0,0,5.125,0,5.125,0,5.125,0,0.0,0.625,0,0,0,0,0,0,0,0,0,0.0,0,0.0,1,0.5,1,2.125,0,,,,,0,9,9,9,,,,,,,,,120.57153245799418,120.57153245799418,120.57153245799418,120.57153245799418,120.57153245799418,120.57153245799418,120.57153245799418,120.57153245799418,120.50291112466464,120.57153245799418,120.57153245799418,120.57153245799418,120.50291112466464,120.57153245799418,120.57153245799418,120.57153245799418,122.6705655409969,,120.57153245799418,120.57153245799418,125.72966983299557,120.57153245799418,120.57153245799418,120.57153245799418,120.57153245799418,121.02830966599868,122.07639145799476,120.99902458266685,,122.6705655409969,123.72506574999716,122.64186687466669,,120.57153245799418,125.72966983299557,120.57153245799418,125.72966983299557,125.7705169579931,126.45545691599546,120.57153245799418,2,1,0.7837777090098825,reldom2_s036,001,2025-03-14_12h42.43.922,Aud-A-Scan_AC,2022.2.5,None,
8,First_Order,2.0,audwhere,stimulus/audwhere_stim/dummy.wav,stimulus/audwhere_stim/dummy.wav,stimulus/audwhere_stim/left_away_280h.wav,stimulus/audwhere_stim/right_away_270h.wav,stimulus/audwhere_stim/blank_white.png,stimulus/audwhere_stim/side_box.png,stimulus/audwhere_stim/side_yes.png,stimulus/audwhere_stim/side_no.png,None,Side,None,Direction,2,0.0,0,5.125,0,5.125,0,5.125,0,0.0,0.625,0,0,0,0,0,0,0,0,0,0.0,0,0.0,1,0.5,1,2.125,0,,,,,0,10,10,10,,,,,,,,,126.66531429099996,126.66531429099996,126.66531429099996,126.66531429099996,126.66531429099996,126.66531429099996,126.66531429099996,126.66531429099996,126.58879024932878,126.66531429099996,126.66531429099996,126.66531429099996,126.58879024932878,126.66531429099996,126.66531429099996,126.66531429099996,128.7762624579991,132.79183879099583,126.66531429099996,126.66531429099996,131.85535237499425,126.66531429099996,126.66531429099996,126.66531429099996,126.66531429099996,127.12377429099433,128.17759349999687,127.09441087466645,,128.7762624579991,129.83672495799692,128.74727295766596,,126.66531429099996,131.85535237499425,126.66531429099996,131.85535237499425,131.89568854099343,132.5811650830001,126.66531429099996,2,1,0.787557376010227,reldom2_s036,001,2025-03-14_12h42.43.922,Aud-A-Scan_AC,2022.2.5,None,
9,First_Order,2.0,audwhere,stimulus/audwhere_stim/dummy.wav,stimulus/audwhere_stim/dummy.wav,stimulus/audwhere_stim/left_away_280h.wav,stimulus/audwhere_stim/right_away_300h.wav,stimulus/audwhere_stim/blank_white.png,stimulus/audwhere_stim/direction_box.png,stimulus/audwhere_stim/direction_yes.png,stimulus/audwhere_stim/direction_no.png,None,Direction,None,Direction,1,0.0,0,5.125,0,5.125,0,5.125,0,0.0,0.625,0,0,0,0,0,0,0,0,0,0.0,0,0.0,1,0.5,1,2.125,0,,,,,0,11,11,11,,,,,,,,,132.79183879099583,132.79183879099583,132.79183879099583,132.79183879099583,132.79183879099583,132.79183879099583,132.79183879099583,132.79183879099583,132.71449841633344,132.79183879099583,132.79183879099583,132.79183879099583,132.71449841633344,132.79183879099583,132.79183879099583,132.79183879099583,134.8765068329958,138.9185396249959,132.79183879099583,132.79183879099583,137.9739336249986,132.79183879099583,132.79183879099583,132.79183879099583,132.79183879099583,133.25303670799622,134.31848045799416,133.22328241666062,,134.8765068329958,135.94138808299613,134.8474389576625,,132.79183879099583,137.9739336249986,132.79183879099583,137.9739336249986,138.0151170409954,138.66676841599838,132.79183879099583,1,1,2.111091917002341,reldom2_s036,001,2025-03-14_12h42.43.922,Aud-A-Scan_AC,2022.2.5,None,
10,First_Order,2.0,audwhere,stimulus/audwhere_stim/dummy.wav,stimulus/audwhere_stim/dummy.wav,stimulus/audwhere_stim/right_away_270h.wav,stimulus/audwhere_stim/right_toward_300h.wav,stimulus/audwhere_stim/blank_white.png,stimulus/audwhere_stim/side_box.png,stimulus/audwhere_stim/side_yes.png,stimulus/audwhere_stim/side_no.png,None,Side,None,Side,1,0.0,0,5.125,0,5.125,0,5.125,0,0.0,0.625,0,0,0,0,0,0,0,0,0,0.0,0,0.0,1,0.5,1,2.125,0,,,,,0,12,12,12,,,,,,,,,138.9185396249959,138.9185396249959,138.9185396249959,138.9185396249959,138.9185396249959,138.9185396249959,138.9185396249959,138.9185396249959,138.8407403743278,138.9185396249959,138.9185396249959,138.9185396249959,138.8407403743278,138.9185396249959,138.9185396249959,138.9185396249959,141.03446262499347,,138.9185396249959,138.9185396249959,144.0744709579958,138.9185396249959,138.9185396249959,138.9185396249959,138.9185396249959,139.3809923749941,140.43432604099507,139.35097283266467,,141.03446262499347,142.0948317079965,141.0046495416648,,138.9185396249959,144.0744709579958,138.9185396249959,144.0744709579958,144.1153717079942,144.76773045799928,138.9185396249959,1,1,1.0761629170083324,reldom2_s036,001,2025-03-14_12h42.43.922,Aud-A-Scan_AC,2022.2.5,None,
0,0.0,None,fixation,stimulus/audwhere_stim/blank_white.png,stimulus/audwhere_stim/blank_white.png,stimulus/audwhat_stim/blank_white.png,stimulus/audwhat_stim/blank_white.png,stimulus/audwhere_stim/blank_white.png,stimulus/audwhere_stim/blank_white.png,stimulus/audwhere_stim/blank_white.png,stimulus/audwhere_stim/blank_white.png,0.0,0.0,0.0,0.0,0,0.0,0,0.0,0,0.0,0,0.0,0,0.0,0.0,0,0,0,0,0,0,0,0,0,0.0,0,0.0,0,0.0,0,0.0,8,,,,,0,13,13,13,,,,,,,,,145.03975058299693,145.03975058299693,145.03975058299693,145.03975058299693,145.03975058299693,145.03975058299693,145.03975058299693,145.03975058299693,144.9415368743304,145.03975058299693,145.03975058299693,145.03975058299693,144.9415368743304,145.03975058299693,145.03975058299693,145.03975058299693,145.03975058299693,145.03975058299693,145.03975058299693,145.03975058299693,145.03975058299693,145.03975058299693,145.03975058299693,145.03975058299693,145.03975058299693,145.03975058299693,145.03975058299693,144.9915368743304,145.03975058299693,145.03975058299693,145.03975058299693,144.9915368743304,145.03975058299693,145.03975058299693,145.03975058299693,145.03975058299693,145.03975058299693,150.24948333299835,150.24948333299835,153.20452483299596,None,0,,reldom2_s036,001,2025-03-14_12h42.43.922,Aud-A-Scan_AC,2022.2.5,None,
11,Second_Order,2.0,audwhere,stimulus/audwhere_stim/left_away_280h.wav,stimulus/audwhere_stim/left_toward_280h.wav,stimulus/audwhere_stim/right_toward_280h.wav,stimulus/audwhere_stim/left_toward_270h.wav,stimulus/audwhere_stim/match_blank.png,stimulus/audwhere_stim/match_box.png,stimulus/audwhere_stim/match_yes.png,stimulus/audwhere_stim/match_no.png,2.0,Match,Side,Direction,2,5.125,0,5.125,0,5.125,0,5.125,0,0.75,0.75,0,0,0,0,0,0,0,0,1,0.5,1,2.125,1,0.5,1,2.125,0,,,,,0,14,14,14,,,,,,,,,153.20452483299596,158.32432387500012,153.20452483299596,153.20452483299596,153.20452483299596,153.20452483299596,153.66271979099838,154.66114558299887,153.67558158266573,,155.28437474999373,156.28140820799308,155.29640112466248,,158.32432387500012,159.17418787499628,161.2312745409945,,159.17418787499628,159.17418787499628,164.34370216599928,159.17418787499628,159.17418787499628,159.17418787499628,159.17418787499628,159.63017045799643,160.68396554099309,159.60108599966432,,161.2312745409945,162.2856343329986,161.20215724966354,,159.17418787499628,164.34370216599928,159.17418787499628,164.34370216599928,164.34370216599928,,159.17418787499628,2,1,1.783286459001829,reldom2_s036,001,2025-03-14_12h42.43.922,Aud-A-Scan_AC,2022.2.5,None,
12,Second_Order,2.0,audwhere,stimulus/audwhere_stim/left_away_300h.wav,stimulus/audwhere_stim/right_away_270h.wav,stimulus/audwhere_stim/left_toward_280h.wav,stimulus/audwhere_stim/right_toward_280h.wav,stimulus/audwhere_stim/match_blank.png,stimulus/audwhere_stim/match_box.png,stimulus/audwhere_stim/match_yes.png,stimulus/audwhere_stim/match_no.png,1.0,Match,Direction,Direction,1,5.125,0,5.125,0,5.125,0,5.125,0,0.625,0.625,0,0,0,0,0,0,0,0,1,0.5,1,2.125,1,0.5,1,2.125,0,,,,,0,15,15,15,,,,,,,,,165.14809579099528,170.26931524999964,165.14809579099528,165.14809579099528,165.14809579099528,165.14809579099528,165.60699416599527,166.60577333299443,165.61977979166502,,167.2277359159998,168.22622929099452,167.2401813746658,,170.26931524999964,170.99578337499406,173.04112095799792,177.1028646249979,170.99578337499406,170.99578337499406,176.18773387499823,170.99578337499406,170.99578337499406,170.99578337499406,170.99578337499406,171.44593054099823,172.4939434159969,171.41710887466277,,173.04112095799792,174.0885736659984,173.01189599966554,,170.99578337499406,176.18773387499823,170.99578337499406,176.18773387499823,176.18773387499823,176.87320070799615,170.99578337499406,1,1,1.7480094590064255,reldom2_s036,001,2025-03-14_12h42.43.922,Aud-A-Scan_AC,2022.2.5,None,
0,0.0,None,fixation,stimulus/audwhere_stim/blank_white.png,stimulus/audwhere_stim/blank_white.png,stimulus/audwhat_stim/blank_white.png,stimulus/audwhat_stim/blank_white.png,stimulus/audwhere_stim/blank_white.png,stimulus/audwhere_stim/blank_white.png,stimulus/audwhere_stim/blank_white.png,stimulus/audwhere_stim/blank_white.png,0.0,0.0,0.0,0.0,0,0.0,0,0.0,0,0.0,0,0.0,0,0.0,0.0,0,0,0,0,0,0,0,0,0,0.0,0,0.0,0,0.0,0,0.0,8,,,,,0,16,16,16,,,,,,,,,177.1028646249979,177.1028646249979,177.1028646249979,177.1028646249979,177.1028646249979,177.1028646249979,177.1028646249979,177.1028646249979,177.0065340413295,177.1028646249979,177.1028646249979,177.1028646249979,177.0065340413295,177.1028646249979,177.1028646249979,177.1028646249979,177.1028646249979,177.1028646249979,177.1028646249979,177.1028646249979,177.1028646249979,177.1028646249979,177.1028646249979,177.1028646249979,177.1028646249979,177.1028646249979,177.1028646249979,177.05653404132948,177.1028646249979,177.1028646249979,177.1028646249979,177.05653404132948,177.1028646249979,177.1028646249979,177.1028646249979,177.1028646249979,177.1028646249979,182.30022962499788,182.30022962499788,185.32971833299962,None,0,,reldom2_s036,001,2025-03-14_12h42.43.922,Aud-A-Scan_AC,2022.2.5,None,
13,First_Order,3.0,audwhat,stimulus/audwhat_stim/dummy.wav,stimulus/audwhat_stim/dummy.wav,stimulus/audwhat_stim/percussion xylophone_high-pitch_F_loud.wav,stimulus/audwhat_stim/percussion mallet_low-pitch_Dtri_loud.wav,stimulus/audwhat_stim/blank_white.png,stimulus/audwhat_stim/category_box.png,stimulus/audwhat_stim/category_yes.png,stimulus/audwhat_stim/category_no.png,None,Category,None,Category,1,0.0,0,5.125,0,5.125,0,5.125,0,0.0,0.625,0,0,0,0,0,0,0,0,0,0.0,0,0.0,1,0.5,1,2.125,0,,,,,0,17,17,17,,,,,,,,,185.32971833299962,185.32971833299962,185.32971833299962,185.32971833299962,185.32971833299962,185.32971833299962,185.32971833299962,185.32971833299962,185.2600522916643,185.32971833299962,185.32971833299962,185.32971833299962,185.2600522916643,185.32971833299962,185.32971833299962,185.32971833299962,187.40440916599619,191.4458219579974,185.32971833299962,185.32971833299962,190.50489320799534,185.32971833299962,185.32971833299962,185.32971833299962,185.32971833299962,185.7905288749971,186.85317345799558,185.76108641666022,186.807103207997,187.40440916599619,188.47097949999443,187.37457341666257,,185.32971833299962,190.50489320799534,185.32971833299962,190.50489320799534,190.54576879099477,191.19336441599444,185.32971833299962,1,1,0.736334834000445,reldom2_s036,001,2025-03-14_12h42.43.922,Aud-A-Scan_AC,2022.2.5,None,
14,First_Order,3.0,audwhat,stimulus/audwhat_stim/dummy.wav,stimulus/audwhat_stim/dummy.wav,stimulus/audwhat_stim/string cello_low-pitch_Ftri_loud.wav,stimulus/audwhat_stim/string viola_high-pitch_F_loud.wav,stimulus/audwhat_stim/blank_white.png,stimulus/audwhat_stim/category_box.png,stimulus/audwhat_stim/category_yes.png,stimulus/audwhat_stim/category_no.png,None,Category,None,Category,1,0.0,0,5.125,0,5.125,0,5.125,0,0.0,0.625,0,0,0,0,0,0,0,0,0,0.0,0,0.0,1,0.5,1,2.125,0,,,,,0,18,18,18,,,,,,,,,191.4458219579974,191.4458219579974,191.4458219579974,191.4458219579974,191.4458219579974,191.4458219579974,191.4458219579974,191.4458219579974,191.36694741632724,191.4458219579974,191.4458219579974,191.4458219579974,191.36694741632724,191.4458219579974,191.4458219579974,191.4458219579974,193.52722191599605,,191.4458219579974,191.4458219579974,196.63404908299708,191.4458219579974,191.4458219579974,191.4458219579974,191.4458219579974,191.90837837499566,192.97171179099678,191.87873729165975,,193.52722191599605,194.59744816599414,193.4971515826658,,191.4458219579974,196.63404908299708,191.4458219579974,196.63404908299708,196.67543929099338,197.326139124998,191.4458219579974,1,1,0.8828117930024746,reldom2_s036,001,2025-03-14_12h42.43.922,Aud-A-Scan_AC,2022.2.5,None,
15,First_Order,3.0,audwhat,stimulus/audwhat_stim/dummy.wav,stimulus/audwhat_stim/dummy.wav,stimulus/audwhat_stim/string viola_low-pitch_D_loud.wav,stimulus/audwhat_stim/percussion mallet_low-pitch_D_loud.wav,stimulus/audwhat_stim/blank_white.png,stimulus/audwhat_stim/pitch_box.png,stimulus/audwhat_stim/pitch_yes.png,stimulus/audwhat_stim/pitch_no.png,None,Pitch,None,Pitch,1,0.0,0,5.125,0,5.125,0,5.125,0,0.0,0.625,0,0,0,0,0,0,0,0,0,0.0,0,0.0,1,0.5,1,2.125,0,,,,,0,19,19,19,,,,,,,,,197.53894187499827,197.53894187499827,197.53894187499827,197.53894187499827,197.53894187499827,197.53894187499827,197.53894187499827,197.53894187499827,197.45947245833136,197.53894187499827,197.53894187499827,197.53894187499827,197.45947245833136,197.53894187499827,197.53894187499827,197.53894187499827,199.6190371249977,203.6537932909996,197.53894187499827,197.53894187499827,202.71122558299976,197.53894187499827,197.53894187499827,197.53894187499827,197.53894187499827,198.00211087499338,199.06315883299976,197.97239929166633,,199.6190371249977,200.68488983299903,199.58925879166443,,197.53894187499827,202.71122558299976,197.53894187499827,202.71122558299976,202.75167570799385,203.40094837499782,197.53894187499827,1,1,0.8764248340012273,reldom2_s036,001,2025-03-14_12h42.43.922,Aud-A-Scan_AC,2022.2.5,None,
16,First_Order,3.0,audwhat,stimulus/audwhat_stim/dummy.wav,stimulus/audwhat_stim/dummy.wav,stimulus/audwhat_stim/string cello_low-pitch_D_loud.wav,stimulus/audwhat_stim/string viola_high-pitch_Dtri_loud.wav,stimulus/audwhat_stim/blank_white.png,stimulus/audwhat_stim/pitch_box.png,stimulus/audwhat_stim/pitch_yes.png,stimulus/audwhat_stim/pitch_no.png,None,Pitch,None,Category,2,0.0,0,5.125,0,5.125,0,5.125,0,0.0,0.625,0,0,0,0,0,0,0,0,0,0.0,0,0.0,1,0.5,1,2.125,0,,,,,0,20,20,20,,,,,,,,,203.6537932909996,203.6537932909996,203.6537932909996,203.6537932909996,203.6537932909996,203.6537932909996,203.6537932909996,203.6537932909996,203.5752725413278,203.6537932909996,203.6537932909996,203.6537932909996,203.5752725413278,203.6537932909996,203.6537932909996,203.6537932909996,205.7306529579946,209.7918960409952,203.6537932909996,203.6537932909996,208.82878099999652,203.6537932909996,203.6537932909996,203.6537932909996,203.6537932909996,204.11531070799538,205.17629104099615,204.08607858266285,,205.7306529579946,206.79627145799896,205.7012257496647,,203.6537932909996,208.82878099999652,203.6537932909996,208.82878099999652,208.87007304099825,209.5199214999957,203.6537932909996,2,1,1.2528820840088883,reldom2_s036,001,2025-03-14_12h42.43.922,Aud-A-Scan_AC,2022.2.5,None,
0,0.0,None,fixation,stimulus/audwhere_stim/blank_white.png,stimulus/audwhere_stim/blank_white.png,stimulus/audwhat_stim/blank_white.png,stimulus/audwhat_stim/blank_white.png,stimulus/audwhere_stim/blank_white.png,stimulus/audwhere_stim/blank_white.png,stimulus/audwhere_stim/blank_white.png,stimulus/audwhere_stim/blank_white.png,0.0,0.0,0.0,0.0,0,0.0,0,0.0,0,0.0,0,0.0,0,0.0,0.0,0,0,0,0,0,0,0,0,0,0.0,0,0.0,0,0.0,0,0.0,8,,,,,0,21,21,21,,,,,,,,,209.7918960409952,209.7918960409952,209.7918960409952,209.7918960409952,209.7918960409952,209.7918960409952,209.7918960409952,209.7918960409952,209.69352370833272,209.7918960409952,209.7918960409952,209.7918960409952,209.69352370833272,209.7918960409952,209.7918960409952,209.7918960409952,209.7918960409952,209.7918960409952,209.7918960409952,209.7918960409952,209.7918960409952,209.7918960409952,209.7918960409952,209.7918960409952,209.7918960409952,209.7918960409952,209.7918960409952,209.7435237083327,209.7918960409952,209.7918960409952,209.7918960409952,209.7435237083327,209.7918960409952,209.7918960409952,209.7918960409952,209.7918960409952,209.7918960409952,215.0128559579971,215.0128559579971,217.92473420799797,None,0,,reldom2_s036,001,2025-03-14_12h42.43.922,Aud-A-Scan_AC,2022.2.5,None,
17,Second_Order,3.0,audwhat,stimulus/audwhat_stim/percussion mallet_high-pitch_F_loud.wav,stimulus/audwhat_stim/string viola_high-pitch_F_loud.wav,stimulus/audwhat_stim/string cello_low-pitch_Ftri_loud.wav,stimulus/audwhat_stim/string cello_high-pitch_Dtri_loud.wav,stimulus/audwhere_stim/match_blank.png,stimulus/audwhat_stim/match_box.png,stimulus/audwhere_stim/match_yes.png,stimulus/audwhere_stim/match_no.png,2.0,Match,Pitch,Category,2,5.125,0,5.125,0,5.125,0,5.125,0,0.75,0.75,0,0,0,0,0,0,0,0,1,0.5,1,2.125,1,0.5,1,2.125,0,,,,,0,22,22,22,,,,,,,,,217.92473420799797,223.04085516599298,217.92473420799797,217.92473420799797,217.92473420799797,217.92473420799797,218.37842045799334,219.37753516599332,218.3916648326597,,220.00053804099298,220.9977439159993,220.0124510826611,,223.04085516599298,223.89053866599716,225.94893362499715,229.88170620799792,223.89053866599716,223.89053866599716,229.07733687499422,223.89053866599716,223.89053866599716,223.89053866599716,223.89053866599716,224.34680566599855,225.39973429099336,224.31755704166088,,225.94893362499715,227.00867412499792,225.91932604166166,,223.89053866599716,229.07733687499422,223.89053866599716,229.07733687499422,229.07733687499422,,223.89053866599716,2,1,1.3566767090087524,reldom2_s036,001,2025-03-14_12h42.43.922,Aud-A-Scan_AC,2022.2.5,None,
18,Second_Order,3.0,audwhat,stimulus/audwhat_stim/string viola_low-pitch_F_loud.wav,stimulus/audwhat_stim/percussion mallet_low-pitch_F_loud.wav,stimulus/audwhat_stim/percussion mallet_high-pitch_Ftri_loud.wav,stimulus/audwhat_stim/string cello_high-pitch_Ftri_loud.wav,stimulus/audwhere_stim/match_blank.png,stimulus/audwhat_stim/match_box.png,stimulus/audwhere_stim/match_yes.png,stimulus/audwhere_stim/match_no.png,1.0,Match,Pitch,Pitch,1,5.125,0,5.125,0,5.125,0,5.125,0,0.625,0.625,0,0,0,0,0,0,0,0,1,0.5,1,2.125,1,0.5,1,2.125,0,,,,,0,23,23,23,,,,,,,,,229.88170620799792,235.00158404099784,229.88170620799792,229.88170620799792,229.88170620799792,229.88170620799792,230.3394297499981,231.33830529099941,230.35243212466256,,231.96059054099896,232.95921866599383,231.97311687466234,,235.00158404099784,235.73234920799587,237.77726983299362,241.83556833299372,235.73234920799587,235.73234920799587,240.88307929099392,235.73234920799587,235.73234920799587,235.73234920799587,235.73234920799587,236.183933040993,237.23094216599566,236.1553492076603,237.1852211249934,237.77726983299362,238.82857091599726,237.74793749966582,,235.73234920799587,240.88307929099392,235.73234920799587,240.88307929099392,240.92351870799757,241.6056486249945,235.73234920799587,1,1,1.7863351679989137,reldom2_s036,001,2025-03-14_12h42.43.922,Aud-A-Scan_AC,2022.2.5,None,
0,0.0,None,fixation,stimulus/audwhere_stim/blank_white.png,stimulus/audwhere_stim/blank_white.png,stimulus/audwhat_stim/blank_white.png,stimulus/audwhat_stim/blank_white.png,stimulus/audwhere_stim/blank_white.png,stimulus/audwhere_stim/blank_white.png,stimulus/audwhere_stim/blank_white.png,stimulus/audwhere_stim/blank_white.png,0.0,0.0,0.0,0.0,0,0.0,0,0.0,0,0.0,0,0.0,0,0.0,0.0,0,0,0,0,0,0,0,0,0,0.0,0,0.0,0,0.0,0,0.0,9,,,,,0,24,24,24,,,,,,,,,241.83556833299372,241.83556833299372,241.83556833299372,241.83556833299372,241.83556833299372,241.83556833299372,241.83556833299372,241.83556833299372,241.73898195832786,241.83556833299372,241.83556833299372,241.83556833299372,241.73898195832786,241.83556833299372,241.83556833299372,241.83556833299372,241.83556833299372,241.83556833299372,241.83556833299372,241.83556833299372,241.83556833299372,241.83556833299372,241.83556833299372,241.83556833299372,241.83556833299372,241.83556833299372,241.83556833299372,241.78898195832784,241.83556833299372,241.83556833299372,241.83556833299372,241.78898195832784,241.83556833299372,241.83556833299372,241.83556833299372,241.83556833299372,241.83556833299372,247.04437133299507,247.04437133299507,251.07514333299332,None,0,,reldom2_s036,001,2025-03-14_12h42.43.922,Aud-A-Scan_AC,2022.2.5,None,
19,First_Order,4.0,audwhat,stimulus/audwhat_stim/dummy.wav,stimulus/audwhat_stim/dummy.wav,stimulus/audwhat_stim/percussion mallet_low-pitch_D_loud.wav,stimulus/audwhat_stim/string viola_low-pitch_D_loud.wav,stimulus/audwhat_stim/blank_white.png,stimulus/audwhat_stim/category_box.png,stimulus/audwhat_stim/category_yes.png,stimulus/audwhat_stim/category_no.png,None,Category,None,Pitch,2,0.0,0,5.125,0,5.125,0,5.125,0,0.0,0.625,0,0,0,0,0,0,0,0,0,0.0,0,0.0,1,0.5,1,2.125,0,,,,,0,25,25,25,,,,,,,,,251.07514333299332,251.07514333299332,251.07514333299332,251.07514333299332,251.07514333299332,251.07514333299332,251.07514333299332,251.07514333299332,251.00650362466212,251.07514333299332,251.07514333299332,251.07514333299332,251.00650362466212,251.07514333299332,251.07514333299332,251.07514333299332,253.15482562499528,257.1995116659964,251.07514333299332,251.07514333299332,256.2558568749955,251.07514333299332,251.07514333299332,251.07514333299332,251.07514333299332,251.5367852499985,252.6017248749995,251.50696466666366,,253.15482562499528,254.21986737499537,253.1248846246638,,251.07514333299332,256.2558568749955,251.07514333299332,256.2558568749955,256.2962715409958,256.9486455829974,251.07514333299332,2,1,0.9403165010080556,reldom2_s036,001,2025-03-14_12h42.43.922,Aud-A-Scan_AC,2022.2.5,None,
20,First_Order,4.0,audwhat,stimulus/audwhat_stim/dummy.wav,stimulus/audwhat_stim/dummy.wav,stimulus/audwhat_stim/percussion xylophone_high-pitch_Dtri_loud.wav,stimulus/audwhat_stim/string cello_high-pitch_Dtri_loud.wav,stimulus/audwhat_stim/blank_white.png,stimulus/audwhat_stim/pitch_box.png,stimulus/audwhat_stim/pitch_yes.png,stimulus/audwhat_stim/pitch_no.png,None,Pitch,None,Pitch,1,0.0,0,5.125,0,5.125,0,5.125,0,0.0,0.625,0,0,0,0,0,0,0,0,0,0.0,0,0.0,1,0.5,1,2.125,0,,,,,0,26,26,26,,,,,,,,,257.1995116659964,257.1995116659964,257.1995116659964,257.1995116659964,257.1995116659964,257.1995116659964,257.1995116659964,257.1995116659964,257.1219692913311,257.1995116659964,257.1995116659964,257.1995116659964,257.1219692913311,257.1995116659964,257.1995116659964,257.1995116659964,259.2755602499965,263.31330229099694,257.1995116659964,257.1995116659964,262.36616537499503,257.1995116659964,257.1995116659964,257.1995116659964,257.1995116659964,257.6595560409987,258.72153179099405,257.6301791666667,258.67538941599923,259.2755602499965,260.3388502079979,259.2457482916618,,257.1995116659964,262.36616537499503,257.1995116659964,262.36616537499503,262.40784249999706,263.0616335409941,257.1995116659964,1,1,1.0090931260056095,reldom2_s036,001,2025-03-14_12h42.43.922,Aud-A-Scan_AC,2022.2.5,None,
21,First_Order,4.0,audwhat,stimulus/audwhat_stim/dummy.wav,stimulus/audwhat_stim/dummy.wav,stimulus/audwhat_stim/string viola_low-pitch_D_loud.wav,stimulus/audwhat_stim/percussion mallet_low-pitch_D_loud.wav,stimulus/audwhat_stim/blank_white.png,stimulus/audwhat_stim/category_box.png,stimulus/audwhat_stim/category_yes.png,stimulus/audwhat_stim/category_no.png,None,Category,None,Pitch,2,0.0,0,5.125,0,5.125,0,5.125,0,0.0,0.625,0,0,0,0,0,0,0,0,0,0.0,0,0.0,1,0.5,1,2.125,0,,,,,0,27,27,27,,,,,,,,,263.31330229099694,263.31330229099694,263.31330229099694,263.31330229099694,263.31330229099694,263.31330229099694,263.31330229099694,263.31330229099694,263.2346137493315,263.31330229099694,263.31330229099694,263.31330229099694,263.2346137493315,263.31330229099694,263.31330229099694,263.31330229099694,265.4044775000002,269.43402870799764,263.31330229099694,263.31330229099694,268.4846981659939,263.31330229099694,263.31330229099694,263.31330229099694,263.31330229099694,263.7776385409961,264.8475437909947,263.7480404996643,,265.4044775000002,266.47567262499797,265.37411395766344,,263.31330229099694,268.4846981659939,263.31330229099694,268.4846981659939,268.5273564159943,269.18142712499684,263.31330229099694,2,1,3.0913671260059346,reldom2_s036,001,2025-03-14_12h42.43.922,Aud-A-Scan_AC,2022.2.5,None,
22,First_Order,4.0,audwhat,stimulus/audwhat_stim/dummy.wav,stimulus/audwhat_stim/dummy.wav,stimulus/audwhat_stim/string viola_low-pitch_Ftri_loud.wav,stimulus/audwhat_stim/string cello_high-pitch_D_loud.wav,stimulus/audwhat_stim/blank_white.png,stimulus/audwhat_stim/pitch_box.png,stimulus/audwhat_stim/pitch_yes.png,stimulus/audwhat_stim/pitch_no.png,None,Pitch,None,Category,2,0.0,0,5.125,0,5.125,0,5.125,0,0.0,0.625,0,0,0,0,0,0,0,0,0,0.0,0,0.0,1,0.5,1,2.125,0,,,,,0,28,28,28,,,,,,,,,269.43402870799764,269.43402870799764,269.43402870799764,269.43402870799764,269.43402870799764,269.43402870799764,269.43402870799764,269.43402870799764,269.35543920833345,269.43402870799764,269.43402870799764,269.43402870799764,269.35543920833345,269.43402870799764,269.43402870799764,269.43402870799764,271.51779133299715,275.58305824999843,269.43402870799764,269.43402870799764,274.61765383299644,269.43402870799764,269.43402870799764,269.43402870799764,269.43402870799764,269.8969480829983,270.96376412499376,269.8673467916635,,271.51779133299715,272.5856065409971,271.4879999166626,,269.43402870799764,274.61765383299644,269.43402870799764,274.61765383299644,274.6581840409999,275.31014662499365,269.43402870799764,2,1,1.6219242920051329,reldom2_s036,001,2025-03-14_12h42.43.922,Aud-A-Scan_AC,2022.2.5,None,
0,0.0,None,fixation,stimulus/audwhere_stim/blank_white.png,stimulus/audwhere_stim/blank_white.png,stimulus/audwhat_stim/blank_white.png,stimulus/audwhat_stim/blank_white.png,stimulus/audwhere_stim/blank_white.png,stimulus/audwhere_stim/blank_white.png,stimulus/audwhere_stim/blank_white.png,stimulus/audwhere_stim/blank_white.png,0.0,0.0,0.0,0.0,0,0.0,0,0.0,0,0.0,0,0.0,0,0.0,0.0,0,0,0,0,0,0,0,0,0,0.0,0,0.0,0,0.0,0,0.0,10,,,,,0,29,29,29,,,,,,,,,275.58305824999843,275.58305824999843,275.58305824999843,275.58305824999843,275.58305824999843,275.58305824999843,275.58305824999843,275.58305824999843,275.4841024583312,275.58305824999843,275.58305824999843,275.58305824999843,275.4841024583312,275.58305824999843,275.58305824999843,275.58305824999843,275.58305824999843,275.58305824999843,275.58305824999843,275.58305824999843,275.58305824999843,275.58305824999843,275.58305824999843,275.58305824999843,275.58305824999843,275.58305824999843,275.58305824999843,275.53410245833123,275.58305824999843,275.58305824999843,275.58305824999843,275.53410245833123,275.58305824999843,275.58305824999843,275.58305824999843,275.58305824999843,275.58305824999843,280.79983674999676,280.79983674999676,285.732635124994,None,0,,reldom2_s036,001,2025-03-14_12h42.43.922,Aud-A-Scan_AC,2022.2.5,None,
23,Second_Order,4.0,audwhat,stimulus/audwhat_stim/string cello_low-pitch_F_loud.wav,stimulus/audwhat_stim/string cello_high-pitch_Ftri_loud.wav,stimulus/audwhat_stim/percussion mallet_high-pitch_Ftri_loud.wav,stimulus/audwhat_stim/percussion mallet_low-pitch_F_loud.wav,stimulus/audwhere_stim/match_blank.png,stimulus/audwhat_stim/match_box.png,stimulus/audwhere_stim/match_yes.png,stimulus/audwhere_stim/match_no.png,1.0,Match,Category,Category,1,5.125,0,5.125,0,5.125,0,5.125,0,0.75,0.75,0,0,0,0,0,0,0,0,1,0.5,1,2.125,1,0.5,1,2.125,0,,,,,0,30,30,30,,,,,,,,,285.732635124994,290.8466837079977,285.732635124994,285.732635124994,285.732635124994,285.732635124994,286.1849838329945,287.17095395799697,286.1981740826634,,287.80620058299974,288.8046055409941,287.8190747076626,,290.8466837079977,291.6961894999986,293.75905858299666,297.69042804099445,291.6961894999986,291.6961894999986,296.8857020409996,291.6961894999986,291.6961894999986,291.6961894999986,291.6961894999986,292.1518849579952,293.2086729579969,292.1224820826649,,293.75905858299666,294.8195357079967,293.7298685416647,,291.6961894999986,296.8857020409996,291.6961894999986,296.8857020409996,296.8857020409996,,291.6961894999986,1,1,1.2608936250035185,reldom2_s036,001,2025-03-14_12h42.43.922,Aud-A-Scan_AC,2022.2.5,None,
24,Second_Order,4.0,audwhat,stimulus/audwhat_stim/percussion xylophone_high-pitch_Dtri_loud.wav,stimulus/audwhat_stim/percussion mallet_low-pitch_D_loud.wav,stimulus/audwhat_stim/string cello_low-pitch_Ftri_loud.wav,stimulus/audwhat_stim/string viola_high-pitch_D_loud.wav,stimulus/audwhere_stim/match_blank.png,stimulus/audwhat_stim/match_box.png,stimulus/audwhere_stim/match_yes.png,stimulus/audwhere_stim/match_no.png,1.0,Match,Category,Category,1,5.125,0,5.125,0,5.125,0,5.125,0,0.625,0.625,0,0,0,0,0,0,0,0,1,0.5,1,2.125,1,0.5,1,2.125,0,,,,,0,31,31,31,,,,,,,,,297.69042804099445,302.80902687499474,297.69042804099445,297.69042804099445,297.69042804099445,297.69042804099445,298.1466446659979,299.14472354099416,298.1592825826631,299.1481431659995,299.7681448749936,300.76540008299344,299.77984545766617,,302.80902687499474,303.5362479999967,305.58728404099384,,303.5362479999967,303.5362479999967,308.6998218749941,303.5362479999967,303.5362479999967,303.5362479999967,303.5362479999967,303.98834595799417,305.03839066599903,303.95897904166145,,305.58728404099384,306.642428207997,305.5578037916605,,303.5362479999967,308.6998218749941,303.5362479999967,308.6998218749941,308.6998218749941,309.38384412499727,303.5362479999967,1,1,1.2741377930069575,reldom2_s036,001,2025-03-14_12h42.43.922,Aud-A-Scan_AC,2022.2.5,None,
0,0.0,None,fixation,stimulus/audwhere_stim/blank_white.png,stimulus/audwhere_stim/blank_white.png,stimulus/audwhat_stim/blank_white.png,stimulus/audwhat_stim/blank_white.png,stimulus/audwhere_stim/blank_white.png,stimulus/audwhere_stim/blank_white.png,stimulus/audwhere_stim/blank_white.png,stimulus/audwhere_stim/blank_white.png,0.0,0.0,0.0,0.0,0,0.0,0,0.0,0,0.0,0,0.0,0,0.0,0.0,0,0,0,0,0,0,0,0,0,0.0,0,0.0,0,0.0,0,0.0,9,,,,,0,32,32,32,,,,,,,,,309.61319699999876,309.61319699999876,309.61319699999876,309.61319699999876,309.61319699999876,309.61319699999876,309.61319699999876,309.61319699999876,309.5171774583306,309.61319699999876,309.61319699999876,309.61319699999876,309.5171774583306,309.61319699999876,309.61319699999876,309.61319699999876,309.61319699999876,309.61319699999876,309.61319699999876,309.61319699999876,309.61319699999876,309.61319699999876,309.61319699999876,309.61319699999876,309.61319699999876,309.61319699999876,309.61319699999876,309.5671774583306,309.61319699999876,309.61319699999876,309.61319699999876,309.5671774583306,309.61319699999876,309.61319699999876,309.61319699999876,309.61319699999876,309.61319699999876,314.83423533299356,314.83423533299356,318.8773260829985,None,0,,reldom2_s036,001,2025-03-14_12h42.43.922,Aud-A-Scan_AC,2022.2.5,None,
25,First_Order,5.0,audwhere,stimulus/audwhere_stim/dummy.wav,stimulus/audwhere_stim/dummy.wav,stimulus/audwhere_stim/right_away_300h.wav,stimulus/audwhere_stim/right_toward_300h.wav,stimulus/audwhere_stim/blank_white.png,stimulus/audwhere_stim/direction_box.png,stimulus/audwhere_stim/direction_yes.png,stimulus/audwhere_stim/direction_no.png,None,Direction,None,Side,2,0.0,0,5.125,0,5.125,0,5.125,0,0.0,0.625,0,0,0,0,0,0,0,0,0,0.0,0,0.0,1,0.5,1,2.125,0,,,,,0,33,33,33,,,,,,,,,318.8773260829985,318.8773260829985,318.8773260829985,318.8773260829985,318.8773260829985,318.8773260829985,318.8773260829985,318.8773260829985,318.8086155416628,318.8773260829985,318.8773260829985,318.8773260829985,318.8086155416628,318.8773260829985,318.8773260829985,318.8773260829985,320.9668129999991,,318.8773260829985,318.8773260829985,324.0708570409988,318.8773260829985,318.8773260829985,318.8773260829985,318.8773260829985,319.3431049999999,320.41062370799773,319.3131218326637,,320.9668129999991,322.03356983299454,320.9366611246626,,318.8773260829985,324.0708570409988,318.8773260829985,324.0708570409988,324.0708570409988,324.7240926249942,318.8773260829985,2,1,0.8296535010013031,reldom2_s036,001,2025-03-14_12h42.43.922,Aud-A-Scan_AC,2022.2.5,None,
26,First_Order,5.0,audwhere,stimulus/audwhere_stim/dummy.wav,stimulus/audwhere_stim/dummy.wav,stimulus/audwhere_stim/right_away_280h.wav,stimulus/audwhere_stim/left_away_270h.wav,stimulus/audwhere_stim/blank_white.png,stimulus/audwhere_stim/side_box.png,stimulus/audwhere_stim/side_yes.png,stimulus/audwhere_stim/side_no.png,None,Side,None,Direction,2,0.0,0,5.125,0,5.125,0,5.125,0,0.0,0.625,0,0,0,0,0,0,0,0,0,0.0,0,0.0,1,0.5,1,2.125,0,,,,,0,34,34,34,,,,,,,,,324.9765572909964,324.9765572909964,324.9765572909964,324.9765572909964,324.9765572909964,324.9765572909964,324.9765572909964,324.9765572909964,324.89824049933134,324.9765572909964,324.9765572909964,324.9765572909964,324.89824049933134,324.9765572909964,324.9765572909964,324.9765572909964,327.05665708299784,331.0871382079931,324.9765572909964,324.9765572909964,330.146012374993,324.9765572909964,324.9765572909964,324.9765572909964,324.9765572909964,325.4399319160002,326.5017169579951,325.4100809576669,,327.05665708299784,328.1225853750002,327.02684670766416,,324.9765572909964,330.146012374993,324.9765572909964,330.146012374993,330.18696587500017,330.83619733299565,324.9765572909964,2,1,1.008897417006665,reldom2_s036,001,2025-03-14_12h42.43.922,Aud-A-Scan_AC,2022.2.5,None,
27,First_Order,5.0,audwhere,stimulus/audwhere_stim/dummy.wav,stimulus/audwhere_stim/dummy.wav,stimulus/audwhere_stim/left_away_300h.wav,stimulus/audwhere_stim/right_away_290h.wav,stimulus/audwhere_stim/blank_white.png,stimulus/audwhere_stim/direction_box.png,stimulus/audwhere_stim/direction_yes.png,stimulus/audwhere_stim/direction_no.png,None,Direction,None,Direction,1,0.0,0,5.125,0,5.125,0,5.125,0,0.0,0.625,0,0,0,0,0,0,0,0,0,0.0,0,0.0,1,0.5,1,2.125,0,,,,,0,35,35,35,,,,,,,,,331.0871382079931,331.0871382079931,331.0871382079931,331.0871382079931,331.0871382079931,331.0871382079931,331.0871382079931,331.0871382079931,331.00981020833035,331.0871382079931,331.0871382079931,331.0871382079931,331.00981020833035,331.0871382079931,331.0871382079931,331.0871382079931,333.18124149999494,,331.0871382079931,331.0871382079931,336.24748804099363,331.0871382079931,331.0871382079931,331.0871382079931,331.0871382079931,331.5529713750002,332.62213424999936,331.52268954166016,,333.18124149999494,334.25074133299495,333.1513925826623,,331.0871382079931,336.24748804099363,331.0871382079931,336.24748804099363,336.2884473749946,336.94097258299735,331.0871382079931,1,1,1.6863429180084495,reldom2_s036,001,2025-03-14_12h42.43.922,Aud-A-Scan_AC,2022.2.5,None,
28,First_Order,5.0,audwhere,stimulus/audwhere_stim/dummy.wav,stimulus/audwhere_stim/dummy.wav,stimulus/audwhere_stim/left_away_290h.wav,stimulus/audwhere_stim/right_away_280h.wav,stimulus/audwhere_stim/blank_white.png,stimulus/audwhere_stim/direction_box.png,stimulus/audwhere_stim/direction_yes.png,stimulus/audwhere_stim/direction_no.png,None,Direction,None,Direction,1,0.0,0,5.125,0,5.125,0,5.125,0,0.0,0.625,0,0,0,0,0,0,0,0,0,0.0,0,0.0,1,0.5,1,2.125,0,,,,,0,36,36,36,,,,,,,,,337.19301549999363,337.19301549999363,337.19301549999363,337.19301549999363,337.19301549999363,337.19301549999363,337.19301549999363,337.19301549999363,337.11501304133174,337.19301549999363,337.19301549999363,337.19301549999363,337.11501304133174,337.19301549999363,337.19301549999363,337.19301549999363,339.28450516599696,,337.19301549999363,337.19301549999363,342.35465137499705,337.19301549999363,337.19301549999363,337.19301549999363,337.19301549999363,337.6578154999952,338.7281039579975,337.62763424966056,,339.28450516599696,340.35695862499415,339.2546252076611,,337.19301549999363,342.35465137499705,337.19301549999363,342.35465137499705,342.3955924999973,343.0487477909992,337.19301549999363,1,1,1.9025725420069648,reldom2_s036,001,2025-03-14_12h42.43.922,Aud-A-Scan_AC,2022.2.5,None,
0,0.0,None,fixation,stimulus/audwhere_stim/blank_white.png,stimulus/audwhere_stim/blank_white.png,stimulus/audwhat_stim/blank_white.png,stimulus/audwhat_stim/blank_white.png,stimulus/audwhere_stim/blank_white.png,stimulus/audwhere_stim/blank_white.png,stimulus/audwhere_stim/blank_white.png,stimulus/audwhere_stim/blank_white.png,0.0,0.0,0.0,0.0,0,0.0,0,0.0,0,0.0,0,0.0,0,0.0,0.0,0,0,0,0,0,0,0,0,0,0.0,0,0.0,0,0.0,0,0.0,9,,,,,0,37,37,37,,,,,,,,,343.32327491599426,343.32327491599426,343.32327491599426,343.32327491599426,343.32327491599426,343.32327491599426,343.32327491599426,343.32327491599426,343.2230251243328,343.32327491599426,343.32327491599426,343.32327491599426,343.2230251243328,343.32327491599426,343.32327491599426,343.32327491599426,343.32327491599426,343.32327491599426,343.32327491599426,343.32327491599426,343.32327491599426,343.32327491599426,343.32327491599426,343.32327491599426,343.32327491599426,343.32327491599426,343.32327491599426,343.27302512433283,343.32327491599426,343.32327491599426,343.32327491599426,343.27302512433283,343.32327491599426,343.32327491599426,343.32327491599426,343.32327491599426,343.32327491599426,348.55571287499333,348.55571287499333,352.4917126250002,None,0,,reldom2_s036,001,2025-03-14_12h42.43.922,Aud-A-Scan_AC,2022.2.5,None,
29,Second_Order,5.0,audwhere,stimulus/audwhere_stim/right_toward_270h.wav,stimulus/audwhere_stim/right_away_280h.wav,stimulus/audwhere_stim/left_toward_290h.wav,stimulus/audwhere_stim/left_away_290h.wav,stimulus/audwhere_stim/match_blank.png,stimulus/audwhere_stim/match_box.png,stimulus/audwhere_stim/match_yes.png,stimulus/audwhere_stim/match_no.png,1.0,Match,Side,Side,1,5.125,0,5.125,0,5.125,0,5.125,0,0.75,0.75,0,0,0,0,0,0,0,0,1,0.5,1,2.125,1,0.5,1,2.125,0,,,,,0,38,38,38,,,,,,,,,352.4917126250002,357.61358199999813,352.4917126250002,352.4917126250002,352.4917126250002,352.4917126250002,352.9398456659983,353.9381404579981,352.952539166665,,354.5727534580001,355.56223737499386,354.57719237466176,355.5755083749973,357.61358199999813,358.4649685409968,360.52800279099756,364.46423125,358.4649685409968,358.4649685409968,363.61823933299456,358.4649685409968,358.4649685409968,358.4649685409968,358.4649685409968,358.9206221659988,359.97523612499936,358.8915182916646,,360.52800279099756,361.5911362909974,360.4982854996599,,358.4649685409968,363.61823933299456,358.4649685409968,363.61823933299456,363.65915962500003,,358.4649685409968,1,1,1.0432955840005889,reldom2_s036,001,2025-03-14_12h42.43.922,Aud-A-Scan_AC,2022.2.5,None,
30,Second_Order,5.0,audwhere,stimulus/audwhere_stim/left_toward_300h.wav,stimulus/audwhere_stim/left_away_290h.wav,stimulus/audwhere_stim/right_away_290h.wav,stimulus/audwhere_stim/right_toward_280h.wav,stimulus/audwhere_stim/match_blank.png,stimulus/audwhere_stim/match_box.png,stimulus/audwhere_stim/match_yes.png,stimulus/audwhere_stim/match_no.png,1.0,Match,Side,Side,1,5.125,0,5.125,0,5.125,0,5.125,0,0.625,0.625,0,0,0,0,0,0,0,0,1,0.5,1,2.125,1,0.5,1,2.125,0,,,,,0,39,39,39,,,,,,,,,364.46423125,369.5791332909939,364.46423125,364.46423125,364.46423125,364.46423125,364.9175989159994,365.91606074999436,364.93040137466255,,366.53906037499837,367.5370879999973,366.55084708266463,,369.5791332909939,370.3096669999941,372.35439270799543,,370.3096669999941,370.3096669999941,375.4722964579996,370.3096669999941,370.3096669999941,370.3096669999941,370.3096669999941,370.763711874999,371.8086551659944,370.7347566666615,,372.35439270799543,373.40751424999326,372.32571166666116,,370.3096669999941,375.4722964579996,370.3096669999941,375.4722964579996,375.4722964579996,376.15608787499514,370.3096669999941,1,1,1.1385489590029465,reldom2_s036,001,2025-03-14_12h42.43.922,Aud-A-Scan_AC,2022.2.5,None,
0,0.0,None,fixation,stimulus/audwhere_stim/blank_white.png,stimulus/audwhere_stim/blank_white.png,stimulus/audwhat_stim/blank_white.png,stimulus/audwhat_stim/blank_white.png,stimulus/audwhere_stim/blank_white.png,stimulus/audwhere_stim/blank_white.png,stimulus/audwhere_stim/blank_white.png,stimulus/audwhere_stim/blank_white.png,0.0,0.0,0.0,0.0,0,0.0,0,0.0,0,0.0,0,0.0,0,0.0,0.0,0,0,0,0,0,0,0,0,0,0.0,0,0.0,0,0.0,0,0.0,9,,,,,0,40,40,40,,,,,,,,,376.389496415999,376.389496415999,376.389496415999,376.389496415999,376.389496415999,376.389496415999,376.389496415999,376.389496415999,376.28942120832846,376.389496415999,376.389496415999,376.389496415999,376.28942120832846,376.389496415999,376.389496415999,376.389496415999,376.389496415999,376.389496415999,376.389496415999,376.389496415999,376.389496415999,376.389496415999,376.389496415999,376.389496415999,376.389496415999,376.389496415999,376.389496415999,376.3394212083285,376.389496415999,376.389496415999,376.389496415999,376.3394212083285,376.389496415999,376.389496415999,376.389496415999,376.389496415999,376.389496415999,381.612766249993,381.612766249993,385.655479999994,None,0,,reldom2_s036,001,2025-03-14_12h42.43.922,Aud-A-Scan_AC,2022.2.5,None,
31,First_Order,6.0,audwhere,stimulus/audwhere_stim/dummy.wav,stimulus/audwhere_stim/dummy.wav,stimulus/audwhere_stim/left_away_300h.wav,stimulus/audwhere_stim/left_toward_300h.wav,stimulus/audwhere_stim/blank_white.png,stimulus/audwhere_stim/side_box.png,stimulus/audwhere_stim/side_yes.png,stimulus/audwhere_stim/side_no.png,None,Side,None,Side,1,0.0,0,5.125,0,5.125,0,5.125,0,0.0,0.625,0,0,0,0,0,0,0,0,0,0.0,0,0.0,1,0.5,1,2.125,0,,,,,0,41,41,41,,,,,,,,,385.655479999994,385.655479999994,385.655479999994,385.655479999994,385.655479999994,385.655479999994,385.655479999994,385.655479999994,385.5861667916639,385.655479999994,385.655479999994,385.655479999994,385.5861667916639,385.655479999994,385.655479999994,385.655479999994,387.7292592909944,,385.655479999994,385.655479999994,390.81942262499797,385.655479999994,385.655479999994,385.655479999994,385.655479999994,386.1174350000001,387.17627379099577,386.0889439166606,,387.7292592909944,388.7929041249954,387.699497457663,,385.655479999994,390.81942262499797,385.655479999994,390.81942262499797,390.85996187499404,391.54716645799635,385.655479999994,1,1,1.3006134590032161,reldom2_s036,001,2025-03-14_12h42.43.922,Aud-A-Scan_AC,2022.2.5,None,
32,First_Order,6.0,audwhere,stimulus/audwhere_stim/dummy.wav,stimulus/audwhere_stim/dummy.wav,stimulus/audwhere_stim/right_away_270h.wav,stimulus/audwhere_stim/left_away_280h.wav,stimulus/audwhere_stim/blank_white.png,stimulus/audwhere_stim/side_box.png,stimulus/audwhere_stim/side_yes.png,stimulus/audwhere_stim/side_no.png,None,Side,None,Direction,2,0.0,0,5.125,0,5.125,0,5.125,0,0.0,0.625,0,0,0,0,0,0,0,0,0,0.0,0,0.0,1,0.5,1,2.125,0,,,,,0,42,42,42,,,,,,,,,391.75810024999373,391.75810024999373,391.75810024999373,391.75810024999373,391.75810024999373,391.75810024999373,391.75810024999373,391.75810024999373,391.6804997913297,391.75810024999373,391.75810024999373,391.75810024999373,391.6804997913297,391.75810024999373,391.75810024999373,391.75810024999373,393.8321253749964,,391.75810024999373,391.75810024999373,396.9266029579958,391.75810024999373,391.75810024999373,391.75810024999373,391.75810024999373,392.2178370409965,393.2797226249968,392.18888691666166,,393.8321253749964,394.89632412499486,393.80275404166264,,391.75810024999373,396.9266029579958,391.75810024999373,396.9266029579958,396.9671368329946,397.61608262499794,391.75810024999373,2,1,1.049470668011054,reldom2_s036,001,2025-03-14_12h42.43.922,Aud-A-Scan_AC,2022.2.5,None,
33,First_Order,6.0,audwhere,stimulus/audwhere_stim/dummy.wav,stimulus/audwhere_stim/dummy.wav,stimulus/audwhere_stim/left_toward_270h.wav,stimulus/audwhere_stim/left_away_270h.wav,stimulus/audwhere_stim/blank_white.png,stimulus/audwhere_stim/direction_box.png,stimulus/audwhere_stim/direction_yes.png,stimulus/audwhere_stim/direction_no.png,None,Direction,None,Side,2,0.0,0,5.125,0,5.125,0,5.125,0,0.0,0.625,0,0,0,0,0,0,0,0,0,0.0,0,0.0,1,0.5,1,2.125,0,,,,,0,43,43,43,,,,,,,,,397.86797429099533,397.86797429099533,397.86797429099533,397.86797429099533,397.86797429099533,397.86797429099533,397.86797429099533,397.86797429099533,397.7902396243318,397.86797429099533,397.86797429099533,397.86797429099533,397.7902396243318,397.86797429099533,397.86797429099533,397.86797429099533,399.9590409159937,403.98060258299665,397.86797429099533,397.86797429099533,403.0343262909955,397.86797429099533,397.86797429099533,397.86797429099533,397.86797429099533,398.331279082995,399.401080165997,398.30135595766137,,399.9590409159937,401.03247241599456,399.9290997496612,,397.86797429099533,403.0343262909955,397.86797429099533,403.0343262909955,403.0749254159964,403.7282634999938,397.86797429099533,2,1,1.2822907920053694,reldom2_s036,001,2025-03-14_12h42.43.922,Aud-A-Scan_AC,2022.2.5,None,
34,First_Order,6.0,audwhere,stimulus/audwhere_stim/dummy.wav,stimulus/audwhere_stim/dummy.wav,stimulus/audwhere_stim/left_toward_300h.wav,stimulus/audwhere_stim/left_away_300h.wav,stimulus/audwhere_stim/blank_white.png,stimulus/audwhere_stim/side_box.png,stimulus/audwhere_stim/side_yes.png,stimulus/audwhere_stim/side_no.png,None,Side,None,Side,1,0.0,0,5.125,0,5.125,0,5.125,0,0.0,0.625,0,0,0,0,0,0,0,0,0,0.0,0,0.0,1,0.5,1,2.125,0,,,,,0,44,44,44,,,,,,,,,403.98060258299665,403.98060258299665,403.98060258299665,403.98060258299665,403.98060258299665,403.98060258299665,403.98060258299665,403.98060258299665,403.90210062432936,403.98060258299665,403.98060258299665,403.98060258299665,403.90210062432936,403.98060258299665,403.98060258299665,403.98060258299665,406.0602707079961,410.1220444999999,403.98060258299665,403.98060258299665,409.15861529099493,403.98060258299665,403.98060258299665,403.98060258299665,403.98060258299665,404.4441787079995,405.50597045799805,404.4130501246657,,406.0602707079961,407.1279172909999,406.03065779166013,,403.98060258299665,409.15861529099493,403.98060258299665,409.15861529099493,409.1996028329959,409.85053179099486,403.98060258299665,1,1,0.9252878340121242,reldom2_s036,001,2025-03-14_12h42.43.922,Aud-A-Scan_AC,2022.2.5,None,
0,0.0,None,fixation,stimulus/audwhere_stim/blank_white.png,stimulus/audwhere_stim/blank_white.png,stimulus/audwhat_stim/blank_white.png,stimulus/audwhat_stim/blank_white.png,stimulus/audwhere_stim/blank_white.png,stimulus/audwhere_stim/blank_white.png,stimulus/audwhere_stim/blank_white.png,stimulus/audwhere_stim/blank_white.png,0.0,0.0,0.0,0.0,0,0.0,0,0.0,0,0.0,0,0.0,0,0.0,0.0,0,0,0,0,0,0,0,0,0,0.0,0,0.0,0,0.0,0,0.0,10,,,,,0,45,45,45,,,,,,,,,410.1220444999999,410.1220444999999,410.1220444999999,410.1220444999999,410.1220444999999,410.1220444999999,410.1220444999999,410.1220444999999,410.0243721663302,410.1220444999999,410.1220444999999,410.1220444999999,410.0243721663302,410.1220444999999,410.1220444999999,410.1220444999999,410.1220444999999,410.1220444999999,410.1220444999999,410.1220444999999,410.1220444999999,410.1220444999999,410.1220444999999,410.1220444999999,410.1220444999999,410.1220444999999,410.1220444999999,410.0743721663302,410.1220444999999,410.1220444999999,410.1220444999999,410.0743721663302,410.1220444999999,410.1220444999999,410.1220444999999,410.1220444999999,410.1220444999999,415.34101741599443,415.34101741599443,420.2824338749997,None,0,,reldom2_s036,001,2025-03-14_12h42.43.922,Aud-A-Scan_AC,2022.2.5,None,
35,Second_Order,6.0,audwhere,stimulus/audwhere_stim/left_away_280h.wav,stimulus/audwhere_stim/left_toward_300h.wav,stimulus/audwhere_stim/right_away_280h.wav,stimulus/audwhere_stim/right_toward_300h.wav,stimulus/audwhere_stim/match_blank.png,stimulus/audwhere_stim/match_box.png,stimulus/audwhere_stim/match_yes.png,stimulus/audwhere_stim/match_no.png,1.0,Match,Side,Side,1,5.125,0,5.125,0,5.125,0,5.125,0,0.75,0.75,0,0,0,0,0,0,0,0,1,0.5,1,2.125,1,0.5,1,2.125,0,,,,,0,46,46,46,,,,,,,,,420.2824338749997,425.4034325829998,420.2824338749997,420.2824338749997,420.2824338749997,420.2824338749997,420.74249574999703,421.73186216599424,420.74571308266263,421.73186216599424,422.367203582995,423.3657017079968,422.3797406246633,,425.4034325829998,426.25494879100006,428.3223665829937,432.256336749997,426.25494879100006,426.25494879100006,431.4067059579975,426.25494879100006,426.25494879100006,426.25494879100006,426.25494879100006,426.7129392079951,427.7696752499978,426.6834235826648,,428.3223665829937,429.3839668329965,428.29249487466245,,426.25494879100006,431.4067059579975,426.25494879100006,431.4067059579975,431.44813641599467,,426.25494879100006,1,1,1.1082051680059521,reldom2_s036,001,2025-03-14_12h42.43.922,Aud-A-Scan_AC,2022.2.5,None,
36,Second_Order,6.0,audwhere,stimulus/audwhere_stim/left_away_290h.wav,stimulus/audwhere_stim/left_toward_270h.wav,stimulus/audwhere_stim/left_toward_290h.wav,stimulus/audwhere_stim/right_toward_270h.wav,stimulus/audwhere_stim/match_blank.png,stimulus/audwhere_stim/match_box.png,stimulus/audwhere_stim/match_yes.png,stimulus/audwhere_stim/match_no.png,2.0,Match,Side,Direction,2,5.125,0,5.125,0,5.125,0,5.125,0,0.625,0.625,0,0,0,0,0,0,0,0,1,0.5,1,2.125,1,0.5,1,2.125,0,,,,,0,47,47,47,,,,,,,,,432.256336749997,437.3693651249996,432.256336749997,432.256336749997,432.256336749997,432.256336749997,432.72080191599525,433.70897562499886,432.7208621666616,433.70897562499886,434.3409991659937,435.33028904099774,434.3447307496647,,437.3693651249996,438.1009383749988,440.15349154099385,,438.1009383749988,438.1009383749988,443.27155766599753,438.1009383749988,438.1009383749988,438.1009383749988,438.1009383749988,438.55770933299937,439.6047280829953,438.52853916666595,,440.15349154099385,441.2114527079975,440.1244579576635,,438.1009383749988,443.27155766599753,438.1009383749988,443.27155766599753,443.27155766599753,443.95684233299835,438.1009383749988,2,1,0.981161334006174,reldom2_s036,001,2025-03-14_12h42.43.922,Aud-A-Scan_AC,2022.2.5,None,
0,0.0,None,fixation,stimulus/audwhere_stim/blank_white.png,stimulus/audwhere_stim/blank_white.png,stimulus/audwhat_stim/blank_white.png,stimulus/audwhat_stim/blank_white.png,stimulus/audwhere_stim/blank_white.png,stimulus/audwhere_stim/blank_white.png,stimulus/audwhere_stim/blank_white.png,stimulus/audwhere_stim/blank_white.png,0.0,0.0,0.0,0.0,0,0.0,0,0.0,0,0.0,0,0.0,0,0.0,0.0,0,0,0,0,0,0,0,0,0,0.0,0,0.0,0,0.0,0,0.0,9,,,,,0,48,48,48,,,,,,,,,444.18780095799593,444.18780095799593,444.18780095799593,444.18780095799593,444.18780095799593,444.18780095799593,444.18780095799593,444.18780095799593,444.0901756663317,444.18780095799593,444.18780095799593,444.18780095799593,444.0901756663317,444.18780095799593,444.18780095799593,444.18780095799593,444.18780095799593,444.18780095799593,444.18780095799593,444.18780095799593,444.18780095799593,444.18780095799593,444.18780095799593,444.18780095799593,444.18780095799593,444.18780095799593,444.18780095799593,444.1401756663317,444.18780095799593,444.18780095799593,444.18780095799593,444.1401756663317,444.18780095799593,444.18780095799593,444.18780095799593,444.18780095799593,444.18780095799593,449.4134110409941,449.4134110409941,453.459482415994,None,0,,reldom2_s036,001,2025-03-14_12h42.43.922,Aud-A-Scan_AC,2022.2.5,None,
37,First_Order,7.0,audwhat,stimulus/audwhat_stim/dummy.wav,stimulus/audwhat_stim/dummy.wav,stimulus/audwhat_stim/string cello_low-pitch_Ftri_loud.wav,stimulus/audwhat_stim/string cello_high-pitch_D_loud.wav,stimulus/audwhat_stim/blank_white.png,stimulus/audwhat_stim/pitch_box.png,stimulus/audwhat_stim/pitch_yes.png,stimulus/audwhat_stim/pitch_no.png,None,Pitch,None,Category,2,0.0,0,5.125,0,5.125,0,5.125,0,0.0,0.625,0,0,0,0,0,0,0,0,0,0.0,0,0.0,1,0.5,1,2.125,0,,,,,0,49,49,49,,,,,,,,,453.459482415994,453.459482415994,453.459482415994,453.459482415994,453.459482415994,453.459482415994,453.459482415994,453.459482415994,453.3886804576638,453.459482415994,453.459482415994,453.459482415994,453.3886804576638,453.459482415994,453.459482415994,453.459482415994,455.5318022909996,,453.459482415994,453.459482415994,458.61914591599634,453.459482415994,453.459482415994,453.459482415994,453.459482415994,453.9194177909958,454.97800166599336,453.8902470416617,,455.5318022909996,456.5939975000001,455.50195299966094,,453.459482415994,458.61914591599634,453.459482415994,458.61914591599634,458.66003849999834,459.31007516599493,453.459482415994,2,1,1.1196612510029809,reldom2_s036,001,2025-03-14_12h42.43.922,Aud-A-Scan_AC,2022.2.5,None,
38,First_Order,7.0,audwhat,stimulus/audwhat_stim/dummy.wav,stimulus/audwhat_stim/dummy.wav,stimulus/audwhat_stim/string cello_low-pitch_D_loud.wav,stimulus/audwhat_stim/string cello_high-pitch_Ftri_loud.wav,stimulus/audwhat_stim/blank_white.png,stimulus/audwhat_stim/pitch_box.png,stimulus/audwhat_stim/pitch_yes.png,stimulus/audwhat_stim/pitch_no.png,None,Pitch,None,Category,2,0.0,0,5.125,0,5.125,0,5.125,0,0.0,0.625,0,0,0,0,0,0,0,0,0,0.0,0,0.0,1,0.5,1,2.125,0,,,,,0,50,50,50,,,,,,,,,459.56262699999934,459.56262699999934,459.56262699999934,459.56262699999934,459.56262699999934,459.56262699999934,459.56262699999934,459.56262699999934,459.48366124933284,459.56262699999934,459.56262699999934,459.56262699999934,459.48366124933284,459.56262699999934,459.56262699999934,459.56262699999934,461.64056574999995,465.6759650409949,459.56262699999934,459.56262699999934,464.73474608299875,459.56262699999934,459.56262699999934,459.56262699999934,459.56262699999934,460.023964041,461.0875182079981,459.99409662466155,,461.64056574999995,462.7047123749944,461.6106946246621,,459.56262699999934,464.73474608299875,459.56262699999934,464.73474608299875,464.7759387909973,465.46432570799516,459.56262699999934,2,1,1.9240327090010396,reldom2_s036,001,2025-03-14_12h42.43.922,Aud-A-Scan_AC,2022.2.5,None,
39,First_Order,7.0,audwhat,stimulus/audwhat_stim/dummy.wav,stimulus/audwhat_stim/dummy.wav,stimulus/audwhat_stim/percussion xylophone_high-pitch_Dtri_loud.wav,stimulus/audwhat_stim/string cello_high-pitch_Dtri_loud.wav,stimulus/audwhat_stim/blank_white.png,stimulus/audwhat_stim/pitch_box.png,stimulus/audwhat_stim/pitch_yes.png,stimulus/audwhat_stim/pitch_no.png,None,Pitch,None,Pitch,1,0.0,0,5.125,0,5.125,0,5.125,0,0.0,0.625,0,0,0,0,0,0,0,0,0,0.0,0,0.0,1,0.5,1,2.125,0,,,,,0,51,51,51,,,,,,,,,465.6759650409949,465.6759650409949,465.6759650409949,465.6759650409949,465.6759650409949,465.6759650409949,465.6759650409949,465.6759650409949,465.5976590413285,465.6759650409949,465.6759650409949,465.6759650409949,465.5976590413285,465.6759650409949,465.6759650409949,465.6759650409949,467.75616766599705,471.7981232079983,465.6759650409949,465.6759650409949,470.85316995799803,465.6759650409949,465.6759650409949,465.6759650409949,465.6759650409949,466.13719329099695,467.2022029159998,466.10777754165997,467.1564279999948,467.75616766599705,468.81973670799925,467.7268093746645,,465.6759650409949,470.85316995799803,465.6759650409949,470.85316995799803,470.89430662499944,471.5447964579944,465.6759650409949,1,1,1.1105365000039455,reldom2_s036,001,2025-03-14_12h42.43.922,Aud-A-Scan_AC,2022.2.5,None,
40,First_Order,7.0,audwhat,stimulus/audwhat_stim/dummy.wav,stimulus/audwhat_stim/dummy.wav,stimulus/audwhat_stim/string cello_low-pitch_D_loud.wav,stimulus/audwhat_stim/percussion mallet_low-pitch_D_loud.wav,stimulus/audwhat_stim/blank_white.png,stimulus/audwhat_stim/pitch_box.png,stimulus/audwhat_stim/pitch_yes.png,stimulus/audwhat_stim/pitch_no.png,None,Pitch,None,Pitch,1,0.0,0,5.125,0,5.125,0,5.125,0,0.0,0.625,0,0,0,0,0,0,0,0,0,0.0,0,0.0,1,0.5,1,2.125,0,,,,,0,52,52,52,,,,,,,,,471.7981232079983,471.7981232079983,471.7981232079983,471.7981232079983,471.7981232079983,471.7981232079983,471.7981232079983,471.7981232079983,471.7189876243302,471.7981232079983,471.7981232079983,471.7981232079983,471.7189876243302,471.7981232079983,471.7981232079983,471.7981232079983,473.87927416599996,477.93716166599916,471.7981232079983,471.7981232079983,476.975543665998,471.7981232079983,471.7981232079983,471.7981232079983,471.7981232079983,472.26109170799464,473.32623241599504,472.23125354166064,,473.87927416599996,474.94394470799307,473.8492650826631,,471.7981232079983,476.975543665998,471.7981232079983,476.975543665998,477.0165438749973,477.6651870409987,471.7981232079983,1,1,1.608431542001199,reldom2_s036,001,2025-03-14_12h42.43.922,Aud-A-Scan_AC,2022.2.5,None,
0,0.0,None,fixation,stimulus/audwhere_stim/blank_white.png,stimulus/audwhere_stim/blank_white.png,stimulus/audwhat_stim/blank_white.png,stimulus/audwhat_stim/blank_white.png,stimulus/audwhere_stim/blank_white.png,stimulus/audwhere_stim/blank_white.png,stimulus/audwhere_stim/blank_white.png,stimulus/audwhere_stim/blank_white.png,0.0,0.0,0.0,0.0,0,0.0,0,0.0,0,0.0,0,0.0,0,0.0,0.0,0,0,0,0,0,0,0,0,0,0.0,0,0.0,0,0.0,0,0.0,10,,,,,0,53,53,53,,,,,,,,,477.93716166599916,477.93716166599916,477.93716166599916,477.93716166599916,477.93716166599916,477.93716166599916,477.93716166599916,477.93716166599916,477.8391128743334,477.93716166599916,477.93716166599916,477.93716166599916,477.8391128743334,477.93716166599916,477.93716166599916,477.93716166599916,477.93716166599916,477.93716166599916,477.93716166599916,477.93716166599916,477.93716166599916,477.93716166599916,477.93716166599916,477.93716166599916,477.93716166599916,477.93716166599916,477.93716166599916,477.8891128743334,477.93716166599916,477.93716166599916,477.93716166599916,477.8891128743334,477.93716166599916,477.93716166599916,477.93716166599916,477.93716166599916,477.93716166599916,483.15374033299304,483.15374033299304,488.08994029099995,None,0,,reldom2_s036,001,2025-03-14_12h42.43.922,Aud-A-Scan_AC,2022.2.5,None,
41,Second_Order,7.0,audwhat,stimulus/audwhat_stim/percussion xylophone_high-pitch_Ftri_loud.wav,stimulus/audwhat_stim/percussion mallet_low-pitch_Dtri_loud.wav,stimulus/audwhat_stim/string viola_low-pitch_Ftri_loud.wav,stimulus/audwhat_stim/percussion mallet_low-pitch_Ftri_loud.wav,stimulus/audwhere_stim/match_blank.png,stimulus/audwhat_stim/match_box.png,stimulus/audwhere_stim/match_yes.png,stimulus/audwhere_stim/match_no.png,2.0,Match,Category,Pitch,2,5.125,0,5.125,0,5.125,0,5.125,0,0.75,0.75,0,0,0,0,0,0,0,0,1,0.5,1,2.125,1,0.5,1,2.125,0,,,,,0,54,54,54,,,,,,,,,488.08994029099995,493.21445537499676,488.08994029099995,488.08994029099995,488.08994029099995,488.08994029099995,488.5366938329971,489.53473441599635,488.54957108266194,489.53805362499406,490.173786249994,491.1718578749933,490.1863907076661,,493.21445537499676,494.0653190409939,496.13470949999464,500.0664728329939,494.0653190409939,494.0653190409939,499.22329887499654,494.0653190409939,494.0653190409939,494.0653190409939,494.0653190409939,494.4781300409959,495.5374216659984,494.44877099966493,,496.13470949999464,497.1937737079934,496.1051300416623,,494.0653190409939,499.22329887499654,494.0653190409939,499.22329887499654,499.22329887499654,,494.0653190409939,2,1,1.5058175000012852,reldom2_s036,001,2025-03-14_12h42.43.922,Aud-A-Scan_AC,2022.2.5,None,
42,Second_Order,7.0,audwhat,stimulus/audwhat_stim/string cello_high-pitch_Dtri_loud.wav,stimulus/audwhat_stim/percussion mallet_high-pitch_Dtri_loud.wav,stimulus/audwhat_stim/percussion mallet_low-pitch_D_loud.wav,stimulus/audwhat_stim/string cello_low-pitch_D_loud.wav,stimulus/audwhere_stim/match_blank.png,stimulus/audwhat_stim/match_box.png,stimulus/audwhere_stim/match_yes.png,stimulus/audwhere_stim/match_no.png,1.0,Match,Pitch,Pitch,1,5.125,0,5.125,0,5.125,0,5.125,0,0.625,0.625,0,0,0,0,0,0,0,0,1,0.5,1,2.125,1,0.5,1,2.125,0,,,,,0,55,55,55,,,,,,,,,500.0664728329939,505.1877652080002,500.0664728329939,500.0664728329939,500.0664728329939,500.0664728329939,500.5262649159995,501.51570349999383,500.528430707662,,502.1525279159978,503.14982733299985,502.1639957916598,,505.1877652080002,505.9226649159973,507.97191529099655,512.0389037079949,505.9226649159973,505.9226649159973,511.0820224159979,505.9226649159973,505.9226649159973,505.9226649159973,505.9226649159973,506.376061707997,507.4239522909993,506.34708279166466,,507.97191529099655,509.0258134579999,507.9424354996629,,505.9226649159973,511.0820224159979,505.9226649159973,511.0820224159979,511.0820224159979,511.7688772909969,505.9226649159973,1,1,1.2984970430043177,reldom2_s036,001,2025-03-14_12h42.43.922,Aud-A-Scan_AC,2022.2.5,None,
0,0.0,None,fixation,stimulus/audwhere_stim/blank_white.png,stimulus/audwhere_stim/blank_white.png,stimulus/audwhat_stim/blank_white.png,stimulus/audwhat_stim/blank_white.png,stimulus/audwhere_stim/blank_white.png,stimulus/audwhere_stim/blank_white.png,stimulus/audwhere_stim/blank_white.png,stimulus/audwhere_stim/blank_white.png,0.0,0.0,0.0,0.0,0,0.0,0,0.0,0,0.0,0,0.0,0,0.0,0.0,0,0,0,0,0,0,0,0,0,0.0,0,0.0,0,0.0,0,0.0,9,,,,,0,56,56,56,,,,,,,,,512.0389037079949,512.0389037079949,512.0389037079949,512.0389037079949,512.0389037079949,512.0389037079949,512.0389037079949,512.0389037079949,511.94141120832694,512.0389037079949,512.0389037079949,512.0389037079949,511.94141120832694,512.0389037079949,512.0389037079949,512.0389037079949,512.0389037079949,512.0389037079949,512.0389037079949,512.0389037079949,512.0389037079949,512.0389037079949,512.0389037079949,512.0389037079949,512.0389037079949,512.0389037079949,512.0389037079949,511.99141120832695,512.0389037079949,512.0389037079949,512.0389037079949,511.99141120832695,512.0389037079949,512.0389037079949,512.0389037079949,512.0389037079949,512.0389037079949,517.2702466659975,517.2702466659975,521.2641251659952,None,0,,reldom2_s036,001,2025-03-14_12h42.43.922,Aud-A-Scan_AC,2022.2.5,None,
43,First_Order,8.0,audwhat,stimulus/audwhat_stim/dummy.wav,stimulus/audwhat_stim/dummy.wav,stimulus/audwhat_stim/string viola_low-pitch_F_loud.wav,stimulus/audwhat_stim/percussion mallet_low-pitch_F_loud.wav,stimulus/audwhat_stim/blank_white.png,stimulus/audwhat_stim/category_box.png,stimulus/audwhat_stim/category_yes.png,stimulus/audwhat_stim/category_no.png,None,Category,None,Pitch,2,0.0,0,5.125,0,5.125,0,5.125,0,0.0,0.625,0,0,0,0,0,0,0,0,0,0.0,0,0.0,1,0.5,1,2.125,0,,,,,0,57,57,57,,,,,,,,,521.2641251659952,521.2641251659952,521.2641251659952,521.2641251659952,521.2641251659952,521.2641251659952,521.2641251659952,521.2641251659952,521.1939434996626,521.2641251659952,521.2641251659952,521.2641251659952,521.1939434996626,521.2641251659952,521.2641251659952,521.2641251659952,523.3465997909952,,521.2641251659952,521.2641251659952,526.4490906659994,521.2641251659952,521.2641251659952,521.2641251659952,521.2641251659952,521.7273346659931,522.792738624994,521.6975833746658,,523.3465997909952,524.410970082994,523.3169659576636,,521.2641251659952,526.4490906659994,521.2641251659952,526.4490906659994,526.489903499998,527.1413131659938,521.2641251659952,2,1,1.2844743760069832,reldom2_s036,001,2025-03-14_12h42.43.922,Aud-A-Scan_AC,2022.2.5,None,
44,First_Order,8.0,audwhat,stimulus/audwhat_stim/dummy.wav,stimulus/audwhat_stim/dummy.wav,stimulus/audwhat_stim/percussion mallet_low-pitch_Dtri_loud.wav,stimulus/audwhat_stim/percussion xylophone_high-pitch_F_loud.wav,stimulus/audwhat_stim/blank_white.png,stimulus/audwhat_stim/category_box.png,stimulus/audwhat_stim/category_yes.png,stimulus/audwhat_stim/category_no.png,None,Category,None,Category,1,0.0,0,5.125,0,5.125,0,5.125,0,0.0,0.625,0,0,0,0,0,0,0,0,0,0.0,0,0.0,1,0.5,1,2.125,0,,,,,0,58,58,58,,,,,,,,,527.3531444999971,527.3531444999971,527.3531444999971,527.3531444999971,527.3531444999971,527.3531444999971,527.3531444999971,527.3531444999971,527.2746464993271,527.3531444999971,527.3531444999971,527.3531444999971,527.2746464993271,527.3531444999971,527.3531444999971,527.3531444999971,529.4380044159989,,527.3531444999971,527.3531444999971,532.5433172499979,527.3531444999971,527.3531444999971,527.3531444999971,527.3531444999971,527.815507290994,528.8827137499975,527.785448332663,,529.4380044159989,530.5042016249936,529.4087903746661,530.4584702079956,527.3531444999971,532.5433172499979,527.3531444999971,532.5433172499979,532.5433172499979,533.1957351249948,527.3531444999971,1,1,1.097395584009064,reldom2_s036,001,2025-03-14_12h42.43.922,Aud-A-Scan_AC,2022.2.5,None,
45,First_Order,8.0,audwhat,stimulus/audwhat_stim/dummy.wav,stimulus/audwhat_stim/dummy.wav,stimulus/audwhat_stim/string cello_high-pitch_Dtri_loud.wav,stimulus/audwhat_stim/percussion xylophone_high-pitch_Dtri_loud.wav,stimulus/audwhat_stim/blank_white.png,stimulus/audwhat_stim/category_box.png,stimulus/audwhat_stim/category_yes.png,stimulus/audwhat_stim/category_no.png,None,Category,None,Pitch,2,0.0,0,5.125,0,5.125,0,5.125,0,0.0,0.625,0,0,0,0,0,0,0,0,0,0.0,0,0.0,1,0.5,1,2.125,0,,,,,0,59,59,59,,,,,,,,,533.4494148749945,533.4494148749945,533.4494148749945,533.4494148749945,533.4494148749945,533.4494148749945,533.4494148749945,533.4494148749945,533.3699218743296,533.4494148749945,533.4494148749945,533.4494148749945,533.3699218743296,533.4494148749945,533.4494148749945,533.4494148749945,535.5407211659985,,533.4494148749945,533.4494148749945,538.6084101659944,533.4494148749945,533.4494148749945,533.4494148749945,533.4494148749945,533.9128690829966,534.9831723749958,533.8824247916602,,535.5407211659985,536.570257415995,535.5106915416657,536.570257415995,533.4494148749945,538.6084101659944,533.4494148749945,538.6084101659944,538.6494827909992,539.3025552499967,533.4494148749945,2,1,0.664755084006174,reldom2_s036,001,2025-03-14_12h42.43.922,Aud-A-Scan_AC,2022.2.5,None,
46,First_Order,8.0,audwhat,stimulus/audwhat_stim/dummy.wav,stimulus/audwhat_stim/dummy.wav,stimulus/audwhat_stim/percussion mallet_low-pitch_Ftri_loud.wav,stimulus/audwhat_stim/percussion mallet_high-pitch_F_loud.wav,stimulus/audwhat_stim/blank_white.png,stimulus/audwhat_stim/category_box.png,stimulus/audwhat_stim/category_yes.png,stimulus/audwhat_stim/category_no.png,None,Category,None,Category,1,0.0,0,5.125,0,5.125,0,5.125,0,0.0,0.625,0,0,0,0,0,0,0,0,0,0.0,0,0.0,1,0.5,1,2.125,0,,,,,0,60,60,60,,,,,,,,,539.5559029579963,539.5559029579963,539.5559029579963,539.5559029579963,539.5559029579963,539.5559029579963,539.5559029579963,539.5559029579963,539.4765939993323,539.5559029579963,539.5559029579963,539.5559029579963,539.4765939993323,539.5559029579963,539.5559029579963,539.5559029579963,541.6451160409997,,539.5559029579963,539.5559029579963,544.7127901659987,539.5559029579963,539.5559029579963,539.5559029579963,539.5559029579963,540.0197547909993,541.0876407909964,539.9900277496602,,541.6451160409997,542.7179747499977,541.6151842496658,,539.5559029579963,544.7127901659987,539.5559029579963,544.7127901659987,544.754024707996,545.4083255829973,539.5559029579963,1,1,0.8371241250060848,reldom2_s036,001,2025-03-14_12h42.43.922,Aud-A-Scan_AC,2022.2.5,None,
0,0.0,None,fixation,stimulus/audwhere_stim/blank_white.png,stimulus/audwhere_stim/blank_white.png,stimulus/audwhat_stim/blank_white.png,stimulus/audwhat_stim/blank_white.png,stimulus/audwhere_stim/blank_white.png,stimulus/audwhere_stim/blank_white.png,stimulus/audwhere_stim/blank_white.png,stimulus/audwhere_stim/blank_white.png,0.0,0.0,0.0,0.0,0,0.0,0,0.0,0,0.0,0,0.0,0,0.0,0.0,0,0,0,0,0,0,0,0,0,0.0,0,0.0,0,0.0,0,0.0,8,,,,,0,61,61,61,,,,,,,,,545.6821377909946,545.6821377909946,545.6821377909946,545.6821377909946,545.6821377909946,545.6821377909946,545.6821377909946,545.6821377909946,545.582510958333,545.6821377909946,545.6821377909946,545.6821377909946,545.582510958333,545.6821377909946,545.6821377909946,545.6821377909946,545.6821377909946,545.6821377909946,545.6821377909946,545.6821377909946,545.6821377909946,545.6821377909946,545.6821377909946,545.6821377909946,545.6821377909946,545.6821377909946,545.6821377909946,545.632510958333,545.6821377909946,545.6821377909946,545.6821377909946,545.632510958333,545.6821377909946,545.6821377909946,545.6821377909946,545.6821377909946,545.6821377909946,550.9134507499984,550.9134507499984,553.8341439159994,None,0,,reldom2_s036,001,2025-03-14_12h42.43.922,Aud-A-Scan_AC,2022.2.5,None,
47,Second_Order,8.0,audwhat,stimulus/audwhat_stim/string cello_high-pitch_F_loud.wav,stimulus/audwhat_stim/string viola_low-pitch_D_loud.wav,stimulus/audwhat_stim/percussion mallet_low-pitch_Ftri_loud.wav,stimulus/audwhat_stim/percussion xylophone_high-pitch_F_loud.wav,stimulus/audwhere_stim/match_blank.png,stimulus/audwhat_stim/match_box.png,stimulus/audwhere_stim/match_yes.png,stimulus/audwhere_stim/match_no.png,1.0,Match,Category,Category,1,5.125,0,5.125,0,5.125,0,5.125,0,0.75,0.75,0,0,0,0,0,0,0,0,1,0.5,1,2.125,1,0.5,1,2.125,0,,,,,0,62,62,62,,,,,,,,,553.8341439159994,558.9499910829982,553.8341439159994,553.8341439159994,553.8341439159994,553.8341439159994,554.2874615829933,555.2742818749975,554.3006979166641,,555.9097501659999,556.9074602909968,555.9215003746615,,558.9499910829982,559.8003431659963,561.8656570409948,565.7987219999995,559.8003431659963,559.8003431659963,564.9492007909939,559.8003431659963,559.8003431659963,559.8003431659963,559.8003431659963,560.2582881659982,561.3142389579953,560.2286592496641,,561.8656570409948,562.9246078329961,561.8360183746665,562.8777307909986,559.8003431659963,564.9492007909939,559.8003431659963,564.9492007909939,564.9898992499948,,559.8003431659963,1,1,1.010129209003935,reldom2_s036,001,2025-03-14_12h42.43.922,Aud-A-Scan_AC,2022.2.5,None,
48,Second_Order,8.0,audwhat,stimulus/audwhat_stim/percussion mallet_high-pitch_Ftri_loud.wav,stimulus/audwhat_stim/percussion mallet_low-pitch_D_loud.wav,stimulus/audwhat_stim/string cello_high-pitch_Ftri_loud.wav,stimulus/audwhat_stim/percussion xylophone_high-pitch_Ftri_loud.wav,stimulus/audwhere_stim/match_blank.png,stimulus/audwhat_stim/match_box.png,stimulus/audwhere_stim/match_yes.png,stimulus/audwhere_stim/match_no.png,2.0,Match,Category,Pitch,2,5.125,0,5.125,0,5.125,0,5.125,0,0.625,0.625,0,0,0,0,0,0,0,0,1,0.5,1,2.125,1,0.5,1,2.125,0,,,,,0,63,63,63,,,,,,,,,565.7987219999995,570.9108869999982,565.7987219999995,565.7987219999995,565.7987219999995,565.7987219999995,566.2495702079977,567.2478514999966,566.262344707666,,567.8827305409941,568.8718967909954,567.8857983326636,,570.9108869999982,571.6400441659935,573.6890828749965,,571.6400441659935,571.6400441659935,576.8080932499943,571.6400441659935,571.6400441659935,571.6400441659935,571.6400441659935,572.0934076659978,573.1414372079962,572.0649415416667,,573.6890828749965,574.744792999998,573.6597238746656,574.6987604999958,571.6400441659935,576.8080932499943,571.6400441659935,576.8080932499943,576.8080932499943,577.489604208,571.6400441659935,2,1,1.5855923340059235,reldom2_s036,001,2025-03-14_12h42.43.922,Aud-A-Scan_AC,2022.2.5,None,
0,0.0,None,fixation,stimulus/audwhere_stim/blank_white.png,stimulus/audwhere_stim/blank_white.png,stimulus/audwhat_stim/blank_white.png,stimulus/audwhat_stim/blank_white.png,stimulus/audwhere_stim/blank_white.png,stimulus/audwhere_stim/blank_white.png,stimulus/audwhere_stim/blank_white.png,stimulus/audwhere_stim/blank_white.png,0.0,0.0,0.0,0.0,0,0.0,0,0.0,0,0.0,0,0.0,0,0.0,0.0,0,0,0,0,0,0,0,0,0,0.0,0,0.0,0,0.0,0,0.0,16,,,,,0,64,64,64,,,,,,,,,577.7211976659964,577.7211976659964,577.7211976659964,577.7211976659964,577.7211976659964,577.7211976659964,577.7211976659964,577.7211976659964,577.6229375413333,577.7211976659964,577.7211976659964,577.7211976659964,577.6229375413333,577.7211976659964,577.7211976659964,577.7211976659964,577.7211976659964,577.7211976659964,577.7211976659964,577.7211976659964,577.7211976659964,577.7211976659964,577.7211976659964,577.7211976659964,577.7211976659964,577.7211976659964,577.7211976659964,577.6729375413332,577.7211976659964,577.7211976659964,577.7211976659964,577.6729375413332,577.7211976659964,577.7211976659964,577.7211976659964,577.7211976659964,577.7211976659964,582.9382678749971,582.9382678749971,593.8886535409983,None,0,,reldom2_s036,001,2025-03-14_12h42.43.922,Aud-A-Scan_AC,2022.2.5,None,
