Trial,Order,Block,Type,Stimuli_File1,Stimuli_File2,Stimuli_File3,Stimuli_File4,Cue_File1,Cue_File2,Response_File_Yes,Response_File_No,Match,Cue_Dimension,Pair1_Dimension,Pair2_Dimension,Key,Cue1_Duration,Cue1_Onset,Cue2_Duration,Cue2_Onset,ResponseYes_Duration,ResponseYes_Onset,ResponseNo_Duration,ResponseNo_Onset,ITI_Within,ITI_Between,Image1_Duration,Image1_Onset,Image2_Duration,Image2_Onset,Image3_Duration,Image3_Onset,Image4_Duration,Image4_Onset,Sound1_Duration,Sound1_Onset,Sound2_Duration,Sound2_Onset,Sound3_Duration,Sound3_Onset,Sound4_Duration,Sound4_Onset,Fixation_Duration,trials_2.thisRepN,trials_2.thisTrialN,trials_2.thisN,trials_2.thisIndex,trials.thisRepN,trials.thisTrialN,trials.thisN,trials.thisIndex,text_start.started,key_resp_start.started,key_resp_start.keys,key_resp_start.rt,text2.started,key_resp_2.started,key_resp_2.keys,key_resp_2.rt,cue_file1.started,cue_file1.stopped,image_1.started,image_1.stopped,image_2.started,image_2.stopped,sound_icon1.started,sound_icon1.stopped,sound_1.started,sound_1.stopped,sound_icon2.started,sound_icon2.stopped,sound_2.started,sound_2.stopped,image_blank_1.started,image_blank_1.stopped,key_press.started,key_press.stopped,fixation_text.started,cue_file2.started,cue_file2.stopped,image_3.started,image_3.stopped,image_4.started,image_4.stopped,sound_icon3.started,sound_icon3.stopped,sound_3.started,sound_3.stopped,sound_icon4.started,sound_icon4.stopped,sound_4.started,sound_4.stopped,response_yes.started,response_yes.stopped,response_no.started,response_no.stopped,iti_blank.started,iti_blank.stopped,fixation_text.stopped,key_press.keys,key_press.corr,key_press.rt,participant,session,date,expName,psychopyVersion,frameRate,
,,,,,,,,,,,,,,,,,,,,,,,,,,,,,,,,,,,,,,,,,,,,,,,,,,,,10.35168062500452,10.35168062500452,2,0.7167579170054523,,,,,,,,,,,,,,,,,,,,,,,,,,,,,,,,,,,,,,,,,,,,,,,,reldom2_s036,001,2025-03-14_12h53.47.666,Vis-A-Scan_AC,2022.2.5,None,
,,,,,,,,,,,,,,,,,,,,,,,,,,,,,,,,,,,,,,,,,,,,0,0,0,0,,,,,,,,,11.100834958000632,11.100834958000632,5,17.126433208999515,,,,,,,,,,,,,,,,,,,,,,,,,,,,,,,,,,,,,,,,,,,,reldom2_s036,001,2025-03-14_12h53.47.666,Vis-A-Scan_AC,2022.2.5,None,
,,,,,,,,,,,,,,,,,,,,,,,,,,,,,,,,,,,,,,,,,,,,1,0,1,0,,,,,,,,,28.246547500006272,28.246547500006272,5,1.980879416994867,,,,,,,,,,,,,,,,,,,,,,,,,,,,,,,,,,,,,,,,,,,,reldom2_s036,001,2025-03-14_12h53.47.666,Vis-A-Scan_AC,2022.2.5,None,
,,,,,,,,,,,,,,,,,,,,,,,,,,,,,,,,,,,,,,,,,,,,2,0,2,0,,,,,,,,,30.24620000000141,30.24620000000141,5,1.9809200839954428,,,,,,,,,,,,,,,,,,,,,,,,,,,,,,,,,,,,,,,,,,,,reldom2_s036,001,2025-03-14_12h53.47.666,Vis-A-Scan_AC,2022.2.5,None,
,,,,,,,,,,,,,,,,,,,,,,,,,,,,,,,,,,,,,,,,,,,,3,0,3,0,,,,,,,,,32.23497933300678,32.23497933300678,5,1.992272834002506,,,,,,,,,,,,,,,,,,,,,,,,,,,,,,,,,,,,,,,,,,,,reldom2_s036,001,2025-03-14_12h53.47.666,Vis-A-Scan_AC,2022.2.5,None,
0,0.0,None,fixation,stimulus/viswhat_stim/blank_white.png,stimulus/viswhat_stim/blank_white.png,stimulus/viswhere_stim/blank_white.png,stimulus/viswhere_stim/blank_white.png,stimulus/viswhat_stim/blank_white.png,stimulus/viswhat_stim/blank_white.png,stimulus/viswhat_stim/blank_white.png,stimulus/viswhat_stim/blank_white.png,0.0,0.0,0.0,0.0,0,0.0,0,0.0,0,0.0,0,0.0,0,0.0,0.0,0,0.0,0,0.0,0,0.0,0,0.0,0,0,0,0,0,0,0,0,16,,,,,0,0,0,0,,,,,,,,,34.451972375005425,34.451972375005425,34.451972375005425,34.451972375005425,34.451972375005425,34.451972375005425,34.451972375005425,34.451972375005425,34.35085654166857,34.451972375005425,34.451972375005425,34.451972375005425,34.35085654166857,34.451972375005425,34.451972375005425,34.451972375005425,34.451972375005425,34.451972375005425,34.451972375005425,34.451972375005425,34.451972375005425,34.451972375005425,34.451972375005425,34.451972375005425,34.451972375005425,34.451972375005425,34.451972375005425,34.40085654166857,34.451972375005425,34.451972375005425,34.451972375005425,34.40085654166857,34.451972375005425,34.451972375005425,34.451972375005425,34.451972375005425,34.451972375005425,39.62774154100043,39.62774154100043,50.70844270800444,None,0,,reldom2_s036,001,2025-03-14_12h53.47.666,Vis-A-Scan_AC,2022.2.5,None,
1,First_Order,1.0,viswhat,stimulus/viswhat_stim/blank_white.png,stimulus/viswhat_stim/blank_white.png,stimulus/viswhat_stim/land_animal-moose.png,stimulus/viswhat_stim/water_animal-seaturtle.png,stimulus/viswhat_stim/blank_white.png,stimulus/viswhat_stim/type_box.png,stimulus/viswhat_stim/type_yes.png,stimulus/viswhat_stim/type_no.png,None,Type,None,Type,1,0.0,0,5.125,0,5.125,0,5.125,0,0.0,0.625,0,0.0,0,0.0,1,0.5,1,2.125,0,0,0,0,0,0,0,0,0,,,,,0,1,1,1,,,,,,,,,50.70844270800444,50.70844270800444,50.70844270800444,50.70844270800444,50.70844270800444,50.70844270800444,50.70844270800444,50.70844270800444,50.61049404100631,50.70844270800444,50.70844270800444,50.70844270800444,50.61049404100631,50.70844270800444,50.70844270800444,50.70844270800444,52.768440333005856,56.784624666004675,50.70844270800444,50.70844270800444,55.91376233300252,51.16782429100567,52.255953040999884,52.768440333005856,53.856821208006295,50.70844270800444,50.70844270800444,50.66049404100631,50.70844270800444,50.70844270800444,50.70844270800444,50.66049404100631,50.70844270800444,50.70844270800444,55.91376233300252,50.70844270800444,55.91376233300252,55.91376233300252,56.59060612500616,50.70844270800444,1,1,1.0696894180000527,reldom2_s036,001,2025-03-14_12h53.47.666,Vis-A-Scan_AC,2022.2.5,None,
2,First_Order,1.0,viswhat,stimulus/viswhat_stim/blank_white.png,stimulus/viswhat_stim/blank_white.png,stimulus/viswhat_stim/water_vehicle-submarine.png,stimulus/viswhat_stim/land_vehicle-firetruck.png,stimulus/viswhat_stim/blank_white.png,stimulus/viswhat_stim/type_box.png,stimulus/viswhat_stim/type_yes.png,stimulus/viswhat_stim/type_no.png,None,Type,None,Type,1,0.0,0,5.125,0,5.125,0,5.125,0,0.0,0.625,0,0.0,0,0.0,1,0.5,1,2.125,0,0,0,0,0,0,0,0,0,,,,,0,2,2,2,,,,,,,,,56.784624666004675,56.784624666004675,56.784624666004675,56.784624666004675,56.784624666004675,56.784624666004675,56.784624666004675,56.784624666004675,56.74060612500616,56.784624666004675,56.784624666004675,56.784624666004675,56.74060612500616,56.784624666004675,56.784624666004675,56.784624666004675,58.884491208002146,62.875596708006924,56.784624666004675,56.784624666004675,61.92901070800144,57.26394508300291,58.27803225000389,58.884491208002146,59.90298787500069,56.784624666004675,56.784624666004675,56.77393945833949,56.784624666004675,56.784624666004675,56.784624666004675,56.77393945833949,56.784624666004675,56.784624666004675,61.92901070800144,56.784624666004675,61.92901070800144,62.00800850000087,62.64618524999969,56.784624666004675,1,1,0.977471209000214,reldom2_s036,001,2025-03-14_12h53.47.666,Vis-A-Scan_AC,2022.2.5,None,
3,First_Order,1.0,viswhat,stimulus/viswhat_stim/blank_white.png,stimulus/viswhat_stim/blank_white.png,stimulus/viswhat_stim/water_vehicle-kayak.png,stimulus/viswhat_stim/land_vehicle-vespa.png,stimulus/viswhat_stim/blank_white.png,stimulus/viswhat_stim/location_box.png,stimulus/viswhat_stim/location_yes.png,stimulus/viswhat_stim/location_no.png,None,Location,None,Type,2,0.0,0,5.125,0,5.125,0,5.125,0,0.0,0.625,0,0.0,0,0.0,1,0.5,1,2.125,0,0,0,0,0,0,0,0,0,,,,,0,3,3,3,,,,,,,,,62.875596708006924,62.875596708006924,62.875596708006924,62.875596708006924,62.875596708006924,62.875596708006924,62.875596708006924,62.875596708006924,62.82512962500332,62.875596708006924,62.875596708006924,62.875596708006924,62.82512962500332,62.875596708006924,62.875596708006924,62.875596708006924,64.97202875000221,,62.875596708006924,62.875596708006924,68.01888375000271,63.343900708001456,64.3938384580033,64.97202875000221,66.02658333300496,62.875596708006924,62.875596708006924,62.841796291669986,62.875596708006924,62.875596708006924,62.875596708006924,62.841796291669986,62.875596708006924,62.875596708006924,68.01888375000271,62.875596708006924,68.01888375000271,68.08054029100458,68.72387062500638,62.875596708006924,2,1,1.0158647089992883,reldom2_s036,001,2025-03-14_12h53.47.666,Vis-A-Scan_AC,2022.2.5,None,
4,First_Order,1.0,viswhat,stimulus/viswhat_stim/blank_white.png,stimulus/viswhat_stim/blank_white.png,stimulus/viswhat_stim/water_vehicle-pirateship.png,stimulus/viswhat_stim/land_vehicle-buldozer.png,stimulus/viswhat_stim/blank_white.png,stimulus/viswhat_stim/location_box.png,stimulus/viswhat_stim/location_yes.png,stimulus/viswhat_stim/location_no.png,None,Location,None,Type,2,0.0,0,5.125,0,5.125,0,5.125,0,0.0,0.625,0,0.0,0,0.0,1,0.5,1,2.125,0,0,0,0,0,0,0,0,0,,,,,0,4,4,4,,,,,,,,,68.95195341600629,68.95195341600629,68.95195341600629,68.95195341600629,68.95195341600629,68.95195341600629,68.95195341600629,68.95195341600629,68.90168612466901,68.95195341600629,68.95195341600629,68.95195341600629,68.90168612466901,68.95195341600629,68.95195341600629,68.95195341600629,71.05386341600388,75.08416212500015,68.95195341600629,68.95195341600629,74.11169958300161,69.4263202910006,70.44638670800487,71.05386341600388,72.07527187500091,68.95195341600629,68.95195341600629,68.91835279133568,68.95195341600629,68.95195341600629,68.95195341600629,68.91835279133568,68.95195341600629,68.95195341600629,74.11169958300161,68.95195341600629,74.11169958300161,74.16849233300309,74.82130025000515,68.95195341600629,2,1,1.0601240429969039,reldom2_s036,001,2025-03-14_12h53.47.666,Vis-A-Scan_AC,2022.2.5,None,
0,0.0,None,fixation,stimulus/viswhat_stim/blank_white.png,stimulus/viswhat_stim/blank_white.png,stimulus/viswhere_stim/blank_white.png,stimulus/viswhere_stim/blank_white.png,stimulus/viswhat_stim/blank_white.png,stimulus/viswhat_stim/blank_white.png,stimulus/viswhat_stim/blank_white.png,stimulus/viswhat_stim/blank_white.png,0.0,0.0,0.0,0.0,0,0.0,0,0.0,0,0.0,0,0.0,0,0.0,0.0,0,0.0,0,0.0,0,0.0,0,0.0,0,0,0,0,0,0,0,0,9,,,,,0,5,5,5,,,,,,,,,75.08416212500015,75.08416212500015,75.08416212500015,75.08416212500015,75.08416212500015,75.08416212500015,75.08416212500015,75.08416212500015,74.99482320766934,75.08416212500015,75.08416212500015,75.08416212500015,74.99482320766934,75.08416212500015,75.08416212500015,75.08416212500015,75.08416212500015,75.08416212500015,75.08416212500015,75.08416212500015,75.08416212500015,75.08416212500015,75.08416212500015,75.08416212500015,75.08416212500015,75.08416212500015,75.08416212500015,75.04482320766935,75.08416212500015,75.08416212500015,75.08416212500015,75.04482320766935,75.08416212500015,75.08416212500015,75.08416212500015,75.08416212500015,75.08416212500015,80.28620700000465,80.28620700000465,84.25636275000579,None,0,,reldom2_s036,001,2025-03-14_12h53.47.666,Vis-A-Scan_AC,2022.2.5,None,
5,Second_Order,1.0,viswhat,stimulus/viswhat_stim/water_vehicle-cruiser.png,stimulus/viswhat_stim/land_vehicle-pickuptruck.png,stimulus/viswhat_stim/land_animal-snake.png,stimulus/viswhat_stim/land_vehicle-trolley.png,stimulus/viswhat_stim/match_blank.png,stimulus/viswhat_stim/match_box.png,stimulus/viswhat_stim/match_yes.png,stimulus/viswhat_stim/match_no.png,2.0,Match,Type,Location,2,5.125,0,5.125,0,5.125,0,5.125,0,0.75,0.75,1,0.5,1,2.125,1,0.5,1,2.125,0,0,0,0,0,0,0,0,0,,,,,0,6,6,6,,,,,,,,,84.25636275000579,89.37823933300388,84.68612287500582,85.67322625000088,86.30855054100539,87.30678812500264,84.25636275000579,84.25636275000579,84.27002912433721,84.25636275000579,84.25636275000579,84.25636275000579,84.27002912433721,84.25636275000579,89.37823933300388,90.1817702910048,92.2626792910014,96.15163629100425,90.1817702910048,90.1817702910048,95.31185454100341,90.63073250000161,91.65728525000304,92.2626792910014,93.27456991600047,90.1817702910048,90.1817702910048,90.16327329100459,90.1817702910048,90.1817702910048,90.1817702910048,90.16327329100459,90.1817702910048,90.1817702910048,95.31185454100341,90.1817702910048,95.31185454100341,95.37930037500337,,90.1817702910048,2,1,1.0538461670003016,reldom2_s036,001,2025-03-14_12h53.47.666,Vis-A-Scan_AC,2022.2.5,None,
6,Second_Order,1.0,viswhat,stimulus/viswhat_stim/land_vehicle-firetruck.png,stimulus/viswhat_stim/land_animal-dog.png,stimulus/viswhat_stim/water_animal-seaturtle.png,stimulus/viswhat_stim/water_vehicle-sailboat.png,stimulus/viswhat_stim/match_blank.png,stimulus/viswhat_stim/match_box.png,stimulus/viswhat_stim/match_yes.png,stimulus/viswhat_stim/match_no.png,1.0,Match,Location,Location,1,5.125,0,5.125,0,5.125,0,5.125,0,0.625,0.625,1,0.5,1,2.125,1,0.5,1,2.125,0,0,0,0,0,0,0,0,0,,,,,0,7,7,7,,,,,,,,,96.15163629100425,101.27674570800446,96.63230933300656,97.63029495800583,98.2524867500033,99.25110462500015,96.15163629100425,96.15163629100425,96.15264458300662,96.15163629100425,96.15163629100425,96.15163629100425,96.15264458300662,96.15163629100425,101.27674570800446,102.022930541003,104.09173762499995,,102.022930541003,102.022930541003,107.21308766600123,102.43563291600003,103.47131820800132,104.09173762499995,105.13308954100648,102.022930541003,102.022930541003,101.97348783333776,102.022930541003,102.022930541003,102.022930541003,101.97348783333776,102.022930541003,102.022930541003,107.21308766600123,102.022930541003,107.21308766600123,107.21308766600123,108.10732008300693,102.022930541003,1,1,1.2231524589951732,reldom2_s036,001,2025-03-14_12h53.47.666,Vis-A-Scan_AC,2022.2.5,None,
0,0.0,None,fixation,stimulus/viswhat_stim/blank_white.png,stimulus/viswhat_stim/blank_white.png,stimulus/viswhere_stim/blank_white.png,stimulus/viswhere_stim/blank_white.png,stimulus/viswhat_stim/blank_white.png,stimulus/viswhat_stim/blank_white.png,stimulus/viswhat_stim/blank_white.png,stimulus/viswhat_stim/blank_white.png,0.0,0.0,0.0,0.0,0,0.0,0,0.0,0,0.0,0,0.0,0,0.0,0.0,0,0.0,0,0.0,0,0.0,0,0.0,0,0,0,0,0,0,0,0,9,,,,,0,8,8,8,,,,,,,,,108.10732008300693,108.10732008300693,108.10732008300693,108.10732008300693,108.10732008300693,108.10732008300693,108.10732008300693,108.10732008300693,108.01103745800211,108.10732008300693,108.10732008300693,108.10732008300693,108.01103745800211,108.10732008300693,108.10732008300693,108.10732008300693,108.10732008300693,108.10732008300693,108.10732008300693,108.10732008300693,108.10732008300693,108.10732008300693,108.10732008300693,108.10732008300693,108.10732008300693,108.10732008300693,108.10732008300693,108.0610374580021,108.10732008300693,108.10732008300693,108.10732008300693,108.0610374580021,108.10732008300693,108.10732008300693,108.10732008300693,108.10732008300693,108.10732008300693,113.2968604580019,113.2968604580019,117.35579808300099,None,0,,reldom2_s036,001,2025-03-14_12h53.47.666,Vis-A-Scan_AC,2022.2.5,None,
7,First_Order,2.0,viswhat,stimulus/viswhat_stim/blank_white.png,stimulus/viswhat_stim/blank_white.png,stimulus/viswhat_stim/water_vehicle-ship.png,stimulus/viswhat_stim/water_animal-stingray.png,stimulus/viswhat_stim/blank_white.png,stimulus/viswhat_stim/type_box.png,stimulus/viswhat_stim/type_yes.png,stimulus/viswhat_stim/type_no.png,None,Type,None,Location,2,0.0,0,5.125,0,5.125,0,5.125,0,0.0,0.625,0,0.0,0,0.0,1,0.5,1,2.125,0,0,0,0,0,0,0,0,0,,,,,0,9,9,9,,,,,,,,,117.35579808300099,117.35579808300099,117.35579808300099,117.35579808300099,117.35579808300099,117.35579808300099,117.35579808300099,117.35579808300099,117.26600783266865,117.35579808300099,117.35579808300099,117.35579808300099,117.26600783266865,117.35579808300099,117.35579808300099,117.35579808300099,119.4466244580035,,117.35579808300099,117.35579808300099,122.52168912500201,117.79807237500063,118.84435833300086,119.4466244580035,120.49063050000404,117.35579808300099,117.35579808300099,117.31600783266865,117.35579808300099,117.35579808300099,117.35579808300099,117.31600783266865,117.35579808300099,117.35579808300099,122.52168912500201,117.35579808300099,122.52168912500201,122.57061470800545,123.39253529100097,117.35579808300099,2,1,0.991249250000692,reldom2_s036,001,2025-03-14_12h53.47.666,Vis-A-Scan_AC,2022.2.5,None,
8,First_Order,2.0,viswhat,stimulus/viswhat_stim/blank_white.png,stimulus/viswhat_stim/blank_white.png,stimulus/viswhat_stim/land_vehicle-train.png,stimulus/viswhat_stim/land_animal-fox.png,stimulus/viswhat_stim/blank_white.png,stimulus/viswhat_stim/type_box.png,stimulus/viswhat_stim/type_yes.png,stimulus/viswhat_stim/type_no.png,None,Type,None,Location,2,0.0,0,5.125,0,5.125,0,5.125,0,0.0,0.625,0,0.0,0,0.0,1,0.5,1,2.125,0,0,0,0,0,0,0,0,0,,,,,0,10,10,10,,,,,,,,,123.39253529100097,123.39253529100097,123.39253529100097,123.39253529100097,123.39253529100097,123.39253529100097,123.39253529100097,123.39253529100097,123.36007174999978,123.39253529100097,123.39253529100097,123.39253529100097,123.36007174999978,123.39253529100097,123.39253529100097,123.39253529100097,125.50320708300569,129.5037607080012,123.39253529100097,123.39253529100097,128.525453166003,123.86646016600571,124.87892541600013,125.50320708300569,126.51965850000124,123.39253529100097,123.39253529100097,123.37673841666644,123.39253529100097,123.39253529100097,123.39253529100097,123.37673841666644,123.39253529100097,123.39253529100097,128.525453166003,123.39253529100097,128.525453166003,128.62027845800185,129.25511270800052,123.39253529100097,2,1,1.4179505009960849,reldom2_s036,001,2025-03-14_12h53.47.666,Vis-A-Scan_AC,2022.2.5,None,
9,First_Order,2.0,viswhat,stimulus/viswhat_stim/blank_white.png,stimulus/viswhat_stim/blank_white.png,stimulus/viswhat_stim/land_animal-lion.png,stimulus/viswhat_stim/land_vehicle-bus.png,stimulus/viswhat_stim/blank_white.png,stimulus/viswhat_stim/location_box.png,stimulus/viswhat_stim/location_yes.png,stimulus/viswhat_stim/location_no.png,None,Location,None,Location,1,0.0,0,5.125,0,5.125,0,5.125,0,0.0,0.625,0,0.0,0,0.0,1,0.5,1,2.125,0,0,0,0,0,0,0,0,0,,,,,0,11,11,11,,,,,,,,,129.5037607080012,129.5037607080012,129.5037607080012,129.5037607080012,129.5037607080012,129.5037607080012,129.5037607080012,129.5037607080012,129.43886454133948,129.5037607080012,129.5037607080012,129.5037607080012,129.43886454133948,129.5037607080012,129.5037607080012,129.5037607080012,131.60678337500576,135.65954908300046,129.5037607080012,129.5037607080012,134.67160758300452,129.96405583300657,130.99795200000517,131.60678337500576,132.64603712500684,129.5037607080012,129.5037607080012,129.47219787467282,129.5037607080012,129.5037607080012,129.5037607080012,129.47219787467282,129.5037607080012,129.5037607080012,134.67160758300452,129.5037607080012,134.67160758300452,134.70454804100154,135.3531528750027,129.5037607080012,1,1,0.9199117929965723,reldom2_s036,001,2025-03-14_12h53.47.666,Vis-A-Scan_AC,2022.2.5,None,
10,First_Order,2.0,viswhat,stimulus/viswhat_stim/blank_white.png,stimulus/viswhat_stim/blank_white.png,stimulus/viswhat_stim/land_animal-elephant.png,stimulus/viswhat_stim/land_vehicle-motorcycle.png,stimulus/viswhat_stim/blank_white.png,stimulus/viswhat_stim/location_box.png,stimulus/viswhat_stim/location_yes.png,stimulus/viswhat_stim/location_no.png,None,Location,None,Location,1,0.0,0,5.125,0,5.125,0,5.125,0,0.0,0.625,0,0.0,0,0.0,1,0.5,1,2.125,0,0,0,0,0,0,0,0,0,,,,,0,12,12,12,,,,,,,,,135.65954908300046,135.65954908300046,135.65954908300046,135.65954908300046,135.65954908300046,135.65954908300046,135.65954908300046,135.65954908300046,135.53523016666975,135.65954908300046,135.65954908300046,135.65954908300046,135.53523016666975,135.65954908300046,135.65954908300046,135.65954908300046,137.73330445800093,,135.65954908300046,135.65954908300046,140.87668233300064,136.1270100410038,137.1999582500066,137.73330445800093,138.8060108750069,135.65954908300046,135.65954908300046,135.6018968333364,135.65954908300046,135.65954908300046,135.65954908300046,135.6018968333364,135.65954908300046,135.65954908300046,140.87668233300064,135.65954908300046,140.87668233300064,140.87668233300064,141.7643519580015,135.65954908300046,1,1,1.3866560000024037,reldom2_s036,001,2025-03-14_12h53.47.666,Vis-A-Scan_AC,2022.2.5,None,
0,0.0,None,fixation,stimulus/viswhat_stim/blank_white.png,stimulus/viswhat_stim/blank_white.png,stimulus/viswhere_stim/blank_white.png,stimulus/viswhere_stim/blank_white.png,stimulus/viswhat_stim/blank_white.png,stimulus/viswhat_stim/blank_white.png,stimulus/viswhat_stim/blank_white.png,stimulus/viswhat_stim/blank_white.png,0.0,0.0,0.0,0.0,0,0.0,0,0.0,0,0.0,0,0.0,0,0.0,0.0,0,0.0,0,0.0,0,0.0,0,0.0,0,0,0,0,0,0,0,0,10,,,,,0,13,13,13,,,,,,,,,141.7643519580015,141.7643519580015,141.7643519580015,141.7643519580015,141.7643519580015,141.7643519580015,141.7643519580015,141.7643519580015,141.67324112433465,141.7643519580015,141.7643519580015,141.7643519580015,141.67324112433465,141.7643519580015,141.7643519580015,141.7643519580015,141.7643519580015,141.7643519580015,141.7643519580015,141.7643519580015,141.7643519580015,141.7643519580015,141.7643519580015,141.7643519580015,141.7643519580015,141.7643519580015,141.7643519580015,141.72324112433466,141.7643519580015,141.7643519580015,141.7643519580015,141.72324112433466,141.7643519580015,141.7643519580015,141.7643519580015,141.7643519580015,141.7643519580015,146.9562145000018,146.9562145000018,151.91683800000465,None,0,,reldom2_s036,001,2025-03-14_12h53.47.666,Vis-A-Scan_AC,2022.2.5,None,
11,Second_Order,2.0,viswhat,stimulus/viswhat_stim/water_vehicle-cabincruiser.png,stimulus/viswhat_stim/land_vehicle-scooter.png,stimulus/viswhat_stim/land_animal-giraffe.png,stimulus/viswhat_stim/water_animal-squid.png,stimulus/viswhat_stim/match_blank.png,stimulus/viswhat_stim/match_box.png,stimulus/viswhat_stim/match_yes.png,stimulus/viswhat_stim/match_no.png,1.0,Match,Type,Type,1,5.125,0,5.125,0,5.125,0,5.125,0,0.75,0.75,1,0.5,1,2.125,1,0.5,1,2.125,0,0,0,0,0,0,0,0,0,,,,,0,14,14,14,,,,,,,,,151.91683800000465,157.0403746660013,152.37724179100042,153.37606687500374,154.01081837500533,154.99947145800252,151.91683800000465,151.91683800000465,151.91819208333814,151.91683800000465,151.91683800000465,151.91683800000465,151.91819208333814,151.91683800000465,157.0403746660013,157.92172279100487,159.99219241600076,,157.92172279100487,157.92172279100487,163.10562058300275,158.35707562500465,159.4479297910002,159.99219241600076,161.0358134160051,157.92172279100487,157.92172279100487,157.86943395833563,157.92172279100487,157.92172279100487,157.92172279100487,157.86943395833563,157.92172279100487,157.92172279100487,163.10562058300275,157.92172279100487,163.10562058300275,163.10562058300275,,157.92172279100487,1,1,0.9084590429993114,reldom2_s036,001,2025-03-14_12h53.47.666,Vis-A-Scan_AC,2022.2.5,None,
12,Second_Order,2.0,viswhat,stimulus/viswhat_stim/land_animal-bunny.png,stimulus/viswhat_stim/land_vehicle-shortbus.png,stimulus/viswhat_stim/water_vehicle-sailboat.png,stimulus/viswhat_stim/water_animal-whale.png,stimulus/viswhat_stim/match_blank.png,stimulus/viswhat_stim/match_box.png,stimulus/viswhat_stim/match_yes.png,stimulus/viswhat_stim/match_no.png,1.0,Match,Location,Location,1,5.125,0,5.125,0,5.125,0,5.125,0,0.625,0.625,1,0.5,1,2.125,1,0.5,1,2.125,0,0,0,0,0,0,0,0,0,,,,,0,15,15,15,,,,,,,,,163.8848966660007,169.00114195800415,164.33460566600115,165.32429420800327,165.9594920410018,166.95751949999976,163.8848966660007,163.8848966660007,163.89246070800291,163.8848966660007,163.8848966660007,163.8848966660007,163.89246070800291,163.8848966660007,169.00114195800415,169.74477033300354,171.80528283300373,175.8507815000048,169.74477033300354,169.74477033300354,174.90901725000003,170.1556167910021,171.24077633300476,171.80528283300373,172.8448720410015,169.74477033300354,169.74477033300354,169.69691112433551,169.74477033300354,169.74477033300354,169.74477033300354,169.69691112433551,169.74477033300354,169.74477033300354,174.90901725000003,169.74477033300354,174.90901725000003,174.90901725000003,175.6029811660046,169.74477033300354,1,1,0.7793356679976569,reldom2_s036,001,2025-03-14_12h53.47.666,Vis-A-Scan_AC,2022.2.5,None,
0,0.0,None,fixation,stimulus/viswhat_stim/blank_white.png,stimulus/viswhat_stim/blank_white.png,stimulus/viswhere_stim/blank_white.png,stimulus/viswhere_stim/blank_white.png,stimulus/viswhat_stim/blank_white.png,stimulus/viswhat_stim/blank_white.png,stimulus/viswhat_stim/blank_white.png,stimulus/viswhat_stim/blank_white.png,0.0,0.0,0.0,0.0,0,0.0,0,0.0,0,0.0,0,0.0,0,0.0,0.0,0,0.0,0,0.0,0,0.0,0,0.0,0,0,0,0,0,0,0,0,9,,,,,0,16,16,16,,,,,,,,,175.8507815000048,175.8507815000048,175.8507815000048,175.8507815000048,175.8507815000048,175.8507815000048,175.8507815000048,175.8507815000048,175.75298116600462,175.8507815000048,175.8507815000048,175.8507815000048,175.75298116600462,175.8507815000048,175.8507815000048,175.8507815000048,175.8507815000048,175.8507815000048,175.8507815000048,175.8507815000048,175.8507815000048,175.8507815000048,175.8507815000048,175.8507815000048,175.8507815000048,175.8507815000048,175.8507815000048,175.80298116600463,175.8507815000048,175.8507815000048,175.8507815000048,175.80298116600463,175.8507815000048,175.8507815000048,175.8507815000048,175.8507815000048,175.8507815000048,181.03740979100257,181.03740979100257,185.06068987500475,None,0,,reldom2_s036,001,2025-03-14_12h53.47.666,Vis-A-Scan_AC,2022.2.5,None,
13,First_Order,3.0,viswhere,stimulus/viswhere_stim/blank_white.png,stimulus/viswhere_stim/blank_white.png,stimulus/viswhere_stim/90-deg_dot-left_slateblue.png,stimulus/viswhere_stim/120-deg_dot-left_slateblue.png,stimulus/viswhere_stim/blank_white.png,stimulus/viswhere_stim/dot_box.png,stimulus/viswhere_stim/dot_yes.png,stimulus/viswhere_stim/dot_no.png,None,Dot,None,Dot,1,0.0,0,5.125,0,5.125,0,5.125,0,0.0,0.625,0,0.0,0,0.0,1,0.5,1,2.125,0,0,0,0,0,0,0,0,0,,,,,0,17,17,17,,,,,,,,,185.06068987500475,185.06068987500475,185.06068987500475,185.06068987500475,185.06068987500475,185.06068987500475,185.06068987500475,185.06068987500475,185.0424430416703,185.06068987500475,185.06068987500475,185.06068987500475,185.0424430416703,185.06068987500475,185.06068987500475,185.06068987500475,187.1649284580053,191.12666958300542,185.06068987500475,185.06068987500475,190.19588333300635,185.5351806250037,186.54175883300195,187.1649284580053,188.1779630000019,185.06068987500475,185.06068987500475,185.0424430416703,185.06068987500475,185.06068987500475,185.06068987500475,185.0424430416703,185.06068987500475,185.06068987500475,190.19588333300635,185.06068987500475,190.19588333300635,190.27946720800537,190.90847479100194,185.06068987500475,1,1,0.8984135840000818,reldom2_s036,001,2025-03-14_12h53.47.666,Vis-A-Scan_AC,2022.2.5,None,
14,First_Order,3.0,viswhere,stimulus/viswhere_stim/blank_white.png,stimulus/viswhere_stim/blank_white.png,stimulus/viswhere_stim/30-deg_dot-left_royalblue.png,stimulus/viswhere_stim/30-deg_dot-right_peru.png,stimulus/viswhere_stim/blank_white.png,stimulus/viswhere_stim/dot_box.png,stimulus/viswhere_stim/dot_yes.png,stimulus/viswhere_stim/dot_no.png,None,Dot,None,Line,2,0.0,0,5.125,0,5.125,0,5.125,0,0.0,0.625,0,0.0,0,0.0,1,0.5,1,2.125,0,0,0,0,0,0,0,0,0,,,,,0,18,18,18,,,,,,,,,191.12666958300542,191.12666958300542,191.12666958300542,191.12666958300542,191.12666958300542,191.12666958300542,191.12666958300542,191.12666958300542,191.10637820833412,191.12666958300542,191.12666958300542,191.12666958300542,191.10637820833412,191.12666958300542,191.12666958300542,191.12666958300542,193.23190320800495,197.193755625005,191.12666958300542,191.12666958300542,196.25768475000223,191.60001241600548,192.60728525000013,193.23190320800495,194.24267275000602,191.12666958300542,191.12666958300542,191.1230448750008,191.12666958300542,191.12666958300542,191.12666958300542,191.1230448750008,191.12666958300542,191.12666958300542,196.25768475000223,191.12666958300542,196.25768475000223,196.35466695800278,196.98921462500584,191.12666958300542,2,1,1.007353125998634,reldom2_s036,001,2025-03-14_12h53.47.666,Vis-A-Scan_AC,2022.2.5,None,
15,First_Order,3.0,viswhere,stimulus/viswhere_stim/blank_white.png,stimulus/viswhere_stim/blank_white.png,stimulus/viswhere_stim/150-deg_dot-right_turquoise.png,stimulus/viswhere_stim/150-deg_dot-left_cyan.png,stimulus/viswhere_stim/blank_white.png,stimulus/viswhere_stim/line_box.png,stimulus/viswhere_stim/line_yes.png,stimulus/viswhere_stim/line_no.png,None,Line,None,Line,1,0.0,0,5.125,0,5.125,0,5.125,0,0.0,0.625,0,0.0,0,0.0,1,0.5,1,2.125,0,0,0,0,0,0,0,0,0,,,,,0,19,19,19,,,,,,,,,197.193755625005,197.193755625005,197.193755625005,197.193755625005,197.193755625005,197.193755625005,197.193755625005,197.193755625005,197.17315558333698,197.193755625005,197.193755625005,197.193755625005,197.17315558333698,197.193755625005,197.193755625005,197.193755625005,199.29491312500613,203.26057475000562,197.193755625005,197.193755625005,202.32461512500595,197.67616454100062,198.68071275000693,199.29491312500613,200.30159854100202,197.193755625005,197.193755625005,197.18982225000366,197.193755625005,197.193755625005,197.193755625005,197.18982225000366,197.193755625005,197.193755625005,202.32461512500595,197.193755625005,202.32461512500595,202.4130196660044,203.05658304100507,197.193755625005,1,1,1.2250182930001756,reldom2_s036,001,2025-03-14_12h53.47.666,Vis-A-Scan_AC,2022.2.5,None,
16,First_Order,3.0,viswhere,stimulus/viswhere_stim/blank_white.png,stimulus/viswhere_stim/blank_white.png,stimulus/viswhere_stim/120-deg_dot-right_mediumslateblue.png,stimulus/viswhere_stim/150-deg_dot-right_royalblue.png,stimulus/viswhere_stim/blank_white.png,stimulus/viswhere_stim/line_box.png,stimulus/viswhere_stim/line_yes.png,stimulus/viswhere_stim/line_no.png,None,Line,None,Dot,2,0.0,0,5.125,0,5.125,0,5.125,0,0.0,0.625,0,0.0,0,0.0,1,0.5,1,2.125,0,0,0,0,0,0,0,0,0,,,,,0,20,20,20,,,,,,,,,203.26057475000562,203.26057475000562,203.26057475000562,203.26057475000562,203.26057475000562,203.26057475000562,203.26057475000562,203.26057475000562,203.2400386243365,203.26057475000562,203.26057475000562,203.26057475000562,203.2400386243365,203.26057475000562,203.26057475000562,203.26057475000562,205.36492912500398,209.40312383300625,203.26057475000562,203.26057475000562,208.39834483300365,203.737916666003,204.75393708300544,205.36492912500398,206.36734170800628,203.26057475000562,203.26057475000562,203.2567052910032,203.26057475000562,203.26057475000562,203.26057475000562,203.2567052910032,203.26057475000562,203.26057475000562,208.39834483300365,203.26057475000562,208.39834483300365,208.48602029100584,209.11134358300478,203.26057475000562,2,1,1.259733167993545,reldom2_s036,001,2025-03-14_12h53.47.666,Vis-A-Scan_AC,2022.2.5,None,
0,0.0,None,fixation,stimulus/viswhat_stim/blank_white.png,stimulus/viswhat_stim/blank_white.png,stimulus/viswhere_stim/blank_white.png,stimulus/viswhere_stim/blank_white.png,stimulus/viswhat_stim/blank_white.png,stimulus/viswhat_stim/blank_white.png,stimulus/viswhat_stim/blank_white.png,stimulus/viswhat_stim/blank_white.png,0.0,0.0,0.0,0.0,0,0.0,0,0.0,0,0.0,0,0.0,0,0.0,0.0,0,0.0,0,0.0,0,0.0,0,0.0,0,0,0,0,0,0,0,0,8,,,,,0,21,21,21,,,,,,,,,209.40312383300625,209.40312383300625,209.40312383300625,209.40312383300625,209.40312383300625,209.40312383300625,209.40312383300625,209.40312383300625,209.30640849933602,209.40312383300625,209.40312383300625,209.40312383300625,209.30640849933602,209.40312383300625,209.40312383300625,209.40312383300625,209.40312383300625,209.40312383300625,209.40312383300625,209.40312383300625,209.40312383300625,209.40312383300625,209.40312383300625,209.40312383300625,209.40312383300625,209.40312383300625,209.40312383300625,209.35640849933603,209.40312383300625,209.40312383300625,209.40312383300625,209.35640849933603,209.40312383300625,209.40312383300625,209.40312383300625,209.40312383300625,209.40312383300625,214.62808954100183,214.62808954100183,217.51254200000403,None,0,,reldom2_s036,001,2025-03-14_12h53.47.666,Vis-A-Scan_AC,2022.2.5,None,
17,Second_Order,3.0,viswhere,stimulus/viswhere_stim/60-deg_dot-right_seagreen.png,stimulus/viswhere_stim/150-deg_dot-right_seagreen.png,stimulus/viswhere_stim/90-deg_dot-right_salmon.png,stimulus/viswhere_stim/90-deg_dot-left_seagreen.png,stimulus/viswhat_stim/match_blank.png,stimulus/viswhat_stim/match_box.png,stimulus/viswhat_stim/match_yes.png,stimulus/viswhat_stim/match_no.png,2.0,Match,Dot,Line,2,5.125,0,5.125,0,5.125,0,5.125,0,0.75,0.75,1,0.5,1,2.125,1,0.5,1,2.125,0,0,0,0,0,0,0,0,0,,,,,0,22,22,22,,,,,,,,,217.51254200000403,222.63589454100293,217.99633658300445,218.9941281660067,219.61660604100325,220.61477591600124,217.51254200000403,217.51254200000403,217.52660879133524,217.51254200000403,217.51254200000403,217.51254200000403,217.52660879133524,217.51254200000403,222.63589454100293,223.43309054100246,225.5039631250038,229.37115225000161,223.43309054100246,223.43309054100246,228.5553853330057,223.87703633300407,224.8920592909999,225.5039631250038,226.5060481660039,223.43309054100246,223.43309054100246,223.42100645800093,223.43309054100246,223.43309054100246,223.43309054100246,223.42100645800093,223.43309054100246,223.43309054100246,228.5553853330057,223.43309054100246,228.5553853330057,228.6295458750028,229.40746337500605,223.43309054100246,2,1,0.9158314169981168,reldom2_s036,001,2025-03-14_12h53.47.666,Vis-A-Scan_AC,2022.2.5,None,
18,Second_Order,3.0,viswhere,stimulus/viswhere_stim/150-deg_dot-right_goldenrod.png,stimulus/viswhere_stim/150-deg_dot-left_cyan.png,stimulus/viswhere_stim/120-deg_dot-left_royalblue.png,stimulus/viswhere_stim/60-deg_dot-left_royalblue.png,stimulus/viswhat_stim/match_blank.png,stimulus/viswhat_stim/match_box.png,stimulus/viswhat_stim/match_yes.png,stimulus/viswhat_stim/match_no.png,2.0,Match,Line,Dot,2,5.125,0,5.125,0,5.125,0,5.125,0,0.625,0.625,1,0.5,1,2.125,1,0.5,1,2.125,0,0,0,0,0,0,0,0,0,,,,,0,23,23,23,,,,,,,,,229.40746337500605,234.53018675000203,229.89094491600554,230.88850570800423,231.5108528750061,232.50855987500108,229.40746337500605,229.40746337500605,229.42115225000163,229.40746337500605,229.40746337500605,229.40746337500605,229.42115225000163,229.40746337500605,234.53018675000203,235.2050465410066,237.27905970800202,241.3123435830057,235.2050465410066,235.2050465410066,240.3287460000065,235.663077833,236.67165604100592,237.27905970800202,238.2933140830064,235.2050465410066,235.2050465410066,235.18134883333602,235.2050465410066,235.2050465410066,235.2050465410066,235.18134883333602,235.2050465410066,235.2050465410066,240.3287460000065,235.2050465410066,240.3287460000065,240.39662320800562,241.01794883300317,235.2050465410066,2,1,0.746298250000109,reldom2_s036,001,2025-03-14_12h53.47.666,Vis-A-Scan_AC,2022.2.5,None,
0,0.0,None,fixation,stimulus/viswhat_stim/blank_white.png,stimulus/viswhat_stim/blank_white.png,stimulus/viswhere_stim/blank_white.png,stimulus/viswhere_stim/blank_white.png,stimulus/viswhat_stim/blank_white.png,stimulus/viswhat_stim/blank_white.png,stimulus/viswhat_stim/blank_white.png,stimulus/viswhat_stim/blank_white.png,0.0,0.0,0.0,0.0,0,0.0,0,0.0,0,0.0,0,0.0,0,0.0,0.0,0,0.0,0,0.0,0,0.0,0,0.0,0,0,0,0,0,0,0,0,10,,,,,0,24,24,24,,,,,,,,,241.3123435830057,241.3123435830057,241.3123435830057,241.3123435830057,241.3123435830057,241.3123435830057,241.3123435830057,241.3123435830057,241.2153692083351,241.3123435830057,241.3123435830057,241.3123435830057,241.2153692083351,241.3123435830057,241.3123435830057,241.3123435830057,241.3123435830057,241.3123435830057,241.3123435830057,241.3123435830057,241.3123435830057,241.3123435830057,241.3123435830057,241.3123435830057,241.3123435830057,241.3123435830057,241.3123435830057,241.2653692083351,241.3123435830057,241.3123435830057,241.3123435830057,241.2653692083351,241.3123435830057,241.3123435830057,241.3123435830057,241.3123435830057,241.3123435830057,246.53288729100314,246.53288729100314,251.4797757500055,None,0,,reldom2_s036,001,2025-03-14_12h53.47.666,Vis-A-Scan_AC,2022.2.5,None,
19,First_Order,4.0,viswhere,stimulus/viswhere_stim/blank_white.png,stimulus/viswhere_stim/blank_white.png,stimulus/viswhere_stim/90-deg_dot-right_royalblue.png,stimulus/viswhere_stim/120-deg_dot-right_goldenrod.png,stimulus/viswhere_stim/blank_white.png,stimulus/viswhere_stim/dot_box.png,stimulus/viswhere_stim/dot_yes.png,stimulus/viswhere_stim/dot_no.png,None,Dot,None,Dot,1,0.0,0,5.125,0,5.125,0,5.125,0,0.0,0.625,0,0.0,0,0.0,1,0.5,1,2.125,0,0,0,0,0,0,0,0,0,,,,,0,25,25,25,,,,,,,,,251.4797757500055,251.4797757500055,251.4797757500055,251.4797757500055,251.4797757500055,251.4797757500055,251.4797757500055,251.4797757500055,251.4618808746697,251.4797757500055,251.4797757500055,251.4797757500055,251.4618808746697,251.4797757500055,251.4797757500055,251.4797757500055,253.5906978330022,257.53576412500115,251.4797757500055,251.4797757500055,256.60195158300485,251.9554895830006,252.96500875000493,253.5906978330022,254.60632912500296,251.4797757500055,251.4797757500055,251.4618808746697,251.4797757500055,251.4797757500055,251.4797757500055,251.4618808746697,251.4797757500055,251.4797757500055,256.60195158300485,251.4797757500055,256.60195158300485,256.69942795800307,257.3487919160034,251.4797757500055,1,1,0.7931242089980515,reldom2_s036,001,2025-03-14_12h53.47.666,Vis-A-Scan_AC,2022.2.5,None,
20,First_Order,4.0,viswhere,stimulus/viswhere_stim/blank_white.png,stimulus/viswhere_stim/blank_white.png,stimulus/viswhere_stim/90-deg_dot-left_peru.png,stimulus/viswhere_stim/90-deg_dot-right_royalblue.png,stimulus/viswhere_stim/blank_white.png,stimulus/viswhere_stim/dot_box.png,stimulus/viswhere_stim/dot_yes.png,stimulus/viswhere_stim/dot_no.png,None,Dot,None,Line,2,0.0,0,5.125,0,5.125,0,5.125,0,0.0,0.625,0,0.0,0,0.0,1,0.5,1,2.125,0,0,0,0,0,0,0,0,0,,,,,0,26,26,26,,,,,,,,,257.53576412500115,257.53576412500115,257.53576412500115,257.53576412500115,257.53576412500115,257.53576412500115,257.53576412500115,257.53576412500115,257.51597783333756,257.53576412500115,257.53576412500115,257.53576412500115,257.51597783333756,257.53576412500115,257.53576412500115,257.53576412500115,259.6466624160021,263.6033175000048,257.53576412500115,257.53576412500115,262.6641421660024,258.01076858300075,259.02055966600165,259.6466624160021,260.6617218330066,257.53576412500115,257.53576412500115,257.5326445000042,257.53576412500115,257.53576412500115,257.53576412500115,257.5326445000042,257.53576412500115,257.53576412500115,262.6641421660024,257.53576412500115,262.6641421660024,262.7611683330033,263.3897036250055,257.53576412500115,2,1,1.7860503339979914,reldom2_s036,001,2025-03-14_12h53.47.666,Vis-A-Scan_AC,2022.2.5,None,
21,First_Order,4.0,viswhere,stimulus/viswhere_stim/blank_white.png,stimulus/viswhere_stim/blank_white.png,stimulus/viswhere_stim/120-deg_dot-left_cyan.png,stimulus/viswhere_stim/150-deg_dot-left_seagreen.png,stimulus/viswhere_stim/blank_white.png,stimulus/viswhere_stim/line_box.png,stimulus/viswhere_stim/line_yes.png,stimulus/viswhere_stim/line_no.png,None,Line,None,Dot,2,0.0,0,5.125,0,5.125,0,5.125,0,0.0,0.625,0,0.0,0,0.0,1,0.5,1,2.125,0,0,0,0,0,0,0,0,0,,,,,0,27,27,27,,,,,,,,,263.6033175000048,263.6033175000048,263.6033175000048,263.6033175000048,263.6033175000048,263.6033175000048,263.6033175000048,263.6033175000048,263.5831522913334,263.6033175000048,263.6033175000048,263.6033175000048,263.5831522913334,263.6033175000048,263.6033175000048,263.6033175000048,265.7069275829999,269.669214708003,263.6033175000048,263.6033175000048,268.74395133300277,264.08235666600376,265.0968655830002,265.7069275829999,266.70921425000415,263.6033175000048,263.6033175000048,263.59981895800007,263.6033175000048,263.6033175000048,263.6033175000048,263.59981895800007,263.6033175000048,263.6033175000048,268.74395133300277,263.6033175000048,268.74395133300277,268.8275135830045,269.45367083300516,263.6033175000048,1,0,2.380273834001855,reldom2_s036,001,2025-03-14_12h53.47.666,Vis-A-Scan_AC,2022.2.5,None,
22,First_Order,4.0,viswhere,stimulus/viswhere_stim/blank_white.png,stimulus/viswhere_stim/blank_white.png,stimulus/viswhere_stim/150-deg_dot-right_seagreen.png,stimulus/viswhere_stim/150-deg_dot-left_slateblue.png,stimulus/viswhere_stim/blank_white.png,stimulus/viswhere_stim/line_box.png,stimulus/viswhere_stim/line_yes.png,stimulus/viswhere_stim/line_no.png,None,Line,None,Line,1,0.0,0,5.125,0,5.125,0,5.125,0,0.0,0.625,0,0.0,0,0.0,1,0.5,1,2.125,0,0,0,0,0,0,0,0,0,,,,,0,28,28,28,,,,,,,,,269.669214708003,269.669214708003,269.669214708003,269.669214708003,269.669214708003,269.669214708003,269.669214708003,269.669214708003,269.6476335413366,269.669214708003,269.669214708003,269.669214708003,269.6476335413366,269.669214708003,269.669214708003,269.669214708003,271.78489525000623,275.8150765830069,269.669214708003,269.669214708003,274.7993672080047,270.14922412500164,271.15127416600444,271.78489525000623,272.7956192080019,269.669214708003,269.669214708003,269.6643002080032,269.669214708003,269.669214708003,269.669214708003,269.6643002080032,269.669214708003,269.669214708003,274.7993672080047,269.669214708003,274.7993672080047,274.89697445800266,275.5240138330046,269.669214708003,1,1,0.7245020429982105,reldom2_s036,001,2025-03-14_12h53.47.666,Vis-A-Scan_AC,2022.2.5,None,
0,0.0,None,fixation,stimulus/viswhat_stim/blank_white.png,stimulus/viswhat_stim/blank_white.png,stimulus/viswhere_stim/blank_white.png,stimulus/viswhere_stim/blank_white.png,stimulus/viswhat_stim/blank_white.png,stimulus/viswhat_stim/blank_white.png,stimulus/viswhat_stim/blank_white.png,stimulus/viswhat_stim/blank_white.png,0.0,0.0,0.0,0.0,0,0.0,0,0.0,0,0.0,0,0.0,0,0.0,0.0,0,0.0,0,0.0,0,0.0,0,0.0,0,0,0,0,0,0,0,0,9,,,,,0,29,29,29,,,,,,,,,275.8150765830069,275.8150765830069,275.8150765830069,275.8150765830069,275.8150765830069,275.8150765830069,275.8150765830069,275.8150765830069,275.7181109583374,275.8150765830069,275.8150765830069,275.8150765830069,275.7181109583374,275.8150765830069,275.8150765830069,275.8150765830069,275.8150765830069,275.8150765830069,275.8150765830069,275.8150765830069,275.8150765830069,275.8150765830069,275.8150765830069,275.8150765830069,275.8150765830069,275.8150765830069,275.8150765830069,275.7681109583374,275.8150765830069,275.8150765830069,275.8150765830069,275.7681109583374,275.8150765830069,275.8150765830069,275.8150765830069,275.8150765830069,275.8150765830069,281.047195666004,281.047195666004,284.9519825410025,None,0,,reldom2_s036,001,2025-03-14_12h53.47.666,Vis-A-Scan_AC,2022.2.5,None,
23,Second_Order,4.0,viswhere,stimulus/viswhere_stim/90-deg_dot-right_salmon.png,stimulus/viswhere_stim/150-deg_dot-right_seagreen.png,stimulus/viswhere_stim/150-deg_dot-right_mediumslateblue.png,stimulus/viswhere_stim/150-deg_dot-left_lightsseagreen.png,stimulus/viswhat_stim/match_blank.png,stimulus/viswhat_stim/match_box.png,stimulus/viswhat_stim/match_yes.png,stimulus/viswhat_stim/match_no.png,2.0,Match,Dot,Line,2,5.125,0,5.125,0,5.125,0,5.125,0,0.75,0.75,1,0.5,1,2.125,1,0.5,1,2.125,0,0,0,0,0,0,0,0,0,,,,,0,30,30,30,,,,,,,,,284.9519825410025,290.0753230000046,285.4356117500065,286.4332487500069,287.05575933300133,288.05392658300116,284.9519825410025,284.9519825410025,284.96673508333527,284.9519825410025,284.9519825410025,284.9519825410025,284.96673508333527,284.9519825410025,290.0753230000046,290.8713956250067,292.9469027910018,296.811132791001,290.8713956250067,290.8713956250067,296.00738529100636,291.3245494580042,292.3303358330013,292.9469027910018,293.95747966600175,290.8713956250067,290.8713956250067,290.8435451663395,290.8713956250067,290.8713956250067,290.8713956250067,290.8435451663395,290.8713956250067,290.8713956250067,296.00738529100636,290.8713956250067,296.00738529100636,296.0688336250023,296.84822233300656,290.8713956250067,2,1,0.863511417999689,reldom2_s036,001,2025-03-14_12h53.47.666,Vis-A-Scan_AC,2022.2.5,None,
24,Second_Order,4.0,viswhere,stimulus/viswhere_stim/90-deg_dot-left_cyan.png,stimulus/viswhere_stim/60-deg_dot-left_slateblue.png,stimulus/viswhere_stim/120-deg_dot-right_goldenrod.png,stimulus/viswhere_stim/90-deg_dot-right_seagreen.png,stimulus/viswhat_stim/match_blank.png,stimulus/viswhat_stim/match_box.png,stimulus/viswhat_stim/match_yes.png,stimulus/viswhat_stim/match_no.png,1.0,Match,Dot,Dot,1,5.125,0,5.125,0,5.125,0,5.125,0,0.625,0.625,1,0.5,1,2.125,1,0.5,1,2.125,0,0,0,0,0,0,0,0,0,,,,,0,31,31,31,,,,,,,,,296.84822233300656,301.9695388750042,297.3290227079997,298.3275487080027,298.9499725830028,299.94756300000154,296.84822233300656,296.84822233300656,296.861132791001,296.84822233300656,296.84822233300656,296.84822233300656,296.861132791001,296.84822233300656,301.9695388750042,302.644534416002,304.72504004100483,308.75940912500664,302.644534416002,302.644534416002,307.76766200000566,303.10437458300294,304.1143038750015,304.72504004100483,305.74167016600404,302.644534416002,302.644534416002,302.62057770833826,302.644534416002,302.644534416002,302.644534416002,302.62057770833826,302.644534416002,302.644534416002,307.76766200000566,302.644534416002,307.76766200000566,307.83671208300075,308.4666169580014,302.644534416002,1,1,0.9622450000024401,reldom2_s036,001,2025-03-14_12h53.47.666,Vis-A-Scan_AC,2022.2.5,None,
0,0.0,None,fixation,stimulus/viswhat_stim/blank_white.png,stimulus/viswhat_stim/blank_white.png,stimulus/viswhere_stim/blank_white.png,stimulus/viswhere_stim/blank_white.png,stimulus/viswhat_stim/blank_white.png,stimulus/viswhat_stim/blank_white.png,stimulus/viswhat_stim/blank_white.png,stimulus/viswhat_stim/blank_white.png,0.0,0.0,0.0,0.0,0,0.0,0,0.0,0,0.0,0,0.0,0,0.0,0.0,0,0.0,0,0.0,0,0.0,0,0.0,0,0,0,0,0,0,0,0,10,,,,,0,32,32,32,,,,,,,,,308.75940912500664,308.75940912500664,308.75940912500664,308.75940912500664,308.75940912500664,308.75940912500664,308.75940912500664,308.75940912500664,308.6602910413397,308.75940912500664,308.75940912500664,308.75940912500664,308.6602910413397,308.75940912500664,308.75940912500664,308.75940912500664,308.75940912500664,308.75940912500664,308.75940912500664,308.75940912500664,308.75940912500664,308.75940912500664,308.75940912500664,308.75940912500664,308.75940912500664,308.75940912500664,308.75940912500664,308.7102910413397,308.75940912500664,308.75940912500664,308.75940912500664,308.7102910413397,308.75940912500664,308.75940912500664,308.75940912500664,308.75940912500664,308.75940912500664,313.95830170800036,313.95830170800036,318.99442258300405,None,0,,reldom2_s036,001,2025-03-14_12h53.47.666,Vis-A-Scan_AC,2022.2.5,None,
25,First_Order,5.0,viswhat,stimulus/viswhat_stim/blank_white.png,stimulus/viswhat_stim/blank_white.png,stimulus/viswhat_stim/land_vehicle-shortbus.png,stimulus/viswhat_stim/land_animal-pig.png,stimulus/viswhat_stim/blank_white.png,stimulus/viswhat_stim/location_box.png,stimulus/viswhat_stim/location_yes.png,stimulus/viswhat_stim/location_no.png,None,Location,None,Location,1,0.0,0,5.125,0,5.125,0,5.125,0,0.0,0.625,0,0.0,0,0.0,1,0.5,1,2.125,0,0,0,0,0,0,0,0,0,,,,,0,33,33,33,,,,,,,,,318.99442258300405,318.99442258300405,318.99442258300405,318.99442258300405,318.99442258300405,318.99442258300405,318.99442258300405,318.99442258300405,318.95655787467206,318.99442258300405,318.99442258300405,318.99442258300405,318.95655787467206,318.99442258300405,318.99442258300405,318.99442258300405,321.0899636660033,325.1081745000047,318.99442258300405,318.99442258300405,324.1496129580046,319.45861104100186,320.4791995410051,321.0899636660033,322.11383870800637,318.99442258300405,318.99442258300405,318.97322454133877,318.99442258300405,318.99442258300405,318.99442258300405,318.97322454133877,318.99442258300405,318.99442258300405,324.1496129580046,318.99442258300405,324.1496129580046,324.22017175000656,324.8559990000067,318.99442258300405,1,1,0.7801076670002658,reldom2_s036,001,2025-03-14_12h53.47.666,Vis-A-Scan_AC,2022.2.5,None,
26,First_Order,5.0,viswhat,stimulus/viswhat_stim/blank_white.png,stimulus/viswhat_stim/blank_white.png,stimulus/viswhat_stim/land_vehicle-rv.png,stimulus/viswhat_stim/land_animal-bunny.png,stimulus/viswhat_stim/blank_white.png,stimulus/viswhat_stim/type_box.png,stimulus/viswhat_stim/type_yes.png,stimulus/viswhat_stim/type_no.png,None,Type,None,Location,2,0.0,0,5.125,0,5.125,0,5.125,0,0.0,0.625,0,0.0,0,0.0,1,0.5,1,2.125,0,0,0,0,0,0,0,0,0,,,,,0,34,34,34,,,,,,,,,325.1081745000047,325.1081745000047,325.1081745000047,325.1081745000047,325.1081745000047,325.1081745000047,325.1081745000047,325.1081745000047,325.0259623329999,325.1081745000047,325.1081745000047,325.1081745000047,325.0259623329999,325.1081745000047,325.1081745000047,325.1081745000047,327.199526041004,,325.1081745000047,325.1081745000047,330.2897565000021,325.5829215000049,326.6292040000044,327.199526041004,328.25069133299985,325.1081745000047,325.1081745000047,325.0759623329999,325.1081745000047,325.1081745000047,325.1081745000047,325.0759623329999,325.1081745000047,325.1081745000047,330.2897565000021,325.1081745000047,330.2897565000021,330.331951250002,331.001615166002,325.1081745000047,2,1,0.7255231680028373,reldom2_s036,001,2025-03-14_12h53.47.666,Vis-A-Scan_AC,2022.2.5,None,
27,First_Order,5.0,viswhat,stimulus/viswhat_stim/blank_white.png,stimulus/viswhat_stim/blank_white.png,stimulus/viswhat_stim/land_animal-zebra.png,stimulus/viswhat_stim/land_vehicle-oldcar.png,stimulus/viswhat_stim/blank_white.png,stimulus/viswhat_stim/location_box.png,stimulus/viswhat_stim/location_yes.png,stimulus/viswhat_stim/location_no.png,None,Location,None,Location,1,0.0,0,5.125,0,5.125,0,5.125,0,0.0,0.625,0,0.0,0,0.0,1,0.5,1,2.125,0,0,0,0,0,0,0,0,0,,,,,0,35,35,35,,,,,,,,,331.2122848750005,331.2122848750005,331.2122848750005,331.2122848750005,331.2122848750005,331.2122848750005,331.2122848750005,331.2122848750005,331.13494849933534,331.2122848750005,331.2122848750005,331.2122848750005,331.13494849933534,331.2122848750005,331.2122848750005,331.2122848750005,333.3182085830049,337.2841789160011,331.2122848750005,331.2122848750005,336.3910128750067,331.6945255410028,332.7491242910037,333.3182085830049,334.37398820800445,331.2122848750005,331.2122848750005,331.16828183266864,331.2122848750005,331.2122848750005,331.2122848750005,331.16828183266864,331.2122848750005,331.2122848750005,336.3910128750067,331.2122848750005,336.3910128750067,336.42948320800497,337.0791073750006,331.2122848750005,1,1,1.3595176259987056,reldom2_s036,001,2025-03-14_12h53.47.666,Vis-A-Scan_AC,2022.2.5,None,
28,First_Order,5.0,viswhat,stimulus/viswhat_stim/blank_white.png,stimulus/viswhat_stim/blank_white.png,stimulus/viswhat_stim/water_vehicle-canoe.png,stimulus/viswhat_stim/land_vehicle-trolley.png,stimulus/viswhat_stim/blank_white.png,stimulus/viswhat_stim/type_box.png,stimulus/viswhat_stim/type_yes.png,stimulus/viswhat_stim/type_no.png,None,Type,None,Type,1,0.0,0,5.125,0,5.125,0,5.125,0,0.0,0.625,0,0.0,0,0.0,1,0.5,1,2.125,0,0,0,0,0,0,0,0,0,,,,,0,36,36,36,,,,,,,,,337.2841789160011,337.2841789160011,337.2841789160011,337.2841789160011,337.2841789160011,337.2841789160011,337.2841789160011,337.2841789160011,337.25081116633567,337.2841789160011,337.2841789160011,337.2841789160011,337.25081116633567,337.2841789160011,337.2841789160011,337.2841789160011,339.38881962500454,343.4307207910024,337.2841789160011,337.2841789160011,342.41720083300606,337.7716236250053,338.8011015830052,339.38881962500454,340.4181951250066,337.2841789160011,337.2841789160011,337.2674778330023,337.2841789160011,337.2841789160011,337.2841789160011,337.2674778330023,337.2841789160011,337.2841789160011,342.41720083300606,337.2841789160011,342.41720083300606,342.4966867910043,343.13712787500117,337.2841789160011,1,1,1.5638944590027677,reldom2_s036,001,2025-03-14_12h53.47.666,Vis-A-Scan_AC,2022.2.5,None,
0,0.0,None,fixation,stimulus/viswhat_stim/blank_white.png,stimulus/viswhat_stim/blank_white.png,stimulus/viswhere_stim/blank_white.png,stimulus/viswhere_stim/blank_white.png,stimulus/viswhat_stim/blank_white.png,stimulus/viswhat_stim/blank_white.png,stimulus/viswhat_stim/blank_white.png,stimulus/viswhat_stim/blank_white.png,0.0,0.0,0.0,0.0,0,0.0,0,0.0,0,0.0,0,0.0,0,0.0,0.0,0,0.0,0,0.0,0,0.0,0,0.0,0,0,0,0,0,0,0,0,9,,,,,0,37,37,37,,,,,,,,,343.4307207910024,343.4307207910024,343.4307207910024,343.4307207910024,343.4307207910024,343.4307207910024,343.4307207910024,343.4307207910024,343.3373157910042,343.4307207910024,343.4307207910024,343.4307207910024,343.3373157910042,343.4307207910024,343.4307207910024,343.4307207910024,343.4307207910024,343.4307207910024,343.4307207910024,343.4307207910024,343.4307207910024,343.4307207910024,343.4307207910024,343.4307207910024,343.4307207910024,343.4307207910024,343.4307207910024,343.3873157910042,343.4307207910024,343.4307207910024,343.4307207910024,343.3873157910042,343.4307207910024,343.4307207910024,343.4307207910024,343.4307207910024,343.4307207910024,348.66204333300266,348.66204333300266,352.58105966600124,None,0,,reldom2_s036,001,2025-03-14_12h53.47.666,Vis-A-Scan_AC,2022.2.5,None,
29,Second_Order,5.0,viswhat,stimulus/viswhat_stim/land_vehicle-schoolbus.png,stimulus/viswhat_stim/land_animal-snake.png,stimulus/viswhat_stim/water_vehicle-cruiser.png,stimulus/viswhat_stim/water_animal-whale.png,stimulus/viswhat_stim/match_blank.png,stimulus/viswhat_stim/match_box.png,stimulus/viswhat_stim/match_yes.png,stimulus/viswhat_stim/match_no.png,1.0,Match,Location,Location,1,5.125,0,5.125,0,5.125,0,5.125,0,0.75,0.75,1,0.5,1,2.125,1,0.5,1,2.125,0,0,0,0,0,0,0,0,0,,,,,0,38,38,38,,,,,,,,,352.58105966600124,357.70286329100054,353.05759441600094,354.05620479100617,354.67842570799985,355.6765209160003,352.58105966600124,352.58105966600124,352.59000420833956,352.58105966600124,352.58105966600124,352.58105966600124,352.59000420833956,352.58105966600124,357.70286329100054,358.60244604100444,360.66411975000665,,358.60244604100444,358.60244604100444,363.82620337499975,359.01355575000343,360.1134052910056,360.66411975000665,361.76695687500614,358.60244604100444,358.60244604100444,358.5367450410063,358.60244604100444,358.60244604100444,358.60244604100444,358.5367450410063,358.60244604100444,358.60244604100444,363.82620337499975,358.60244604100444,363.82620337499975,363.76291120800306,,358.60244604100444,1,1,1.3804779589991085,reldom2_s036,001,2025-03-14_12h53.47.666,Vis-A-Scan_AC,2022.2.5,None,
30,Second_Order,5.0,viswhat,stimulus/viswhat_stim/land_vehicle-tank.png,stimulus/viswhat_stim/water_vehicle-cabincruiser.png,stimulus/viswhat_stim/land_animal-pig.png,stimulus/viswhat_stim/water_animal-stingray.png,stimulus/viswhat_stim/match_blank.png,stimulus/viswhat_stim/match_box.png,stimulus/viswhat_stim/match_yes.png,stimulus/viswhat_stim/match_no.png,1.0,Match,Type,Type,1,5.125,0,5.125,0,5.125,0,5.125,0,0.625,0.625,1,0.5,1,2.125,1,0.5,1,2.125,0,0,0,0,0,0,0,0,0,,,,,0,39,39,39,,,,,,,,,364.5446290000036,369.6636322500053,365.0150104160057,366.00431600000593,366.63904958300554,367.6375047910042,364.5446290000036,364.5446290000036,364.5443998330069,364.5446290000036,364.5446290000036,364.5446290000036,364.5443998330069,364.5446290000036,369.6636322500053,370.34128291600064,372.4091295410035,376.4635664160014,370.34128291600064,370.34128291600064,375.4836159580009,370.80263483300223,371.82262308300415,372.4091295410035,373.41596100000606,370.34128291600064,370.34128291600064,370.3269836250009,370.34128291600064,370.34128291600064,370.34128291600064,370.3269836250009,370.34128291600064,370.34128291600064,375.4836159580009,370.34128291600064,375.4836159580009,375.5319506250016,376.1588927910052,370.34128291600064,1,1,2.315832334003062,reldom2_s036,001,2025-03-14_12h53.47.666,Vis-A-Scan_AC,2022.2.5,None,
0,0.0,None,fixation,stimulus/viswhat_stim/blank_white.png,stimulus/viswhat_stim/blank_white.png,stimulus/viswhere_stim/blank_white.png,stimulus/viswhere_stim/blank_white.png,stimulus/viswhat_stim/blank_white.png,stimulus/viswhat_stim/blank_white.png,stimulus/viswhat_stim/blank_white.png,stimulus/viswhat_stim/blank_white.png,0.0,0.0,0.0,0.0,0,0.0,0,0.0,0,0.0,0,0.0,0,0.0,0.0,0,0.0,0,0.0,0,0.0,0,0.0,0,0,0,0,0,0,0,0,10,,,,,0,40,40,40,,,,,,,,,376.4635664160014,376.4635664160014,376.4635664160014,376.4635664160014,376.4635664160014,376.4635664160014,376.4635664160014,376.4635664160014,376.3595579993392,376.4635664160014,376.4635664160014,376.4635664160014,376.3595579993392,376.4635664160014,376.4635664160014,376.4635664160014,376.4635664160014,376.4635664160014,376.4635664160014,376.4635664160014,376.4635664160014,376.4635664160014,376.4635664160014,376.4635664160014,376.4635664160014,376.4635664160014,376.4635664160014,376.42622466600585,376.4635664160014,376.4635664160014,376.4635664160014,376.42622466600585,376.4635664160014,376.4635664160014,376.4635664160014,376.4635664160014,376.4635664160014,381.658490875001,381.658490875001,386.69020566600375,None,0,,reldom2_s036,001,2025-03-14_12h53.47.666,Vis-A-Scan_AC,2022.2.5,None,
31,First_Order,6.0,viswhat,stimulus/viswhat_stim/blank_white.png,stimulus/viswhat_stim/blank_white.png,stimulus/viswhat_stim/land_vehicle-rv.png,stimulus/viswhat_stim/land_animal-ostrich.png,stimulus/viswhat_stim/blank_white.png,stimulus/viswhat_stim/type_box.png,stimulus/viswhat_stim/type_yes.png,stimulus/viswhat_stim/type_no.png,None,Type,None,Location,2,0.0,0,5.125,0,5.125,0,5.125,0,0.0,0.625,0,0.0,0,0.0,1,0.5,1,2.125,0,0,0,0,0,0,0,0,0,,,,,0,41,41,41,,,,,,,,,386.69020566600375,386.69020566600375,386.69020566600375,386.69020566600375,386.69020566600375,386.69020566600375,386.69020566600375,386.69020566600375,386.661950207667,386.69020566600375,386.69020566600375,386.69020566600375,386.661950207667,386.69020566600375,386.69020566600375,386.69020566600375,388.7947788330057,392.83974995800236,386.69020566600375,386.69020566600375,391.81773558300483,387.1674743330004,388.19700308300526,388.7947788330057,389.80444741600513,386.69020566600375,386.69020566600375,386.6786168743337,386.69020566600375,386.69020566600375,386.69020566600375,386.6786168743337,386.69020566600375,386.69020566600375,391.81773558300483,386.69020566600375,391.81773558300483,391.90967554100644,392.53693254100654,386.69020566600375,2,1,0.6584057509971899,reldom2_s036,001,2025-03-14_12h53.47.666,Vis-A-Scan_AC,2022.2.5,None,
32,First_Order,6.0,viswhat,stimulus/viswhat_stim/blank_white.png,stimulus/viswhat_stim/blank_white.png,stimulus/viswhat_stim/land_animal-moose.png,stimulus/viswhat_stim/water_animal-dolphin.png,stimulus/viswhat_stim/blank_white.png,stimulus/viswhat_stim/type_box.png,stimulus/viswhat_stim/type_yes.png,stimulus/viswhat_stim/type_no.png,None,Type,None,Type,1,0.0,0,5.125,0,5.125,0,5.125,0,0.0,0.625,0,0.0,0,0.0,1,0.5,1,2.125,0,0,0,0,0,0,0,0,0,,,,,0,42,42,42,,,,,,,,,392.83974995800236,392.83974995800236,392.83974995800236,392.83974995800236,392.83974995800236,392.83974995800236,392.83974995800236,392.83974995800236,392.747145875002,392.83974995800236,392.83974995800236,392.83974995800236,392.747145875002,392.83974995800236,392.83974995800236,392.83974995800236,394.94753529100126,,392.83974995800236,392.83974995800236,398.048287125006,393.3080774580012,394.36363845800224,394.94753529100126,396.0017598330014,392.83974995800236,392.83974995800236,392.797145875002,392.83974995800236,392.83974995800236,392.83974995800236,392.797145875002,392.83974995800236,392.83974995800236,398.048287125006,392.83974995800236,398.048287125006,398.048287125006,398.9016085830008,392.83974995800236,1,1,1.2899899589974666,reldom2_s036,001,2025-03-14_12h53.47.666,Vis-A-Scan_AC,2022.2.5,None,
33,First_Order,6.0,viswhat,stimulus/viswhat_stim/blank_white.png,stimulus/viswhat_stim/blank_white.png,stimulus/viswhat_stim/land_vehicle-buldozer.png,stimulus/viswhat_stim/water_vehicle-canoe.png,stimulus/viswhat_stim/blank_white.png,stimulus/viswhat_stim/location_box.png,stimulus/viswhat_stim/location_yes.png,stimulus/viswhat_stim/location_no.png,None,Location,None,Type,2,0.0,0,5.125,0,5.125,0,5.125,0,0.0,0.625,0,0.0,0,0.0,1,0.5,1,2.125,0,0,0,0,0,0,0,0,0,,,,,0,43,43,43,,,,,,,,,398.9016085830008,398.9016085830008,398.9016085830008,398.9016085830008,398.9016085830008,398.9016085830008,398.9016085830008,398.9016085830008,398.85112091667054,398.9016085830008,398.9016085830008,398.9016085830008,398.85112091667054,398.9016085830008,398.9016085830008,398.9016085830008,400.9940800830009,404.9663858750064,398.9016085830008,398.9016085830008,404.0643084580006,399.3711957500054,400.41744483300135,400.9940800830009,402.0444624160009,398.9016085830008,398.9016085830008,398.86778758333725,398.9016085830008,398.9016085830008,398.9016085830008,398.86778758333725,398.9016085830008,398.9016085830008,404.0643084580006,398.9016085830008,404.0643084580006,404.12514370800636,404.7649015000061,398.9016085830008,2,1,1.4278010839989292,reldom2_s036,001,2025-03-14_12h53.47.666,Vis-A-Scan_AC,2022.2.5,None,
34,First_Order,6.0,viswhat,stimulus/viswhat_stim/blank_white.png,stimulus/viswhat_stim/blank_white.png,stimulus/viswhat_stim/land_vehicle-scooter.png,stimulus/viswhat_stim/water_vehicle-motorboatraft.png,stimulus/viswhat_stim/blank_white.png,stimulus/viswhat_stim/location_box.png,stimulus/viswhat_stim/location_yes.png,stimulus/viswhat_stim/location_no.png,None,Location,None,Type,2,0.0,0,5.125,0,5.125,0,5.125,0,0.0,0.625,0,0.0,0,0.0,1,0.5,1,2.125,0,0,0,0,0,0,0,0,0,,,,,0,44,44,44,,,,,,,,,404.9663858750064,404.9663858750064,404.9663858750064,404.9663858750064,404.9663858750064,404.9663858750064,404.9663858750064,404.9663858750064,404.9415775826691,404.9663858750064,404.9663858750064,404.9663858750064,404.9415775826691,404.9663858750064,404.9663858750064,404.9663858750064,407.07451620800566,411.1119886250017,404.9663858750064,404.9663858750064,410.11836362500617,405.441581375002,406.45580500000506,407.07451620800566,408.0925212910006,404.9663858750064,404.9663858750064,404.95824424933573,404.9663858750064,404.9663858750064,404.9663858750064,404.95824424933573,404.9663858750064,404.9663858750064,410.11836362500617,404.9663858750064,410.11836362500617,410.1954012910064,410.82233516600536,404.9663858750064,2,1,1.5964853760015103,reldom2_s036,001,2025-03-14_12h53.47.666,Vis-A-Scan_AC,2022.2.5,None,
0,0.0,None,fixation,stimulus/viswhat_stim/blank_white.png,stimulus/viswhat_stim/blank_white.png,stimulus/viswhere_stim/blank_white.png,stimulus/viswhere_stim/blank_white.png,stimulus/viswhat_stim/blank_white.png,stimulus/viswhat_stim/blank_white.png,stimulus/viswhat_stim/blank_white.png,stimulus/viswhat_stim/blank_white.png,0.0,0.0,0.0,0.0,0,0.0,0,0.0,0,0.0,0,0.0,0,0.0,0.0,0,0.0,0,0.0,0,0.0,0,0.0,0,0,0,0,0,0,0,0,8,,,,,0,45,45,45,,,,,,,,,411.1119886250017,411.1119886250017,411.1119886250017,411.1119886250017,411.1119886250017,411.1119886250017,411.1119886250017,411.1119886250017,411.01276516634,411.1119886250017,411.1119886250017,411.1119886250017,411.01276516634,411.1119886250017,411.1119886250017,411.1119886250017,411.1119886250017,411.1119886250017,411.1119886250017,411.1119886250017,411.1119886250017,411.1119886250017,411.1119886250017,411.1119886250017,411.1119886250017,411.1119886250017,411.1119886250017,411.06276516634,411.1119886250017,411.1119886250017,411.1119886250017,411.06276516634,411.1119886250017,411.1119886250017,411.1119886250017,411.1119886250017,411.1119886250017,416.29685354100366,416.29685354100366,419.2849570000035,None,0,,reldom2_s036,001,2025-03-14_12h53.47.666,Vis-A-Scan_AC,2022.2.5,None,
35,Second_Order,6.0,viswhat,stimulus/viswhat_stim/land_vehicle-train.png,stimulus/viswhat_stim/land_animal-moose.png,stimulus/viswhat_stim/land_vehicle-schoolbus.png,stimulus/viswhat_stim/water_vehicle-sailboat.png,stimulus/viswhat_stim/match_blank.png,stimulus/viswhat_stim/match_box.png,stimulus/viswhat_stim/match_yes.png,stimulus/viswhat_stim/match_no.png,2.0,Match,Location,Type,2,5.125,0,5.125,0,5.125,0,5.125,0,0.75,0.75,1,0.5,1,2.125,1,0.5,1,2.125,0,0,0,0,0,0,0,0,0,,,,,0,46,46,46,,,,,,,,,419.2849570000035,424.406401500004,419.72843933300464,420.72743516600167,421.349981708001,422.34723466600553,419.2849570000035,419.2849570000035,419.2979505826685,419.2849570000035,419.2849570000035,419.2849570000035,419.2979505826685,419.2849570000035,424.406401500004,425.2704251660034,427.3212921250015,,425.2704251660034,425.2704251660034,430.46125945800304,425.68040887500683,426.7589748330065,427.3212921250015,428.40676391600573,425.2704251660034,425.2704251660034,425.22356670833443,425.2704251660034,425.2704251660034,425.2704251660034,425.22356670833443,425.2704251660034,425.2704251660034,430.46125945800304,425.2704251660034,430.46125945800304,430.46125945800304,,425.2704251660034,2,1,0.8829732930025784,reldom2_s036,001,2025-03-14_12h53.47.666,Vis-A-Scan_AC,2022.2.5,None,
36,Second_Order,6.0,viswhat,stimulus/viswhat_stim/land_animal-moose.png,stimulus/viswhat_stim/land_vehicle-schoolbus.png,stimulus/viswhat_stim/land_vehicle-pickuptruck.png,stimulus/viswhat_stim/water_vehicle-canoe(1).png,stimulus/viswhat_stim/match_blank.png,stimulus/viswhat_stim/match_box.png,stimulus/viswhat_stim/match_yes.png,stimulus/viswhat_stim/match_no.png,2.0,Match,Location,Type,2,5.125,0,5.125,0,5.125,0,5.125,0,0.625,0.625,1,0.5,1,2.125,1,0.5,1,2.125,0,0,0,0,0,0,0,0,0,,,,,0,47,47,47,,,,,,,,,431.2439632080059,436.3672532080018,431.6879003330032,432.6741902499998,433.31036462500197,434.3080558330039,431.2439632080059,431.2439632080059,431.2523539160014,431.2439632080059,431.2439632080059,431.2439632080059,431.2523539160014,431.2439632080059,436.3672532080018,437.0472250410021,439.1201054580015,443.16767729100684,437.0472250410021,437.0472250410021,442.1878371250059,437.50644200000534,438.51950087500154,439.1201054580015,440.139834833004,437.0472250410021,437.0472250410021,437.0314677080067,437.0472250410021,437.0472250410021,437.0472250410021,437.0314677080067,437.0472250410021,437.0472250410021,442.1878371250059,437.0472250410021,442.1878371250059,442.23716666600376,442.86317883300217,437.0472250410021,2,1,0.7067412510004942,reldom2_s036,001,2025-03-14_12h53.47.666,Vis-A-Scan_AC,2022.2.5,None,
0,0.0,None,fixation,stimulus/viswhat_stim/blank_white.png,stimulus/viswhat_stim/blank_white.png,stimulus/viswhere_stim/blank_white.png,stimulus/viswhere_stim/blank_white.png,stimulus/viswhat_stim/blank_white.png,stimulus/viswhat_stim/blank_white.png,stimulus/viswhat_stim/blank_white.png,stimulus/viswhat_stim/blank_white.png,0.0,0.0,0.0,0.0,0,0.0,0,0.0,0,0.0,0,0.0,0,0.0,0.0,0,0.0,0,0.0,0,0.0,0,0.0,0,0,0,0,0,0,0,0,8,,,,,0,48,48,48,,,,,,,,,443.16767729100684,443.16767729100684,443.16767729100684,443.16767729100684,443.16767729100684,443.16767729100684,443.16767729100684,443.16767729100684,443.0629846243367,443.16767729100684,443.16767729100684,443.16767729100684,443.0629846243367,443.16767729100684,443.16767729100684,443.16767729100684,443.16767729100684,443.16767729100684,443.16767729100684,443.16767729100684,443.16767729100684,443.16767729100684,443.16767729100684,443.16767729100684,443.16767729100684,443.16767729100684,443.16767729100684,443.12965129100337,443.16767729100684,443.16767729100684,443.16767729100684,443.12965129100337,443.16767729100684,443.16767729100684,443.16767729100684,443.16767729100684,443.16767729100684,448.37463595800364,448.37463595800364,451.37433850000525,None,0,,reldom2_s036,001,2025-03-14_12h53.47.666,Vis-A-Scan_AC,2022.2.5,None,
37,First_Order,7.0,viswhere,stimulus/viswhere_stim/blank_white.png,stimulus/viswhere_stim/blank_white.png,stimulus/viswhere_stim/120-deg_dot-right_turquoise.png,stimulus/viswhere_stim/120-deg_dot-left_slateblue.png,stimulus/viswhere_stim/blank_white.png,stimulus/viswhere_stim/line_box.png,stimulus/viswhere_stim/line_yes.png,stimulus/viswhere_stim/line_no.png,None,Line,None,Line,1,0.0,0,5.125,0,5.125,0,5.125,0,0.0,0.625,0,0.0,0,0.0,1,0.5,1,2.125,0,0,0,0,0,0,0,0,0,,,,,0,49,49,49,,,,,,,,,451.37433850000525,451.37433850000525,451.37433850000525,451.37433850000525,451.37433850000525,451.37433850000525,451.37433850000525,451.37433850000525,451.3567327916704,451.37433850000525,451.37433850000525,451.37433850000525,451.3567327916704,451.37433850000525,451.37433850000525,451.37433850000525,453.4857675000021,457.43462195800385,451.37433850000525,451.37433850000525,456.49984208300157,451.849845458004,452.86048945800576,453.4857675000021,454.50170195800456,451.37433850000525,451.37433850000525,451.3567327916704,451.37433850000525,451.37433850000525,451.37433850000525,451.3567327916704,451.37433850000525,451.37433850000525,456.49984208300157,451.37433850000525,456.49984208300157,456.5961666660005,457.21705125000153,451.37433850000525,1,1,0.8803785420022905,reldom2_s036,001,2025-03-14_12h53.47.666,Vis-A-Scan_AC,2022.2.5,None,
38,First_Order,7.0,viswhere,stimulus/viswhere_stim/blank_white.png,stimulus/viswhere_stim/blank_white.png,stimulus/viswhere_stim/30-deg_dot-right_royalblue.png,stimulus/viswhere_stim/30-deg_dot-left_royalblue.png,stimulus/viswhere_stim/blank_white.png,stimulus/viswhere_stim/dot_box.png,stimulus/viswhere_stim/dot_yes.png,stimulus/viswhere_stim/dot_no.png,None,Dot,None,Line,2,0.0,0,5.125,0,5.125,0,5.125,0,0.0,0.625,0,0.0,0,0.0,1,0.5,1,2.125,0,0,0,0,0,0,0,0,0,,,,,0,50,50,50,,,,,,,,,457.43462195800385,457.43462195800385,457.43462195800385,457.43462195800385,457.43462195800385,457.43462195800385,457.43462195800385,457.43462195800385,457.4140764993402,457.43462195800385,457.43462195800385,457.43462195800385,457.4140764993402,457.43462195800385,457.43462195800385,457.43462195800385,459.5415268750003,463.49251225000626,457.43462195800385,457.43462195800385,462.57286783300515,457.9094485000023,458.9167759580014,459.5415268750003,460.5542995000069,457.43462195800385,457.43462195800385,457.43074316600683,457.43462195800385,457.43462195800385,457.43462195800385,457.43074316600683,457.43462195800385,457.43462195800385,462.57286783300515,457.43462195800385,462.57286783300515,462.67308220800624,463.3009463330018,457.43462195800385,2,1,1.0866310839992366,reldom2_s036,001,2025-03-14_12h53.47.666,Vis-A-Scan_AC,2022.2.5,None,
39,First_Order,7.0,viswhere,stimulus/viswhere_stim/blank_white.png,stimulus/viswhere_stim/blank_white.png,stimulus/viswhere_stim/150-deg_dot-left_peru.png,stimulus/viswhere_stim/30-deg_dot-left_goldenrod.png,stimulus/viswhere_stim/blank_white.png,stimulus/viswhere_stim/line_box.png,stimulus/viswhere_stim/line_yes.png,stimulus/viswhere_stim/line_no.png,None,Line,None,Dot,2,0.0,0,5.125,0,5.125,0,5.125,0,0.0,0.625,0,0.0,0,0.0,1,0.5,1,2.125,0,0,0,0,0,0,0,0,0,,,,,0,51,51,51,,,,,,,,,463.49251225000626,463.49251225000626,463.49251225000626,463.49251225000626,463.49251225000626,463.49251225000626,463.49251225000626,463.49251225000626,463.47159254133777,463.49251225000626,463.49251225000626,463.49251225000626,463.47159254133777,463.49251225000626,463.49251225000626,463.49251225000626,465.6002041250031,469.55878929100436,463.49251225000626,463.49251225000626,468.62015904100554,463.9724492910027,464.9891377910026,465.6002041250031,466.60308587500185,463.49251225000626,463.49251225000626,463.4882592080044,463.49251225000626,463.49251225000626,463.49251225000626,463.4882592080044,463.49251225000626,463.49251225000626,468.62015904100554,463.49251225000626,468.62015904100554,468.71729175000655,469.3427366660035,463.49251225000626,1,0,0.9889485009989585,reldom2_s036,001,2025-03-14_12h53.47.666,Vis-A-Scan_AC,2022.2.5,None,
40,First_Order,7.0,viswhere,stimulus/viswhere_stim/blank_white.png,stimulus/viswhere_stim/blank_white.png,stimulus/viswhere_stim/120-deg_dot-left_royalblue.png,stimulus/viswhere_stim/120-deg_dot-right_slateblue.png,stimulus/viswhere_stim/blank_white.png,stimulus/viswhere_stim/dot_box.png,stimulus/viswhere_stim/dot_yes.png,stimulus/viswhere_stim/dot_no.png,None,Dot,None,Line,2,0.0,0,5.125,0,5.125,0,5.125,0,0.0,0.625,0,0.0,0,0.0,1,0.5,1,2.125,0,0,0,0,0,0,0,0,0,,,,,0,52,52,52,,,,,,,,,469.55878929100436,469.55878929100436,469.55878929100436,469.55878929100436,469.55878929100436,469.55878929100436,469.55878929100436,469.55878929100436,469.53855941633566,469.55878929100436,469.55878929100436,469.55878929100436,469.53855941633566,469.55878929100436,469.55878929100436,469.55878929100436,471.6676466660065,475.7168333330046,469.55878929100436,469.55878929100436,474.695942833001,470.03376941600436,471.042814583001,471.6676466660065,472.6820265830029,469.55878929100436,469.55878929100436,469.5552260830023,469.55878929100436,469.55878929100436,469.55878929100436,469.5552260830023,469.55878929100436,469.55878929100436,474.695942833001,469.55878929100436,474.695942833001,474.77828550000413,475.4100322910017,469.55878929100436,2,1,0.7138099169969792,reldom2_s036,001,2025-03-14_12h53.47.666,Vis-A-Scan_AC,2022.2.5,None,
0,0.0,None,fixation,stimulus/viswhat_stim/blank_white.png,stimulus/viswhat_stim/blank_white.png,stimulus/viswhere_stim/blank_white.png,stimulus/viswhere_stim/blank_white.png,stimulus/viswhat_stim/blank_white.png,stimulus/viswhat_stim/blank_white.png,stimulus/viswhat_stim/blank_white.png,stimulus/viswhat_stim/blank_white.png,0.0,0.0,0.0,0.0,0,0.0,0,0.0,0,0.0,0,0.0,0,0.0,0.0,0,0.0,0,0.0,0,0.0,0,0.0,0,0,0,0,0,0,0,0,9,,,,,0,53,53,53,,,,,,,,,475.7168333330046,475.7168333330046,475.7168333330046,475.7168333330046,475.7168333330046,475.7168333330046,475.7168333330046,475.7168333330046,475.61949029133876,475.7168333330046,475.7168333330046,475.7168333330046,475.61949029133876,475.7168333330046,475.7168333330046,475.7168333330046,475.7168333330046,475.7168333330046,475.7168333330046,475.7168333330046,475.7168333330046,475.7168333330046,475.7168333330046,475.7168333330046,475.7168333330046,475.7168333330046,475.7168333330046,475.6694902913388,475.7168333330046,475.7168333330046,475.7168333330046,475.6694902913388,475.7168333330046,475.7168333330046,475.7168333330046,475.7168333330046,475.7168333330046,480.8996565000052,480.8996565000052,484.8657693750065,None,0,,reldom2_s036,001,2025-03-14_12h53.47.666,Vis-A-Scan_AC,2022.2.5,None,
41,Second_Order,7.0,viswhere,stimulus/viswhere_stim/90-deg_dot-right_seagreen.png,stimulus/viswhere_stim/90-deg_dot-left_salmon.png,stimulus/viswhere_stim/60-deg_dot-left_slateblue.png,stimulus/viswhere_stim/60-deg_dot-right_lightsseagreen.png,stimulus/viswhat_stim/match_blank.png,stimulus/viswhat_stim/match_box.png,stimulus/viswhat_stim/match_yes.png,stimulus/viswhat_stim/match_no.png,1.0,Match,Line,Line,1,5.125,0,5.125,0,5.125,0,5.125,0,0.75,0.75,1,0.5,1,2.125,1,0.5,1,2.125,0,0,0,0,0,0,0,0,0,,,,,0,54,54,54,,,,,,,,,484.8657693750065,489.9869342910024,485.3461900830007,486.34500700000353,486.9669675000041,487.9657844579997,484.8657693750065,484.8657693750065,484.8802451243338,484.8657693750065,484.8657693750065,484.8657693750065,484.8802451243338,484.8657693750065,489.9869342910024,490.78347329100507,492.85032966600556,496.7443705410042,490.78347329100507,490.78347329100507,495.9164878330048,491.22785520800244,492.24041529100214,492.85032966600556,493.8693020830033,490.78347329100507,490.78347329100507,490.7718492080065,490.78347329100507,490.78347329100507,490.78347329100507,490.7718492080065,490.78347329100507,490.78347329100507,495.9164878330048,490.78347329100507,495.9164878330048,495.97074691600574,496.7443705410042,490.78347329100507,1,1,0.89491562499461,reldom2_s036,001,2025-03-14_12h53.47.666,Vis-A-Scan_AC,2022.2.5,None,
42,Second_Order,7.0,viswhere,stimulus/viswhere_stim/150-deg_dot-left_cyan.png,stimulus/viswhere_stim/60-deg_dot-left_royalblue.png,stimulus/viswhere_stim/30-deg_dot-right_mediumslateblue.png,stimulus/viswhere_stim/90-deg_dot-right_peru.png,stimulus/viswhat_stim/match_blank.png,stimulus/viswhat_stim/match_box.png,stimulus/viswhat_stim/match_yes.png,stimulus/viswhat_stim/match_no.png,1.0,Match,Dot,Dot,1,5.125,0,5.125,0,5.125,0,5.125,0,0.625,0.625,1,0.5,1,2.125,1,0.5,1,2.125,0,0,0,0,0,0,0,0,0,,,,,0,55,55,55,,,,,,,,,496.7443705410042,501.8689545830057,497.22404137500416,498.2228675000006,498.8451475000038,499.84305733300425,496.7443705410042,496.7443705410042,496.75866350000143,496.7443705410042,496.7443705410042,496.7443705410042,496.75866350000143,496.7443705410042,501.8689545830057,502.5390570830059,504.62319966600626,508.66169650000666,502.5390570830059,502.5390570830059,507.67048400000203,503.00029041600646,504.01278475000436,504.62319966600626,505.6425253750058,502.5390570830059,502.5390570830059,502.51582674933934,502.5390570830059,502.5390570830059,502.5390570830059,502.51582674933934,502.5390570830059,502.5390570830059,507.67048400000203,502.5390570830059,507.67048400000203,507.7410305000012,508.3662814160052,502.5390570830059,1,1,0.9177682500012452,reldom2_s036,001,2025-03-14_12h53.47.666,Vis-A-Scan_AC,2022.2.5,None,
0,0.0,None,fixation,stimulus/viswhat_stim/blank_white.png,stimulus/viswhat_stim/blank_white.png,stimulus/viswhere_stim/blank_white.png,stimulus/viswhere_stim/blank_white.png,stimulus/viswhat_stim/blank_white.png,stimulus/viswhat_stim/blank_white.png,stimulus/viswhat_stim/blank_white.png,stimulus/viswhat_stim/blank_white.png,0.0,0.0,0.0,0.0,0,0.0,0,0.0,0,0.0,0,0.0,0,0.0,0.0,0,0.0,0,0.0,0,0.0,0,0.0,0,0,0,0,0,0,0,0,8,,,,,0,56,56,56,,,,,,,,,508.66169650000666,508.66169650000666,508.66169650000666,508.66169650000666,508.66169650000666,508.66169650000666,508.66169650000666,508.66169650000666,508.56224783333647,508.66169650000666,508.66169650000666,508.66169650000666,508.56224783333647,508.66169650000666,508.66169650000666,508.66169650000666,508.66169650000666,508.66169650000666,508.66169650000666,508.66169650000666,508.66169650000666,508.66169650000666,508.66169650000666,508.66169650000666,508.66169650000666,508.66169650000666,508.66169650000666,508.6122478333365,508.66169650000666,508.66169650000666,508.66169650000666,508.6122478333365,508.66169650000666,508.66169650000666,508.66169650000666,508.66169650000666,508.66169650000666,513.8732314160006,513.8732314160006,516.8826179160023,None,0,,reldom2_s036,001,2025-03-14_12h53.47.666,Vis-A-Scan_AC,2022.2.5,None,
43,First_Order,8.0,viswhere,stimulus/viswhere_stim/blank_white.png,stimulus/viswhere_stim/blank_white.png,stimulus/viswhere_stim/150-deg_dot-left_lightsseagreen.png,stimulus/viswhere_stim/30-deg_dot-left_salmon.png,stimulus/viswhere_stim/blank_white.png,stimulus/viswhere_stim/dot_box.png,stimulus/viswhere_stim/dot_yes.png,stimulus/viswhere_stim/dot_no.png,None,Dot,None,Dot,1,0.0,0,5.125,0,5.125,0,5.125,0,0.0,0.625,0,0.0,0,0.0,1,0.5,1,2.125,0,0,0,0,0,0,0,0,0,,,,,0,57,57,57,,,,,,,,,516.8826179160023,516.8826179160023,516.8826179160023,516.8826179160023,516.8826179160023,516.8826179160023,516.8826179160023,516.8826179160023,516.8639717496723,516.8826179160023,516.8826179160023,516.8826179160023,516.8639717496723,516.8826179160023,516.8826179160023,516.8826179160023,518.9841251660037,522.9461192910021,516.8826179160023,516.8826179160023,522.0133805410005,517.3600746250013,518.3737201660042,518.9841251660037,520.0019623330008,516.8826179160023,516.8826179160023,516.8639717496723,516.8826179160023,516.8826179160023,516.8826179160023,516.8639717496723,516.8826179160023,516.8826179160023,522.0133805410005,516.8826179160023,522.0133805410005,522.1014191250069,522.728346625001,516.8826179160023,1,1,2.353090250995592,reldom2_s036,001,2025-03-14_12h53.47.666,Vis-A-Scan_AC,2022.2.5,None,
44,First_Order,8.0,viswhere,stimulus/viswhere_stim/blank_white.png,stimulus/viswhere_stim/blank_white.png,stimulus/viswhere_stim/150-deg_dot-right_seagreen.png,stimulus/viswhere_stim/150-deg_dot-left_goldenrod.png,stimulus/viswhere_stim/blank_white.png,stimulus/viswhere_stim/line_box.png,stimulus/viswhere_stim/line_yes.png,stimulus/viswhere_stim/line_no.png,None,Line,None,Line,1,0.0,0,5.125,0,5.125,0,5.125,0,0.0,0.625,0,0.0,0,0.0,1,0.5,1,2.125,0,0,0,0,0,0,0,0,0,,,,,0,58,58,58,,,,,,,,,522.9461192910021,522.9461192910021,522.9461192910021,522.9461192910021,522.9461192910021,522.9461192910021,522.9461192910021,522.9461192910021,522.92575554134,522.9461192910021,522.9461192910021,522.9461192910021,522.92575554134,522.9461192910021,522.9461192910021,522.9461192910021,525.0465652910061,529.0132143330047,522.9461192910021,522.9461192910021,528.077425416006,523.4283082080001,524.4318258330022,525.0465652910061,526.0529470830006,522.9461192910021,522.9461192910021,522.9424222080066,522.9461192910021,522.9461192910021,522.9461192910021,522.9424222080066,522.9461192910021,522.9461192910021,528.077425416006,522.9461192910021,528.077425416006,528.1657043330051,528.7972870410013,522.9461192910021,1,1,1.7006088759953855,reldom2_s036,001,2025-03-14_12h53.47.666,Vis-A-Scan_AC,2022.2.5,None,
45,First_Order,8.0,viswhere,stimulus/viswhere_stim/blank_white.png,stimulus/viswhere_stim/blank_white.png,stimulus/viswhere_stim/150-deg_dot-left_seagreen.png,stimulus/viswhere_stim/60-deg_dot-left_turquoise.png,stimulus/viswhere_stim/blank_white.png,stimulus/viswhere_stim/dot_box.png,stimulus/viswhere_stim/dot_yes.png,stimulus/viswhere_stim/dot_no.png,None,Dot,None,Dot,1,0.0,0,5.125,0,5.125,0,5.125,0,0.0,0.625,0,0.0,0,0.0,1,0.5,1,2.125,0,0,0,0,0,0,0,0,0,,,,,0,59,59,59,,,,,,,,,529.0132143330047,529.0132143330047,529.0132143330047,529.0132143330047,529.0132143330047,529.0132143330047,529.0132143330047,529.0132143330047,528.9927471663372,529.0132143330047,529.0132143330047,529.0132143330047,528.9927471663372,529.0132143330047,529.0132143330047,529.0132143330047,531.1134640410019,535.076989291003,529.0132143330047,529.0132143330047,534.1382951250052,529.4902122500062,530.5044325000054,531.1134640410019,532.1319342500065,529.0132143330047,529.0132143330047,529.0094138330038,529.0132143330047,529.0132143330047,529.0132143330047,529.0094138330038,529.0132143330047,529.0132143330047,534.1382951250052,529.0132143330047,534.1382951250052,534.2363381250034,534.8607312500026,529.0132143330047,1,1,0.9077352509993943,reldom2_s036,001,2025-03-14_12h53.47.666,Vis-A-Scan_AC,2022.2.5,None,
46,First_Order,8.0,viswhere,stimulus/viswhere_stim/blank_white.png,stimulus/viswhere_stim/blank_white.png,stimulus/viswhere_stim/150-deg_dot-left_lightsseagreen.png,stimulus/viswhere_stim/60-deg_dot-left_royalblue.png,stimulus/viswhere_stim/blank_white.png,stimulus/viswhere_stim/line_box.png,stimulus/viswhere_stim/line_yes.png,stimulus/viswhere_stim/line_no.png,None,Line,None,Dot,2,0.0,0,5.125,0,5.125,0,5.125,0,0.0,0.625,0,0.0,0,0.0,1,0.5,1,2.125,0,0,0,0,0,0,0,0,0,,,,,0,60,60,60,,,,,,,,,535.076989291003,535.076989291003,535.076989291003,535.076989291003,535.076989291003,535.076989291003,535.076989291003,535.076989291003,535.0566559583361,535.076989291003,535.076989291003,535.076989291003,535.0566559583361,535.076989291003,535.076989291003,535.076989291003,537.1846249580049,541.2177557500036,535.076989291003,535.076989291003,540.2022907910068,535.5558041660042,536.5725959160045,537.1846249580049,538.1873649160043,535.076989291003,535.076989291003,535.0733226250028,535.076989291003,535.076989291003,535.076989291003,535.0733226250028,535.076989291003,535.076989291003,540.2022907910068,535.076989291003,540.2022907910068,540.2993139580067,540.9249165830042,535.076989291003,2,1,0.6713041249968228,reldom2_s036,001,2025-03-14_12h53.47.666,Vis-A-Scan_AC,2022.2.5,None,
0,0.0,None,fixation,stimulus/viswhat_stim/blank_white.png,stimulus/viswhat_stim/blank_white.png,stimulus/viswhere_stim/blank_white.png,stimulus/viswhere_stim/blank_white.png,stimulus/viswhat_stim/blank_white.png,stimulus/viswhat_stim/blank_white.png,stimulus/viswhat_stim/blank_white.png,stimulus/viswhat_stim/blank_white.png,0.0,0.0,0.0,0.0,0,0.0,0,0.0,0,0.0,0,0.0,0,0.0,0.0,0,0.0,0,0.0,0,0.0,0,0.0,0,0,0,0,0,0,0,0,9,,,,,0,61,61,61,,,,,,,,,541.2177557500036,541.2177557500036,541.2177557500036,541.2177557500036,541.2177557500036,541.2177557500036,541.2177557500036,541.2177557500036,541.1206187083347,541.2177557500036,541.2177557500036,541.2177557500036,541.1206187083347,541.2177557500036,541.2177557500036,541.2177557500036,541.2177557500036,541.2177557500036,541.2177557500036,541.2177557500036,541.2177557500036,541.2177557500036,541.2177557500036,541.2177557500036,541.2177557500036,541.2177557500036,541.2177557500036,541.1706187083347,541.2177557500036,541.2177557500036,541.2177557500036,541.1706187083347,541.2177557500036,541.2177557500036,541.2177557500036,541.2177557500036,541.2177557500036,546.4054581660021,546.4054581660021,550.3721006250053,None,0,,reldom2_s036,001,2025-03-14_12h53.47.666,Vis-A-Scan_AC,2022.2.5,None,
47,Second_Order,8.0,viswhere,stimulus/viswhere_stim/120-deg_dot-left_goldenrod.png,stimulus/viswhere_stim/120-deg_dot-right_seagreen.png,stimulus/viswhere_stim/90-deg_dot-left_peru.png,stimulus/viswhere_stim/90-deg_dot-right_turquoise.png,stimulus/viswhat_stim/match_blank.png,stimulus/viswhat_stim/match_box.png,stimulus/viswhat_stim/match_yes.png,stimulus/viswhat_stim/match_no.png,1.0,Match,Line,Line,1,5.125,0,5.125,0,5.125,0,5.125,0,0.75,0.75,1,0.5,1,2.125,1,0.5,1,2.125,0,0,0,0,0,0,0,0,0,,,,,0,62,62,62,,,,,,,,,550.3721006250053,555.4929151250035,550.8478365830015,551.846387166006,552.4815135000026,553.4716582500041,550.3721006250053,550.3721006250053,550.3866309993338,550.3721006250053,550.3721006250053,550.3721006250053,550.3866309993338,550.3721006250053,555.4929151250035,556.2892773750063,558.3634327079999,562.2506013750026,556.2892773750063,556.2892773750063,561.4204685000004,556.7338672080004,557.7492761660033,558.3634327079999,559.3676912910014,556.2892773750063,556.2892773750063,556.2773110830065,556.2892773750063,556.2892773750063,556.2892773750063,556.2773110830065,556.2892773750063,556.2892773750063,561.4204685000004,556.2892773750063,561.4204685000004,561.4754818330039,562.2506013750026,556.2892773750063,1,1,0.757801166997524,reldom2_s036,001,2025-03-14_12h53.47.666,Vis-A-Scan_AC,2022.2.5,None,
48,Second_Order,8.0,viswhere,stimulus/viswhere_stim/150-deg_dot-right_salmon.png,stimulus/viswhere_stim/90-deg_dot-right_cyan.png,stimulus/viswhere_stim/60-deg_dot-left_mediumslateblue.png,stimulus/viswhere_stim/30-deg_dot-left_turquoise.png,stimulus/viswhat_stim/match_blank.png,stimulus/viswhat_stim/match_box.png,stimulus/viswhat_stim/match_yes.png,stimulus/viswhat_stim/match_no.png,1.0,Match,Dot,Dot,1,5.125,0,5.125,0,5.125,0,5.125,0,0.625,0.625,1,0.5,1,2.125,1,0.5,1,2.125,0,0,0,0,0,0,0,0,0,,,,,0,63,63,63,,,,,,,,,562.2506013750026,567.369907500004,562.7258108330061,563.7241494160044,564.3633615409999,565.3611834160038,562.2506013750026,562.2506013750026,562.2634891660025,562.2506013750026,562.2506013750026,562.2506013750026,562.2634891660025,562.2506013750026,567.369907500004,568.0386157500034,570.1158122080014,574.157108708001,568.0386157500034,568.0386157500034,573.1738923330049,568.5001735410042,569.509231875003,570.1158122080014,571.1340792080009,568.0386157500034,568.0386157500034,568.0171660833371,568.0386157500034,568.0386157500034,568.0386157500034,568.0171660833371,568.0386157500034,568.0386157500034,573.1738923330049,568.0386157500034,573.1738923330049,573.2423668330011,573.8735207080026,568.0386157500034,1,1,0.8893519589983043,reldom2_s036,001,2025-03-14_12h53.47.666,Vis-A-Scan_AC,2022.2.5,None,
0,0.0,None,fixation,stimulus/viswhat_stim/blank_white.png,stimulus/viswhat_stim/blank_white.png,stimulus/viswhere_stim/blank_white.png,stimulus/viswhere_stim/blank_white.png,stimulus/viswhat_stim/blank_white.png,stimulus/viswhat_stim/blank_white.png,stimulus/viswhat_stim/blank_white.png,stimulus/viswhat_stim/blank_white.png,0.0,0.0,0.0,0.0,0,0.0,0,0.0,0,0.0,0,0.0,0,0.0,0.0,0,0.0,0,0.0,0,0.0,0,0.0,0,0,0,0,0,0,0,0,16,,,,,0,64,64,64,,,,,,,,,574.157108708001,574.157108708001,574.157108708001,574.157108708001,574.157108708001,574.157108708001,574.157108708001,574.157108708001,574.0575003333337,574.157108708001,574.157108708001,574.157108708001,574.0575003333337,574.157108708001,574.157108708001,574.157108708001,574.157108708001,574.157108708001,574.157108708001,574.157108708001,574.157108708001,574.157108708001,574.157108708001,574.157108708001,574.157108708001,574.157108708001,574.157108708001,574.1075003333336,574.157108708001,574.157108708001,574.157108708001,574.1075003333336,574.157108708001,574.157108708001,574.157108708001,574.157108708001,574.157108708001,579.3659477910041,579.3659477910041,590.3049172080064,None,0,,reldom2_s036,001,2025-03-14_12h53.47.666,Vis-A-Scan_AC,2022.2.5,None,
