Trial,Order,Block,Type,Stimuli_File1,Stimuli_File2,Stimuli_File3,Stimuli_File4,Cue_File1,Cue_File2,Response_File_Yes,Response_File_No,Match,Cue_Dimension,Pair1_Dimension,Pair2_Dimension,Key,Cue1_Duration,Cue1_Onset,Cue2_Duration,Cue2_Onset,ResponseYes_Duration,ResponseYes_Onset,ResponseNo_Duration,ResponseNo_Onset,ITI_Within,ITI_Between,Image1_Duration,Image1_Onset,Image2_Duration,Image2_Onset,Image3_Duration,Image3_Onset,Image4_Duration,Image4_Onset,Sound1_Duration,Sound1_Onset,Sound2_Duration,Sound2_Onset,Sound3_Duration,Sound3_Onset,Sound4_Duration,Sound4_Onset,Fixation_Duration,trials_2.thisRepN,trials_2.thisTrialN,trials_2.thisN,trials_2.thisIndex,trials.thisRepN,trials.thisTrialN,trials.thisN,trials.thisIndex,text_start.started,key_resp_start.started,key_resp_start.keys,key_resp_start.rt,text2.started,key_resp_2.started,key_resp_2.keys,key_resp_2.rt,cue_file1.started,cue_file1.stopped,image_1.started,image_1.stopped,image_2.started,image_2.stopped,sound_icon1.started,sound_icon1.stopped,sound_1.started,sound_1.stopped,sound_icon2.started,sound_icon2.stopped,sound_2.started,sound_2.stopped,image_blank_1.started,image_blank_1.stopped,key_press.started,key_press.stopped,fixation_text.started,cue_file2.started,cue_file2.stopped,image_3.started,image_3.stopped,image_4.started,image_4.stopped,sound_icon3.started,sound_icon3.stopped,sound_3.started,sound_3.stopped,sound_icon4.started,sound_icon4.stopped,sound_4.started,sound_4.stopped,response_yes.started,response_yes.stopped,response_no.started,response_no.stopped,iti_blank.started,iti_blank.stopped,fixation_text.stopped,key_press.keys,key_press.corr,key_press.rt,participant,session,date,expName,psychopyVersion,frameRate,
,,,,,,,,,,,,,,,,,,,,,,,,,,,,,,,,,,,,,,,,,,,,,,,,,,,,7.237339541999972,7.237339541999972,2,0.9417490839987295,,,,,,,,,,,,,,,,,,,,,,,,,,,,,,,,,,,,,,,,,,,,,,,,reldom2_s036,001,2025-03-14_12h31.23.513,Where-A-Scan_AC,2022.2.5,None,
,,,,,,,,,,,,,,,,,,,,,,,,,,,,,,,,,,,,,,,,,,,,0,0,0,0,,,,,,,,,8.208779249995132,8.208779249995132,5,17.666444750000664,,,,,,,,,,,,,,,,,,,,,,,,,,,,,,,,,,,,,,,,,,,,reldom2_s036,001,2025-03-14_12h31.23.513,Where-A-Scan_AC,2022.2.5,None,
,,,,,,,,,,,,,,,,,,,,,,,,,,,,,,,,,,,,,,,,,,,,1,0,1,0,,,,,,,,,25.893927458993858,25.893927458993858,5,1.9805010420022882,,,,,,,,,,,,,,,,,,,,,,,,,,,,,,,,,,,,,,,,,,,,reldom2_s036,001,2025-03-14_12h31.23.513,Where-A-Scan_AC,2022.2.5,None,
,,,,,,,,,,,,,,,,,,,,,,,,,,,,,,,,,,,,,,,,,,,,2,0,2,0,,,,,,,,,27.891869125000085,27.891869125000085,5,1.9827433340033167,,,,,,,,,,,,,,,,,,,,,,,,,,,,,,,,,,,,,,,,,,,,reldom2_s036,001,2025-03-14_12h31.23.513,Where-A-Scan_AC,2022.2.5,None,
,,,,,,,,,,,,,,,,,,,,,,,,,,,,,,,,,,,,,,,,,,,,3,0,3,0,,,,,,,,,29.88592112499464,29.88592112499464,5,1.9896497919980902,,,,,,,,,,,,,,,,,,,,,,,,,,,,,,,,,,,,,,,,,,,,reldom2_s036,001,2025-03-14_12h31.23.513,Where-A-Scan_AC,2022.2.5,None,
0,0.0,None,fixation,stimulus/viswhere_stim/blank_white.png,stimulus/viswhere_stim/blank_white.png,stimulus/audwhere_stim/blank_white.png,stimulus/audwhere_stim/blank_white.png,stimulus/viswhere_stim/blank_white.png,stimulus/viswhere_stim/blank_white.png,stimulus/viswhere_stim/blank_white.png,stimulus/viswhere_stim/blank_white.png,0.0,0.0,0.0,0.0,0,0.0,0,0.0,0,0.0,0,0.0,0,0.0,0.0,0,0.0,0,0.0,0,0.0,0,0.0,0,0.0,0,0.0,0,0.0,0,0.0,16,,,,,0,0,0,0,,,,,,,,,32.096379583999806,32.096379583999806,32.096379583999806,32.096379583999806,32.096379583999806,32.096379583999806,32.096379583999806,32.096379583999806,31.998051375665334,32.096379583999806,32.096379583999806,32.096379583999806,31.998051375665334,32.096379583999806,32.096379583999806,32.096379583999806,32.096379583999806,32.096379583999806,32.096379583999806,32.096379583999806,32.096379583999806,32.096379583999806,32.096379583999806,32.096379583999806,32.096379583999806,32.096379583999806,32.096379583999806,32.04805137566533,32.096379583999806,32.096379583999806,32.096379583999806,32.04805137566533,32.096379583999806,32.096379583999806,32.096379583999806,32.096379583999806,32.096379583999806,37.27386674999434,37.27386674999434,48.288323499997205,None,0,,reldom2_s036,001,2025-03-14_12h31.23.513,Where-A-Scan_AC,2022.2.5,None,
1,First_Order,1.0,viswhere,stimulus/viswhere_stim/blank_white.png,stimulus/viswhere_stim/blank_white.png,stimulus/viswhere_stim/60-deg_dot-left_peru.png,stimulus/viswhere_stim/60-deg_dot-right_turquoise.png,stimulus/viswhere_stim/blank_white.png,stimulus/viswhere_stim/dot_box.png,stimulus/viswhere_stim/dot_yes.png,stimulus/viswhere_stim/dot_no.png,None,Dot,None,Line,2,0.0,0,5.125,0,5.125,0,5.125,0,0.0,0.625,0,0.0,0,0.0,1,0.5,1,2.125,0,0.0,0,0.0,0,0.0,0,0.0,0,,,,,0,1,1,1,,,,,,,,,48.288323499997205,48.288323499997205,48.288323499997205,48.288323499997205,48.288323499997205,48.288323499997205,48.288323499997205,48.288323499997205,48.269966124999335,48.288323499997205,48.288323499997205,48.288323499997205,48.269966124999335,48.288323499997205,48.288323499997205,48.288323499997205,50.387267333993805,54.3520906249978,48.288323499997205,48.288323499997205,53.425145249995694,48.775837041997875,49.78641558399977,50.387267333993805,51.38912687499396,48.288323499997205,48.288323499997205,48.286632791666,48.288323499997205,48.288323499997205,48.288323499997205,48.286632791666,48.288323499997205,48.288323499997205,53.425145249995694,48.288323499997205,53.425145249995694,53.507091458996,54.131679666999844,48.288323499997205,2,1,1.442255792004289,reldom2_s036,001,2025-03-14_12h31.23.513,Where-A-Scan_AC,2022.2.5,None,
2,First_Order,1.0,viswhere,stimulus/viswhere_stim/blank_white.png,stimulus/viswhere_stim/blank_white.png,stimulus/viswhere_stim/60-deg_dot-right_turquoise.png,stimulus/viswhere_stim/60-deg_dot-left_turquoise.png,stimulus/viswhere_stim/blank_white.png,stimulus/viswhere_stim/line_box.png,stimulus/viswhere_stim/line_yes.png,stimulus/viswhere_stim/line_no.png,None,Line,None,Line,1,0.0,0,5.125,0,5.125,0,5.125,0,0.0,0.625,0,0.0,0,0.0,1,0.5,1,2.125,0,0.0,0,0.0,0,0.0,0,0.0,0,,,,,0,2,2,2,,,,,,,,,54.3520906249978,54.3520906249978,54.3520906249978,54.3520906249978,54.3520906249978,54.3520906249978,54.3520906249978,54.3520906249978,54.33461779232797,54.3520906249978,54.3520906249978,54.3520906249978,54.33461779232797,54.3520906249978,54.3520906249978,54.3520906249978,56.467373999999836,60.41506558399851,54.3520906249978,54.3520906249978,59.47766683399823,54.843129916996986,55.8629773749999,56.467373999999836,57.472143749997485,54.3520906249978,54.3520906249978,54.33461779232797,54.3520906249978,54.3520906249978,54.3520906249978,54.33461779232797,54.3520906249978,54.3520906249978,59.47766683399823,54.3520906249978,59.47766683399823,59.57130279199919,60.20002833399485,54.3520906249978,1,1,1.3960546660018736,reldom2_s036,001,2025-03-14_12h31.23.513,Where-A-Scan_AC,2022.2.5,None,
3,First_Order,1.0,viswhere,stimulus/viswhere_stim/blank_white.png,stimulus/viswhere_stim/blank_white.png,stimulus/viswhere_stim/30-deg_dot-left_salmon.png,stimulus/viswhere_stim/120-deg_dot-left_royalblue.png,stimulus/viswhere_stim/blank_white.png,stimulus/viswhere_stim/line_box.png,stimulus/viswhere_stim/line_yes.png,stimulus/viswhere_stim/line_no.png,None,Line,None,Dot,2,0.0,0,5.125,0,5.125,0,5.125,0,0.0,0.625,0,0.0,0,0.0,1,0.5,1,2.125,0,0.0,0,0.0,0,0.0,0,0.0,0,,,,,0,3,3,3,,,,,,,,,60.41506558399851,60.41506558399851,60.41506558399851,60.41506558399851,60.41506558399851,60.41506558399851,60.41506558399851,60.41506558399851,60.39606575033152,60.41506558399851,60.41506558399851,60.41506558399851,60.39606575033152,60.41506558399851,60.41506558399851,60.41506558399851,62.53007233399694,66.47618479199446,60.41506558399851,60.41506558399851,65.54424845899484,60.905472083999484,61.90885770899331,62.53007233399694,63.53632845899847,60.41506558399851,60.41506558399851,60.39606575033152,60.41506558399851,60.41506558399851,60.41506558399851,60.39606575033152,60.41506558399851,60.41506558399851,65.54424845899484,60.41506558399851,65.54424845899484,65.63863212499564,66.27658716699807,60.41506558399851,2,1,1.1935506670051836,reldom2_s036,001,2025-03-14_12h31.23.513,Where-A-Scan_AC,2022.2.5,None,
4,First_Order,1.0,viswhere,stimulus/viswhere_stim/blank_white.png,stimulus/viswhere_stim/blank_white.png,stimulus/viswhere_stim/150-deg_dot-right_salmon.png,stimulus/viswhere_stim/90-deg_dot-right_goldenrod.png,stimulus/viswhere_stim/blank_white.png,stimulus/viswhere_stim/line_box.png,stimulus/viswhere_stim/line_yes.png,stimulus/viswhere_stim/line_no.png,None,Line,None,Dot,2,0.0,0,5.125,0,5.125,0,5.125,0,0.0,0.625,0,0.0,0,0.0,1,0.5,1,2.125,0,0.0,0,0.0,0,0.0,0,0.0,0,,,,,0,4,4,4,,,,,,,,,66.47618479199446,66.47618479199446,66.47618479199446,66.47618479199446,66.47618479199446,66.47618479199446,66.47618479199446,66.47618479199446,66.45693883333054,66.47618479199446,66.47618479199446,66.47618479199446,66.45693883333054,66.47618479199446,66.47618479199446,66.47618479199446,68.57498287499766,72.61439920900011,66.47618479199446,66.47618479199446,71.59740795899415,66.95317787499516,67.96553504199983,68.57498287499766,69.59050791699701,66.47618479199446,66.47618479199446,66.45693883333054,66.47618479199446,66.47618479199446,66.47618479199446,66.45693883333054,66.47618479199446,66.47618479199446,71.59740795899415,66.47618479199446,71.59740795899415,71.69343337499595,72.32376104199648,66.47618479199446,2,1,1.0476005829987116,reldom2_s036,001,2025-03-14_12h31.23.513,Where-A-Scan_AC,2022.2.5,None,
0,0.0,None,fixation,stimulus/viswhere_stim/blank_white.png,stimulus/viswhere_stim/blank_white.png,stimulus/audwhere_stim/blank_white.png,stimulus/audwhere_stim/blank_white.png,stimulus/viswhere_stim/blank_white.png,stimulus/viswhere_stim/blank_white.png,stimulus/viswhere_stim/blank_white.png,stimulus/viswhere_stim/blank_white.png,0.0,0.0,0.0,0.0,0,0.0,0,0.0,0,0.0,0,0.0,0,0.0,0.0,0,0.0,0,0.0,0,0.0,0,0.0,0,0.0,0,0.0,0,0.0,0,0.0,9,,,,,0,5,5,5,,,,,,,,,72.61439920900011,72.61439920900011,72.61439920900011,72.61439920900011,72.61439920900011,72.61439920900011,72.61439920900011,72.61439920900011,72.517471500328,72.61439920900011,72.61439920900011,72.61439920900011,72.517471500328,72.61439920900011,72.61439920900011,72.61439920900011,72.61439920900011,72.61439920900011,72.61439920900011,72.61439920900011,72.61439920900011,72.61439920900011,72.61439920900011,72.61439920900011,72.61439920900011,72.61439920900011,72.61439920900011,72.567471500328,72.61439920900011,72.61439920900011,72.61439920900011,72.567471500328,72.61439920900011,72.61439920900011,72.61439920900011,72.61439920900011,72.61439920900011,77.82188491699344,77.82188491699344,81.73019866699906,None,0,,reldom2_s036,001,2025-03-14_12h31.23.513,Where-A-Scan_AC,2022.2.5,None,
5,Second_Order,1.0,viswhere,stimulus/viswhere_stim/90-deg_dot-right_mediumslateblue.png,stimulus/viswhere_stim/90-deg_dot-left_peru.png,stimulus/viswhere_stim/150-deg_dot-left_seagreen.png,stimulus/viswhere_stim/120-deg_dot-left_mediumslateblue.png,stimulus/viswhere_stim/match_blank.png,stimulus/viswhere_stim/match_box.png,stimulus/viswhere_stim/match_yes.png,stimulus/viswhere_stim/match_no.png,2.0,Match,Line,Dot,2,5.125,0,5.125,0,5.125,0,5.125,0,0.75,0.75,1,0.5,1,2.125,1,0.5,1,2.125,0,0.0,0,0.0,0,0.0,0,0.0,0,,,,,0,6,6,6,,,,,,,,,81.73019866699906,86.84618249999767,82.21427733399469,83.20296979199338,83.83953837499575,84.83675512499758,81.73019866699906,81.73019866699906,81.72929741666108,81.73019866699906,81.73019866699906,81.73019866699906,81.72929741666108,81.73019866699906,86.84618249999767,87.64045583400002,89.71222008399491,93.58019724999758,87.64045583400002,87.64045583400002,92.76586929199402,88.08370954199927,89.09710799999448,89.71222008399491,90.71458674999303,87.64045583400002,87.64045583400002,87.63017616699362,87.64045583400002,87.64045583400002,87.64045583400002,87.63017616699362,87.64045583400002,87.64045583400002,92.76586929199402,87.64045583400002,92.76586929199402,92.8350158339963,93.61654637499305,87.64045583400002,2,1,1.1473763750036596,reldom2_s036,001,2025-03-14_12h31.23.513,Where-A-Scan_AC,2022.2.5,None,
6,Second_Order,1.0,viswhere,stimulus/viswhere_stim/60-deg_dot-right_salmon.png,stimulus/viswhere_stim/150-deg_dot-right_cyan.png,stimulus/viswhere_stim/120-deg_dot-left_lightsseagreen.png,stimulus/viswhere_stim/90-deg_dot-left_goldenrod.png,stimulus/viswhere_stim/match_blank.png,stimulus/viswhere_stim/match_box.png,stimulus/viswhere_stim/match_yes.png,stimulus/viswhere_stim/match_no.png,1.0,Match,Dot,Dot,1,5.125,0,5.125,0,5.125,0,5.125,0,0.625,0.625,1,0.5,1,2.125,1,0.5,1,2.125,0,0.0,0,0.0,0,0.0,0,0.0,0,,,,,0,7,7,7,,,,,,,,,93.61654637499305,98.74003749999974,94.09523316699779,95.08182958399993,95.72881658400001,96.71816070899513,93.61654637499305,93.61654637499305,93.63019724999758,93.61654637499305,93.61654637499305,93.61654637499305,93.63019724999758,93.61654637499305,98.74003749999974,99.41135074999329,101.48211862499738,105.51910212499934,99.41135074999329,99.41135074999329,104.54827666699566,99.86896329199953,100.87597058399842,101.48211862499738,102.49452162499801,99.41135074999329,99.41135074999329,99.38698483332749,99.41135074999329,99.41135074999329,99.41135074999329,99.38698483332749,99.41135074999329,99.41135074999329,104.54827666699566,99.41135074999329,104.54827666699566,104.60196741699474,105.22676983399288,99.41135074999329,1,1,0.9043107080069603,reldom2_s036,001,2025-03-14_12h31.23.513,Where-A-Scan_AC,2022.2.5,None,
0,0.0,None,fixation,stimulus/viswhere_stim/blank_white.png,stimulus/viswhere_stim/blank_white.png,stimulus/audwhere_stim/blank_white.png,stimulus/audwhere_stim/blank_white.png,stimulus/viswhere_stim/blank_white.png,stimulus/viswhere_stim/blank_white.png,stimulus/viswhere_stim/blank_white.png,stimulus/viswhere_stim/blank_white.png,0.0,0.0,0.0,0.0,0,0.0,0,0.0,0,0.0,0,0.0,0,0.0,0.0,0,0.0,0,0.0,0,0.0,0,0.0,0,0.0,0,0.0,0,0.0,0,0.0,8,,,,,0,8,8,8,,,,,,,,,105.51910212499934,105.51910212499934,105.51910212499934,105.51910212499934,105.51910212499934,105.51910212499934,105.51910212499934,105.51910212499934,105.42335112533085,105.51910212499934,105.51910212499934,105.51910212499934,105.42335112533085,105.51910212499934,105.51910212499934,105.51910212499934,105.51910212499934,105.51910212499934,105.51910212499934,105.51910212499934,105.51910212499934,105.51910212499934,105.51910212499934,105.51910212499934,105.51910212499934,105.51910212499934,105.51910212499934,105.47335112533085,105.51910212499934,105.51910212499934,105.51910212499934,105.47335112533085,105.51910212499934,105.51910212499934,105.51910212499934,105.51910212499934,105.51910212499934,110.74635212499561,110.74635212499561,113.71345070899406,None,0,,reldom2_s036,001,2025-03-14_12h31.23.513,Where-A-Scan_AC,2022.2.5,None,
7,First_Order,2.0,viswhere,stimulus/viswhere_stim/blank_white.png,stimulus/viswhere_stim/blank_white.png,stimulus/viswhere_stim/30-deg_dot-right_cyan.png,stimulus/viswhere_stim/30-deg_dot-left_cyan.png,stimulus/viswhere_stim/blank_white.png,stimulus/viswhere_stim/line_box.png,stimulus/viswhere_stim/line_yes.png,stimulus/viswhere_stim/line_no.png,None,Line,None,Line,1,0.0,0,5.125,0,5.125,0,5.125,0,0.0,0.625,0,0.0,0,0.0,1,0.5,1,2.125,0,0.0,0,0.0,0,0.0,0,0.0,0,,,,,0,9,9,9,,,,,,,,,113.71345070899406,113.71345070899406,113.71345070899406,113.71345070899406,113.71345070899406,113.71345070899406,113.71345070899406,113.71345070899406,113.69615587566174,113.71345070899406,113.71345070899406,113.71345070899406,113.69615587566174,113.71345070899406,113.71345070899406,113.71345070899406,115.82291545899352,119.76901079199888,113.71345070899406,113.71345070899406,118.83547766699485,114.19051062499784,115.19735362499341,115.82291545899352,116.83901429199614,113.71345070899406,113.71345070899406,113.69615587566174,113.71345070899406,113.71345070899406,113.71345070899406,113.69615587566174,113.71345070899406,113.71345070899406,118.83547766699485,113.71345070899406,118.83547766699485,118.93388870899798,119.56643854199501,113.71345070899406,1,1,0.8432675419971929,reldom2_s036,001,2025-03-14_12h31.23.513,Where-A-Scan_AC,2022.2.5,None,
8,First_Order,2.0,viswhere,stimulus/viswhere_stim/blank_white.png,stimulus/viswhere_stim/blank_white.png,stimulus/viswhere_stim/60-deg_dot-right_slateblue.png,stimulus/viswhere_stim/60-deg_dot-left_goldenrod.png,stimulus/viswhere_stim/blank_white.png,stimulus/viswhere_stim/dot_box.png,stimulus/viswhere_stim/dot_yes.png,stimulus/viswhere_stim/dot_no.png,None,Dot,None,Line,2,0.0,0,5.125,0,5.125,0,5.125,0,0.0,0.625,0,0.0,0,0.0,1,0.5,1,2.125,0,0.0,0,0.0,0,0.0,0,0.0,0,,,,,0,10,10,10,,,,,,,,,119.76901079199888,119.76901079199888,119.76901079199888,119.76901079199888,119.76901079199888,119.76901079199888,119.76901079199888,119.76901079199888,119.75007241732722,119.76901079199888,119.76901079199888,119.76901079199888,119.75007241732722,119.76901079199888,119.76901079199888,119.76901079199888,121.87509512499673,125.8336306669953,119.76901079199888,119.76901079199888,124.89756116699573,120.24440683399735,121.25052570899425,121.87509512499673,122.88566945899947,119.76901079199888,119.76901079199888,119.75007241732722,119.76901079199888,119.76901079199888,119.76901079199888,119.75007241732722,119.76901079199888,119.76901079199888,124.89756116699573,119.76901079199888,124.89756116699573,125.01261858399812,125.63359700000001,119.76901079199888,2,1,1.464457959002175,reldom2_s036,001,2025-03-14_12h31.23.513,Where-A-Scan_AC,2022.2.5,None,
9,First_Order,2.0,viswhere,stimulus/viswhere_stim/blank_white.png,stimulus/viswhere_stim/blank_white.png,stimulus/viswhere_stim/90-deg_dot-right_cyan.png,stimulus/viswhere_stim/60-deg_dot-right_slateblue.png,stimulus/viswhere_stim/blank_white.png,stimulus/viswhere_stim/dot_box.png,stimulus/viswhere_stim/dot_yes.png,stimulus/viswhere_stim/dot_no.png,None,Dot,None,Dot,1,0.0,0,5.125,0,5.125,0,5.125,0,0.0,0.625,0,0.0,0,0.0,1,0.5,1,2.125,0,0.0,0,0.0,0,0.0,0,0.0,0,,,,,0,11,11,11,,,,,,,,,125.8336306669953,125.8336306669953,125.8336306669953,125.8336306669953,125.8336306669953,125.8336306669953,125.8336306669953,125.8336306669953,125.81396012533271,125.8336306669953,125.8336306669953,125.8336306669953,125.81396012533271,125.8336306669953,125.8336306669953,125.8336306669953,127.94105445899913,131.91658524999366,125.8336306669953,125.8336306669953,130.9686976669982,126.30913879199943,127.31500199999573,127.94105445899913,128.95279549999395,125.8336306669953,125.8336306669953,125.81396012533271,125.8336306669953,125.8336306669953,125.8336306669953,125.81396012533271,125.8336306669953,125.8336306669953,130.9686976669982,125.8336306669953,130.9686976669982,131.06371133399807,131.68490254199423,125.8336306669953,1,1,0.9573457500082441,reldom2_s036,001,2025-03-14_12h31.23.513,Where-A-Scan_AC,2022.2.5,None,
10,First_Order,2.0,viswhere,stimulus/viswhere_stim/blank_white.png,stimulus/viswhere_stim/blank_white.png,stimulus/viswhere_stim/60-deg_dot-left_mediumslateblue.png,stimulus/viswhere_stim/150-deg_dot-left_peru.png,stimulus/viswhere_stim/blank_white.png,stimulus/viswhere_stim/dot_box.png,stimulus/viswhere_stim/dot_yes.png,stimulus/viswhere_stim/dot_no.png,None,Dot,None,Dot,1,0.0,0,5.125,0,5.125,0,5.125,0,0.0,0.625,0,0.0,0,0.0,1,0.5,1,2.125,0,0.0,0,0.0,0,0.0,0,0.0,0,,,,,0,12,12,12,,,,,,,,,131.91658524999366,131.91658524999366,131.91658524999366,131.91658524999366,131.91658524999366,131.91658524999366,131.91658524999366,131.91658524999366,131.89466133332948,131.91658524999366,131.91658524999366,131.91658524999366,131.89466133332948,131.91658524999366,131.91658524999366,131.91658524999366,134.01421470899368,138.05947733399807,131.91658524999366,131.91658524999366,137.0567920839967,132.39287933399464,133.40351687499788,134.01421470899368,135.029653916994,131.91658524999366,131.91658524999366,131.91132799999616,131.91658524999366,131.91658524999366,131.91658524999366,131.91132799999616,131.91658524999366,131.91658524999366,137.0567920839967,131.91658524999366,137.0567920839967,137.14018887499697,137.76553783399868,131.91658524999366,1,1,1.194750708003994,reldom2_s036,001,2025-03-14_12h31.23.513,Where-A-Scan_AC,2022.2.5,None,
0,0.0,None,fixation,stimulus/viswhere_stim/blank_white.png,stimulus/viswhere_stim/blank_white.png,stimulus/audwhere_stim/blank_white.png,stimulus/audwhere_stim/blank_white.png,stimulus/viswhere_stim/blank_white.png,stimulus/viswhere_stim/blank_white.png,stimulus/viswhere_stim/blank_white.png,stimulus/viswhere_stim/blank_white.png,0.0,0.0,0.0,0.0,0,0.0,0,0.0,0,0.0,0,0.0,0,0.0,0.0,0,0.0,0,0.0,0,0.0,0,0.0,0,0.0,0,0.0,0,0.0,0,0.0,10,,,,,0,13,13,13,,,,,,,,,138.05947733399807,138.05947733399807,138.05947733399807,138.05947733399807,138.05947733399807,138.05947733399807,138.05947733399807,138.05947733399807,137.961341292333,138.05947733399807,138.05947733399807,138.05947733399807,137.961341292333,138.05947733399807,138.05947733399807,138.05947733399807,138.05947733399807,138.05947733399807,138.05947733399807,138.05947733399807,138.05947733399807,138.05947733399807,138.05947733399807,138.05947733399807,138.05947733399807,138.05947733399807,138.05947733399807,138.01134129233301,138.05947733399807,138.05947733399807,138.05947733399807,138.01134129233301,138.05947733399807,138.05947733399807,138.05947733399807,138.05947733399807,138.05947733399807,143.26426824999362,143.26426824999362,148.16604899999948,None,0,,reldom2_s036,001,2025-03-14_12h31.23.513,Where-A-Scan_AC,2022.2.5,None,
11,Second_Order,2.0,viswhere,stimulus/viswhere_stim/120-deg_dot-right_turquoise.png,stimulus/viswhere_stim/120-deg_dot-left_goldenrod.png,stimulus/viswhere_stim/60-deg_dot-left_turquoise.png,stimulus/viswhere_stim/150-deg_dot-left_seagreen.png,stimulus/viswhere_stim/match_blank.png,stimulus/viswhere_stim/match_box.png,stimulus/viswhere_stim/match_yes.png,stimulus/viswhere_stim/match_no.png,2.0,Match,Line,Dot,2,5.125,0,5.125,0,5.125,0,5.125,0,0.75,0.75,1,0.5,1,2.125,1,0.5,1,2.125,0,0.0,0,0.0,0,0.0,0,0.0,0,,,,,0,14,14,14,,,,,,,,,148.16604899999948,153.2829924589969,148.6383902499947,149.63629416699405,150.27610216699395,151.27358774999448,148.16604899999948,148.16604899999948,148.18117841732797,148.16604899999948,148.16604899999948,148.16604899999948,148.18117841732797,148.16604899999948,153.2829924589969,154.07451891699748,156.15078120899852,160.0141909169979,154.07451891699748,154.07451891699748,159.2080279169968,154.53810208399955,155.55635166699358,156.15078120899852,157.15281608399528,154.07451891699748,154.07451891699748,154.05059633332763,154.07451891699748,154.07451891699748,154.07451891699748,154.05059633332763,154.07451891699748,154.07451891699748,159.2080279169968,154.07451891699748,159.2080279169968,159.27714591699623,160.0505483339948,154.07451891699748,2,1,1.5055737080037943,reldom2_s036,001,2025-03-14_12h31.23.513,Where-A-Scan_AC,2022.2.5,None,
12,Second_Order,2.0,viswhere,stimulus/viswhere_stim/30-deg_dot-right_mediumslateblue.png,stimulus/viswhere_stim/30-deg_dot-left_seagreen.png,stimulus/viswhere_stim/120-deg_dot-right_goldenrod.png,stimulus/viswhere_stim/120-deg_dot-left_salmon.png,stimulus/viswhere_stim/match_blank.png,stimulus/viswhere_stim/match_box.png,stimulus/viswhere_stim/match_yes.png,stimulus/viswhere_stim/match_no.png,1.0,Match,Line,Line,1,5.125,0,5.125,0,5.125,0,5.125,0,0.625,0.625,1,0.5,1,2.125,1,0.5,1,2.125,0,0.0,0,0.0,0,0.0,0,0.0,0,,,,,0,15,15,15,,,,,,,,,160.0505483339948,165.17254741699435,160.53232508399378,161.53082387499308,162.15299933399365,163.1512642919988,160.0505483339948,160.0505483339948,160.06419091699792,160.0505483339948,160.0505483339948,160.0505483339948,160.06419091699792,160.0505483339948,165.17254741699435,165.8471372089989,167.9205887499993,171.96807754199835,165.8471372089989,165.8471372089989,170.98768791699695,166.30717004199687,167.31239399999322,167.9205887499993,168.929590791995,165.8471372089989,165.8471372089989,165.82396429232955,165.8471372089989,165.8471372089989,165.8471372089989,165.82396429232955,165.8471372089989,165.8471372089989,170.98768791699695,165.8471372089989,170.98768791699695,171.04236949999904,171.66343458399933,165.8471372089989,1,1,1.0971895000038785,reldom2_s036,001,2025-03-14_12h31.23.513,Where-A-Scan_AC,2022.2.5,None,
0,0.0,None,fixation,stimulus/viswhere_stim/blank_white.png,stimulus/viswhere_stim/blank_white.png,stimulus/audwhere_stim/blank_white.png,stimulus/audwhere_stim/blank_white.png,stimulus/viswhere_stim/blank_white.png,stimulus/viswhere_stim/blank_white.png,stimulus/viswhere_stim/blank_white.png,stimulus/viswhere_stim/blank_white.png,0.0,0.0,0.0,0.0,0,0.0,0,0.0,0,0.0,0,0.0,0,0.0,0.0,0,0.0,0,0.0,0,0.0,0,0.0,0,0.0,0,0.0,0,0.0,0,0.0,8,,,,,0,16,16,16,,,,,,,,,171.96807754199835,171.96807754199835,171.96807754199835,171.96807754199835,171.96807754199835,171.96807754199835,171.96807754199835,171.96807754199835,171.87029312533318,171.96807754199835,171.96807754199835,171.96807754199835,171.87029312533318,171.96807754199835,171.96807754199835,171.96807754199835,171.96807754199835,171.96807754199835,171.96807754199835,171.96807754199835,171.96807754199835,171.96807754199835,171.96807754199835,171.96807754199835,171.96807754199835,171.96807754199835,171.96807754199835,171.9202931253332,171.96807754199835,171.96807754199835,171.96807754199835,171.9202931253332,171.96807754199835,171.96807754199835,171.96807754199835,171.96807754199835,171.96807754199835,177.16272762500012,177.16272762500012,180.18670154199935,None,0,,reldom2_s036,001,2025-03-14_12h31.23.513,Where-A-Scan_AC,2022.2.5,None,
13,First_Order,3.0,audwhere,stimulus/audwhere_stim/dummy.wav,stimulus/audwhere_stim/dummy.wav,stimulus/audwhere_stim/right_away_290h.wav,stimulus/audwhere_stim/right_toward_280h.wav,stimulus/audwhere_stim/blank_white.png,stimulus/audwhere_stim/side_box.png,stimulus/audwhere_stim/side_yes.png,stimulus/audwhere_stim/side_no.png,None,Side,None,Side,1,0.0,0,5.125,0,5.125,0,5.125,0,0.0,0.625,0,0.0,0,0.0,0,0.0,0,0.0,0,0.0,0,0.0,1,0.5,1,2.125,0,,,,,0,17,17,17,,,,,,,,,180.18670154199935,180.18670154199935,180.18670154199935,180.18670154199935,180.18670154199935,180.18670154199935,180.18670154199935,180.18670154199935,180.11733966666606,180.18670154199935,180.18670154199935,180.18670154199935,180.11733966666606,180.18670154199935,180.18670154199935,180.18670154199935,182.2982164999994,186.31308329199965,180.18670154199935,180.18670154199935,185.3717735839964,180.18670154199935,180.18670154199935,180.18670154199935,180.18670154199935,180.6454414999971,181.70066199999565,180.61669983365962,,182.2982164999994,183.3526172089987,182.26907554166635,,180.18670154199935,185.3717735839964,180.18670154199935,185.3717735839964,185.4126813749972,186.10094899999967,180.18670154199935,1,1,2.44082145900029,reldom2_s036,001,2025-03-14_12h31.23.513,Where-A-Scan_AC,2022.2.5,None,
14,First_Order,3.0,audwhere,stimulus/audwhere_stim/dummy.wav,stimulus/audwhere_stim/dummy.wav,stimulus/audwhere_stim/right_away_300h.wav,stimulus/audwhere_stim/left_away_300h.wav,stimulus/audwhere_stim/blank_white.png,stimulus/audwhere_stim/side_box.png,stimulus/audwhere_stim/side_yes.png,stimulus/audwhere_stim/side_no.png,None,Side,None,Direction,2,0.0,0,5.125,0,5.125,0,5.125,0,0.0,0.625,0,0.0,0,0.0,0,0.0,0,0.0,0,0.0,0,0.0,1,0.5,1,2.125,0,,,,,0,18,18,18,,,,,,,,,186.31308329199965,186.31308329199965,186.31308329199965,186.31308329199965,186.31308329199965,186.31308329199965,186.31308329199965,186.31308329199965,186.23428233333303,186.31308329199965,186.31308329199965,186.31308329199965,186.23428233333303,186.31308329199965,186.31308329199965,186.31308329199965,188.38243670899828,,186.31308329199965,186.31308329199965,191.46468591699522,186.31308329199965,186.31308329199965,186.31308329199965,186.31308329199965,186.77156345899857,187.83220787499886,186.74241966666548,,188.38243670899828,189.44233208399964,188.35383112566004,,186.31308329199965,191.46468591699522,186.31308329199965,191.46468591699522,191.50563441699342,192.15615908399923,186.31308329199965,2,1,1.2080330000026152,reldom2_s036,001,2025-03-14_12h31.23.513,Where-A-Scan_AC,2022.2.5,None,
15,First_Order,3.0,audwhere,stimulus/audwhere_stim/dummy.wav,stimulus/audwhere_stim/dummy.wav,stimulus/audwhere_stim/left_away_290h.wav,stimulus/audwhere_stim/right_away_280h.wav,stimulus/audwhere_stim/blank_white.png,stimulus/audwhere_stim/direction_box.png,stimulus/audwhere_stim/direction_yes.png,stimulus/audwhere_stim/direction_no.png,None,Direction,None,Direction,1,0.0,0,5.125,0,5.125,0,5.125,0,0.0,0.625,0,0.0,0,0.0,0,0.0,0,0.0,0,0.0,0,0.0,1,0.5,1,2.125,0,,,,,0,19,19,19,,,,,,,,,192.4081573749936,192.4081573749936,192.4081573749936,192.4081573749936,192.4081573749936,192.4081573749936,192.4081573749936,192.4081573749936,192.3300252083301,192.4081573749936,192.4081573749936,192.4081573749936,192.3300252083301,192.4081573749936,192.4081573749936,192.4081573749936,194.49485291699966,,192.4081573749936,192.4081573749936,197.6000280839944,192.4081573749936,192.4081573749936,192.4081573749936,192.4081573749936,192.87075987499702,193.94014212499314,192.8411381256631,,194.49485291699966,195.56303891699645,194.46520754166366,,192.4081573749936,197.6000280839944,192.4081573749936,197.6000280839944,197.6000280839944,198.25192479199904,192.4081573749936,2,0,1.4528326250001555,reldom2_s036,001,2025-03-14_12h31.23.513,Where-A-Scan_AC,2022.2.5,None,
16,First_Order,3.0,audwhere,stimulus/audwhere_stim/dummy.wav,stimulus/audwhere_stim/dummy.wav,stimulus/audwhere_stim/right_toward_270h.wav,stimulus/audwhere_stim/right_away_300h.wav,stimulus/audwhere_stim/blank_white.png,stimulus/audwhere_stim/direction_box.png,stimulus/audwhere_stim/direction_yes.png,stimulus/audwhere_stim/direction_no.png,None,Direction,None,Side,2,0.0,0,5.125,0,5.125,0,5.125,0,0.0,0.625,0,0.0,0,0.0,0,0.0,0,0.0,0,0.0,0,0.0,1,0.5,1,2.125,0,,,,,0,20,20,20,,,,,,,,,198.50459899999987,198.50459899999987,198.50459899999987,198.50459899999987,198.50459899999987,198.50459899999987,198.50459899999987,198.50459899999987,198.42610954233,198.50459899999987,198.50459899999987,198.50459899999987,198.42610954233,198.50459899999987,198.50459899999987,198.50459899999987,200.5912580419972,,198.50459899999987,198.50459899999987,203.69649699999718,198.50459899999987,198.50459899999987,198.50459899999987,198.50459899999987,198.96927533399867,200.03475212499325,198.9392654166625,,200.5912580419972,201.65745904199866,200.56170170866633,,198.50459899999987,203.69649699999718,198.50459899999987,203.69649699999718,203.69649699999718,204.35133783399942,198.50459899999987,2,1,1.3762084159970982,reldom2_s036,001,2025-03-14_12h31.23.513,Where-A-Scan_AC,2022.2.5,None,
0,0.0,None,fixation,stimulus/viswhere_stim/blank_white.png,stimulus/viswhere_stim/blank_white.png,stimulus/audwhere_stim/blank_white.png,stimulus/audwhere_stim/blank_white.png,stimulus/viswhere_stim/blank_white.png,stimulus/viswhere_stim/blank_white.png,stimulus/viswhere_stim/blank_white.png,stimulus/viswhere_stim/blank_white.png,0.0,0.0,0.0,0.0,0,0.0,0,0.0,0,0.0,0,0.0,0,0.0,0.0,0,0.0,0,0.0,0,0.0,0,0.0,0,0.0,0,0.0,0,0.0,0,0.0,9,,,,,0,21,21,21,,,,,,,,,204.62436829199578,204.62436829199578,204.62436829199578,204.62436829199578,204.62436829199578,204.62436829199578,204.62436829199578,204.62436829199578,204.52552208332978,204.62436829199578,204.62436829199578,204.62436829199578,204.52552208332978,204.62436829199578,204.62436829199578,204.62436829199578,204.62436829199578,204.62436829199578,204.62436829199578,204.62436829199578,204.62436829199578,204.62436829199578,204.62436829199578,204.62436829199578,204.62436829199578,204.62436829199578,204.62436829199578,204.57552208332976,204.62436829199578,204.62436829199578,204.62436829199578,204.57552208332976,204.62436829199578,204.62436829199578,204.62436829199578,204.62436829199578,204.62436829199578,209.84086174999538,209.84086174999538,213.77096754199738,None,0,,reldom2_s036,001,2025-03-14_12h31.23.513,Where-A-Scan_AC,2022.2.5,None,
17,Second_Order,3.0,audwhere,stimulus/audwhere_stim/right_away_270h.wav,stimulus/audwhere_stim/left_away_270h.wav,stimulus/audwhere_stim/right_toward_280h.wav,stimulus/audwhere_stim/left_toward_280h.wav,stimulus/viswhere_stim/match_blank.png,stimulus/audwhere_stim/match_box.png,stimulus/viswhere_stim/match_yes.png,stimulus/viswhere_stim/match_no.png,1.0,Match,Direction,Direction,1,5.125,0,5.125,0,5.125,0,5.125,0,0.75,0.75,0,0.0,0,0.0,0,0.0,0,0.0,1,0.5,1,2.125,1,0.5,1,2.125,0,,,,,0,22,22,22,,,,,,,,,213.77096754199738,218.8859392499944,213.77096754199738,213.77096754199738,213.77096754199738,213.77096754199738,214.22363104199758,215.22175087499636,214.2359880416664,,215.84373483399395,216.8421200839948,215.85638300066447,,218.8859392499944,219.73382570899412,221.78372720899642,,219.73382570899412,219.73382570899412,224.89897854199808,219.73382570899412,219.73382570899412,219.73382570899412,219.73382570899412,220.189037499993,221.23684449999564,220.15980033366603,221.19119791699632,221.78372720899642,222.83956345899787,221.75427691666508,,219.73382570899412,224.89897854199808,219.73382570899412,224.89897854199808,224.89897854199808,,219.73382570899412,1,1,1.5373910000053002,reldom2_s036,001,2025-03-14_12h31.23.513,Where-A-Scan_AC,2022.2.5,None,
18,Second_Order,3.0,audwhere,stimulus/audwhere_stim/left_away_300h.wav,stimulus/audwhere_stim/right_away_290h.wav,stimulus/audwhere_stim/left_toward_300h.wav,stimulus/audwhere_stim/left_away_290h.wav,stimulus/viswhere_stim/match_blank.png,stimulus/audwhere_stim/match_box.png,stimulus/viswhere_stim/match_yes.png,stimulus/viswhere_stim/match_no.png,2.0,Match,Direction,Side,2,5.125,0,5.125,0,5.125,0,5.125,0,0.625,0.625,0,0.0,0,0.0,0,0.0,0,0.0,1,0.5,1,2.125,1,0.5,1,2.125,0,,,,,0,23,23,23,,,,,,,,,225.70043112499843,230.8241971249954,225.70043112499843,225.70043112499843,225.70043112499843,225.70043112499843,226.1487384169959,227.13556608399813,226.16313433365966,,227.78406820899545,228.77302154199424,227.78764508365956,228.78587599999446,230.8241971249954,231.55806391699298,233.59727804199792,,231.55806391699298,231.55806391699298,236.74303283399786,231.55806391699298,231.55806391699298,231.55806391699298,231.55806391699298,232.01024720899295,233.0538782089934,231.98121675066457,233.0088128339994,233.59727804199792,234.64720108399342,233.5681560006599,,231.55806391699298,236.74303283399786,231.55806391699298,236.74303283399786,236.74303283399786,237.4227022089981,231.55806391699298,2,1,1.1350710420083487,reldom2_s036,001,2025-03-14_12h31.23.513,Where-A-Scan_AC,2022.2.5,None,
0,0.0,None,fixation,stimulus/viswhere_stim/blank_white.png,stimulus/viswhere_stim/blank_white.png,stimulus/audwhere_stim/blank_white.png,stimulus/audwhere_stim/blank_white.png,stimulus/viswhere_stim/blank_white.png,stimulus/viswhere_stim/blank_white.png,stimulus/viswhere_stim/blank_white.png,stimulus/viswhere_stim/blank_white.png,0.0,0.0,0.0,0.0,0,0.0,0,0.0,0,0.0,0,0.0,0,0.0,0.0,0,0.0,0,0.0,0,0.0,0,0.0,0,0.0,0,0.0,0,0.0,0,0.0,9,,,,,0,24,24,24,,,,,,,,,237.65133074999903,237.65133074999903,237.65133074999903,237.65133074999903,237.65133074999903,237.65133074999903,237.65133074999903,237.65133074999903,237.55603554233144,237.65133074999903,237.65133074999903,237.65133074999903,237.55603554233144,237.65133074999903,237.65133074999903,237.65133074999903,237.65133074999903,237.65133074999903,237.65133074999903,237.65133074999903,237.65133074999903,237.65133074999903,237.65133074999903,237.65133074999903,237.65133074999903,237.65133074999903,237.65133074999903,237.60603554233143,237.65133074999903,237.65133074999903,237.65133074999903,237.60603554233143,237.65133074999903,237.65133074999903,237.65133074999903,237.65133074999903,237.65133074999903,242.85281308399863,242.85281308399863,246.87670508399606,None,0,,reldom2_s036,001,2025-03-14_12h31.23.513,Where-A-Scan_AC,2022.2.5,None,
19,First_Order,4.0,audwhere,stimulus/audwhere_stim/dummy.wav,stimulus/audwhere_stim/dummy.wav,stimulus/audwhere_stim/right_away_300h.wav,stimulus/audwhere_stim/left_away_280h.wav,stimulus/audwhere_stim/blank_white.png,stimulus/audwhere_stim/direction_box.png,stimulus/audwhere_stim/direction_yes.png,stimulus/audwhere_stim/direction_no.png,None,Direction,None,Direction,1,0.0,0,5.125,0,5.125,0,5.125,0,0.0,0.625,0,0.0,0,0.0,0,0.0,0,0.0,0,0.0,0,0.0,1,0.5,1,2.125,0,,,,,0,25,25,25,,,,,,,,,246.87670508399606,246.87670508399606,246.87670508399606,246.87670508399606,246.87670508399606,246.87670508399606,246.87670508399606,246.87670508399606,246.8063709166624,246.87670508399606,246.87670508399606,246.87670508399606,246.8063709166624,246.87670508399606,246.87670508399606,246.87670508399606,248.9485693339957,,246.87670508399606,246.87670508399606,252.04199258399603,246.87670508399606,246.87670508399606,246.87670508399606,246.87670508399606,247.33728616699955,248.3969335839938,247.30825691666203,,248.9485693339957,250.01122445899819,248.91865712566167,,246.87670508399606,252.04199258399603,246.87670508399606,252.04199258399603,252.0825081669973,252.73073487499641,246.87670508399606,1,1,1.234272499998042,reldom2_s036,001,2025-03-14_12h31.23.513,Where-A-Scan_AC,2022.2.5,None,
20,First_Order,4.0,audwhere,stimulus/audwhere_stim/dummy.wav,stimulus/audwhere_stim/dummy.wav,stimulus/audwhere_stim/right_toward_270h.wav,stimulus/audwhere_stim/right_away_280h.wav,stimulus/audwhere_stim/blank_white.png,stimulus/audwhere_stim/direction_box.png,stimulus/audwhere_stim/direction_yes.png,stimulus/audwhere_stim/direction_no.png,None,Direction,None,Side,2,0.0,0,5.125,0,5.125,0,5.125,0,0.0,0.625,0,0.0,0,0.0,0,0.0,0,0.0,0,0.0,0,0.0,1,0.5,1,2.125,0,,,,,0,26,26,26,,,,,,,,,252.98341087500012,252.98341087500012,252.98341087500012,252.98341087500012,252.98341087500012,252.98341087500012,252.98341087500012,252.98341087500012,252.90477600033242,252.98341087500012,252.98341087500012,252.98341087500012,252.90477600033242,252.98341087500012,252.98341087500012,252.98341087500012,255.0641835839997,259.1096439999965,252.98341087500012,252.98341087500012,258.1653819589992,252.98341087500012,252.98341087500012,252.98341087500012,252.98341087500012,253.44570837499487,254.51075574999413,253.41571025066176,,255.0641835839997,256.13008699999773,255.03486129166075,,252.98341087500012,258.1653819589992,252.98341087500012,258.1653819589992,258.2065931249963,258.8576866249932,252.98341087500012,2,1,1.4602040000027046,reldom2_s036,001,2025-03-14_12h31.23.513,Where-A-Scan_AC,2022.2.5,None,
21,First_Order,4.0,audwhere,stimulus/audwhere_stim/dummy.wav,stimulus/audwhere_stim/dummy.wav,stimulus/audwhere_stim/left_toward_300h.wav,stimulus/audwhere_stim/left_away_300h.wav,stimulus/audwhere_stim/blank_white.png,stimulus/audwhere_stim/side_box.png,stimulus/audwhere_stim/side_yes.png,stimulus/audwhere_stim/side_no.png,None,Side,None,Side,1,0.0,0,5.125,0,5.125,0,5.125,0,0.0,0.625,0,0.0,0,0.0,0,0.0,0,0.0,0,0.0,0,0.0,1,0.5,1,2.125,0,,,,,0,27,27,27,,,,,,,,,259.1096439999965,259.1096439999965,259.1096439999965,259.1096439999965,259.1096439999965,259.1096439999965,259.1096439999965,259.1096439999965,259.031927000333,259.1096439999965,259.1096439999965,259.1096439999965,259.031927000333,259.1096439999965,259.1096439999965,259.1096439999965,261.1826714589988,,259.1096439999965,259.1096439999965,264.2712363749961,259.1096439999965,259.1096439999965,259.1096439999965,259.1096439999965,259.5715998749947,260.6309984999971,259.5425220416621,,261.1826714589988,262.24644508399797,261.15280762566204,,259.1096439999965,264.2712363749961,259.1096439999965,264.2712363749961,264.312271625,265.0000918339938,259.1096439999965,1,1,1.1586794999966514,reldom2_s036,001,2025-03-14_12h31.23.513,Where-A-Scan_AC,2022.2.5,None,
22,First_Order,4.0,audwhere,stimulus/audwhere_stim/dummy.wav,stimulus/audwhere_stim/dummy.wav,stimulus/audwhere_stim/right_away_270h.wav,stimulus/audwhere_stim/left_away_300h.wav,stimulus/audwhere_stim/blank_white.png,stimulus/audwhere_stim/side_box.png,stimulus/audwhere_stim/side_yes.png,stimulus/audwhere_stim/side_no.png,None,Side,None,Direction,2,0.0,0,5.125,0,5.125,0,5.125,0,0.0,0.625,0,0.0,0,0.0,0,0.0,0,0.0,0,0.0,0,0.0,1,0.5,1,2.125,0,,,,,0,28,28,28,,,,,,,,,265.2110195839996,265.2110195839996,265.2110195839996,265.2110195839996,265.2110195839996,265.2110195839996,265.2110195839996,265.2110195839996,265.1334251673271,265.2110195839996,265.2110195839996,265.2110195839996,265.1334251673271,265.2110195839996,265.2110195839996,265.2110195839996,267.2898077919963,271.3425223749946,265.2110195839996,265.2110195839996,270.37955049999437,265.2110195839996,265.2110195839996,265.2110195839996,265.2110195839996,265.67329070899723,266.73568541699933,265.64344666666534,,267.2898077919963,268.35229041699495,267.2602325416631,,265.2110195839996,270.37955049999437,265.2110195839996,270.37955049999437,270.4210879589955,271.071482542,265.2110195839996,2,1,0.6901624170059222,reldom2_s036,001,2025-03-14_12h31.23.513,Where-A-Scan_AC,2022.2.5,None,
0,0.0,None,fixation,stimulus/viswhere_stim/blank_white.png,stimulus/viswhere_stim/blank_white.png,stimulus/audwhere_stim/blank_white.png,stimulus/audwhere_stim/blank_white.png,stimulus/viswhere_stim/blank_white.png,stimulus/viswhere_stim/blank_white.png,stimulus/viswhere_stim/blank_white.png,stimulus/viswhere_stim/blank_white.png,0.0,0.0,0.0,0.0,0,0.0,0,0.0,0,0.0,0,0.0,0,0.0,0.0,0,0.0,0,0.0,0,0.0,0,0.0,0,0.0,0,0.0,0,0.0,0,0.0,9,,,,,0,29,29,29,,,,,,,,,271.3425223749946,271.3425223749946,271.3425223749946,271.3425223749946,271.3425223749946,271.3425223749946,271.3425223749946,271.3425223749946,271.24466308333115,271.3425223749946,271.3425223749946,271.3425223749946,271.24466308333115,271.3425223749946,271.3425223749946,271.3425223749946,271.3425223749946,271.3425223749946,271.3425223749946,271.3425223749946,271.3425223749946,271.3425223749946,271.3425223749946,271.3425223749946,271.3425223749946,271.3425223749946,271.3425223749946,271.29466308333116,271.3425223749946,271.3425223749946,271.3425223749946,271.29466308333116,271.3425223749946,271.3425223749946,271.3425223749946,271.3425223749946,271.3425223749946,276.55563724999956,276.55563724999956,280.4748051669958,None,0,,reldom2_s036,001,2025-03-14_12h31.23.513,Where-A-Scan_AC,2022.2.5,None,
23,Second_Order,4.0,audwhere,stimulus/audwhere_stim/left_away_270h.wav,stimulus/audwhere_stim/left_toward_290h.wav,stimulus/audwhere_stim/left_toward_300h.wav,stimulus/audwhere_stim/right_toward_280h.wav,stimulus/viswhere_stim/match_blank.png,stimulus/audwhere_stim/match_box.png,stimulus/viswhere_stim/match_yes.png,stimulus/viswhere_stim/match_no.png,2.0,Match,Side,Direction,2,5.125,0,5.125,0,5.125,0,5.125,0,0.75,0.75,0,0.0,0,0.0,0,0.0,0,0.0,1,0.5,1,2.125,1,0.5,1,2.125,0,,,,,0,30,30,30,,,,,,,,,280.4748051669958,285.5887419999999,280.4748051669958,280.4748051669958,280.4748051669958,280.4748051669958,280.9274156249958,281.9256663339984,280.93972412566313,,282.54764995899313,283.546001333998,282.56026470866004,,285.5887419999999,286.43839099999605,288.4910979169945,,286.43839099999605,286.43839099999605,291.61138979199313,286.43839099999605,286.43839099999605,286.43839099999605,286.43839099999605,286.89399208399846,287.9433294999981,286.86471025066226,,288.4910979169945,289.54779924999457,288.4616620006602,,286.43839099999605,291.61138979199313,286.43839099999605,291.61138979199313,291.61138979199313,,286.43839099999605,2,1,1.0676478750028764,reldom2_s036,001,2025-03-14_12h31.23.513,Where-A-Scan_AC,2022.2.5,None,
24,Second_Order,4.0,audwhere,stimulus/audwhere_stim/right_toward_290h.wav,stimulus/audwhere_stim/right_away_290h.wav,stimulus/audwhere_stim/left_away_300h.wav,stimulus/audwhere_stim/left_toward_270h.wav,stimulus/viswhere_stim/match_blank.png,stimulus/audwhere_stim/match_box.png,stimulus/viswhere_stim/match_yes.png,stimulus/viswhere_stim/match_no.png,1.0,Match,Side,Side,1,5.125,0,5.125,0,5.125,0,5.125,0,0.625,0.625,0,0.0,0,0.0,0,0.0,0,0.0,1,0.5,1,2.125,1,0.5,1,2.125,0,,,,,0,31,31,31,,,,,,,,,292.4165125419968,297.53297483399365,292.4165125419968,292.4165125419968,292.4165125419968,292.4165125419968,292.8717902089993,293.8697815419946,292.88440658366403,,294.49296458399476,295.490320334,294.50502687566427,295.49413412499416,297.53297483399365,298.2611441669942,300.30086049999954,,298.2611441669942,298.2611441669942,303.4450242919993,298.2611441669942,298.2611441669942,298.2611441669942,298.2611441669942,298.7118967089991,299.755982208997,298.6835456256633,,300.30086049999954,301.3507607089996,300.2721271256635,,298.2611441669942,303.4450242919993,298.2611441669942,303.4450242919993,303.4450242919993,304.1275442499973,298.2611441669942,1,1,1.8106561250024242,reldom2_s036,001,2025-03-14_12h31.23.513,Where-A-Scan_AC,2022.2.5,None,
0,0.0,None,fixation,stimulus/viswhere_stim/blank_white.png,stimulus/viswhere_stim/blank_white.png,stimulus/audwhere_stim/blank_white.png,stimulus/audwhere_stim/blank_white.png,stimulus/viswhere_stim/blank_white.png,stimulus/viswhere_stim/blank_white.png,stimulus/viswhere_stim/blank_white.png,stimulus/viswhere_stim/blank_white.png,0.0,0.0,0.0,0.0,0,0.0,0,0.0,0,0.0,0,0.0,0,0.0,0.0,0,0.0,0,0.0,0,0.0,0,0.0,0,0.0,0,0.0,0,0.0,0,0.0,10,,,,,0,32,32,32,,,,,,,,,304.35766829199565,304.35766829199565,304.35766829199565,304.35766829199565,304.35766829199565,304.35766829199565,304.35766829199565,304.35766829199565,304.2608775833306,304.35766829199565,304.35766829199565,304.35766829199565,304.2608775833306,304.35766829199565,304.35766829199565,304.35766829199565,304.35766829199565,304.35766829199565,304.35766829199565,304.35766829199565,304.35766829199565,304.35766829199565,304.35766829199565,304.35766829199565,304.35766829199565,304.35766829199565,304.35766829199565,304.31087758333064,304.35766829199565,304.35766829199565,304.35766829199565,304.31087758333064,304.35766829199565,304.35766829199565,304.35766829199565,304.35766829199565,304.35766829199565,309.555711874993,309.555711874993,314.53258837499743,None,0,,reldom2_s036,001,2025-03-14_12h31.23.513,Where-A-Scan_AC,2022.2.5,None,
25,First_Order,5.0,viswhere,stimulus/viswhere_stim/blank_white.png,stimulus/viswhere_stim/blank_white.png,stimulus/viswhere_stim/120-deg_dot-right_goldenrod.png,stimulus/viswhere_stim/150-deg_dot-right_turquoise.png,stimulus/viswhere_stim/blank_white.png,stimulus/viswhere_stim/dot_box.png,stimulus/viswhere_stim/dot_yes.png,stimulus/viswhere_stim/dot_no.png,None,Dot,None,Dot,1,0.0,0,5.125,0,5.125,0,5.125,0,0.0,0.625,0,0.0,0,0.0,1,0.5,1,2.125,0,0.0,0,0.0,0,0.0,0,0.0,0,,,,,0,33,33,33,,,,,,,,,314.53258837499743,314.53258837499743,314.53258837499743,314.53258837499743,314.53258837499743,314.53258837499743,314.53258837499743,314.53258837499743,314.51397425066045,314.53258837499743,314.53258837499743,314.53258837499743,314.51397425066045,314.53258837499743,314.53258837499743,314.53258837499743,316.63013779199537,320.6005880839948,314.53258837499743,314.53258837499743,319.6705673749966,315.0099222919962,316.0213485419954,316.63013779199537,317.6445626249988,314.53258837499743,314.53258837499743,314.51397425066045,314.53258837499743,314.53258837499743,314.53258837499743,314.51397425066045,314.53258837499743,314.53258837499743,319.6705673749966,314.53258837499743,319.6705673749966,319.7529123339991,320.3843298749998,314.53258837499743,1,1,1.4314599580029608,reldom2_s036,001,2025-03-14_12h31.23.513,Where-A-Scan_AC,2022.2.5,None,
26,First_Order,5.0,viswhere,stimulus/viswhere_stim/blank_white.png,stimulus/viswhere_stim/blank_white.png,stimulus/viswhere_stim/90-deg_dot-right_royalblue.png,stimulus/viswhere_stim/120-deg_dot-right_seagreen.png,stimulus/viswhere_stim/blank_white.png,stimulus/viswhere_stim/line_box.png,stimulus/viswhere_stim/line_yes.png,stimulus/viswhere_stim/line_no.png,None,Line,None,Dot,2,0.0,0,5.125,0,5.125,0,5.125,0,0.0,0.625,0,0.0,0,0.0,1,0.5,1,2.125,0,0.0,0,0.0,0,0.0,0,0.0,0,,,,,0,34,34,34,,,,,,,,,320.6005880839948,320.6005880839948,320.6005880839948,320.6005880839948,320.6005880839948,320.6005880839948,320.6005880839948,320.6005880839948,320.58054754233063,320.6005880839948,320.6005880839948,320.6005880839948,320.58054754233063,320.6005880839948,320.6005880839948,320.6005880839948,322.7128931249972,326.660984833994,320.6005880839948,320.6005880839948,325.7286377499986,321.07664533399657,322.08653920899815,322.7128931249972,323.72779879199516,320.6005880839948,320.6005880839948,320.5972142089973,320.6005880839948,320.6005880839948,320.6005880839948,320.5972142089973,320.6005880839948,320.6005880839948,325.7286377499986,320.6005880839948,325.7286377499986,325.8431238749981,326.4710635839947,320.6005880839948,2,1,0.6776332500012359,reldom2_s036,001,2025-03-14_12h31.23.513,Where-A-Scan_AC,2022.2.5,None,
27,First_Order,5.0,viswhere,stimulus/viswhere_stim/blank_white.png,stimulus/viswhere_stim/blank_white.png,stimulus/viswhere_stim/60-deg_dot-left_lightsseagreen.png,stimulus/viswhere_stim/60-deg_dot-right_slateblue.png,stimulus/viswhere_stim/blank_white.png,stimulus/viswhere_stim/line_box.png,stimulus/viswhere_stim/line_yes.png,stimulus/viswhere_stim/line_no.png,None,Line,None,Line,1,0.0,0,5.125,0,5.125,0,5.125,0,0.0,0.625,0,0.0,0,0.0,1,0.5,1,2.125,0,0.0,0,0.0,0,0.0,0,0.0,0,,,,,0,35,35,35,,,,,,,,,326.660984833994,326.660984833994,326.660984833994,326.660984833994,326.660984833994,326.660984833994,326.660984833994,326.660984833994,326.6411175423321,326.660984833994,326.660984833994,326.660984833994,326.6411175423321,326.660984833994,326.660984833994,326.660984833994,328.77255095899454,332.7281798339973,326.660984833994,326.660984833994,331.7922307089975,327.1365929589956,328.14618824999343,328.77255095899454,329.7889521249963,326.660984833994,326.660984833994,326.65778420899875,326.660984833994,326.660984833994,326.660984833994,326.65778420899875,326.660984833994,326.660984833994,331.7922307089975,326.660984833994,331.7922307089975,331.90701299999637,332.538307625,326.660984833994,1,1,0.8609111670011771,reldom2_s036,001,2025-03-14_12h31.23.513,Where-A-Scan_AC,2022.2.5,None,
28,First_Order,5.0,viswhere,stimulus/viswhere_stim/blank_white.png,stimulus/viswhere_stim/blank_white.png,stimulus/viswhere_stim/120-deg_dot-right_slateblue.png,stimulus/viswhere_stim/90-deg_dot-right_cyan.png,stimulus/viswhere_stim/blank_white.png,stimulus/viswhere_stim/dot_box.png,stimulus/viswhere_stim/dot_yes.png,stimulus/viswhere_stim/dot_no.png,None,Dot,None,Dot,1,0.0,0,5.125,0,5.125,0,5.125,0,0.0,0.625,0,0.0,0,0.0,1,0.5,1,2.125,0,0.0,0,0.0,0,0.0,0,0.0,0,,,,,0,36,36,36,,,,,,,,,332.7281798339973,332.7281798339973,332.7281798339973,332.7281798339973,332.7281798339973,332.7281798339973,332.7281798339973,332.7281798339973,332.7087081253315,332.7281798339973,332.7281798339973,332.7281798339973,332.7087081253315,332.7281798339973,332.7281798339973,332.7281798339973,334.840368374993,338.8687353339992,332.7281798339973,332.7281798339973,337.856126916995,333.2048255839982,334.21495254199544,334.840368374993,335.8528654999973,332.7281798339973,332.7281798339973,332.7087081253315,332.7281798339973,332.7281798339973,332.7281798339973,332.7087081253315,332.7281798339973,332.7281798339973,337.856126916995,332.7281798339973,337.856126916995,337.9541171249948,338.58879095899465,332.7281798339973,1,1,1.1410945419993368,reldom2_s036,001,2025-03-14_12h31.23.513,Where-A-Scan_AC,2022.2.5,None,
0,0.0,None,fixation,stimulus/viswhere_stim/blank_white.png,stimulus/viswhere_stim/blank_white.png,stimulus/audwhere_stim/blank_white.png,stimulus/audwhere_stim/blank_white.png,stimulus/viswhere_stim/blank_white.png,stimulus/viswhere_stim/blank_white.png,stimulus/viswhere_stim/blank_white.png,stimulus/viswhere_stim/blank_white.png,0.0,0.0,0.0,0.0,0,0.0,0,0.0,0,0.0,0,0.0,0,0.0,0.0,0,0.0,0,0.0,0,0.0,0,0.0,0,0.0,0,0.0,0,0.0,0,0.0,9,,,,,0,37,37,37,,,,,,,,,338.8687353339992,338.8687353339992,338.8687353339992,338.8687353339992,338.8687353339992,338.8687353339992,338.8687353339992,338.8687353339992,338.77246675033285,338.8687353339992,338.8687353339992,338.8687353339992,338.77246675033285,338.8687353339992,338.8687353339992,338.8687353339992,338.8687353339992,338.8687353339992,338.8687353339992,338.8687353339992,338.8687353339992,338.8687353339992,338.8687353339992,338.8687353339992,338.8687353339992,338.8687353339992,338.8687353339992,338.82246675033286,338.8687353339992,338.8687353339992,338.8687353339992,338.82246675033286,338.8687353339992,338.8687353339992,338.8687353339992,338.8687353339992,338.8687353339992,344.08753158399486,344.08753158399486,347.9871601249979,None,0,,reldom2_s036,001,2025-03-14_12h31.23.513,Where-A-Scan_AC,2022.2.5,None,
29,Second_Order,5.0,viswhere,stimulus/viswhere_stim/150-deg_dot-right_cyan.png,stimulus/viswhere_stim/150-deg_dot-left_peru.png,stimulus/viswhere_stim/90-deg_dot-left_goldenrod.png,stimulus/viswhere_stim/90-deg_dot-right_mediumslateblue.png,stimulus/viswhere_stim/match_blank.png,stimulus/viswhere_stim/match_box.png,stimulus/viswhere_stim/match_yes.png,stimulus/viswhere_stim/match_no.png,1.0,Match,Line,Line,1,5.125,0,5.125,0,5.125,0,5.125,0,0.75,0.75,1,0.5,1,2.125,1,0.5,1,2.125,0,0.0,0,0.0,0,0.0,0,0.0,0,,,,,0,38,38,38,,,,,,,,,347.9871601249979,353.11100299999816,348.46645687499404,349.4649272499955,350.0873303749977,351.0853079169974,347.9871601249979,347.9871601249979,347.98440041666424,347.9871601249979,347.9871601249979,347.9871601249979,347.98440041666424,347.9871601249979,353.11100299999816,353.90632108399586,355.98227049999696,359.87417670899595,353.90632108399586,353.90632108399586,359.0439842499982,354.3520896669943,355.3682825839933,355.98227049999696,356.9896475839996,353.90632108399586,353.90632108399586,353.8786697503315,353.90632108399586,353.90632108399586,353.90632108399586,353.8786697503315,353.90632108399586,353.90632108399586,359.0439842499982,353.90632108399586,359.0439842499982,359.10017562499706,359.87417670899595,353.90632108399586,1,1,0.6065095830053906,reldom2_s036,001,2025-03-14_12h31.23.513,Where-A-Scan_AC,2022.2.5,None,
30,Second_Order,5.0,viswhere,stimulus/viswhere_stim/90-deg_dot-right_royalblue.png,stimulus/viswhere_stim/60-deg_dot-right_peru.png,stimulus/viswhere_stim/30-deg_dot-left_slateblue.png,stimulus/viswhere_stim/90-deg_dot-left_seagreen.png,stimulus/viswhere_stim/match_blank.png,stimulus/viswhere_stim/match_box.png,stimulus/viswhere_stim/match_yes.png,stimulus/viswhere_stim/match_no.png,1.0,Match,Dot,Dot,1,5.125,0,5.125,0,5.125,0,5.125,0,0.625,0.625,1,0.5,1,2.125,1,0.5,1,2.125,0,0.0,0,0.0,0,0.0,0,0.0,0,,,,,0,39,39,39,,,,,,,,,359.87417670899595,364.98891779199766,360.36053145899496,361.35913762499695,361.9822842089998,362.9800232089983,359.87417670899595,359.87417670899595,359.887994249996,359.87417670899595,359.87417670899595,359.87417670899595,359.887994249996,359.87417670899595,364.98891779199766,365.6594661249983,367.741783999998,371.77050416699785,365.6594661249983,365.6594661249983,370.7913276669933,366.12125891699543,367.13244866699824,367.741783999998,368.7460270839947,365.6594661249983,365.6594661249983,365.6357396253302,365.6594661249983,365.6594661249983,365.6594661249983,365.6357396253302,365.6594661249983,365.6594661249983,370.7913276669933,365.6594661249983,370.7913276669933,370.8608107089967,371.4886239169937,365.6594661249983,1,1,0.9127339580008993,reldom2_s036,001,2025-03-14_12h31.23.513,Where-A-Scan_AC,2022.2.5,None,
0,0.0,None,fixation,stimulus/viswhere_stim/blank_white.png,stimulus/viswhere_stim/blank_white.png,stimulus/audwhere_stim/blank_white.png,stimulus/audwhere_stim/blank_white.png,stimulus/viswhere_stim/blank_white.png,stimulus/viswhere_stim/blank_white.png,stimulus/viswhere_stim/blank_white.png,stimulus/viswhere_stim/blank_white.png,0.0,0.0,0.0,0.0,0,0.0,0,0.0,0,0.0,0,0.0,0,0.0,0.0,0,0.0,0,0.0,0,0.0,0,0.0,0,0.0,0,0.0,0,0.0,0,0.0,8,,,,,0,40,40,40,,,,,,,,,371.77050416699785,371.77050416699785,371.77050416699785,371.77050416699785,371.77050416699785,371.77050416699785,371.77050416699785,371.77050416699785,371.67230779232824,371.77050416699785,371.77050416699785,371.77050416699785,371.67230779232824,371.77050416699785,371.77050416699785,371.77050416699785,371.77050416699785,371.77050416699785,371.77050416699785,371.77050416699785,371.77050416699785,371.77050416699785,371.77050416699785,371.77050416699785,371.77050416699785,371.77050416699785,371.77050416699785,371.72230779232825,371.77050416699785,371.77050416699785,371.77050416699785,371.72230779232825,371.77050416699785,371.77050416699785,371.77050416699785,371.77050416699785,371.77050416699785,376.99960633399314,376.99960633399314,379.9883257919937,None,0,,reldom2_s036,001,2025-03-14_12h31.23.513,Where-A-Scan_AC,2022.2.5,None,
31,First_Order,6.0,viswhere,stimulus/viswhere_stim/blank_white.png,stimulus/viswhere_stim/blank_white.png,stimulus/viswhere_stim/90-deg_dot-right_lightsseagreen.png,stimulus/viswhere_stim/90-deg_dot-left_turquoise.png,stimulus/viswhere_stim/blank_white.png,stimulus/viswhere_stim/line_box.png,stimulus/viswhere_stim/line_yes.png,stimulus/viswhere_stim/line_no.png,None,Line,None,Line,1,0.0,0,5.125,0,5.125,0,5.125,0,0.0,0.625,0,0.0,0,0.0,1,0.5,1,2.125,0,0.0,0,0.0,0,0.0,0,0.0,0,,,,,0,41,41,41,,,,,,,,,379.9883257919937,379.9883257919937,379.9883257919937,379.9883257919937,379.9883257919937,379.9883257919937,379.9883257919937,379.9883257919937,379.9693093336633,379.9883257919937,379.9883257919937,379.9883257919937,379.9693093336633,379.9883257919937,379.9883257919937,379.9883257919937,382.0909004169953,386.04247662499984,379.9883257919937,379.9883257919937,385.11765029199887,380.46592741699715,381.4786584589965,382.0909004169953,383.11052779199963,379.9883257919937,379.9883257919937,379.9693093336633,379.9883257919937,379.9883257919937,379.9883257919937,379.9693093336633,379.9883257919937,379.9883257919937,385.11765029199887,379.9883257919937,385.11765029199887,385.2156679589971,385.8418032089976,379.9883257919937,1,1,0.647597292008868,reldom2_s036,001,2025-03-14_12h31.23.513,Where-A-Scan_AC,2022.2.5,None,
32,First_Order,6.0,viswhere,stimulus/viswhere_stim/blank_white.png,stimulus/viswhere_stim/blank_white.png,stimulus/viswhere_stim/30-deg_dot-right_goldenrod.png,stimulus/viswhere_stim/30-deg_dot-left_seagreen.png,stimulus/viswhere_stim/blank_white.png,stimulus/viswhere_stim/dot_box.png,stimulus/viswhere_stim/dot_yes.png,stimulus/viswhere_stim/dot_no.png,None,Dot,None,Line,2,0.0,0,5.125,0,5.125,0,5.125,0,0.0,0.625,0,0.0,0,0.0,1,0.5,1,2.125,0,0.0,0,0.0,0,0.0,0,0.0,0,,,,,0,42,42,42,,,,,,,,,386.04247662499984,386.04247662499984,386.04247662499984,386.04247662499984,386.04247662499984,386.04247662499984,386.04247662499984,386.04247662499984,386.0224477083296,386.04247662499984,386.04247662499984,386.04247662499984,386.0224477083296,386.04247662499984,386.04247662499984,386.04247662499984,388.1551687089959,392.11282099999517,386.04247662499984,386.04247662499984,391.17730508399836,386.5183248749963,387.52699220899376,388.1551687089959,389.16801087499334,386.04247662499984,386.04247662499984,386.03911437499625,386.04247662499984,386.04247662499984,386.04247662499984,386.03911437499625,386.04247662499984,386.04247662499984,391.17730508399836,386.04247662499984,391.17730508399836,391.2775574999978,391.909233624996,386.04247662499984,2,1,1.3873603750034817,reldom2_s036,001,2025-03-14_12h31.23.513,Where-A-Scan_AC,2022.2.5,None,
33,First_Order,6.0,viswhere,stimulus/viswhere_stim/blank_white.png,stimulus/viswhere_stim/blank_white.png,stimulus/viswhere_stim/150-deg_dot-left_lightsseagreen.png,stimulus/viswhere_stim/150-deg_dot-right_royalblue.png,stimulus/viswhere_stim/blank_white.png,stimulus/viswhere_stim/dot_box.png,stimulus/viswhere_stim/dot_yes.png,stimulus/viswhere_stim/dot_no.png,None,Dot,None,Line,2,0.0,0,5.125,0,5.125,0,5.125,0,0.0,0.625,0,0.0,0,0.0,1,0.5,1,2.125,0,0.0,0,0.0,0,0.0,0,0.0,0,,,,,0,43,43,43,,,,,,,,,392.11282099999517,392.11282099999517,392.11282099999517,392.11282099999517,392.11282099999517,392.11282099999517,392.11282099999517,392.11282099999517,392.09247762532806,392.11282099999517,392.11282099999517,392.11282099999517,392.09247762532806,392.11282099999517,392.11282099999517,392.11282099999517,394.22757112499676,398.1803336669982,392.11282099999517,392.11282099999517,397.2342697089989,392.5940026249955,393.61197524999443,394.22757112499676,395.23298012499436,392.11282099999517,392.11282099999517,392.1091442919947,392.11282099999517,392.11282099999517,392.11282099999517,392.1091442919947,392.11282099999517,392.11282099999517,397.2342697089989,392.11282099999517,397.2342697089989,397.33225058399694,397.9763208749937,392.11282099999517,2,1,1.5895890420069918,reldom2_s036,001,2025-03-14_12h31.23.513,Where-A-Scan_AC,2022.2.5,None,
34,First_Order,6.0,viswhere,stimulus/viswhere_stim/blank_white.png,stimulus/viswhere_stim/blank_white.png,stimulus/viswhere_stim/120-deg_dot-left_peru.png,stimulus/viswhere_stim/90-deg_dot-left_royalblue.png,stimulus/viswhere_stim/blank_white.png,stimulus/viswhere_stim/line_box.png,stimulus/viswhere_stim/line_yes.png,stimulus/viswhere_stim/line_no.png,None,Line,None,Dot,2,0.0,0,5.125,0,5.125,0,5.125,0,0.0,0.625,0,0.0,0,0.0,1,0.5,1,2.125,0,0.0,0,0.0,0,0.0,0,0.0,0,,,,,0,44,44,44,,,,,,,,,398.1803336669982,398.1803336669982,398.1803336669982,398.1803336669982,398.1803336669982,398.1803336669982,398.1803336669982,398.1803336669982,398.15949800033314,398.1803336669982,398.1803336669982,398.1803336669982,398.15949800033314,398.1803336669982,398.1803336669982,398.1803336669982,400.27945599999657,404.3377320419968,398.1803336669982,398.1803336669982,403.3219532499934,398.6579304169936,399.6680897089973,400.27945599999657,401.29746458399313,398.1803336669982,398.1803336669982,398.1761646669998,398.1803336669982,398.1803336669982,398.1803336669982,398.1761646669998,398.1803336669982,398.1803336669982,403.3219532499934,398.1803336669982,403.3219532499934,403.4052255839997,404.0306904999961,398.1803336669982,2,1,0.7827847500011558,reldom2_s036,001,2025-03-14_12h31.23.513,Where-A-Scan_AC,2022.2.5,None,
0,0.0,None,fixation,stimulus/viswhere_stim/blank_white.png,stimulus/viswhere_stim/blank_white.png,stimulus/audwhere_stim/blank_white.png,stimulus/audwhere_stim/blank_white.png,stimulus/viswhere_stim/blank_white.png,stimulus/viswhere_stim/blank_white.png,stimulus/viswhere_stim/blank_white.png,stimulus/viswhere_stim/blank_white.png,0.0,0.0,0.0,0.0,0,0.0,0,0.0,0,0.0,0,0.0,0,0.0,0.0,0,0.0,0,0.0,0,0.0,0,0.0,0,0.0,0,0.0,0,0.0,0,0.0,10,,,,,0,45,45,45,,,,,,,,,404.3377320419968,404.3377320419968,404.3377320419968,404.3377320419968,404.3377320419968,404.3377320419968,404.3377320419968,404.3377320419968,404.2405070003272,404.3377320419968,404.3377320419968,404.3377320419968,404.2405070003272,404.3377320419968,404.3377320419968,404.3377320419968,404.3377320419968,404.3377320419968,404.3377320419968,404.3377320419968,404.3377320419968,404.3377320419968,404.3377320419968,404.3377320419968,404.3377320419968,404.3377320419968,404.3377320419968,404.29050700032724,404.3377320419968,404.3377320419968,404.3377320419968,404.29050700032724,404.3377320419968,404.3377320419968,404.3377320419968,404.3377320419968,404.3377320419968,409.56362237499707,409.56362237499707,414.4442097919964,None,0,,reldom2_s036,001,2025-03-14_12h31.23.513,Where-A-Scan_AC,2022.2.5,None,
35,Second_Order,6.0,viswhere,stimulus/viswhere_stim/60-deg_dot-right_mediumslateblue.png,stimulus/viswhere_stim/150-deg_dot-right_turquoise.png,stimulus/viswhere_stim/90-deg_dot-right_slateblue.png,stimulus/viswhere_stim/90-deg_dot-left_seagreen.png,stimulus/viswhere_stim/match_blank.png,stimulus/viswhere_stim/match_box.png,stimulus/viswhere_stim/match_yes.png,stimulus/viswhere_stim/match_no.png,2.0,Match,Dot,Line,2,5.125,0,5.125,0,5.125,0,5.125,0,0.75,0.75,1,0.5,1,2.125,1,0.5,1,2.125,0,0.0,0,0.0,0,0.0,0,0.0,0,,,,,0,46,46,46,,,,,,,,,414.4442097919964,419.5653741249989,414.92051149999315,415.9184702919956,416.55294416699326,417.5428429169988,414.4442097919964,414.4442097919964,414.458537167333,414.4442097919964,414.4442097919964,414.4442097919964,414.458537167333,414.4442097919964,419.5653741249989,420.3604401249977,422.43396554199717,426.3249074169944,420.3604401249977,420.3604401249977,425.49311079199833,420.8036816249951,421.8197450419975,422.43396554199717,423.4379259999987,420.3604401249977,420.3604401249977,420.34921124999966,420.3604401249977,420.3604401249977,420.3604401249977,420.34921124999966,420.3604401249977,420.3604401249977,425.49311079199833,420.3604401249977,425.49311079199833,425.55410216699966,426.3249074169944,420.3604401249977,2,1,0.7246249169984367,reldom2_s036,001,2025-03-14_12h31.23.513,Where-A-Scan_AC,2022.2.5,None,
36,Second_Order,6.0,viswhere,stimulus/viswhere_stim/120-deg_dot-left_royalblue.png,stimulus/viswhere_stim/120-deg_dot-right_cyan.png,stimulus/viswhere_stim/90-deg_dot-left_slateblue.png,stimulus/viswhere_stim/90-deg_dot-right_turquoise.png,stimulus/viswhere_stim/match_blank.png,stimulus/viswhere_stim/match_box.png,stimulus/viswhere_stim/match_yes.png,stimulus/viswhere_stim/match_no.png,1.0,Match,Line,Line,1,5.125,0,5.125,0,5.125,0,5.125,0,0.625,0.625,1,0.5,1,2.125,1,0.5,1,2.125,0,0.0,0,0.0,0,0.0,0,0.0,0,,,,,0,47,47,47,,,,,,,,,426.3249074169944,431.442334542,426.81006387499656,427.7994695419984,428.43511274999764,429.4334538339972,426.3249074169944,426.3249074169944,426.3383261669995,426.3249074169944,426.3249074169944,426.3249074169944,426.3383261669995,426.3249074169944,431.442334542,432.1114633749967,434.1990310419933,438.23043999999936,432.1114633749967,432.1114633749967,437.250527458993,432.5727912089933,433.5862563339979,434.1990310419933,435.2181747919967,432.1114633749967,432.1114633749967,432.0891728753272,432.1114633749967,432.1114633749967,432.1114633749967,432.0891728753272,432.1114633749967,432.1114633749967,437.250527458993,432.1114633749967,437.250527458993,437.30487662499945,437.95175491699774,432.1114633749967,1,1,0.7297473329963395,reldom2_s036,001,2025-03-14_12h31.23.513,Where-A-Scan_AC,2022.2.5,None,
0,0.0,None,fixation,stimulus/viswhere_stim/blank_white.png,stimulus/viswhere_stim/blank_white.png,stimulus/audwhere_stim/blank_white.png,stimulus/audwhere_stim/blank_white.png,stimulus/viswhere_stim/blank_white.png,stimulus/viswhere_stim/blank_white.png,stimulus/viswhere_stim/blank_white.png,stimulus/viswhere_stim/blank_white.png,0.0,0.0,0.0,0.0,0,0.0,0,0.0,0,0.0,0,0.0,0,0.0,0.0,0,0.0,0,0.0,0,0.0,0,0.0,0,0.0,0,0.0,0,0.0,0,0.0,9,,,,,0,48,48,48,,,,,,,,,438.23043999999936,438.23043999999936,438.23043999999936,438.23043999999936,438.23043999999936,438.23043999999936,438.23043999999936,438.23043999999936,438.132078417327,438.23043999999936,438.23043999999936,438.23043999999936,438.132078417327,438.23043999999936,438.23043999999936,438.23043999999936,438.23043999999936,438.23043999999936,438.23043999999936,438.23043999999936,438.23043999999936,438.23043999999936,438.23043999999936,438.23043999999936,438.23043999999936,438.23043999999936,438.23043999999936,438.18207841732703,438.23043999999936,438.23043999999936,438.23043999999936,438.18207841732703,438.23043999999936,438.23043999999936,438.23043999999936,438.23043999999936,438.23043999999936,443.4112672919946,443.4112672919946,447.4654747089953,None,0,,reldom2_s036,001,2025-03-14_12h31.23.513,Where-A-Scan_AC,2022.2.5,None,
37,First_Order,7.0,audwhere,stimulus/audwhere_stim/dummy.wav,stimulus/audwhere_stim/dummy.wav,stimulus/audwhere_stim/left_toward_280h.wav,stimulus/audwhere_stim/left_away_290h.wav,stimulus/audwhere_stim/blank_white.png,stimulus/audwhere_stim/direction_box.png,stimulus/audwhere_stim/direction_yes.png,stimulus/audwhere_stim/direction_no.png,None,Direction,None,Side,2,0.0,0,5.125,0,5.125,0,5.125,0,0.0,0.625,0,0.0,0,0.0,0,0.0,0,0.0,0,0.0,0,0.0,1,0.5,1,2.125,0,,,,,0,49,49,49,,,,,,,,,447.4654747089953,447.4654747089953,447.4654747089953,447.4654747089953,447.4654747089953,447.4654747089953,447.4654747089953,447.4654747089953,447.3943622086614,447.4654747089953,447.4654747089953,447.4654747089953,447.3943622086614,447.4654747089953,447.4654747089953,447.4654747089953,449.5535028749946,,447.4654747089953,447.4654747089953,452.62155308399815,447.4654747089953,447.4654747089953,447.4654747089953,447.4654747089953,447.9317775839954,448.99679233399365,447.9015947916598,,449.5535028749946,450.62803312499454,449.5233727506604,,447.4654747089953,452.62155308399815,447.4654747089953,452.62155308399815,452.66281474999414,453.3148963749991,447.4654747089953,2,1,1.447427917002642,reldom2_s036,001,2025-03-14_12h31.23.513,Where-A-Scan_AC,2022.2.5,None,
38,First_Order,7.0,audwhere,stimulus/audwhere_stim/dummy.wav,stimulus/audwhere_stim/dummy.wav,stimulus/audwhere_stim/left_away_300h.wav,stimulus/audwhere_stim/right_away_280h.wav,stimulus/audwhere_stim/blank_white.png,stimulus/audwhere_stim/side_box.png,stimulus/audwhere_stim/side_yes.png,stimulus/audwhere_stim/side_no.png,None,Side,None,Direction,2,0.0,0,5.125,0,5.125,0,5.125,0,0.0,0.625,0,0.0,0,0.0,0,0.0,0,0.0,0,0.0,0,0.0,1,0.5,1,2.125,0,,,,,0,50,50,50,,,,,,,,,453.56771687499713,453.56771687499713,453.56771687499713,453.56771687499713,453.56771687499713,453.56771687499713,453.56771687499713,453.56771687499713,453.4890482503271,453.56771687499713,453.56771687499713,453.56771687499713,453.4890482503271,453.56771687499713,453.56771687499713,453.56771687499713,455.64666662499803,459.6892049589951,453.56771687499713,453.56771687499713,458.74572858399915,453.56771687499713,453.56771687499713,453.56771687499713,453.56771687499713,454.0332304589974,455.0942328339952,454.00329975066074,,455.64666662499803,456.71481112499896,455.61693350066,,453.56771687499713,458.74572858399915,453.56771687499713,458.74572858399915,458.78652487499494,459.43683524999506,453.56771687499713,2,1,0.9199830840007053,reldom2_s036,001,2025-03-14_12h31.23.513,Where-A-Scan_AC,2022.2.5,None,
39,First_Order,7.0,audwhere,stimulus/audwhere_stim/dummy.wav,stimulus/audwhere_stim/dummy.wav,stimulus/audwhere_stim/right_toward_280h.wav,stimulus/audwhere_stim/right_away_300h.wav,stimulus/audwhere_stim/blank_white.png,stimulus/audwhere_stim/side_box.png,stimulus/audwhere_stim/side_yes.png,stimulus/audwhere_stim/side_no.png,None,Side,None,Side,1,0.0,0,5.125,0,5.125,0,5.125,0,0.0,0.625,0,0.0,0,0.0,0,0.0,0,0.0,0,0.0,0,0.0,1,0.5,1,2.125,0,,,,,0,51,51,51,,,,,,,,,459.6892049589951,459.6892049589951,459.6892049589951,459.6892049589951,459.6892049589951,459.6892049589951,459.6892049589951,459.6892049589951,459.6108980833325,459.6892049589951,459.6892049589951,459.6892049589951,459.6108980833325,459.6892049589951,459.6892049589951,459.6892049589951,461.7658375839965,465.8045353749985,459.6892049589951,459.6892049589951,464.8606566249946,459.6892049589951,459.6892049589951,459.6892049589951,459.6892049589951,460.15128754199395,461.213976084,460.12178354166485,,461.7658375839965,462.83001341699855,461.7362346256598,,459.6892049589951,464.8606566249946,459.6892049589951,464.8606566249946,464.901176374995,465.5525344589987,459.6892049589951,1,1,1.7518137500010198,reldom2_s036,001,2025-03-14_12h31.23.513,Where-A-Scan_AC,2022.2.5,None,
40,First_Order,7.0,audwhere,stimulus/audwhere_stim/dummy.wav,stimulus/audwhere_stim/dummy.wav,stimulus/audwhere_stim/left_away_280h.wav,stimulus/audwhere_stim/left_toward_300h.wav,stimulus/audwhere_stim/blank_white.png,stimulus/audwhere_stim/side_box.png,stimulus/audwhere_stim/side_yes.png,stimulus/audwhere_stim/side_no.png,None,Side,None,Side,1,0.0,0,5.125,0,5.125,0,5.125,0,0.0,0.625,0,0.0,0,0.0,0,0.0,0,0.0,0,0.0,0,0.0,1,0.5,1,2.125,0,,,,,0,52,52,52,,,,,,,,,465.8045353749985,465.8045353749985,465.8045353749985,465.8045353749985,465.8045353749985,465.8045353749985,465.8045353749985,465.8045353749985,465.7263937923291,465.8045353749985,465.8045353749985,465.8045353749985,465.7263937923291,465.8045353749985,465.8045353749985,465.8045353749985,467.8867206249997,471.94235091699375,465.8045353749985,465.8045353749985,470.97990479199507,465.8045353749985,465.8045353749985,465.8045353749985,465.8045353749985,466.26827037499606,467.3318337919991,466.2386260416645,,467.8867206249997,468.9516392089936,467.85548800065976,,465.8045353749985,470.97990479199507,465.8045353749985,470.97990479199507,471.0209162089959,471.6696584169986,465.8045353749985,1,1,1.2409657500029425,reldom2_s036,001,2025-03-14_12h31.23.513,Where-A-Scan_AC,2022.2.5,None,
0,0.0,None,fixation,stimulus/viswhere_stim/blank_white.png,stimulus/viswhere_stim/blank_white.png,stimulus/audwhere_stim/blank_white.png,stimulus/audwhere_stim/blank_white.png,stimulus/viswhere_stim/blank_white.png,stimulus/viswhere_stim/blank_white.png,stimulus/viswhere_stim/blank_white.png,stimulus/viswhere_stim/blank_white.png,0.0,0.0,0.0,0.0,0,0.0,0,0.0,0,0.0,0,0.0,0,0.0,0.0,0,0.0,0,0.0,0,0.0,0,0.0,0,0.0,0,0.0,0,0.0,0,0.0,8,,,,,0,53,53,53,,,,,,,,,471.94235091699375,471.94235091699375,471.94235091699375,471.94235091699375,471.94235091699375,471.94235091699375,471.94235091699375,471.94235091699375,471.8431698753285,471.94235091699375,471.94235091699375,471.94235091699375,471.8431698753285,471.94235091699375,471.94235091699375,471.94235091699375,471.94235091699375,471.94235091699375,471.94235091699375,471.94235091699375,471.94235091699375,471.94235091699375,471.94235091699375,471.94235091699375,471.94235091699375,471.94235091699375,471.94235091699375,471.8931698753285,471.94235091699375,471.94235091699375,471.94235091699375,471.8931698753285,471.94235091699375,471.94235091699375,471.94235091699375,471.94235091699375,471.94235091699375,477.14959558400005,477.14959558400005,480.116949958996,None,0,,reldom2_s036,001,2025-03-14_12h31.23.513,Where-A-Scan_AC,2022.2.5,None,
41,Second_Order,7.0,audwhere,stimulus/audwhere_stim/left_away_300h.wav,stimulus/audwhere_stim/left_toward_300h.wav,stimulus/audwhere_stim/right_away_290h.wav,stimulus/audwhere_stim/right_toward_290h.wav,stimulus/viswhere_stim/match_blank.png,stimulus/audwhere_stim/match_box.png,stimulus/viswhere_stim/match_yes.png,stimulus/viswhere_stim/match_no.png,1.0,Match,Side,Side,1,5.125,0,5.125,0,5.125,0,5.125,0,0.75,0.75,0,0.0,0,0.0,0,0.0,0,0.0,1,0.5,1,2.125,1,0.5,1,2.125,0,,,,,0,54,54,54,,,,,,,,,480.116949958996,485.23412608399667,480.116949958996,480.116949958996,480.116949958996,480.116949958996,480.5713915419983,481.57017266699404,480.58401408366285,,482.19360191699525,483.1905375839997,482.2051376666607,483.1943312919975,485.23412608399667,486.08176770899445,488.14450408399716,492.07802391699806,486.08176770899445,486.08176770899445,491.2311747919957,486.08176770899445,486.08176770899445,486.08176770899445,486.08176770899445,486.53847395899356,487.5930832499944,486.50950779165964,,488.14450408399716,489.20422345899715,488.1155482916622,,486.08176770899445,491.2311747919957,486.08176770899445,491.2311747919957,491.2713890419982,,486.08176770899445,1,1,1.197083292005118,reldom2_s036,001,2025-03-14_12h31.23.513,Where-A-Scan_AC,2022.2.5,None,
42,Second_Order,7.0,audwhere,stimulus/audwhere_stim/left_away_280h.wav,stimulus/audwhere_stim/right_away_270h.wav,stimulus/audwhere_stim/right_toward_270h.wav,stimulus/audwhere_stim/left_toward_280h.wav,stimulus/viswhere_stim/match_blank.png,stimulus/audwhere_stim/match_box.png,stimulus/viswhere_stim/match_yes.png,stimulus/viswhere_stim/match_no.png,1.0,Match,Direction,Direction,1,5.125,0,5.125,0,5.125,0,5.125,0,0.625,0.625,0,0.0,0,0.0,0,0.0,0,0.0,1,0.5,1,2.125,1,0.5,1,2.125,0,,,,,0,55,55,55,,,,,,,,,492.07802391699806,497.19522474999394,492.07802391699806,492.07802391699806,492.07802391699806,492.07802391699806,492.5329836249948,493.53078995899705,492.5458865006624,,494.1546754999945,495.1515340419937,494.16624479166444,,497.19522474999394,497.92496229199605,499.9709455839984,504.0339947919929,497.92496229199605,497.92496229199605,503.0793256669931,497.92496229199605,497.92496229199605,497.92496229199605,497.92496229199605,498.377394583993,499.4233690419933,498.3483480006655,499.37762033399486,499.9709455839984,501.0222280839953,499.9422640006635,,497.92496229199605,503.0793256669931,497.92496229199605,503.0793256669931,503.1198617919945,503.8032272499986,497.92496229199605,1,1,1.2032826249997015,reldom2_s036,001,2025-03-14_12h31.23.513,Where-A-Scan_AC,2022.2.5,None,
0,0.0,None,fixation,stimulus/viswhere_stim/blank_white.png,stimulus/viswhere_stim/blank_white.png,stimulus/audwhere_stim/blank_white.png,stimulus/audwhere_stim/blank_white.png,stimulus/viswhere_stim/blank_white.png,stimulus/viswhere_stim/blank_white.png,stimulus/viswhere_stim/blank_white.png,stimulus/viswhere_stim/blank_white.png,0.0,0.0,0.0,0.0,0,0.0,0,0.0,0,0.0,0,0.0,0,0.0,0.0,0,0.0,0,0.0,0,0.0,0,0.0,0,0.0,0,0.0,0,0.0,0,0.0,10,,,,,0,56,56,56,,,,,,,,,504.0339947919929,504.0339947919929,504.0339947919929,504.0339947919929,504.0339947919929,504.0339947919929,504.0339947919929,504.0339947919929,503.9365605833319,504.0339947919929,504.0339947919929,504.0339947919929,503.9365605833319,504.0339947919929,504.0339947919929,504.0339947919929,504.0339947919929,504.0339947919929,504.0339947919929,504.0339947919929,504.0339947919929,504.0339947919929,504.0339947919929,504.0339947919929,504.0339947919929,504.0339947919929,504.0339947919929,503.98656058333194,504.0339947919929,504.0339947919929,504.0339947919929,503.98656058333194,504.0339947919929,504.0339947919929,504.0339947919929,504.0339947919929,504.0339947919929,509.24762004199874,509.24762004199874,514.3014107919953,None,0,,reldom2_s036,001,2025-03-14_12h31.23.513,Where-A-Scan_AC,2022.2.5,None,
43,First_Order,8.0,audwhere,stimulus/audwhere_stim/dummy.wav,stimulus/audwhere_stim/dummy.wav,stimulus/audwhere_stim/left_away_270h.wav,stimulus/audwhere_stim/right_away_300h.wav,stimulus/audwhere_stim/blank_white.png,stimulus/audwhere_stim/direction_box.png,stimulus/audwhere_stim/direction_yes.png,stimulus/audwhere_stim/direction_no.png,None,Direction,None,Direction,1,0.0,0,5.125,0,5.125,0,5.125,0,0.0,0.625,0,0.0,0,0.0,0,0.0,0,0.0,0,0.0,0,0.0,1,0.5,1,2.125,0,,,,,0,57,57,57,,,,,,,,,514.3014107919953,514.3014107919953,514.3014107919953,514.3014107919953,514.3014107919953,514.3014107919953,514.3014107919953,514.3014107919953,514.2335434166622,514.3014107919953,514.3014107919953,514.3014107919953,514.2335434166622,514.3014107919953,514.3014107919953,514.3014107919953,516.384869249996,,514.3014107919953,514.3014107919953,519.4910232499969,514.3014107919953,514.3014107919953,514.3014107919953,514.3014107919953,514.7648469589985,515.8291172919999,514.7353027506654,,516.384869249996,517.451374583994,516.3552572086667,,514.3014107919953,519.4910232499969,514.3014107919953,519.4910232499969,519.5321956249973,520.185921874996,514.3014107919953,1,1,1.7358934590010904,reldom2_s036,001,2025-03-14_12h31.23.513,Where-A-Scan_AC,2022.2.5,None,
44,First_Order,8.0,audwhere,stimulus/audwhere_stim/dummy.wav,stimulus/audwhere_stim/dummy.wav,stimulus/audwhere_stim/left_toward_300h.wav,stimulus/audwhere_stim/left_away_280h.wav,stimulus/audwhere_stim/blank_white.png,stimulus/audwhere_stim/direction_box.png,stimulus/audwhere_stim/direction_yes.png,stimulus/audwhere_stim/direction_no.png,None,Direction,None,Side,2,0.0,0,5.125,0,5.125,0,5.125,0,0.0,0.625,0,0.0,0,0.0,0,0.0,0,0.0,0,0.0,0,0.0,1,0.5,1,2.125,0,,,,,0,58,58,58,,,,,,,,,520.3976063749942,520.3976063749942,520.3976063749942,520.3976063749942,520.3976063749942,520.3976063749942,520.3976063749942,520.3976063749942,520.3192552083293,520.3976063749942,520.3976063749942,520.3976063749942,520.3192552083293,520.3976063749942,520.3976063749942,520.3976063749942,522.4816707089994,,520.3976063749942,520.3976063749942,525.5874790839953,520.3976063749942,520.3976063749942,520.3976063749942,520.3976063749942,520.860527375,521.9260237499984,520.8306927506603,,522.4816707089994,523.5504123749997,522.4515512086621,,520.3976063749942,525.5874790839953,520.3976063749942,525.5874790839953,525.6286498749978,526.2811834589957,520.3976063749942,2,1,1.754741250006191,reldom2_s036,001,2025-03-14_12h31.23.513,Where-A-Scan_AC,2022.2.5,None,
45,First_Order,8.0,audwhere,stimulus/audwhere_stim/dummy.wav,stimulus/audwhere_stim/dummy.wav,stimulus/audwhere_stim/right_away_290h.wav,stimulus/audwhere_stim/left_away_280h.wav,stimulus/audwhere_stim/blank_white.png,stimulus/audwhere_stim/side_box.png,stimulus/audwhere_stim/side_yes.png,stimulus/audwhere_stim/side_no.png,None,Side,None,Direction,2,0.0,0,5.125,0,5.125,0,5.125,0,0.0,0.625,0,0.0,0,0.0,0,0.0,0,0.0,0,0.0,0,0.0,1,0.5,1,2.125,0,,,,,0,59,59,59,,,,,,,,,526.4930259169996,526.4930259169996,526.4930259169996,526.4930259169996,526.4930259169996,526.4930259169996,526.4930259169996,526.4930259169996,526.414516792329,526.4930259169996,526.4930259169996,526.4930259169996,526.414516792329,526.4930259169996,526.4930259169996,526.4930259169996,528.567982458997,532.605274083995,526.4930259169996,526.4930259169996,531.6598023339975,526.4930259169996,526.4930259169996,526.4930259169996,526.4930259169996,526.9539281249963,528.0176412089932,526.9241005006663,,528.567982458997,529.6318502499998,528.5384951256603,,526.4930259169996,531.6598023339975,526.4930259169996,531.6598023339975,531.7010771249988,532.3533694169964,526.4930259169996,2,1,0.6324294170044595,reldom2_s036,001,2025-03-14_12h31.23.513,Where-A-Scan_AC,2022.2.5,None,
46,First_Order,8.0,audwhere,stimulus/audwhere_stim/dummy.wav,stimulus/audwhere_stim/dummy.wav,stimulus/audwhere_stim/left_away_270h.wav,stimulus/audwhere_stim/right_away_290h.wav,stimulus/audwhere_stim/blank_white.png,stimulus/audwhere_stim/direction_box.png,stimulus/audwhere_stim/direction_yes.png,stimulus/audwhere_stim/direction_no.png,None,Direction,None,Direction,1,0.0,0,5.125,0,5.125,0,5.125,0,0.0,0.625,0,0.0,0,0.0,0,0.0,0,0.0,0,0.0,0,0.0,1,0.5,1,2.125,0,,,,,0,60,60,60,,,,,,,,,532.605274083995,532.605274083995,532.605274083995,532.605274083995,532.605274083995,532.605274083995,532.605274083995,532.605274083995,532.5271850003284,532.605274083995,532.605274083995,532.605274083995,532.5271850003284,532.605274083995,532.605274083995,532.605274083995,534.6990817919941,,532.605274083995,532.605274083995,537.7610632919968,532.605274083995,532.605274083995,532.605274083995,532.605274083995,533.0713901669951,534.1416623749974,533.0408022916638,,534.6990817919941,535.7671768749933,534.668972666663,,532.605274083995,537.7610632919968,532.605274083995,537.7610632919968,537.8023607919968,538.4563672499935,532.605274083995,1,1,1.9520633340071072,reldom2_s036,001,2025-03-14_12h31.23.513,Where-A-Scan_AC,2022.2.5,None,
0,0.0,None,fixation,stimulus/viswhere_stim/blank_white.png,stimulus/viswhere_stim/blank_white.png,stimulus/audwhere_stim/blank_white.png,stimulus/audwhere_stim/blank_white.png,stimulus/viswhere_stim/blank_white.png,stimulus/viswhere_stim/blank_white.png,stimulus/viswhere_stim/blank_white.png,stimulus/viswhere_stim/blank_white.png,0.0,0.0,0.0,0.0,0,0.0,0,0.0,0,0.0,0,0.0,0,0.0,0.0,0,0.0,0,0.0,0,0.0,0,0.0,0,0.0,0,0.0,0,0.0,0,0.0,9,,,,,0,61,61,61,,,,,,,,,538.729688374995,538.729688374995,538.729688374995,538.729688374995,538.729688374995,538.729688374995,538.729688374995,538.729688374995,538.6305815003308,538.729688374995,538.729688374995,538.729688374995,538.6305815003308,538.729688374995,538.729688374995,538.729688374995,538.729688374995,538.729688374995,538.729688374995,538.729688374995,538.729688374995,538.729688374995,538.729688374995,538.729688374995,538.729688374995,538.729688374995,538.729688374995,538.6805815003307,538.729688374995,538.729688374995,538.729688374995,538.6805815003307,538.729688374995,538.729688374995,538.729688374995,538.729688374995,538.729688374995,543.9582957499952,543.9582957499952,547.8873423339974,None,0,,reldom2_s036,001,2025-03-14_12h31.23.513,Where-A-Scan_AC,2022.2.5,None,
47,Second_Order,8.0,audwhere,stimulus/audwhere_stim/right_away_280h.wav,stimulus/audwhere_stim/left_away_290h.wav,stimulus/audwhere_stim/right_toward_300h.wav,stimulus/audwhere_stim/right_away_300h.wav,stimulus/viswhere_stim/match_blank.png,stimulus/audwhere_stim/match_box.png,stimulus/viswhere_stim/match_yes.png,stimulus/viswhere_stim/match_no.png,2.0,Match,Direction,Side,2,5.125,0,5.125,0,5.125,0,5.125,0,0.75,0.75,0,0.0,0,0.0,0,0.0,0,0.0,1,0.5,1,2.125,1,0.5,1,2.125,0,,,,,0,62,62,62,,,,,,,,,547.8873423339974,553.0064743339972,547.8873423339974,547.8873423339974,547.8873423339974,547.8873423339974,548.3451162089987,549.3436316669977,548.3577232916616,,549.9656795419942,550.9639672089979,549.9781626256629,,553.0064743339972,553.8578178749958,555.9220659589992,559.8528207089985,553.8578178749958,553.8578178749958,559.0485775419947,553.8578178749958,553.8578178749958,553.8578178749958,553.8578178749958,554.2704954999936,555.3241112499963,554.2409829586652,,555.9220659589992,556.9823907089958,555.8913153756623,,553.8578178749958,559.0485775419947,553.8578178749958,559.0485775419947,559.0485775419947,,553.8578178749958,2,1,1.1963563330064062,reldom2_s036,001,2025-03-14_12h31.23.513,Where-A-Scan_AC,2022.2.5,None,
48,Second_Order,8.0,audwhere,stimulus/audwhere_stim/left_away_280h.wav,stimulus/audwhere_stim/right_away_290h.wav,stimulus/audwhere_stim/left_toward_280h.wav,stimulus/audwhere_stim/right_toward_300h.wav,stimulus/viswhere_stim/match_blank.png,stimulus/audwhere_stim/match_box.png,stimulus/viswhere_stim/match_yes.png,stimulus/viswhere_stim/match_no.png,1.0,Match,Direction,Direction,1,5.125,0,5.125,0,5.125,0,5.125,0,0.625,0.625,0,0.0,0,0.0,0,0.0,0,0.0,1,0.5,1,2.125,1,0.5,1,2.125,0,,,,,0,63,63,63,,,,,,,,,559.8528207089985,564.967346833997,559.8528207089985,559.8528207089985,559.8528207089985,559.8528207089985,560.3054662089999,561.3043946249963,560.318718208666,,561.9263235839971,562.925136124999,561.9389954586625,,564.967346833997,565.6980501669968,567.745994208999,,565.6980501669968,565.6980501669968,570.8659223750001,565.6980501669968,565.6980501669968,565.6980501669968,565.6980501669968,566.1517698749958,567.1980458749968,566.123288625666,567.1527508339932,567.745994208999,568.8018446669957,567.7166659586621,,565.6980501669968,570.8659223750001,565.6980501669968,570.8659223750001,570.8659223750001,571.5488338340001,565.6980501669968,1,1,1.4605770000052871,reldom2_s036,001,2025-03-14_12h31.23.513,Where-A-Scan_AC,2022.2.5,None,
0,0.0,None,fixation,stimulus/viswhere_stim/blank_white.png,stimulus/viswhere_stim/blank_white.png,stimulus/audwhere_stim/blank_white.png,stimulus/audwhere_stim/blank_white.png,stimulus/viswhere_stim/blank_white.png,stimulus/viswhere_stim/blank_white.png,stimulus/viswhere_stim/blank_white.png,stimulus/viswhere_stim/blank_white.png,0.0,0.0,0.0,0.0,0,0.0,0,0.0,0,0.0,0,0.0,0,0.0,0.0,0,0.0,0,0.0,0,0.0,0,0.0,0,0.0,0,0.0,0,0.0,0,0.0,16,,,,,0,64,64,64,,,,,,,,,571.7797897919954,571.7797897919954,571.7797897919954,571.7797897919954,571.7797897919954,571.7797897919954,571.7797897919954,571.7797897919954,571.6821671673334,571.7797897919954,571.7797897919954,571.7797897919954,571.6821671673334,571.7797897919954,571.7797897919954,571.7797897919954,571.7797897919954,571.7797897919954,571.7797897919954,571.7797897919954,571.7797897919954,571.7797897919954,571.7797897919954,571.7797897919954,571.7797897919954,571.7797897919954,571.7797897919954,571.7321671673334,571.7797897919954,571.7797897919954,571.7797897919954,571.7321671673334,571.7797897919954,571.7797897919954,571.7797897919954,571.7797897919954,571.7797897919954,576.9983871249933,576.9983871249933,587.9445740419978,None,0,,reldom2_s036,001,2025-03-14_12h31.23.513,Where-A-Scan_AC,2022.2.5,None,
