Trial,Order,Block,Type,Stimuli_File1,Stimuli_File2,Stimuli_File3,Stimuli_File4,Cue_File1,Cue_File2,Response_File_Yes,Response_File_No,Match,Cue_Dimension,Pair1_Dimension,Pair2_Dimension,Key,Cue1_Duration,Cue1_Onset,Cue2_Duration,Cue2_Onset,ResponseYes_Duration,ResponseYes_Onset,ResponseNo_Duration,ResponseNo_Onset,ITI_Within,ITI_Between,Image1_Duration,Image1_Onset,Image2_Duration,Image2_Onset,Image3_Duration,Image3_Onset,Image4_Duration,Image4_Onset,Sound1_Duration,Sound1_Onset,Sound2_Duration,Sound2_Onset,Sound3_Duration,Sound3_Onset,Sound4_Duration,Sound4_Onset,Fixation_Duration,trials_2.thisRepN,trials_2.thisTrialN,trials_2.thisN,trials_2.thisIndex,trials.thisRepN,trials.thisTrialN,trials.thisN,trials.thisIndex,text_start.started,key_resp_start.started,key_resp_start.keys,key_resp_start.rt,text2.started,key_resp_2.started,key_resp_2.keys,key_resp_2.rt,cue_file1.started,cue_file1.stopped,image_1.started,image_1.stopped,image_2.started,image_2.stopped,sound_icon1.started,sound_icon1.stopped,sound_1.started,sound_1.stopped,sound_icon2.started,sound_icon2.stopped,sound_2.started,sound_2.stopped,image_blank_1.started,image_blank_1.stopped,key_press.started,key_press.stopped,fixation_text.started,cue_file2.started,cue_file2.stopped,image_3.started,image_3.stopped,image_4.started,image_4.stopped,sound_icon3.started,sound_icon3.stopped,sound_3.started,sound_3.stopped,sound_icon4.started,sound_icon4.stopped,sound_4.started,sound_4.stopped,response_yes.started,response_yes.stopped,response_no.started,response_no.stopped,iti_blank.started,iti_blank.stopped,fixation_text.stopped,key_press.keys,key_press.corr,key_press.rt,participant,session,date,expName,psychopyVersion,frameRate,
,,,,,,,,,,,,,,,,,,,,,,,,,,,,,,,,,,,,,,,,,,,,,,,,,,,,8.478057374999935,8.478057374999935,2,1.0596916250001414,,,,,,,,,,,,,,,,,,,,,,,,,,,,,,,,,,,,,,,,,,,,,,,,reldom2_s007,001,2025-02-06_15h40.10.498,Aud-B-Scan_AC,2022.2.5,None,
,,,,,,,,,,,,,,,,,,,,,,,,,,,,,,,,,,,,,,,,,,,,0,0,0,0,,,,,,,,,9.559215291999863,9.559215291999863,5,17.45845858299981,,,,,,,,,,,,,,,,,,,,,,,,,,,,,,,,,,,,,,,,,,,,reldom2_s007,001,2025-02-06_15h40.10.498,Aud-B-Scan_AC,2022.2.5,None,
,,,,,,,,,,,,,,,,,,,,,,,,,,,,,,,,,,,,,,,,,,,,1,0,1,0,,,,,,,,,27.0313859580001,27.0313859580001,5,1.9828584580004645,,,,,,,,,,,,,,,,,,,,,,,,,,,,,,,,,,,,,,,,,,,,reldom2_s007,001,2025-02-06_15h40.10.498,Aud-B-Scan_AC,2022.2.5,None,
,,,,,,,,,,,,,,,,,,,,,,,,,,,,,,,,,,,,,,,,,,,,2,0,2,0,,,,,,,,,29.028522791999876,29.028522791999876,5,1.9862723740002366,,,,,,,,,,,,,,,,,,,,,,,,,,,,,,,,,,,,,,,,,,,,reldom2_s007,001,2025-02-06_15h40.10.498,Aud-B-Scan_AC,2022.2.5,None,
,,,,,,,,,,,,,,,,,,,,,,,,,,,,,,,,,,,,,,,,,,,,3,0,3,0,,,,,,,,,31.03111533299989,31.03111533299989,5,1.9829267920003986,,,,,,,,,,,,,,,,,,,,,,,,,,,,,,,,,,,,,,,,,,,,reldom2_s007,001,2025-02-06_15h40.10.498,Aud-B-Scan_AC,2022.2.5,None,
0,0.0,None,fixation,stimulus/audwhat_stim/blank_white.png,stimulus/audwhat_stim/blank_white.png,stimulus/audwhere_stim/blank_white.png,stimulus/audwhere_stim/blank_white.png,stimulus/audwhat_stim/blank_white.png,stimulus/audwhat_stim/blank_white.png,stimulus/audwhat_stim/blank_white.png,stimulus/audwhat_stim/blank_white.png,0.0,0.0,0.0,0.0,0,0.0,0,0.0,0,0.0,0,0.0,0,0.0,0.0,0,0,0,0,0,0,0,0,0,0.0,0,0.0,0,0.0,0,0.0,16,,,,,0,0,0,0,,,,,,,,,33.21113016700019,33.21113016700019,33.21113016700019,33.21113016700019,33.21113016700019,33.21113016700019,33.21113016700019,33.21113016700019,33.11629550000007,33.21113016700019,33.21113016700019,33.21113016700019,33.11629550000007,33.21113016700019,33.21113016700019,33.21113016700019,33.21113016700019,33.21113016700019,33.21113016700019,33.21113016700019,33.21113016700019,33.21113016700019,33.21113016700019,33.21113016700019,33.21113016700019,33.21113016700019,33.21113016700019,33.16629550000007,33.21113016700019,33.21113016700019,33.21113016700019,33.16629550000007,33.21113016700019,33.21113016700019,33.21113016700019,33.21113016700019,33.21113016700019,38.39510199999995,38.39510199999995,49.43449758299994,None,0,,reldom2_s007,001,2025-02-06_15h40.10.498,Aud-B-Scan_AC,2022.2.5,None,
1,First_Order,1.0,audwhat,stimulus/audwhat_stim/dummy.wav,stimulus/audwhat_stim/dummy.wav,stimulus/audwhat_stim/string viola_low-pitch_F_loud.wav,stimulus/audwhat_stim/string cello_high-pitch_Dtri_loud.wav,stimulus/audwhat_stim/blank_white.png,stimulus/audwhat_stim/pitch_box.png,stimulus/audwhat_stim/pitch_yes.png,stimulus/audwhat_stim/pitch_no.png,None,Pitch,None,Category,2,0.0,0,5.125,0,5.125,0,5.125,0,0.0,0.625,0,0,0,0,0,0,0,0,0,0.0,0,0.0,1,0.5,1,2.125,0,,,,,0,1,1,1,,,,,,,,,49.43449758299994,49.43449758299994,49.43449758299994,49.43449758299994,49.43449758299994,49.43449758299994,49.43449758299994,49.43449758299994,49.35689591700011,49.43449758299994,49.43449758299994,49.43449758299994,49.35689591700011,49.43449758299994,49.43449758299994,49.43449758299994,51.52527400000008,55.55700849999994,49.43449758299994,49.43449758299994,54.64447933300016,49.43449758299994,49.43449758299994,49.43449758299994,49.43449758299994,49.90002745799984,50.96493237499999,49.86995166666681,,51.52527400000008,52.59968658300022,51.495216999666596,,49.43449758299994,54.64447933300016,49.43449758299994,54.64447933300016,54.64447933300016,55.30040874999986,49.43449758299994,2,1,0.9134815830002481,reldom2_s007,001,2025-02-06_15h40.10.498,Aud-B-Scan_AC,2022.2.5,None,
2,First_Order,1.0,audwhat,stimulus/audwhat_stim/dummy.wav,stimulus/audwhat_stim/dummy.wav,stimulus/audwhat_stim/percussion xylophone_high-pitch_Ftri_loud.wav,stimulus/audwhat_stim/string viola_high-pitch_Ftri_loud.wav,stimulus/audwhat_stim/blank_white.png,stimulus/audwhat_stim/pitch_box.png,stimulus/audwhat_stim/pitch_yes.png,stimulus/audwhat_stim/pitch_no.png,None,Pitch,None,Pitch,1,0.0,0,5.125,0,5.125,0,5.125,0,0.0,0.625,0,0,0,0,0,0,0,0,0,0.0,0,0.0,1,0.5,1,2.125,0,,,,,0,2,2,2,,,,,,,,,55.55700849999994,55.55700849999994,55.55700849999994,55.55700849999994,55.55700849999994,55.55700849999994,55.55700849999994,55.55700849999994,55.4747066663332,55.55700849999994,55.55700849999994,55.55700849999994,55.4747066663332,55.55700849999994,55.55700849999994,55.55700849999994,57.65691983299985,,55.55700849999994,55.55700849999994,60.73547450000024,55.55700849999994,55.55700849999994,55.55700849999994,55.55700849999994,56.02343712499987,57.09851875000004,55.99335741666688,57.052158667000185,57.65691983299985,58.731440750000274,57.62660604166673,,55.55700849999994,60.73547450000024,55.55700849999994,60.73547450000024,60.77697562499998,61.43566808300011,55.55700849999994,1,1,0.7931515830000535,reldom2_s007,001,2025-02-06_15h40.10.498,Aud-B-Scan_AC,2022.2.5,None,
3,First_Order,1.0,audwhat,stimulus/audwhat_stim/dummy.wav,stimulus/audwhat_stim/dummy.wav,stimulus/audwhat_stim/string viola_low-pitch_Dtri_loud.wav,stimulus/audwhat_stim/percussion mallet_low-pitch_Dtri_loud.wav,stimulus/audwhat_stim/blank_white.png,stimulus/audwhat_stim/category_box.png,stimulus/audwhat_stim/category_yes.png,stimulus/audwhat_stim/category_no.png,None,Category,None,Pitch,2,0.0,0,5.125,0,5.125,0,5.125,0,0.0,0.625,0,0,0,0,0,0,0,0,0,0.0,0,0.0,1,0.5,1,2.125,0,,,,,0,3,3,3,,,,,,,,,61.652176874999896,61.652176874999896,61.652176874999896,61.652176874999896,61.652176874999896,61.652176874999896,61.652176874999896,61.652176874999896,61.56900141633344,61.652176874999896,61.652176874999896,61.652176874999896,61.56900141633344,61.652176874999896,61.652176874999896,61.652176874999896,63.76535429200021,,61.652176874999896,61.652176874999896,66.82515349999994,61.652176874999896,61.652176874999896,61.652176874999896,61.652176874999896,62.1220813330001,63.15699933299993,62.09162708366672,,63.76535429200021,64.80558849999989,63.73497545866691,,61.652176874999896,66.82515349999994,61.652176874999896,66.82515349999994,66.86630679200016,67.53149504200019,61.652176874999896,2,1,0.765605874999892,reldom2_s007,001,2025-02-06_15h40.10.498,Aud-B-Scan_AC,2022.2.5,None,
4,First_Order,1.0,audwhat,stimulus/audwhat_stim/dummy.wav,stimulus/audwhat_stim/dummy.wav,stimulus/audwhat_stim/percussion mallet_low-pitch_D_loud.wav,stimulus/audwhat_stim/percussion xylophone_high-pitch_Dtri_loud.wav,stimulus/audwhat_stim/blank_white.png,stimulus/audwhat_stim/pitch_box.png,stimulus/audwhat_stim/pitch_yes.png,stimulus/audwhat_stim/pitch_no.png,None,Pitch,None,Category,2,0.0,0,5.125,0,5.125,0,5.125,0,0.0,0.625,0,0,0,0,0,0,0,0,0,0.0,0,0.0,1,0.5,1,2.125,0,,,,,0,4,4,4,,,,,,,,,67.748453917,67.748453917,67.748453917,67.748453917,67.748453917,67.748453917,67.748453917,67.748453917,67.66482837533351,67.748453917,67.748453917,67.748453917,67.66482837533351,67.748453917,67.748453917,67.748453917,69.85674400000016,73.892848125,67.748453917,67.748453917,72.90863958299997,67.748453917,67.748453917,67.748453917,67.748453917,68.21740883300026,69.24863995800024,68.18708899966693,,69.85674400000016,70.89378645800025,69.82606149966684,70.89378645800025,67.748453917,72.90863958299997,67.748453917,72.90863958299997,72.9501848330001,73.61612654200007,67.748453917,1,0,3.293725665999773,reldom2_s007,001,2025-02-06_15h40.10.498,Aud-B-Scan_AC,2022.2.5,None,
0,0.0,None,fixation,stimulus/audwhat_stim/blank_white.png,stimulus/audwhat_stim/blank_white.png,stimulus/audwhere_stim/blank_white.png,stimulus/audwhere_stim/blank_white.png,stimulus/audwhat_stim/blank_white.png,stimulus/audwhat_stim/blank_white.png,stimulus/audwhat_stim/blank_white.png,stimulus/audwhat_stim/blank_white.png,0.0,0.0,0.0,0.0,0,0.0,0,0.0,0,0.0,0,0.0,0,0.0,0.0,0,0,0,0,0,0,0,0,0,0.0,0,0.0,0,0.0,0,0.0,8,,,,,0,5,5,5,,,,,,,,,73.892848125,73.892848125,73.892848125,73.892848125,73.892848125,73.892848125,73.892848125,73.892848125,73.79104112533344,73.892848125,73.892848125,73.892848125,73.79104112533344,73.892848125,73.892848125,73.892848125,73.892848125,73.892848125,73.892848125,73.892848125,73.892848125,73.892848125,73.892848125,73.892848125,73.892848125,73.892848125,73.892848125,73.84104112533345,73.892848125,73.892848125,73.892848125,73.84104112533345,73.892848125,73.892848125,73.892848125,73.892848125,73.892848125,79.09407937500009,79.09407937500009,82.05474808300005,None,0,,reldom2_s007,001,2025-02-06_15h40.10.498,Aud-B-Scan_AC,2022.2.5,None,
5,Second_Order,1.0,audwhat,stimulus/audwhat_stim/percussion mallet_high-pitch_Dtri_loud.wav,stimulus/audwhat_stim/string cello_high-pitch_Dtri_loud.wav,stimulus/audwhat_stim/string viola_low-pitch_F_loud.wav,stimulus/audwhat_stim/percussion mallet_low-pitch_F_loud.wav,stimulus/audwhat_stim/match_blank.png,stimulus/audwhat_stim/match_box.png,stimulus/audwhat_stim/match_yes.png,stimulus/audwhat_stim/match_no.png,1.0,Match,Pitch,Pitch,1,5.125,0,5.125,0,5.125,0,5.125,0,0.75,0.75,0,0,0,0,0,0,0,0,1,0.5,1,2.125,1,0.5,1,2.125,0,,,,,0,6,6,6,,,,,,,,,82.05474808300005,87.17620370800023,82.05474808300005,82.05474808300005,82.05474808300005,82.05474808300005,82.50971208300007,83.49914958299996,82.51336258366679,83.51183008299995,84.13547183299988,85.13243566700021,84.14704566666684,,87.17620370800023,88.00784483300004,90.06922733300007,,88.00784483300004,88.00784483300004,93.17204225000023,88.00784483300004,88.00784483300004,88.00784483300004,88.00784483300004,88.47723158300005,89.50779383300005,88.4468364996667,,90.06922733300007,91.10398329200007,90.03922566666667,,88.00784483300004,93.17204225000023,88.00784483300004,93.17204225000023,93.21282625000003,,88.00784483300004,1,1,0.8402213750000556,reldom2_s007,001,2025-02-06_15h40.10.498,Aud-B-Scan_AC,2022.2.5,None,
6,Second_Order,1.0,audwhat,stimulus/audwhat_stim/percussion mallet_low-pitch_F_loud.wav,stimulus/audwhat_stim/percussion mallet_high-pitch_Dtri_loud.wav,stimulus/audwhat_stim/string viola_low-pitch_Ftri_loud.wav,stimulus/audwhat_stim/percussion mallet_low-pitch_Ftri_loud.wav,stimulus/audwhat_stim/match_blank.png,stimulus/audwhat_stim/match_box.png,stimulus/audwhat_stim/match_yes.png,stimulus/audwhat_stim/match_no.png,2.0,Match,Category,Pitch,2,5.125,0,5.125,0,5.125,0,5.125,0,0.625,0.625,0,0,0,0,0,0,0,0,1,0.5,1,2.125,1,0.5,1,2.125,0,,,,,0,7,7,7,,,,,,,,,93.99311975,99.11470016700014,93.99311975,93.99311975,93.99311975,93.99311975,94.44132112500029,95.43982766699992,94.45380262466666,95.4475896670001,96.07423466699993,97.06291820800016,96.07775508366673,97.07706004200008,99.11470016700014,99.83108949999996,101.93055983300019,105.95746624999992,99.83108949999996,99.83108949999996,105.02081454200015,99.83108949999996,99.83108949999996,99.83108949999996,99.83108949999996,100.29531120799993,101.37036883300016,100.2650569586665,,101.93055983300019,102.96314337500007,101.90031699966654,,99.83108949999996,105.02081454200015,99.83108949999996,105.02081454200015,105.02081454200015,105.68002558299986,99.83108949999996,2,1,1.1455890420002106,reldom2_s007,001,2025-02-06_15h40.10.498,Aud-B-Scan_AC,2022.2.5,None,
0,0.0,None,fixation,stimulus/audwhat_stim/blank_white.png,stimulus/audwhat_stim/blank_white.png,stimulus/audwhere_stim/blank_white.png,stimulus/audwhere_stim/blank_white.png,stimulus/audwhat_stim/blank_white.png,stimulus/audwhat_stim/blank_white.png,stimulus/audwhat_stim/blank_white.png,stimulus/audwhat_stim/blank_white.png,0.0,0.0,0.0,0.0,0,0.0,0,0.0,0,0.0,0,0.0,0,0.0,0.0,0,0,0,0,0,0,0,0,0,0.0,0,0.0,0,0.0,0,0.0,10,,,,,0,8,8,8,,,,,,,,,105.95746624999992,105.95746624999992,105.95746624999992,105.95746624999992,105.95746624999992,105.95746624999992,105.95746624999992,105.95746624999992,105.85441062533357,105.95746624999992,105.95746624999992,105.95746624999992,105.85441062533357,105.95746624999992,105.95746624999992,105.95746624999992,105.95746624999992,105.95746624999992,105.95746624999992,105.95746624999992,105.95746624999992,105.95746624999992,105.95746624999992,105.95746624999992,105.95746624999992,105.95746624999992,105.95746624999992,105.90441062533358,105.95746624999992,105.95746624999992,105.95746624999992,105.90441062533358,105.95746624999992,105.95746624999992,105.95746624999992,105.95746624999992,105.95746624999992,111.13909575000025,111.13909575000025,116.19558804200005,None,0,,reldom2_s007,001,2025-02-06_15h40.10.498,Aud-B-Scan_AC,2022.2.5,None,
7,First_Order,2.0,audwhat,stimulus/audwhat_stim/dummy.wav,stimulus/audwhat_stim/dummy.wav,stimulus/audwhat_stim/percussion xylophone_high-pitch_F_loud.wav,stimulus/audwhat_stim/percussion mallet_low-pitch_D_loud.wav,stimulus/audwhat_stim/blank_white.png,stimulus/audwhat_stim/category_box.png,stimulus/audwhat_stim/category_yes.png,stimulus/audwhat_stim/category_no.png,None,Category,None,Category,1,0.0,0,5.125,0,5.125,0,5.125,0,0.0,0.625,0,0,0,0,0,0,0,0,0,0.0,0,0.0,1,0.5,1,2.125,0,,,,,0,9,9,9,,,,,,,,,116.19558804200005,116.19558804200005,116.19558804200005,116.19558804200005,116.19558804200005,116.19558804200005,116.19558804200005,116.19558804200005,116.11833645866652,116.19558804200005,116.19558804200005,116.19558804200005,116.11833645866652,116.19558804200005,116.19558804200005,116.19558804200005,118.27521916700016,122.32267687500007,116.19558804200005,116.19558804200005,121.35573054199995,116.19558804200005,116.19558804200005,116.19558804200005,116.19558804200005,116.667491917,117.70949012500023,116.63689908366656,117.70949012500023,118.27521916700016,119.31525854200027,118.24402349966682,,116.19558804200005,121.35573054199995,116.19558804200005,121.35573054199995,121.39751849999993,122.06472525000027,116.19558804200005,2,0,1.7058957079998436,reldom2_s007,001,2025-02-06_15h40.10.498,Aud-B-Scan_AC,2022.2.5,None,
8,First_Order,2.0,audwhat,stimulus/audwhat_stim/dummy.wav,stimulus/audwhat_stim/dummy.wav,stimulus/audwhat_stim/percussion mallet_low-pitch_D_loud.wav,stimulus/audwhat_stim/string viola_low-pitch_D_loud.wav,stimulus/audwhat_stim/blank_white.png,stimulus/audwhat_stim/pitch_box.png,stimulus/audwhat_stim/pitch_yes.png,stimulus/audwhat_stim/pitch_no.png,None,Pitch,None,Pitch,1,0.0,0,5.125,0,5.125,0,5.125,0,0.0,0.625,0,0,0,0,0,0,0,0,0,0.0,0,0.0,1,0.5,1,2.125,0,,,,,0,10,10,10,,,,,,,,,122.32267687500007,122.32267687500007,122.32267687500007,122.32267687500007,122.32267687500007,122.32267687500007,122.32267687500007,122.32267687500007,122.23923391633355,122.32267687500007,122.32267687500007,122.32267687500007,122.23923391633355,122.32267687500007,122.32267687500007,122.32267687500007,124.39410587500015,,122.32267687500007,122.32267687500007,127.50263304200007,122.32267687500007,122.32267687500007,122.32267687500007,122.32267687500007,122.79467554200028,123.83068212499984,122.76394783366665,,124.39410587500015,125.4342637499999,124.3633706246667,,122.32267687500007,127.50263304200007,122.32267687500007,127.50263304200007,127.54409058300007,128.20632770800012,122.32267687500007,1,1,1.7666970830000537,reldom2_s007,001,2025-02-06_15h40.10.498,Aud-B-Scan_AC,2022.2.5,None,
9,First_Order,2.0,audwhat,stimulus/audwhat_stim/dummy.wav,stimulus/audwhat_stim/dummy.wav,stimulus/audwhat_stim/percussion mallet_low-pitch_D_loud.wav,stimulus/audwhat_stim/percussion mallet_high-pitch_Ftri_loud.wav,stimulus/audwhat_stim/blank_white.png,stimulus/audwhat_stim/category_box.png,stimulus/audwhat_stim/category_yes.png,stimulus/audwhat_stim/category_no.png,None,Category,None,Category,1,0.0,0,5.125,0,5.125,0,5.125,0,0.0,0.625,0,0,0,0,0,0,0,0,0,0.0,0,0.0,1,0.5,1,2.125,0,,,,,0,11,11,11,,,,,,,,,128.42318212500004,128.42318212500004,128.42318212500004,128.42318212500004,128.42318212500004,128.42318212500004,128.42318212500004,128.42318212500004,128.33966104133347,128.42318212500004,128.42318212500004,128.42318212500004,128.33966104133347,128.42318212500004,128.42318212500004,128.42318212500004,130.50354320799988,134.549518542,128.42318212500004,128.42318212500004,133.58121758300013,128.42318212500004,128.42318212500004,128.42318212500004,128.42318212500004,128.89674979200026,129.93802233299994,128.86625908366685,,130.50354320799988,131.5481494579999,130.47317374966659,,128.42318212500004,133.58121758300013,128.42318212500004,133.58121758300013,133.623057583,134.28886991700028,128.42318212500004,1,1,1.3313152079999782,reldom2_s007,001,2025-02-06_15h40.10.498,Aud-B-Scan_AC,2022.2.5,None,
10,First_Order,2.0,audwhat,stimulus/audwhat_stim/dummy.wav,stimulus/audwhat_stim/dummy.wav,stimulus/audwhat_stim/string cello_high-pitch_F_loud.wav,stimulus/audwhat_stim/percussion mallet_high-pitch_F_loud.wav,stimulus/audwhat_stim/blank_white.png,stimulus/audwhat_stim/category_box.png,stimulus/audwhat_stim/category_yes.png,stimulus/audwhat_stim/category_no.png,None,Category,None,Pitch,2,0.0,0,5.125,0,5.125,0,5.125,0,0.0,0.625,0,0,0,0,0,0,0,0,0,0.0,0,0.0,1,0.5,1,2.125,0,,,,,0,12,12,12,,,,,,,,,134.549518542,134.549518542,134.549518542,134.549518542,134.549518542,134.549518542,134.549518542,134.549518542,134.46380958333353,134.549518542,134.549518542,134.549518542,134.46380958333353,134.549518542,134.549518542,134.549518542,136.63126183300028,140.69614945800004,134.549518542,134.549518542,139.707637042,134.549518542,134.549518542,134.549518542,134.549518542,135.02351637499987,136.06495666699993,134.99168449966672,,136.63126183300028,137.67696808300025,136.6006167496669,,134.549518542,139.707637042,134.549518542,139.707637042,139.74933291700017,140.415028333,134.549518542,2,1,1.0260868330001358,reldom2_s007,001,2025-02-06_15h40.10.498,Aud-B-Scan_AC,2022.2.5,None,
0,0.0,None,fixation,stimulus/audwhat_stim/blank_white.png,stimulus/audwhat_stim/blank_white.png,stimulus/audwhere_stim/blank_white.png,stimulus/audwhere_stim/blank_white.png,stimulus/audwhat_stim/blank_white.png,stimulus/audwhat_stim/blank_white.png,stimulus/audwhat_stim/blank_white.png,stimulus/audwhat_stim/blank_white.png,0.0,0.0,0.0,0.0,0,0.0,0,0.0,0,0.0,0,0.0,0,0.0,0.0,0,0,0,0,0,0,0,0,0,0.0,0,0.0,0,0.0,0,0.0,8,,,,,0,13,13,13,,,,,,,,,140.69614945800004,140.69614945800004,140.69614945800004,140.69614945800004,140.69614945800004,140.69614945800004,140.69614945800004,140.69614945800004,140.5898575833336,140.69614945800004,140.69614945800004,140.69614945800004,140.5898575833336,140.69614945800004,140.69614945800004,140.69614945800004,140.69614945800004,140.69614945800004,140.69614945800004,140.69614945800004,140.69614945800004,140.69614945800004,140.69614945800004,140.69614945800004,140.69614945800004,140.69614945800004,140.69614945800004,140.6398575833336,140.69614945800004,140.69614945800004,140.69614945800004,140.6398575833336,140.69614945800004,140.69614945800004,140.69614945800004,140.69614945800004,140.69614945800004,145.91165291700008,145.91165291700008,148.83226624999998,None,0,,reldom2_s007,001,2025-02-06_15h40.10.498,Aud-B-Scan_AC,2022.2.5,None,
11,Second_Order,2.0,audwhat,stimulus/audwhat_stim/string viola_high-pitch_Dtri_loud.wav,stimulus/audwhat_stim/string cello_low-pitch_D_loud.wav,stimulus/audwhat_stim/percussion mallet_high-pitch_Dtri_loud.wav,stimulus/audwhat_stim/percussion mallet_low-pitch_Ftri_loud.wav,stimulus/audwhat_stim/match_blank.png,stimulus/audwhat_stim/match_box.png,stimulus/audwhat_stim/match_yes.png,stimulus/audwhat_stim/match_no.png,1.0,Match,Category,Category,1,5.125,0,5.125,0,5.125,0,5.125,0,0.75,0.75,0,0,0,0,0,0,0,0,1,0.5,1,2.125,1,0.5,1,2.125,0,,,,,0,14,14,14,,,,,,,,,148.83226624999998,153.94654004199992,148.83226624999998,148.83226624999998,148.83226624999998,148.83226624999998,149.2845977500001,150.28252604199997,149.2969895836666,,150.9060370420002,151.90287124999986,150.91756954166684,,153.94654004199992,154.77566308299993,156.848795375,,154.77566308299993,154.77566308299993,159.95614324999997,154.77566308299993,154.77566308299993,154.77566308299993,154.77566308299993,155.24913108300007,156.2846213329999,155.2167773746667,,156.848795375,157.88903233300016,156.81830954166688,,154.77566308299993,159.95614324999997,154.77566308299993,159.95614324999997,159.95614324999997,,154.77566308299993,1,1,0.7126980830003049,reldom2_s007,001,2025-02-06_15h40.10.498,Aud-B-Scan_AC,2022.2.5,None,
12,Second_Order,2.0,audwhat,stimulus/audwhat_stim/string viola_low-pitch_F_loud.wav,stimulus/audwhat_stim/string viola_high-pitch_Ftri_loud.wav,stimulus/audwhat_stim/percussion mallet_low-pitch_Ftri_loud.wav,stimulus/audwhat_stim/percussion xylophone_high-pitch_Dtri_loud.wav,stimulus/audwhat_stim/match_blank.png,stimulus/audwhat_stim/match_box.png,stimulus/audwhat_stim/match_yes.png,stimulus/audwhat_stim/match_no.png,1.0,Match,Category,Category,1,5.125,0,5.125,0,5.125,0,5.125,0,0.625,0.625,0,0,0,0,0,0,0,0,1,0.5,1,2.125,1,0.5,1,2.125,0,,,,,0,15,15,15,,,,,,,,,160.782068083,165.90657362499996,160.782068083,160.782068083,160.782068083,160.782068083,161.24138679199996,162.23012345799998,161.24356816666685,,162.86162700000023,163.85100012500016,162.86674499966674,,165.90657362499996,166.62182058300004,168.68494354199993,,166.62182058300004,166.62182058300004,171.78924237499996,166.62182058300004,166.62182058300004,166.62182058300004,166.62182058300004,167.09051079200026,168.12246712500018,167.05986470866654,,168.68494354199993,169.72761608300016,168.65421541666663,169.72761608300016,166.62182058300004,171.78924237499996,166.62182058300004,171.78924237499996,171.8305126250002,172.49024770799997,166.62182058300004,1,1,1.4096728330005135,reldom2_s007,001,2025-02-06_15h40.10.498,Aud-B-Scan_AC,2022.2.5,None,
0,0.0,None,fixation,stimulus/audwhat_stim/blank_white.png,stimulus/audwhat_stim/blank_white.png,stimulus/audwhere_stim/blank_white.png,stimulus/audwhere_stim/blank_white.png,stimulus/audwhat_stim/blank_white.png,stimulus/audwhat_stim/blank_white.png,stimulus/audwhat_stim/blank_white.png,stimulus/audwhat_stim/blank_white.png,0.0,0.0,0.0,0.0,0,0.0,0,0.0,0,0.0,0,0.0,0,0.0,0.0,0,0,0,0,0,0,0,0,0,0.0,0,0.0,0,0.0,0,0.0,9,,,,,0,16,16,16,,,,,,,,,172.72758049999993,172.72758049999993,172.72758049999993,172.72758049999993,172.72758049999993,172.72758049999993,172.72758049999993,172.72758049999993,172.62358104133332,172.72758049999993,172.72758049999993,172.72758049999993,172.62358104133332,172.72758049999993,172.72758049999993,172.72758049999993,172.72758049999993,172.72758049999993,172.72758049999993,172.72758049999993,172.72758049999993,172.72758049999993,172.72758049999993,172.72758049999993,172.72758049999993,172.72758049999993,172.72758049999993,172.6735810413333,172.72758049999993,172.72758049999993,172.72758049999993,172.6735810413333,172.72758049999993,172.72758049999993,172.72758049999993,172.72758049999993,172.72758049999993,177.93051454199986,177.93051454199986,181.96274979200007,None,0,,reldom2_s007,001,2025-02-06_15h40.10.498,Aud-B-Scan_AC,2022.2.5,None,
13,First_Order,3.0,audwhere,stimulus/audwhere_stim/dummy.wav,stimulus/audwhere_stim/dummy.wav,stimulus/audwhere_stim/left_toward_290h.wav,stimulus/audwhere_stim/right_toward_280h.wav,stimulus/audwhere_stim/blank_white.png,stimulus/audwhere_stim/direction_box.png,stimulus/audwhere_stim/direction_yes.png,stimulus/audwhere_stim/direction_no.png,None,Direction,None,Direction,1,0.0,0,5.125,0,5.125,0,5.125,0,0.0,0.625,0,0,0,0,0,0,0,0,0,0.0,0,0.0,1,0.5,1,2.125,0,,,,,0,17,17,17,,,,,,,,,181.96274979200007,181.96274979200007,181.96274979200007,181.96274979200007,181.96274979200007,181.96274979200007,181.96274979200007,181.96274979200007,181.8848205836668,181.96274979200007,181.96274979200007,181.96274979200007,181.8848205836668,181.96274979200007,181.96274979200007,181.96274979200007,184.04494283300028,,181.96274979200007,181.96274979200007,187.13358741699994,181.96274979200007,181.96274979200007,181.96274979200007,181.96274979200007,182.4357910829999,183.47785383300015,182.40543733366692,,184.04494283300028,185.09149125000022,184.01415566666654,,181.96274979200007,187.13358741699994,181.96274979200007,187.13358741699994,187.1755050830002,187.84136775000024,181.96274979200007,1,1,2.156330541999978,reldom2_s007,001,2025-02-06_15h40.10.498,Aud-B-Scan_AC,2022.2.5,None,
14,First_Order,3.0,audwhere,stimulus/audwhere_stim/dummy.wav,stimulus/audwhere_stim/dummy.wav,stimulus/audwhere_stim/left_toward_270h.wav,stimulus/audwhere_stim/right_toward_290h.wav,stimulus/audwhere_stim/blank_white.png,stimulus/audwhere_stim/direction_box.png,stimulus/audwhere_stim/direction_yes.png,stimulus/audwhere_stim/direction_no.png,None,Direction,None,Direction,1,0.0,0,5.125,0,5.125,0,5.125,0,0.0,0.625,0,0,0,0,0,0,0,0,0,0.0,0,0.0,1,0.5,1,2.125,0,,,,,0,18,18,18,,,,,,,,,188.05688604199986,188.05688604199986,188.05688604199986,188.05688604199986,188.05688604199986,188.05688604199986,188.05688604199986,188.05688604199986,187.9747010833336,188.05688604199986,188.05688604199986,188.05688604199986,187.9747010833336,188.05688604199986,188.05688604199986,188.05688604199986,190.14051233300006,194.18547445800004,188.05688604199986,188.05688604199986,193.2196331250002,188.05688604199986,188.05688604199986,188.05688604199986,188.05688604199986,188.53130854200026,189.57361095800024,188.50031341666661,,190.14051233300006,191.18577079199986,190.1091721246669,,188.05688604199986,193.2196331250002,188.05688604199986,193.2196331250002,193.26150554200012,193.9271524579999,188.05688604199986,1,1,1.7274242079997748,reldom2_s007,001,2025-02-06_15h40.10.498,Aud-B-Scan_AC,2022.2.5,None,
15,First_Order,3.0,audwhere,stimulus/audwhere_stim/dummy.wav,stimulus/audwhere_stim/dummy.wav,stimulus/audwhere_stim/left_away_290h.wav,stimulus/audwhere_stim/left_toward_280h.wav,stimulus/audwhere_stim/blank_white.png,stimulus/audwhere_stim/direction_box.png,stimulus/audwhere_stim/direction_yes.png,stimulus/audwhere_stim/direction_no.png,None,Direction,None,Side,2,0.0,0,5.125,0,5.125,0,5.125,0,0.0,0.625,0,0,0,0,0,0,0,0,0,0.0,0,0.0,1,0.5,1,2.125,0,,,,,0,19,19,19,,,,,,,,,194.18547445800004,194.18547445800004,194.18547445800004,194.18547445800004,194.18547445800004,194.18547445800004,194.18547445800004,194.18547445800004,194.1021742503332,194.18547445800004,194.18547445800004,194.18547445800004,194.1021742503332,194.18547445800004,194.18547445800004,194.18547445800004,196.267334958,200.31411212500007,194.18547445800004,194.18547445800004,199.3458971250002,194.18547445800004,194.18547445800004,194.18547445800004,194.18547445800004,194.6592783330002,195.70037520799997,194.6288770836666,,196.267334958,197.31191204200013,196.2362317496666,,194.18547445800004,199.3458971250002,194.18547445800004,199.3458971250002,199.38772074999997,200.05507216700016,194.18547445800004,2,1,1.4972378330003266,reldom2_s007,001,2025-02-06_15h40.10.498,Aud-B-Scan_AC,2022.2.5,None,
16,First_Order,3.0,audwhere,stimulus/audwhere_stim/dummy.wav,stimulus/audwhere_stim/dummy.wav,stimulus/audwhere_stim/left_toward_300h.wav,stimulus/audwhere_stim/left_away_290h.wav,stimulus/audwhere_stim/blank_white.png,stimulus/audwhere_stim/direction_box.png,stimulus/audwhere_stim/direction_yes.png,stimulus/audwhere_stim/direction_no.png,None,Direction,None,Side,2,0.0,0,5.125,0,5.125,0,5.125,0,0.0,0.625,0,0,0,0,0,0,0,0,0,0.0,0,0.0,1,0.5,1,2.125,0,,,,,0,20,20,20,,,,,,,,,200.31411212500007,200.31411212500007,200.31411212500007,200.31411212500007,200.31411212500007,200.31411212500007,200.31411212500007,200.31411212500007,200.2305044583333,200.31411212500007,200.31411212500007,200.31411212500007,200.2305044583333,200.31411212500007,200.31411212500007,200.31411212500007,202.39750950000007,206.46749795799997,200.31411212500007,200.31411212500007,205.47972895800012,200.31411212500007,200.31411212500007,200.31411212500007,200.31411212500007,200.7864723749999,201.83033724999996,200.7553159996667,,202.39750950000007,203.4431259170001,202.36691054166684,,200.31411212500007,205.47972895800012,200.31411212500007,205.47972895800012,205.52170587499995,206.18796808300021,200.31411212500007,2,1,1.3406747499998346,reldom2_s007,001,2025-02-06_15h40.10.498,Aud-B-Scan_AC,2022.2.5,None,
0,0.0,None,fixation,stimulus/audwhat_stim/blank_white.png,stimulus/audwhat_stim/blank_white.png,stimulus/audwhere_stim/blank_white.png,stimulus/audwhere_stim/blank_white.png,stimulus/audwhat_stim/blank_white.png,stimulus/audwhat_stim/blank_white.png,stimulus/audwhat_stim/blank_white.png,stimulus/audwhat_stim/blank_white.png,0.0,0.0,0.0,0.0,0,0.0,0,0.0,0,0.0,0,0.0,0,0.0,0.0,0,0,0,0,0,0,0,0,0,0.0,0,0.0,0,0.0,0,0.0,10,,,,,0,21,21,21,,,,,,,,,206.46749795799997,206.46749795799997,206.46749795799997,206.46749795799997,206.46749795799997,206.46749795799997,206.46749795799997,206.46749795799997,206.3629777083335,206.46749795799997,206.46749795799997,206.46749795799997,206.3629777083335,206.46749795799997,206.46749795799997,206.46749795799997,206.46749795799997,206.46749795799997,206.46749795799997,206.46749795799997,206.46749795799997,206.46749795799997,206.46749795799997,206.46749795799997,206.46749795799997,206.46749795799997,206.46749795799997,206.41297770833347,206.46749795799997,206.46749795799997,206.46749795799997,206.41297770833347,206.46749795799997,206.46749795799997,206.46749795799997,206.46749795799997,206.46749795799997,211.7022220419999,211.7022220419999,216.64505187500026,None,0,,reldom2_s007,001,2025-02-06_15h40.10.498,Aud-B-Scan_AC,2022.2.5,None,
17,Second_Order,3.0,audwhere,stimulus/audwhere_stim/right_toward_290h.wav,stimulus/audwhere_stim/right_away_290h.wav,stimulus/audwhere_stim/right_away_280h.wav,stimulus/audwhere_stim/left_away_300h.wav,stimulus/audwhat_stim/match_blank.png,stimulus/audwhat_stim/match_box.png,stimulus/audwhat_stim/match_yes.png,stimulus/audwhat_stim/match_no.png,2.0,Match,Side,Direction,2,5.125,0,5.125,0,5.125,0,5.125,0,0.75,0.75,0,0,0,0,0,0,0,0,1,0.5,1,2.125,1,0.5,1,2.125,0,,,,,0,22,22,22,,,,,,,,,216.64505187500026,221.76888762499993,216.64505187500026,216.64505187500026,216.64505187500026,216.64505187500026,217.10305266700016,218.0967122080001,217.10653908366683,218.0967122080001,218.72799912500022,219.72622920799995,218.74016745866655,219.7342221250001,221.76888762499993,222.6008132500001,224.67283899999984,228.6121373330002,222.6008132500001,222.6008132500001,227.78829829200004,222.6008132500001,222.6008132500001,222.6008132500001,222.6008132500001,223.07408429199995,224.1090187499999,223.0427306246668,,224.67283899999984,225.71570995799993,224.64255370866684,,222.6008132500001,227.78829829200004,222.6008132500001,227.78829829200004,227.78829829200004,,222.6008132500001,2,1,0.7315119170002617,reldom2_s007,001,2025-02-06_15h40.10.498,Aud-B-Scan_AC,2022.2.5,None,
18,Second_Order,3.0,audwhere,stimulus/audwhere_stim/right_toward_270h.wav,stimulus/audwhere_stim/left_toward_270h.wav,stimulus/audwhere_stim/right_away_300h.wav,stimulus/audwhere_stim/left_away_280h.wav,stimulus/audwhat_stim/match_blank.png,stimulus/audwhat_stim/match_box.png,stimulus/audwhat_stim/match_yes.png,stimulus/audwhat_stim/match_no.png,1.0,Match,Direction,Direction,1,5.125,0,5.125,0,5.125,0,5.125,0,0.625,0.625,0,0,0,0,0,0,0,0,1,0.5,1,2.125,1,0.5,1,2.125,0,,,,,0,23,23,23,,,,,,,,,228.6121373330002,233.73075195799993,228.6121373330002,228.6121373330002,228.6121373330002,228.6121373330002,229.06760254200026,230.05414429200027,229.0810032916668,230.07536912500018,230.68920095800013,231.6871060829999,230.70129229166676,231.69563433300027,233.73075195799993,234.4420130829999,236.50577841699987,,234.4420130829999,234.4420130829999,239.60703554200018,234.4420130829999,234.4420130829999,234.4420130829999,234.4420130829999,234.9111344580001,235.9440387919999,234.88078949966692,,236.50577841699987,237.54184983300001,236.47536704166694,,234.4420130829999,239.60703554200018,234.4420130829999,239.60703554200018,239.64847641699998,240.31014020800012,234.4420130829999,1,1,1.1819198749999487,reldom2_s007,001,2025-02-06_15h40.10.498,Aud-B-Scan_AC,2022.2.5,None,
0,0.0,None,fixation,stimulus/audwhat_stim/blank_white.png,stimulus/audwhat_stim/blank_white.png,stimulus/audwhere_stim/blank_white.png,stimulus/audwhere_stim/blank_white.png,stimulus/audwhat_stim/blank_white.png,stimulus/audwhat_stim/blank_white.png,stimulus/audwhat_stim/blank_white.png,stimulus/audwhat_stim/blank_white.png,0.0,0.0,0.0,0.0,0,0.0,0,0.0,0,0.0,0,0.0,0,0.0,0.0,0,0,0,0,0,0,0,0,0,0.0,0,0.0,0,0.0,0,0.0,8,,,,,0,24,24,24,,,,,,,,,240.54913291699995,240.54913291699995,240.54913291699995,240.54913291699995,240.54913291699995,240.54913291699995,240.54913291699995,240.54913291699995,240.44347354133347,240.54913291699995,240.54913291699995,240.54913291699995,240.44347354133347,240.54913291699995,240.54913291699995,240.54913291699995,240.54913291699995,240.54913291699995,240.54913291699995,240.54913291699995,240.54913291699995,240.54913291699995,240.54913291699995,240.54913291699995,240.54913291699995,240.54913291699995,240.54913291699995,240.51014020800014,240.54913291699995,240.54913291699995,240.54913291699995,240.51014020800014,240.54913291699995,240.54913291699995,240.54913291699995,240.54913291699995,240.54913291699995,245.74841562500023,245.74841562500023,248.80850154200016,None,0,,reldom2_s007,001,2025-02-06_15h40.10.498,Aud-B-Scan_AC,2022.2.5,None,
19,First_Order,4.0,audwhere,stimulus/audwhere_stim/dummy.wav,stimulus/audwhere_stim/dummy.wav,stimulus/audwhere_stim/right_toward_280h.wav,stimulus/audwhere_stim/left_toward_280h.wav,stimulus/audwhere_stim/blank_white.png,stimulus/audwhere_stim/side_box.png,stimulus/audwhere_stim/side_yes.png,stimulus/audwhere_stim/side_no.png,None,Side,None,Direction,2,0.0,0,5.125,0,5.125,0,5.125,0,0.0,0.625,0,0,0,0,0,0,0,0,0,0.0,0,0.0,1,0.5,1,2.125,0,,,,,0,25,25,25,,,,,,,,,248.80850154200016,248.80850154200016,248.80850154200016,248.80850154200016,248.80850154200016,248.80850154200016,248.80850154200016,248.80850154200016,248.73241124966688,248.80850154200016,248.80850154200016,248.80850154200016,248.73241124966688,248.80850154200016,248.80850154200016,248.80850154200016,250.87938366700018,,248.80850154200016,248.80850154200016,253.98776820800003,248.80850154200016,248.80850154200016,248.80850154200016,248.80850154200016,249.28127750000021,250.31639833300005,249.25064820866672,,250.87938366700018,251.91829300000018,250.8487124166666,,248.80850154200016,253.98776820800003,248.80850154200016,253.98776820800003,254.0290946250002,254.69098320800003,248.80850154200016,2,1,1.056248083000355,reldom2_s007,001,2025-02-06_15h40.10.498,Aud-B-Scan_AC,2022.2.5,None,
20,First_Order,4.0,audwhere,stimulus/audwhere_stim/dummy.wav,stimulus/audwhere_stim/dummy.wav,stimulus/audwhere_stim/left_toward_290h.wav,stimulus/audwhere_stim/right_toward_270h.wav,stimulus/audwhere_stim/blank_white.png,stimulus/audwhere_stim/side_box.png,stimulus/audwhere_stim/side_yes.png,stimulus/audwhere_stim/side_no.png,None,Side,None,Direction,2,0.0,0,5.125,0,5.125,0,5.125,0,0.0,0.625,0,0,0,0,0,0,0,0,0,0.0,0,0.0,1,0.5,1,2.125,0,,,,,0,26,26,26,,,,,,,,,254.90757291699992,254.90757291699992,254.90757291699992,254.90757291699992,254.90757291699992,254.90757291699992,254.90757291699992,254.90757291699992,254.8243165413334,254.90757291699992,254.90757291699992,254.90757291699992,254.8243165413334,254.90757291699992,254.90757291699992,254.90757291699992,256.97850874999995,,254.90757291699992,254.90757291699992,260.091179042,254.90757291699992,254.90757291699992,254.90757291699992,254.90757291699992,255.3796286669999,256.41519370800006,255.34926520866682,,256.97850874999995,258.02131720800026,256.94787233366674,,254.90757291699992,260.091179042,254.90757291699992,260.091179042,260.13306279200015,260.7952559580003,254.90757291699992,2,1,0.8292996250002034,reldom2_s007,001,2025-02-06_15h40.10.498,Aud-B-Scan_AC,2022.2.5,None,
21,First_Order,4.0,audwhere,stimulus/audwhere_stim/dummy.wav,stimulus/audwhere_stim/dummy.wav,stimulus/audwhere_stim/left_toward_270h.wav,stimulus/audwhere_stim/left_away_300h.wav,stimulus/audwhere_stim/blank_white.png,stimulus/audwhere_stim/side_box.png,stimulus/audwhere_stim/side_yes.png,stimulus/audwhere_stim/side_no.png,None,Side,None,Side,1,0.0,0,5.125,0,5.125,0,5.125,0,0.0,0.625,0,0,0,0,0,0,0,0,0,0.0,0,0.0,1,0.5,1,2.125,0,,,,,0,27,27,27,,,,,,,,,261.012296333,261.012296333,261.012296333,261.012296333,261.012296333,261.012296333,261.012296333,261.012296333,260.92858929133365,261.012296333,261.012296333,261.012296333,260.92858929133365,261.012296333,261.012296333,261.012296333,263.0854380830001,,261.012296333,261.012296333,266.1956199170004,261.012296333,261.012296333,261.012296333,261.012296333,261.48336687500023,262.5188231670004,261.4527799586665,,263.0854380830001,264.1271907920004,263.0544954166669,,261.012296333,266.1956199170004,261.012296333,266.1956199170004,266.23728920799977,266.9004860830005,261.012296333,1,1,0.9288625409994893,reldom2_s007,001,2025-02-06_15h40.10.498,Aud-B-Scan_AC,2022.2.5,None,
22,First_Order,4.0,audwhere,stimulus/audwhere_stim/dummy.wav,stimulus/audwhere_stim/dummy.wav,stimulus/audwhere_stim/left_away_290h.wav,stimulus/audwhere_stim/left_toward_270h.wav,stimulus/audwhere_stim/blank_white.png,stimulus/audwhere_stim/side_box.png,stimulus/audwhere_stim/side_yes.png,stimulus/audwhere_stim/side_no.png,None,Side,None,Side,1,0.0,0,5.125,0,5.125,0,5.125,0,0.0,0.625,0,0,0,0,0,0,0,0,0,0.0,0,0.0,1,0.5,1,2.125,0,,,,,0,28,28,28,,,,,,,,,267.11813175,267.11813175,267.11813175,267.11813175,267.11813175,267.11813175,267.11813175,267.11813175,267.0338194163338,267.11813175,267.11813175,267.11813175,267.0338194163338,267.11813175,267.11813175,267.11813175,269.1913844169999,,267.11813175,267.11813175,272.3033913330005,267.11813175,267.11813175,267.11813175,267.11813175,267.58934483300027,268.6249800829996,267.55877616666635,,269.1913844169999,270.23032408300014,269.16050783366677,,267.11813175,272.3033913330005,267.11813175,272.3033913330005,272.34528770800034,273.011587167,267.11813175,1,1,1.343934915999398,reldom2_s007,001,2025-02-06_15h40.10.498,Aud-B-Scan_AC,2022.2.5,None,
0,0.0,None,fixation,stimulus/audwhat_stim/blank_white.png,stimulus/audwhat_stim/blank_white.png,stimulus/audwhere_stim/blank_white.png,stimulus/audwhere_stim/blank_white.png,stimulus/audwhat_stim/blank_white.png,stimulus/audwhat_stim/blank_white.png,stimulus/audwhat_stim/blank_white.png,stimulus/audwhat_stim/blank_white.png,0.0,0.0,0.0,0.0,0,0.0,0,0.0,0,0.0,0,0.0,0,0.0,0.0,0,0,0,0,0,0,0,0,0,0.0,0,0.0,0,0.0,0,0.0,10,,,,,0,29,29,29,,,,,,,,,273.2543470000005,273.2543470000005,273.2543470000005,273.2543470000005,273.2543470000005,273.2543470000005,273.2543470000005,273.2543470000005,273.14492050033334,273.2543470000005,273.2543470000005,273.2543470000005,273.14492050033334,273.2543470000005,273.2543470000005,273.2543470000005,273.2543470000005,273.2543470000005,273.2543470000005,273.2543470000005,273.2543470000005,273.2543470000005,273.2543470000005,273.2543470000005,273.2543470000005,273.2543470000005,273.2543470000005,273.211587167,273.2543470000005,273.2543470000005,273.2543470000005,273.211587167,273.2543470000005,273.2543470000005,273.2543470000005,273.2543470000005,273.2543470000005,278.4733851249998,278.4733851249998,283.3844009999998,None,0,,reldom2_s007,001,2025-02-06_15h40.10.498,Aud-B-Scan_AC,2022.2.5,None,
23,Second_Order,4.0,audwhere,stimulus/audwhere_stim/right_toward_300h.wav,stimulus/audwhere_stim/left_toward_270h.wav,stimulus/audwhere_stim/left_away_300h.wav,stimulus/audwhere_stim/right_away_300h.wav,stimulus/audwhat_stim/match_blank.png,stimulus/audwhat_stim/match_box.png,stimulus/audwhat_stim/match_yes.png,stimulus/audwhat_stim/match_no.png,1.0,Match,Direction,Direction,1,5.125,0,5.125,0,5.125,0,5.125,0,0.75,0.75,0,0,0,0,0,0,0,0,1,0.5,1,2.125,1,0.5,1,2.125,0,,,,,0,30,30,30,,,,,,,,,283.3844009999998,288.505858,283.3844009999998,283.3844009999998,283.3844009999998,283.3844009999998,283.84050675000026,284.82905400000027,283.8441114996665,284.8426006249997,285.4661055419997,286.46338200000037,285.47772537466676,286.47235649999993,288.505858,289.33294358299963,291.406204333,295.34743820799986,289.33294358299963,289.33294358299963,294.520753667,289.33294358299963,289.33294358299963,289.33294358299963,289.33294358299963,289.8030142499997,290.8398282080002,289.77197841666634,,291.406204333,292.4449718330002,291.3753183336664,,289.33294358299963,294.520753667,289.33294358299963,294.520753667,294.520753667,,289.33294358299963,1,1,1.1597496250001313,reldom2_s007,001,2025-02-06_15h40.10.498,Aud-B-Scan_AC,2022.2.5,None,
24,Second_Order,4.0,audwhere,stimulus/audwhere_stim/right_toward_300h.wav,stimulus/audwhere_stim/left_toward_300h.wav,stimulus/audwhere_stim/left_away_290h.wav,stimulus/audwhere_stim/right_away_280h.wav,stimulus/audwhat_stim/match_blank.png,stimulus/audwhat_stim/match_box.png,stimulus/audwhat_stim/match_yes.png,stimulus/audwhat_stim/match_no.png,1.0,Match,Direction,Direction,1,5.125,0,5.125,0,5.125,0,5.125,0,0.625,0.625,0,0,0,0,0,0,0,0,1,0.5,1,2.125,1,0.5,1,2.125,0,,,,,0,31,31,31,,,,,,,,,295.34743820799986,300.46858504199963,295.34743820799986,295.34743820799986,295.34743820799986,295.34743820799986,295.8055413750003,296.80401208299963,295.8181496666664,296.81203700000015,297.42654054199966,298.42452875000026,297.43875141666626,298.43236325000044,300.46858504199963,301.1696125000003,303.2846959579997,,301.1696125000003,301.1696125000003,306.34173466699986,301.1696125000003,301.1696125000003,301.1696125000003,301.1696125000003,301.6378337500005,302.66983974999994,301.60716641666636,,303.2846959579997,304.3220820829997,303.2514633336666,,301.1696125000003,306.34173466699986,301.1696125000003,306.34173466699986,306.38322712499985,307.0458343329997,301.1696125000003,1,1,1.7631509580000966,reldom2_s007,001,2025-02-06_15h40.10.498,Aud-B-Scan_AC,2022.2.5,None,
0,0.0,None,fixation,stimulus/audwhat_stim/blank_white.png,stimulus/audwhat_stim/blank_white.png,stimulus/audwhere_stim/blank_white.png,stimulus/audwhere_stim/blank_white.png,stimulus/audwhat_stim/blank_white.png,stimulus/audwhat_stim/blank_white.png,stimulus/audwhat_stim/blank_white.png,stimulus/audwhat_stim/blank_white.png,0.0,0.0,0.0,0.0,0,0.0,0,0.0,0,0.0,0,0.0,0,0.0,0.0,0,0,0,0,0,0,0,0,0,0.0,0,0.0,0,0.0,0,0.0,9,,,,,0,32,32,32,,,,,,,,,307.28512795800043,307.28512795800043,307.28512795800043,307.28512795800043,307.28512795800043,307.28512795800043,307.28512795800043,307.28512795800043,307.179167666333,307.28512795800043,307.28512795800043,307.28512795800043,307.179167666333,307.28512795800043,307.28512795800043,307.28512795800043,307.28512795800043,307.28512795800043,307.28512795800043,307.28512795800043,307.28512795800043,307.28512795800043,307.28512795800043,307.28512795800043,307.28512795800043,307.28512795800043,307.28512795800043,307.24583433299966,307.28512795800043,307.28512795800043,307.28512795800043,307.24583433299966,307.28512795800043,307.28512795800043,307.28512795800043,307.28512795800043,307.28512795800043,312.4944050420004,312.4944050420004,316.5369017500002,None,0,,reldom2_s007,001,2025-02-06_15h40.10.498,Aud-B-Scan_AC,2022.2.5,None,
25,First_Order,5.0,audwhat,stimulus/audwhat_stim/dummy.wav,stimulus/audwhat_stim/dummy.wav,stimulus/audwhat_stim/percussion xylophone_high-pitch_Ftri_loud.wav,stimulus/audwhat_stim/percussion mallet_low-pitch_F_loud.wav,stimulus/audwhat_stim/blank_white.png,stimulus/audwhat_stim/pitch_box.png,stimulus/audwhat_stim/pitch_yes.png,stimulus/audwhat_stim/pitch_no.png,None,Pitch,None,Category,2,0.0,0,5.125,0,5.125,0,5.125,0,0.0,0.625,0,0,0,0,0,0,0,0,0,0.0,0,0.0,1,0.5,1,2.125,0,,,,,0,33,33,33,,,,,,,,,316.5369017500002,316.5369017500002,316.5369017500002,316.5369017500002,316.5369017500002,316.5369017500002,316.5369017500002,316.5369017500002,316.46012145866655,316.5369017500002,316.5369017500002,316.5369017500002,316.46012145866655,316.5369017500002,316.5369017500002,316.5369017500002,318.61556037499986,322.656176125,316.5369017500002,316.5369017500002,321.73272766699984,316.5369017500002,316.5369017500002,316.5369017500002,316.5369017500002,317.0086051250005,318.05046291700046,316.9778908746664,318.05046291700046,318.61556037499986,319.6586458329998,318.58436483366654,,316.5369017500002,321.73272766699984,316.5369017500002,321.73272766699984,321.73272766699984,322.3962429170001,316.5369017500002,2,1,2.129652748999888,reldom2_s007,001,2025-02-06_15h40.10.498,Aud-B-Scan_AC,2022.2.5,None,
26,First_Order,5.0,audwhat,stimulus/audwhat_stim/dummy.wav,stimulus/audwhat_stim/dummy.wav,stimulus/audwhat_stim/percussion mallet_low-pitch_Dtri_loud.wav,stimulus/audwhat_stim/percussion xylophone_high-pitch_Ftri_loud.wav,stimulus/audwhat_stim/blank_white.png,stimulus/audwhat_stim/category_box.png,stimulus/audwhat_stim/category_yes.png,stimulus/audwhat_stim/category_no.png,None,Category,None,Category,1,0.0,0,5.125,0,5.125,0,5.125,0,0.0,0.625,0,0,0,0,0,0,0,0,0,0.0,0,0.0,1,0.5,1,2.125,0,,,,,0,34,34,34,,,,,,,,,322.656176125,322.656176125,322.656176125,322.656176125,322.656176125,322.656176125,322.656176125,322.656176125,322.5709777913331,322.656176125,322.656176125,322.656176125,322.5709777913331,322.656176125,322.656176125,322.656176125,324.7413056250002,,322.656176125,322.656176125,327.82460025000046,322.656176125,322.656176125,322.656176125,322.656176125,323.132202583,324.1726805000003,323.100900541667,,324.7413056250002,325.791354083,324.71029349966716,325.791354083,322.656176125,327.82460025000046,322.656176125,327.82460025000046,327.8666482499998,328.53281129200013,322.656176125,1,1,1.3297833740002716,reldom2_s007,001,2025-02-06_15h40.10.498,Aud-B-Scan_AC,2022.2.5,None,
27,First_Order,5.0,audwhat,stimulus/audwhat_stim/dummy.wav,stimulus/audwhat_stim/dummy.wav,stimulus/audwhat_stim/string cello_low-pitch_Dtri_loud.wav,stimulus/audwhat_stim/percussion mallet_low-pitch_Dtri_loud.wav,stimulus/audwhat_stim/blank_white.png,stimulus/audwhat_stim/pitch_box.png,stimulus/audwhat_stim/pitch_yes.png,stimulus/audwhat_stim/pitch_no.png,None,Pitch,None,Pitch,1,0.0,0,5.125,0,5.125,0,5.125,0,0.0,0.625,0,0,0,0,0,0,0,0,0,0.0,0,0.0,1,0.5,1,2.125,0,,,,,0,35,35,35,,,,,,,,,328.7510080830002,328.7510080830002,328.7510080830002,328.7510080830002,328.7510080830002,328.7510080830002,328.7510080830002,328.7510080830002,328.66614462533346,328.7510080830002,328.7510080830002,328.7510080830002,328.66614462533346,328.7510080830002,328.7510080830002,328.7510080830002,330.82758541700014,334.86648083299997,328.7510080830002,328.7510080830002,333.94267116699984,328.7510080830002,328.7510080830002,328.7510080830002,328.7510080830002,329.2249265000005,330.2626762499999,329.19409212466667,,330.82758541700014,331.8713297500003,330.7967251246671,,328.7510080830002,333.94267116699984,328.7510080830002,333.94267116699984,333.94267116699984,334.6073660420002,328.7510080830002,1,1,0.7297038330002579,reldom2_s007,001,2025-02-06_15h40.10.498,Aud-B-Scan_AC,2022.2.5,None,
28,First_Order,5.0,audwhat,stimulus/audwhat_stim/dummy.wav,stimulus/audwhat_stim/dummy.wav,stimulus/audwhat_stim/percussion xylophone_high-pitch_Ftri_loud.wav,stimulus/audwhat_stim/percussion mallet_low-pitch_F_loud.wav,stimulus/audwhat_stim/blank_white.png,stimulus/audwhat_stim/category_box.png,stimulus/audwhat_stim/category_yes.png,stimulus/audwhat_stim/category_no.png,None,Category,None,Category,1,0.0,0,5.125,0,5.125,0,5.125,0,0.0,0.625,0,0,0,0,0,0,0,0,0,0.0,0,0.0,1,0.5,1,2.125,0,,,,,0,36,36,36,,,,,,,,,334.86648083299997,334.86648083299997,334.86648083299997,334.86648083299997,334.86648083299997,334.86648083299997,334.86648083299997,334.86648083299997,334.78214358333355,334.86648083299997,334.86648083299997,334.86648083299997,334.78214358333355,334.86648083299997,334.86648083299997,334.86648083299997,336.9608498749999,,334.86648083299997,334.86648083299997,340.04212345800033,334.86648083299997,334.86648083299997,334.86648083299997,334.86648083299997,335.3447174580001,336.3930186250004,335.31389441666647,336.3930186250004,336.9608498749999,338.0057766249997,336.9294203336665,,334.86648083299997,340.04212345800033,334.86648083299997,340.04212345800033,340.0837726670002,340.74976254199964,334.86648083299997,1,1,1.0981303330004266,reldom2_s007,001,2025-02-06_15h40.10.498,Aud-B-Scan_AC,2022.2.5,None,
0,0.0,None,fixation,stimulus/audwhat_stim/blank_white.png,stimulus/audwhat_stim/blank_white.png,stimulus/audwhere_stim/blank_white.png,stimulus/audwhere_stim/blank_white.png,stimulus/audwhat_stim/blank_white.png,stimulus/audwhat_stim/blank_white.png,stimulus/audwhat_stim/blank_white.png,stimulus/audwhat_stim/blank_white.png,0.0,0.0,0.0,0.0,0,0.0,0,0.0,0,0.0,0,0.0,0,0.0,0.0,0,0,0,0,0,0,0,0,0,0.0,0,0.0,0,0.0,0,0.0,8,,,,,0,37,37,37,,,,,,,,,340.98916795800005,340.98916795800005,340.98916795800005,340.98916795800005,340.98916795800005,340.98916795800005,340.98916795800005,340.98916795800005,340.88309587533297,340.98916795800005,340.98916795800005,340.98916795800005,340.88309587533297,340.98916795800005,340.98916795800005,340.98916795800005,340.98916795800005,340.98916795800005,340.98916795800005,340.98916795800005,340.98916795800005,340.98916795800005,340.98916795800005,340.98916795800005,340.98916795800005,340.98916795800005,340.98916795800005,340.94976254199963,340.98916795800005,340.98916795800005,340.98916795800005,340.94976254199963,340.98916795800005,340.98916795800005,340.98916795800005,340.98916795800005,340.98916795800005,346.21885087500004,346.21885087500004,349.15195591699967,None,0,,reldom2_s007,001,2025-02-06_15h40.10.498,Aud-B-Scan_AC,2022.2.5,None,
29,Second_Order,5.0,audwhat,stimulus/audwhat_stim/string viola_low-pitch_Dtri_loud.wav,stimulus/audwhat_stim/percussion mallet_low-pitch_Dtri_loud.wav,stimulus/audwhat_stim/string viola_low-pitch_Dtri_loud.wav,stimulus/audwhat_stim/string cello_high-pitch_Ftri_loud.wav,stimulus/audwhat_stim/match_blank.png,stimulus/audwhat_stim/match_box.png,stimulus/audwhat_stim/match_yes.png,stimulus/audwhat_stim/match_no.png,2.0,Match,Pitch,Category,2,5.125,0,5.125,0,5.125,0,5.125,0,0.75,0.75,0,0,0,0,0,0,0,0,1,0.5,1,2.125,1,0.5,1,2.125,0,,,,,0,38,38,38,,,,,,,,,349.15195591699967,354.2745052080004,349.15195591699967,349.15195591699967,349.15195591699967,349.15195591699967,349.59573670800046,350.59447395800044,349.6089644166666,,351.2341492500004,352.2317513330004,351.24623574966677,352.241206958,354.2745052080004,355.10427216699964,357.1774989170003,361.1141123330003,355.10427216699964,355.10427216699964,360.2879303750001,355.10427216699964,355.10427216699964,355.10427216699964,355.10427216699964,355.5760345829999,356.61150487500026,355.5453488336668,,357.1774989170003,358.2185825829997,357.1473718336663,,355.10427216699964,360.2879303750001,355.10427216699964,360.2879303750001,360.2879303750001,,355.10427216699964,1,0,0.6695080829999824,reldom2_s007,001,2025-02-06_15h40.10.498,Aud-B-Scan_AC,2022.2.5,None,
30,Second_Order,5.0,audwhat,stimulus/audwhat_stim/string viola_high-pitch_Ftri_loud.wav,stimulus/audwhat_stim/percussion xylophone_high-pitch_Ftri_loud.wav,stimulus/audwhat_stim/string viola_low-pitch_D_loud.wav,stimulus/audwhat_stim/percussion mallet_low-pitch_D_loud.wav,stimulus/audwhat_stim/match_blank.png,stimulus/audwhat_stim/match_box.png,stimulus/audwhat_stim/match_yes.png,stimulus/audwhat_stim/match_no.png,1.0,Match,Pitch,Pitch,1,5.125,0,5.125,0,5.125,0,5.125,0,0.625,0.625,0,0,0,0,0,0,0,0,1,0.5,1,2.125,1,0.5,1,2.125,0,,,,,0,39,39,39,,,,,,,,,361.1141123330003,366.23502849999977,361.1141123330003,361.1141123330003,361.1141123330003,361.1141123330003,361.5700500830003,362.5590803330001,361.57356124966714,,363.195287,364.19266216700044,363.20700283366637,364.20057766699983,366.23502849999977,366.94799724999984,369.0157607920005,,366.94799724999984,366.94799724999984,372.1269468329997,366.94799724999984,366.94799724999984,366.94799724999984,366.94799724999984,367.4191573330004,368.4531093749997,367.3889348336668,,369.0157607920005,370.056384125,368.98531637466635,,366.94799724999984,372.1269468329997,366.94799724999984,372.1269468329997,372.1269468329997,372.788955083,366.94799724999984,1,1,0.7983304579997821,reldom2_s007,001,2025-02-06_15h40.10.498,Aud-B-Scan_AC,2022.2.5,None,
0,0.0,None,fixation,stimulus/audwhat_stim/blank_white.png,stimulus/audwhat_stim/blank_white.png,stimulus/audwhere_stim/blank_white.png,stimulus/audwhere_stim/blank_white.png,stimulus/audwhat_stim/blank_white.png,stimulus/audwhat_stim/blank_white.png,stimulus/audwhat_stim/blank_white.png,stimulus/audwhat_stim/blank_white.png,0.0,0.0,0.0,0.0,0,0.0,0,0.0,0,0.0,0,0.0,0,0.0,0.0,0,0,0,0,0,0,0,0,0,0.0,0,0.0,0,0.0,0,0.0,9,,,,,0,40,40,40,,,,,,,,,373.07096195799977,373.07096195799977,373.07096195799977,373.07096195799977,373.07096195799977,373.07096195799977,373.07096195799977,373.07096195799977,372.9640615413333,373.07096195799977,373.07096195799977,373.07096195799977,372.9640615413333,373.07096195799977,373.07096195799977,373.07096195799977,373.07096195799977,373.07096195799977,373.07096195799977,373.07096195799977,373.07096195799977,373.07096195799977,373.07096195799977,373.07096195799977,373.07096195799977,373.07096195799977,373.07096195799977,373.03072820799997,373.07096195799977,373.07096195799977,373.07096195799977,373.03072820799997,373.07096195799977,373.07096195799977,373.07096195799977,373.07096195799977,373.07096195799977,378.281682542,378.281682542,382.32693233300006,None,0,,reldom2_s007,001,2025-02-06_15h40.10.498,Aud-B-Scan_AC,2022.2.5,None,
31,First_Order,6.0,audwhat,stimulus/audwhat_stim/dummy.wav,stimulus/audwhat_stim/dummy.wav,stimulus/audwhat_stim/string viola_low-pitch_D_loud.wav,stimulus/audwhat_stim/percussion mallet_low-pitch_D_loud.wav,stimulus/audwhat_stim/blank_white.png,stimulus/audwhat_stim/category_box.png,stimulus/audwhat_stim/category_yes.png,stimulus/audwhat_stim/category_no.png,None,Category,None,Pitch,2,0.0,0,5.125,0,5.125,0,5.125,0,0.0,0.625,0,0,0,0,0,0,0,0,0,0.0,0,0.0,1,0.5,1,2.125,0,,,,,0,41,41,41,,,,,,,,,382.32693233300006,382.32693233300006,382.32693233300006,382.32693233300006,382.32693233300006,382.32693233300006,382.32693233300006,382.32693233300006,382.24878704166633,382.32693233300006,382.32693233300006,382.32693233300006,382.24878704166633,382.32693233300006,382.32693233300006,382.32693233300006,384.41181666700004,388.46044120800025,382.32693233300006,382.32693233300006,387.48901629199963,382.32693233300006,382.32693233300006,382.32693233300006,382.32693233300006,382.80210854200004,383.8451921669998,382.7708492086665,,384.41181666700004,385.454921,384.38104241666656,,382.32693233300006,387.48901629199963,382.32693233300006,387.48901629199963,387.5307991249997,388.1976450420002,382.32693233300006,2,1,1.3887030419996336,reldom2_s007,001,2025-02-06_15h40.10.498,Aud-B-Scan_AC,2022.2.5,None,
32,First_Order,6.0,audwhat,stimulus/audwhat_stim/dummy.wav,stimulus/audwhat_stim/dummy.wav,stimulus/audwhat_stim/percussion mallet_high-pitch_Dtri_loud.wav,stimulus/audwhat_stim/string viola_high-pitch_Dtri_loud.wav,stimulus/audwhat_stim/blank_white.png,stimulus/audwhat_stim/pitch_box.png,stimulus/audwhat_stim/pitch_yes.png,stimulus/audwhat_stim/pitch_no.png,None,Pitch,None,Pitch,1,0.0,0,5.125,0,5.125,0,5.125,0,0.0,0.625,0,0,0,0,0,0,0,0,0,0.0,0,0.0,1,0.5,1,2.125,0,,,,,0,42,42,42,,,,,,,,,388.46044120800025,388.46044120800025,388.46044120800025,388.46044120800025,388.46044120800025,388.46044120800025,388.46044120800025,388.46044120800025,388.3722692083335,388.46044120800025,388.46044120800025,388.46044120800025,388.3722692083335,388.46044120800025,388.46044120800025,388.46044120800025,390.5405727080001,,388.46044120800025,388.46044120800025,393.65238633299987,388.46044120800025,388.46044120800025,388.46044120800025,388.46044120800025,388.93236345800005,389.9740673330002,388.90172537466674,,390.5405727080001,391.57984845800047,390.5096868336666,,388.46044120800025,393.65238633299987,388.46044120800025,393.65238633299987,393.65238633299987,394.3163824170001,388.46044120800025,1,1,1.0510689160005313,reldom2_s007,001,2025-02-06_15h40.10.498,Aud-B-Scan_AC,2022.2.5,None,
33,First_Order,6.0,audwhat,stimulus/audwhat_stim/dummy.wav,stimulus/audwhat_stim/dummy.wav,stimulus/audwhat_stim/string cello_high-pitch_D_loud.wav,stimulus/audwhat_stim/string viola_low-pitch_F_loud.wav,stimulus/audwhat_stim/blank_white.png,stimulus/audwhat_stim/pitch_box.png,stimulus/audwhat_stim/pitch_yes.png,stimulus/audwhat_stim/pitch_no.png,None,Pitch,None,Category,2,0.0,0,5.125,0,5.125,0,5.125,0,0.0,0.625,0,0,0,0,0,0,0,0,0,0.0,0,0.0,1,0.5,1,2.125,0,,,,,0,43,43,43,,,,,,,,,394.5759694579997,394.5759694579997,394.5759694579997,394.5759694579997,394.5759694579997,394.5759694579997,394.5759694579997,394.5759694579997,394.49112187533376,394.5759694579997,394.5759694579997,394.5759694579997,394.49112187533376,394.5759694579997,394.5759694579997,394.5759694579997,396.6527020420003,400.6931795000005,394.5759694579997,394.5759694579997,399.7693457500004,394.5759694579997,394.5759694579997,394.5759694579997,394.5759694579997,395.0506005000002,396.08839962499997,395.01883762466673,,396.6527020420003,397.6956386249999,396.6222926246671,,394.5759694579997,399.7693457500004,394.5759694579997,399.7693457500004,399.7693457500004,400.43371887500007,394.5759694579997,2,1,0.9715829580004538,reldom2_s007,001,2025-02-06_15h40.10.498,Aud-B-Scan_AC,2022.2.5,None,
34,First_Order,6.0,audwhat,stimulus/audwhat_stim/dummy.wav,stimulus/audwhat_stim/dummy.wav,stimulus/audwhat_stim/percussion mallet_low-pitch_F_loud.wav,stimulus/audwhat_stim/string viola_low-pitch_F_loud.wav,stimulus/audwhat_stim/blank_white.png,stimulus/audwhat_stim/category_box.png,stimulus/audwhat_stim/category_yes.png,stimulus/audwhat_stim/category_no.png,None,Category,None,Pitch,2,0.0,0,5.125,0,5.125,0,5.125,0,0.0,0.625,0,0,0,0,0,0,0,0,0,0.0,0,0.0,1,0.5,1,2.125,0,,,,,0,44,44,44,,,,,,,,,400.6931795000005,400.6931795000005,400.6931795000005,400.6931795000005,400.6931795000005,400.6931795000005,400.6931795000005,400.6931795000005,400.6084149163331,400.6931795000005,400.6931795000005,400.6931795000005,400.6084149163331,400.6931795000005,400.6931795000005,400.6931795000005,402.78060304200017,,400.6931795000005,400.6931795000005,405.86432941700014,400.6931795000005,400.6931795000005,400.6931795000005,400.6931795000005,401.1713357499998,402.2136726249996,401.1403376666665,,402.78060304200017,403.8264392920005,402.7498387496669,,400.6931795000005,405.86432941700014,400.6931795000005,405.86432941700014,405.90625158299963,406.5727681250005,400.6931795000005,2,1,1.05207908300099,reldom2_s007,001,2025-02-06_15h40.10.498,Aud-B-Scan_AC,2022.2.5,None,
0,0.0,None,fixation,stimulus/audwhat_stim/blank_white.png,stimulus/audwhat_stim/blank_white.png,stimulus/audwhere_stim/blank_white.png,stimulus/audwhere_stim/blank_white.png,stimulus/audwhat_stim/blank_white.png,stimulus/audwhat_stim/blank_white.png,stimulus/audwhat_stim/blank_white.png,stimulus/audwhat_stim/blank_white.png,0.0,0.0,0.0,0.0,0,0.0,0,0.0,0,0.0,0,0.0,0,0.0,0.0,0,0,0,0,0,0,0,0,0,0.0,0,0.0,0,0.0,0,0.0,9,,,,,0,45,45,45,,,,,,,,,406.81149029200014,406.81149029200014,406.81149029200014,406.81149029200014,406.81149029200014,406.81149029200014,406.81149029200014,406.81149029200014,406.7061014583338,406.81149029200014,406.81149029200014,406.81149029200014,406.7061014583338,406.81149029200014,406.81149029200014,406.81149029200014,406.81149029200014,406.81149029200014,406.81149029200014,406.81149029200014,406.81149029200014,406.81149029200014,406.81149029200014,406.81149029200014,406.81149029200014,406.81149029200014,406.81149029200014,406.75610145833383,406.81149029200014,406.81149029200014,406.81149029200014,406.75610145833383,406.81149029200014,406.81149029200014,406.81149029200014,406.81149029200014,406.81149029200014,412.0424484170003,412.0424484170003,415.9494141250002,None,0,,reldom2_s007,001,2025-02-06_15h40.10.498,Aud-B-Scan_AC,2022.2.5,None,
35,Second_Order,6.0,audwhat,stimulus/audwhat_stim/string cello_low-pitch_D_loud.wav,stimulus/audwhat_stim/percussion mallet_low-pitch_D_loud.wav,stimulus/audwhat_stim/percussion mallet_low-pitch_D_loud.wav,stimulus/audwhat_stim/percussion xylophone_high-pitch_Ftri_loud.wav,stimulus/audwhat_stim/match_blank.png,stimulus/audwhat_stim/match_box.png,stimulus/audwhat_stim/match_yes.png,stimulus/audwhat_stim/match_no.png,2.0,Match,Pitch,Category,2,5.125,0,5.125,0,5.125,0,5.125,0,0.75,0.75,0,0,0,0,0,0,0,0,1,0.5,1,2.125,1,0.5,1,2.125,0,,,,,0,46,46,46,,,,,,,,,415.9494141250002,421.06184370799974,415.9494141250002,415.9494141250002,415.9494141250002,415.9494141250002,416.40067037499966,417.39884008299987,416.4129526246668,,418.02160604200026,419.0190061670005,418.0333621666666,419.0302623749999,421.06184370799974,421.89679291699986,423.97021316699966,427.91051041699984,421.89679291699986,421.89679291699986,427.0862445830003,421.89679291699986,421.89679291699986,421.89679291699986,421.89679291699986,422.3674493330004,423.40569829199967,422.33710237466653,,423.97021316699966,425.0127502500004,423.9394434166668,425.0127502500004,421.89679291699986,427.0862445830003,421.89679291699986,427.0862445830003,427.0862445830003,,421.89679291699986,2,1,1.0884540829997604,reldom2_s007,001,2025-02-06_15h40.10.498,Aud-B-Scan_AC,2022.2.5,None,
36,Second_Order,6.0,audwhat,stimulus/audwhat_stim/string cello_low-pitch_Dtri_loud.wav,stimulus/audwhat_stim/percussion mallet_low-pitch_Dtri_loud.wav,stimulus/audwhat_stim/string viola_high-pitch_F_loud.wav,stimulus/audwhat_stim/percussion xylophone_high-pitch_F_loud.wav,stimulus/audwhat_stim/match_blank.png,stimulus/audwhat_stim/match_box.png,stimulus/audwhat_stim/match_yes.png,stimulus/audwhat_stim/match_no.png,1.0,Match,Pitch,Pitch,1,5.125,0,5.125,0,5.125,0,5.125,0,0.625,0.625,0,0,0,0,0,0,0,0,1,0.5,1,2.125,1,0.5,1,2.125,0,,,,,0,47,47,47,,,,,,,,,427.91051041699984,433.02849254199964,427.91051041699984,427.91051041699984,427.91051041699984,427.91051041699984,428.36181958299994,429.3595501249997,428.37411183366635,,429.9947886670002,430.98379604200045,429.998898833667,430.9965985419999,433.02849254199964,433.73545220799997,435.80129675000035,,433.73545220799997,433.73545220799997,438.9100348329998,433.73545220799997,433.73545220799997,433.73545220799997,433.73545220799997,434.204663125,435.2380111670004,434.17445995866706,,435.80129675000035,436.8408580420005,435.77069049966644,436.8408580420005,433.73545220799997,438.9100348329998,433.73545220799997,438.9100348329998,438.9515024999996,439.6160284579996,433.73545220799997,1,1,1.0393166660001043,reldom2_s007,001,2025-02-06_15h40.10.498,Aud-B-Scan_AC,2022.2.5,None,
0,0.0,None,fixation,stimulus/audwhat_stim/blank_white.png,stimulus/audwhat_stim/blank_white.png,stimulus/audwhere_stim/blank_white.png,stimulus/audwhere_stim/blank_white.png,stimulus/audwhat_stim/blank_white.png,stimulus/audwhat_stim/blank_white.png,stimulus/audwhat_stim/blank_white.png,stimulus/audwhat_stim/blank_white.png,0.0,0.0,0.0,0.0,0,0.0,0,0.0,0,0.0,0,0.0,0,0.0,0.0,0,0,0,0,0,0,0,0,0,0.0,0,0.0,0,0.0,0,0.0,10,,,,,0,48,48,48,,,,,,,,,439.8588884169999,439.8588884169999,439.8588884169999,439.8588884169999,439.8588884169999,439.8588884169999,439.8588884169999,439.8588884169999,439.74936179133294,439.8588884169999,439.8588884169999,439.8588884169999,439.74936179133294,439.8588884169999,439.8588884169999,439.8588884169999,439.8588884169999,439.8588884169999,439.8588884169999,439.8588884169999,439.8588884169999,439.8588884169999,439.8588884169999,439.8588884169999,439.8588884169999,439.8588884169999,439.8588884169999,439.8160284579996,439.8588884169999,439.8588884169999,439.8588884169999,439.8160284579996,439.8588884169999,439.8588884169999,439.8588884169999,439.8588884169999,439.8588884169999,445.0626833749998,445.0626833749998,450.1309892920003,None,0,,reldom2_s007,001,2025-02-06_15h40.10.498,Aud-B-Scan_AC,2022.2.5,None,
37,First_Order,7.0,audwhere,stimulus/audwhere_stim/dummy.wav,stimulus/audwhere_stim/dummy.wav,stimulus/audwhere_stim/right_toward_300h.wav,stimulus/audwhere_stim/left_toward_290h.wav,stimulus/audwhere_stim/blank_white.png,stimulus/audwhere_stim/direction_box.png,stimulus/audwhere_stim/direction_yes.png,stimulus/audwhere_stim/direction_no.png,None,Direction,None,Direction,1,0.0,0,5.125,0,5.125,0,5.125,0,0.0,0.625,0,0,0,0,0,0,0,0,0,0.0,0,0.0,1,0.5,1,2.125,0,,,,,0,49,49,49,,,,,,,,,450.1309892920003,450.1309892920003,450.1309892920003,450.1309892920003,450.1309892920003,450.1309892920003,450.1309892920003,450.1309892920003,450.0530697496671,450.1309892920003,450.1309892920003,450.1309892920003,450.0530697496671,450.1309892920003,450.1309892920003,450.1309892920003,452.214806208,456.26240499999994,450.1309892920003,450.1309892920003,455.29539966699986,450.1309892920003,450.1309892920003,450.1309892920003,450.1309892920003,450.60502170799964,451.6482827499999,450.5743281666671,,452.214806208,453.2591387079997,452.18407187466687,,450.1309892920003,455.29539966699986,450.1309892920003,455.29539966699986,455.33671083299987,456.0038908749998,450.1309892920003,1,1,1.9347476660000211,reldom2_s007,001,2025-02-06_15h40.10.498,Aud-B-Scan_AC,2022.2.5,None,
38,First_Order,7.0,audwhere,stimulus/audwhere_stim/dummy.wav,stimulus/audwhere_stim/dummy.wav,stimulus/audwhere_stim/right_toward_290h.wav,stimulus/audwhere_stim/right_away_270h.wav,stimulus/audwhere_stim/blank_white.png,stimulus/audwhere_stim/side_box.png,stimulus/audwhere_stim/side_yes.png,stimulus/audwhere_stim/side_no.png,None,Side,None,Side,1,0.0,0,5.125,0,5.125,0,5.125,0,0.0,0.625,0,0,0,0,0,0,0,0,0,0.0,0,0.0,1,0.5,1,2.125,0,,,,,0,50,50,50,,,,,,,,,456.26240499999994,456.26240499999994,456.26240499999994,456.26240499999994,456.26240499999994,456.26240499999994,456.26240499999994,456.26240499999994,456.17834670833383,456.26240499999994,456.26240499999994,456.26240499999994,456.17834670833383,456.26240499999994,456.26240499999994,456.26240499999994,458.3390423329997,462.37726695799984,456.26240499999994,456.26240499999994,461.45370904200036,456.26240499999994,456.26240499999994,456.26240499999994,456.26240499999994,456.73481562500046,457.7729083750005,456.70418849966677,,458.3390423329997,459.38015416700046,458.3081698746671,,456.26240499999994,461.45370904200036,456.26240499999994,461.45370904200036,461.45370904200036,462.1194668330004,456.26240499999994,1,1,1.2587939170002755,reldom2_s007,001,2025-02-06_15h40.10.498,Aud-B-Scan_AC,2022.2.5,None,
39,First_Order,7.0,audwhere,stimulus/audwhere_stim/dummy.wav,stimulus/audwhere_stim/dummy.wav,stimulus/audwhere_stim/left_away_290h.wav,stimulus/audwhere_stim/left_toward_290h.wav,stimulus/audwhere_stim/blank_white.png,stimulus/audwhere_stim/direction_box.png,stimulus/audwhere_stim/direction_yes.png,stimulus/audwhere_stim/direction_no.png,None,Direction,None,Side,2,0.0,0,5.125,0,5.125,0,5.125,0,0.0,0.625,0,0,0,0,0,0,0,0,0,0.0,0,0.0,1,0.5,1,2.125,0,,,,,0,51,51,51,,,,,,,,,462.37726695799984,462.37726695799984,462.37726695799984,462.37726695799984,462.37726695799984,462.37726695799984,462.37726695799984,462.37726695799984,462.29399029133367,462.37726695799984,462.37726695799984,462.37726695799984,462.29399029133367,462.37726695799984,462.37726695799984,462.37726695799984,464.4664587499997,,462.37726695799984,462.37726695799984,467.5600172919999,462.37726695799984,462.37726695799984,462.37726695799984,462.37726695799984,462.85149150000007,463.89746183299985,462.82030883366656,,464.4664587499997,465.5206014580003,464.4356527916668,465.4734950830002,462.37726695799984,467.5600172919999,462.37726695799984,467.5600172919999,467.60205562500005,468.26946845799966,462.37726695799984,2,1,1.3520314580005106,reldom2_s007,001,2025-02-06_15h40.10.498,Aud-B-Scan_AC,2022.2.5,None,
40,First_Order,7.0,audwhere,stimulus/audwhere_stim/dummy.wav,stimulus/audwhere_stim/dummy.wav,stimulus/audwhere_stim/right_away_280h.wav,stimulus/audwhere_stim/right_toward_290h.wav,stimulus/audwhere_stim/blank_white.png,stimulus/audwhere_stim/direction_box.png,stimulus/audwhere_stim/direction_yes.png,stimulus/audwhere_stim/direction_no.png,None,Direction,None,Side,2,0.0,0,5.125,0,5.125,0,5.125,0,0.0,0.625,0,0,0,0,0,0,0,0,0,0.0,0,0.0,1,0.5,1,2.125,0,,,,,0,52,52,52,,,,,,,,,468.4873350419998,468.4873350419998,468.4873350419998,468.4873350419998,468.4873350419998,468.4873350419998,468.4873350419998,468.4873350419998,468.402801791333,468.4873350419998,468.4873350419998,468.4873350419998,468.402801791333,468.4873350419998,468.4873350419998,468.4873350419998,470.57406387499987,,468.4873350419998,468.4873350419998,473.6624456249997,468.4873350419998,468.4873350419998,468.4873350419998,468.4873350419998,468.96208287499985,470.0072302499998,468.9310268746665,,470.57406387499987,471.62591354200003,470.54327591666674,471.57859020800015,468.4873350419998,473.6624456249997,468.4873350419998,473.6624456249997,473.70425645800015,474.3724195,468.4873350419998,1,0,0.9474606670005414,reldom2_s007,001,2025-02-06_15h40.10.498,Aud-B-Scan_AC,2022.2.5,None,
0,0.0,None,fixation,stimulus/audwhat_stim/blank_white.png,stimulus/audwhat_stim/blank_white.png,stimulus/audwhere_stim/blank_white.png,stimulus/audwhere_stim/blank_white.png,stimulus/audwhat_stim/blank_white.png,stimulus/audwhat_stim/blank_white.png,stimulus/audwhat_stim/blank_white.png,stimulus/audwhat_stim/blank_white.png,0.0,0.0,0.0,0.0,0,0.0,0,0.0,0,0.0,0,0.0,0,0.0,0.0,0,0,0,0,0,0,0,0,0,0.0,0,0.0,0,0.0,0,0.0,8,,,,,0,53,53,53,,,,,,,,,474.6109514169998,474.6109514169998,474.6109514169998,474.6109514169998,474.6109514169998,474.6109514169998,474.6109514169998,474.6109514169998,474.5057528333333,474.6109514169998,474.6109514169998,474.6109514169998,474.5057528333333,474.6109514169998,474.6109514169998,474.6109514169998,474.6109514169998,474.6109514169998,474.6109514169998,474.6109514169998,474.6109514169998,474.6109514169998,474.6109514169998,474.6109514169998,474.6109514169998,474.6109514169998,474.6109514169998,474.5557528333333,474.6109514169998,474.6109514169998,474.6109514169998,474.5557528333333,474.6109514169998,474.6109514169998,474.6109514169998,474.6109514169998,474.6109514169998,479.8415630000004,479.8415630000004,482.7683690830004,None,0,,reldom2_s007,001,2025-02-06_15h40.10.498,Aud-B-Scan_AC,2022.2.5,None,
41,Second_Order,7.0,audwhere,stimulus/audwhere_stim/left_toward_300h.wav,stimulus/audwhere_stim/right_toward_280h.wav,stimulus/audwhere_stim/right_toward_270h.wav,stimulus/audwhere_stim/right_away_290h.wav,stimulus/audwhat_stim/match_blank.png,stimulus/audwhat_stim/match_box.png,stimulus/audwhat_stim/match_yes.png,stimulus/audwhat_stim/match_no.png,2.0,Match,Direction,Side,2,5.125,0,5.125,0,5.125,0,5.125,0,0.75,0.75,0,0,0,0,0,0,0,0,1,0.5,1,2.125,1,0.5,1,2.125,0,,,,,0,54,54,54,,,,,,,,,482.7683690830004,487.88281629200037,482.7683690830004,482.7683690830004,482.7683690830004,482.7683690830004,483.2208717079998,484.2196973750001,483.23371637466676,484.22720416699985,484.84288912500006,485.8399100419997,484.85455566666656,485.847747583,487.88281629200037,488.71344595799974,490.78902320800034,494.72605754200004,488.71344595799974,488.71344595799974,493.90203837499985,488.71344595799974,488.71344595799974,488.71344595799974,488.71344595799974,489.1866016250001,490.22350266700005,489.15623283366654,,490.78902320800034,491.83033316699994,490.7581551246665,,488.71344595799974,493.90203837499985,488.71344595799974,493.90203837499985,493.90203837499985,,488.71344595799974,2,1,1.773508541000865,reldom2_s007,001,2025-02-06_15h40.10.498,Aud-B-Scan_AC,2022.2.5,None,
42,Second_Order,7.0,audwhere,stimulus/audwhere_stim/right_toward_290h.wav,stimulus/audwhere_stim/left_toward_270h.wav,stimulus/audwhere_stim/left_toward_290h.wav,stimulus/audwhere_stim/left_away_280h.wav,stimulus/audwhat_stim/match_blank.png,stimulus/audwhat_stim/match_box.png,stimulus/audwhat_stim/match_yes.png,stimulus/audwhat_stim/match_no.png,2.0,Match,Direction,Side,2,5.125,0,5.125,0,5.125,0,5.125,0,0.625,0.625,0,0,0,0,0,0,0,0,1,0.5,1,2.125,1,0.5,1,2.125,0,,,,,0,55,55,55,,,,,,,,,494.72605754200004,499.8431339579997,494.72605754200004,494.72605754200004,494.72605754200004,494.72605754200004,495.1810050830004,496.16700400000036,495.1950263336664,496.1880892080003,496.80314820800004,497.8007177499999,496.81532354166643,497.8087220000002,499.8431339579997,500.5559871669998,502.6262702079998,506.6883089170001,500.5559871669998,500.5559871669998,505.7419448750002,500.5559871669998,500.5559871669998,500.5559871669998,500.5559871669998,501.0266545420004,502.062148042,500.994785749667,,502.6262702079998,503.6674589580002,502.5960751666669,,500.5559871669998,505.7419448750002,500.5559871669998,505.7419448750002,505.7419448750002,506.4068333749997,500.5559871669998,2,1,1.357140542000252,reldom2_s007,001,2025-02-06_15h40.10.498,Aud-B-Scan_AC,2022.2.5,None,
0,0.0,None,fixation,stimulus/audwhat_stim/blank_white.png,stimulus/audwhat_stim/blank_white.png,stimulus/audwhere_stim/blank_white.png,stimulus/audwhere_stim/blank_white.png,stimulus/audwhat_stim/blank_white.png,stimulus/audwhat_stim/blank_white.png,stimulus/audwhat_stim/blank_white.png,stimulus/audwhat_stim/blank_white.png,0.0,0.0,0.0,0.0,0,0.0,0,0.0,0,0.0,0,0.0,0,0.0,0.0,0,0,0,0,0,0,0,0,0,0.0,0,0.0,0,0.0,0,0.0,10,,,,,0,56,56,56,,,,,,,,,506.6883089170001,506.6883089170001,506.6883089170001,506.6883089170001,506.6883089170001,506.6883089170001,506.6883089170001,506.6883089170001,506.5815300833334,506.6883089170001,506.6883089170001,506.6883089170001,506.5815300833334,506.6883089170001,506.6883089170001,506.6883089170001,506.6883089170001,506.6883089170001,506.6883089170001,506.6883089170001,506.6883089170001,506.6883089170001,506.6883089170001,506.6883089170001,506.6883089170001,506.6883089170001,506.6883089170001,506.64819675000007,506.6883089170001,506.6883089170001,506.6883089170001,506.64819675000007,506.6883089170001,506.6883089170001,506.6883089170001,506.6883089170001,506.6883089170001,511.9065918749998,511.9065918749998,516.9330910000003,None,0,,reldom2_s007,001,2025-02-06_15h40.10.498,Aud-B-Scan_AC,2022.2.5,None,
43,First_Order,8.0,audwhere,stimulus/audwhere_stim/dummy.wav,stimulus/audwhere_stim/dummy.wav,stimulus/audwhere_stim/right_toward_270h.wav,stimulus/audwhere_stim/left_toward_300h.wav,stimulus/audwhere_stim/blank_white.png,stimulus/audwhere_stim/side_box.png,stimulus/audwhere_stim/side_yes.png,stimulus/audwhere_stim/side_no.png,None,Side,None,Direction,2,0.0,0,5.125,0,5.125,0,5.125,0,0.0,0.625,0,0,0,0,0,0,0,0,0,0.0,0,0.0,1,0.5,1,2.125,0,,,,,0,57,57,57,,,,,,,,,516.9330910000003,516.9330910000003,516.9330910000003,516.9330910000003,516.9330910000003,516.9330910000003,516.9330910000003,516.9330910000003,516.8580168746668,516.9330910000003,516.9330910000003,516.9330910000003,516.8580168746668,516.9330910000003,516.9330910000003,516.9330910000003,519.0062097080004,,516.9330910000003,516.9330910000003,522.1193697499998,516.9330910000003,516.9330910000003,516.9330910000003,516.9330910000003,517.406413917,518.44222425,517.375740416667,,519.0062097080004,520.0479624579998,518.9753087916667,,516.9330910000003,522.1193697499998,516.9330910000003,522.1193697499998,522.1612358329999,522.8263158750001,516.9330910000003,2,1,0.9909435000004123,reldom2_s007,001,2025-02-06_15h40.10.498,Aud-B-Scan_AC,2022.2.5,None,
44,First_Order,8.0,audwhere,stimulus/audwhere_stim/dummy.wav,stimulus/audwhere_stim/dummy.wav,stimulus/audwhere_stim/right_toward_270h.wav,stimulus/audwhere_stim/left_toward_280h.wav,stimulus/audwhere_stim/blank_white.png,stimulus/audwhere_stim/side_box.png,stimulus/audwhere_stim/side_yes.png,stimulus/audwhere_stim/side_no.png,None,Side,None,Direction,2,0.0,0,5.125,0,5.125,0,5.125,0,0.0,0.625,0,0,0,0,0,0,0,0,0,0.0,0,0.0,1,0.5,1,2.125,0,,,,,0,58,58,58,,,,,,,,,523.0448689580003,523.0448689580003,523.0448689580003,523.0448689580003,523.0448689580003,523.0448689580003,523.0448689580003,523.0448689580003,522.9596492083334,523.0448689580003,523.0448689580003,523.0448689580003,522.9596492083334,523.0448689580003,523.0448689580003,523.0448689580003,525.1202511249999,,523.0448689580003,523.0448689580003,528.2299195419996,523.0448689580003,523.0448689580003,523.0448689580003,523.0448689580003,523.5168921250001,524.5534951249997,523.4860358336671,,525.1202511249999,526.1613313749999,525.089500208667,,523.0448689580003,528.2299195419996,523.0448689580003,528.2299195419996,528.2720853750002,528.9347855829997,523.0448689580003,2,1,0.7707596659997762,reldom2_s007,001,2025-02-06_15h40.10.498,Aud-B-Scan_AC,2022.2.5,None,
45,First_Order,8.0,audwhere,stimulus/audwhere_stim/dummy.wav,stimulus/audwhere_stim/dummy.wav,stimulus/audwhere_stim/right_toward_270h.wav,stimulus/audwhere_stim/left_toward_290h.wav,stimulus/audwhere_stim/blank_white.png,stimulus/audwhere_stim/direction_box.png,stimulus/audwhere_stim/direction_yes.png,stimulus/audwhere_stim/direction_no.png,None,Direction,None,Direction,1,0.0,0,5.125,0,5.125,0,5.125,0,0.0,0.625,0,0,0,0,0,0,0,0,0,0.0,0,0.0,1,0.5,1,2.125,0,,,,,0,59,59,59,,,,,,,,,529.1548140830005,529.1548140830005,529.1548140830005,529.1548140830005,529.1548140830005,529.1548140830005,529.1548140830005,529.1548140830005,529.068118916333,529.1548140830005,529.1548140830005,529.1548140830005,529.068118916333,529.1548140830005,529.1548140830005,529.1548140830005,531.2445763749997,,529.1548140830005,529.1548140830005,534.3262755419996,529.1548140830005,529.1548140830005,529.1548140830005,529.1548140830005,529.6291666669999,530.6738943750001,529.5983453336664,,531.2445763749997,532.2885386250005,531.2134814166664,,529.1548140830005,534.3262755419996,529.1548140830005,534.3262755419996,534.3682210419997,535.0347791669997,529.1548140830005,1,1,1.1830234579997523,reldom2_s007,001,2025-02-06_15h40.10.498,Aud-B-Scan_AC,2022.2.5,None,
46,First_Order,8.0,audwhere,stimulus/audwhere_stim/dummy.wav,stimulus/audwhere_stim/dummy.wav,stimulus/audwhere_stim/left_away_300h.wav,stimulus/audwhere_stim/left_toward_300h.wav,stimulus/audwhere_stim/blank_white.png,stimulus/audwhere_stim/side_box.png,stimulus/audwhere_stim/side_yes.png,stimulus/audwhere_stim/side_no.png,None,Side,None,Side,1,0.0,0,5.125,0,5.125,0,5.125,0,0.0,0.625,0,0,0,0,0,0,0,0,0,0.0,0,0.0,1,0.5,1,2.125,0,,,,,0,60,60,60,,,,,,,,,535.253528875,535.253528875,535.253528875,535.253528875,535.253528875,535.253528875,535.253528875,535.253528875,535.168112500333,535.253528875,535.253528875,535.253528875,535.168112500333,535.253528875,535.253528875,535.253528875,537.3300314579997,,535.253528875,535.253528875,540.4428766670003,535.253528875,535.253528875,535.253528875,535.253528875,535.7249032080003,536.761615375,535.6941431246667,,537.3300314579997,538.3703786669998,537.2996200416671,,535.253528875,540.4428766670003,535.253528875,540.4428766670003,540.4428766670003,541.1087011670002,535.253528875,1,1,0.7973159159996612,reldom2_s007,001,2025-02-06_15h40.10.498,Aud-B-Scan_AC,2022.2.5,None,
0,0.0,None,fixation,stimulus/audwhat_stim/blank_white.png,stimulus/audwhat_stim/blank_white.png,stimulus/audwhere_stim/blank_white.png,stimulus/audwhere_stim/blank_white.png,stimulus/audwhat_stim/blank_white.png,stimulus/audwhat_stim/blank_white.png,stimulus/audwhat_stim/blank_white.png,stimulus/audwhat_stim/blank_white.png,0.0,0.0,0.0,0.0,0,0.0,0,0.0,0,0.0,0,0.0,0,0.0,0.0,0,0,0,0,0,0,0,0,0,0.0,0,0.0,0,0.0,0,0.0,9,,,,,0,61,61,61,,,,,,,,,541.3891157080002,541.3891157080002,541.3891157080002,541.3891157080002,541.3891157080002,541.3891157080002,541.3891157080002,541.3891157080002,541.2832569163335,541.3891157080002,541.3891157080002,541.3891157080002,541.2832569163335,541.3891157080002,541.3891157080002,541.3891157080002,541.3891157080002,541.3891157080002,541.3891157080002,541.3891157080002,541.3891157080002,541.3891157080002,541.3891157080002,541.3891157080002,541.3891157080002,541.3891157080002,541.3891157080002,541.3499235830001,541.3891157080002,541.3891157080002,541.3891157080002,541.3499235830001,541.3891157080002,541.3891157080002,541.3891157080002,541.3891157080002,541.3891157080002,546.6154590419997,546.6154590419997,550.5669565419998,None,0,,reldom2_s007,001,2025-02-06_15h40.10.498,Aud-B-Scan_AC,2022.2.5,None,
47,Second_Order,8.0,audwhere,stimulus/audwhere_stim/right_away_300h.wav,stimulus/audwhere_stim/right_toward_270h.wav,stimulus/audwhere_stim/left_away_280h.wav,stimulus/audwhere_stim/left_toward_270h.wav,stimulus/audwhat_stim/match_blank.png,stimulus/audwhat_stim/match_box.png,stimulus/audwhat_stim/match_yes.png,stimulus/audwhat_stim/match_no.png,1.0,Match,Side,Side,1,5.125,0,5.125,0,5.125,0,5.125,0,0.75,0.75,0,0,0,0,0,0,0,0,1,0.5,1,2.125,1,0.5,1,2.125,0,,,,,0,62,62,62,,,,,,,,,550.5669565419998,555.6891619169996,550.5669565419998,550.5669565419998,550.5669565419998,550.5669565419998,551.023902208,552.0125337499999,551.027166624667,552.0255245419999,552.6500267919996,553.6462762080005,552.6611201666672,553.6541482500002,555.6891619169996,556.5200943329996,558.5963886249997,562.5391059999997,556.5200943329996,556.5200943329996,561.7138215830005,556.5200943329996,556.5200943329996,556.5200943329996,556.5200943329996,556.9915743750003,558.0315249999999,556.9616848746671,,558.5963886249997,559.6398940000004,558.5655081666671,,556.5200943329996,561.7138215830005,556.5200943329996,561.7138215830005,561.7138215830005,,556.5200943329996,1,1,0.9658776669998588,reldom2_s007,001,2025-02-06_15h40.10.498,Aud-B-Scan_AC,2022.2.5,None,
48,Second_Order,8.0,audwhere,stimulus/audwhere_stim/right_toward_270h.wav,stimulus/audwhere_stim/right_away_270h.wav,stimulus/audwhere_stim/left_away_280h.wav,stimulus/audwhere_stim/left_toward_290h.wav,stimulus/audwhat_stim/match_blank.png,stimulus/audwhat_stim/match_box.png,stimulus/audwhat_stim/match_yes.png,stimulus/audwhat_stim/match_no.png,1.0,Match,Side,Side,1,5.125,0,5.125,0,5.125,0,5.125,0,0.625,0.625,0,0,0,0,0,0,0,0,1,0.5,1,2.125,1,0.5,1,2.125,0,,,,,0,63,63,63,,,,,,,,,562.5391059999997,567.6621033329998,562.5391059999997,562.5391059999997,562.5391059999997,562.5391059999997,562.9887310420004,563.9869740830004,563.001271208667,563.994859375,564.6215281669997,565.6119694579997,564.6269136246663,565.6238962080001,567.6621033329998,568.3791280829996,570.4518184169997,574.5043774999999,568.3791280829996,568.3791280829996,573.5616684170004,568.3791280829996,568.3791280829996,568.3791280829996,568.3791280829996,568.8515401669997,569.8875129579997,568.820916041667,,570.4518184169997,571.4938306250001,570.4215007086666,,568.3791280829996,573.5616684170004,568.3791280829996,573.5616684170004,573.5616684170004,574.2246367499997,568.3791280829996,1,1,0.9352699160003795,reldom2_s007,001,2025-02-06_15h40.10.498,Aud-B-Scan_AC,2022.2.5,None,
0,0.0,None,fixation,stimulus/audwhat_stim/blank_white.png,stimulus/audwhat_stim/blank_white.png,stimulus/audwhere_stim/blank_white.png,stimulus/audwhere_stim/blank_white.png,stimulus/audwhat_stim/blank_white.png,stimulus/audwhat_stim/blank_white.png,stimulus/audwhat_stim/blank_white.png,stimulus/audwhat_stim/blank_white.png,0.0,0.0,0.0,0.0,0,0.0,0,0.0,0,0.0,0,0.0,0,0.0,0.0,0,0,0,0,0,0,0,0,0,0.0,0,0.0,0,0.0,0,0.0,16,,,,,0,64,64,64,,,,,,,,,574.5043774999999,574.5043774999999,574.5043774999999,574.5043774999999,574.5043774999999,574.5043774999999,574.5043774999999,574.5043774999999,574.3994890003338,574.5043774999999,574.5043774999999,574.5043774999999,574.3994890003338,574.5043774999999,574.5043774999999,574.5043774999999,574.5043774999999,574.5043774999999,574.5043774999999,574.5043774999999,574.5043774999999,574.5043774999999,574.5043774999999,574.5043774999999,574.5043774999999,574.5043774999999,574.5043774999999,574.4494890003338,574.5043774999999,574.5043774999999,574.5043774999999,574.4494890003338,574.5043774999999,574.5043774999999,574.5043774999999,574.5043774999999,574.5043774999999,579.7182632500003,579.7182632500003,590.6716915000002,None,0,,reldom2_s007,001,2025-02-06_15h40.10.498,Aud-B-Scan_AC,2022.2.5,None,
