Trial,Order,Block,Type,Stimuli_File1,Stimuli_File2,Stimuli_File3,Stimuli_File4,Cue_File1,Cue_File2,Response_File_Yes,Response_File_No,Match,Cue_Dimension,Pair1_Dimension,Pair2_Dimension,Key,Cue1_Duration,Cue1_Onset,Cue2_Duration,Cue2_Onset,ResponseYes_Duration,ResponseYes_Onset,ResponseNo_Duration,ResponseNo_Onset,ITI_Within,ITI_Between,Image1_Duration,Image1_Onset,Image2_Duration,Image2_Onset,Image3_Duration,Image3_Onset,Image4_Duration,Image4_Onset,Sound1_Duration,Sound1_Onset,Sound2_Duration,Sound2_Onset,Sound3_Duration,Sound3_Onset,Sound4_Duration,Sound4_Onset,Fixation_Duration,trials_2.thisRepN,trials_2.thisTrialN,trials_2.thisN,trials_2.thisIndex,trials.thisRepN,trials.thisTrialN,trials.thisN,trials.thisIndex,text_start.started,key_resp_start.started,key_resp_start.keys,key_resp_start.rt,text2.started,key_resp_2.started,key_resp_2.keys,key_resp_2.rt,cue_file1.started,cue_file1.stopped,image_1.started,image_1.stopped,image_2.started,image_2.stopped,sound_icon1.started,sound_icon1.stopped,sound_1.started,sound_1.stopped,sound_icon2.started,sound_icon2.stopped,sound_2.started,sound_2.stopped,image_blank_1.started,image_blank_1.stopped,key_press.started,key_press.stopped,fixation_text.started,cue_file2.started,cue_file2.stopped,image_3.started,image_3.stopped,image_4.started,image_4.stopped,sound_icon3.started,sound_icon3.stopped,sound_3.started,sound_3.stopped,sound_icon4.started,sound_icon4.stopped,sound_4.started,sound_4.stopped,response_yes.started,response_yes.stopped,response_no.started,response_no.stopped,iti_blank.started,iti_blank.stopped,fixation_text.stopped,key_press.keys,key_press.corr,key_press.rt,participant,session,date,expName,psychopyVersion,frameRate,
,,,,,,,,,,,,,,,,,,,,,,,,,,,,,,,,,,,,,,,,,,,,,,,,,,,,11.384314666999899,11.384314666999899,2,0.9360953750001499,,,,,,,,,,,,,,,,,,,,,,,,,,,,,,,,,,,,,,,,,,,,,,,,reldom2_s007,001,2025-02-06_15h05.59.535,Vis-B-Scan_AC,2022.2.5,None,
,,,,,,,,,,,,,,,,,,,,,,,,,,,,,,,,,,,,,,,,,,,,0,0,0,0,,,,,,,,,12.345863875000077,12.345863875000077,5,17.55539895800007,,,,,,,,,,,,,,,,,,,,,,,,,,,,,,,,,,,,,,,,,,,,reldom2_s007,001,2025-02-06_15h05.59.535,Vis-B-Scan_AC,2022.2.5,None,
,,,,,,,,,,,,,,,,,,,,,,,,,,,,,,,,,,,,,,,,,,,,1,0,1,0,,,,,,,,,29.90876804200002,29.90876804200002,5,1.993051042000161,,,,,,,,,,,,,,,,,,,,,,,,,,,,,,,,,,,,,,,,,,,,reldom2_s007,001,2025-02-06_15h05.59.535,Vis-B-Scan_AC,2022.2.5,None,
,,,,,,,,,,,,,,,,,,,,,,,,,,,,,,,,,,,,,,,,,,,,2,0,2,0,,,,,,,,,31.920909749999964,31.920909749999964,5,1.9802292080000825,,,,,,,,,,,,,,,,,,,,,,,,,,,,,,,,,,,,,,,,,,,,reldom2_s007,001,2025-02-06_15h05.59.535,Vis-B-Scan_AC,2022.2.5,None,
,,,,,,,,,,,,,,,,,,,,,,,,,,,,,,,,,,,,,,,,,,,,3,0,3,0,,,,,,,,,33.91853408299994,33.91853408299994,5,1.9830689580001035,,,,,,,,,,,,,,,,,,,,,,,,,,,,,,,,,,,,,,,,,,,,reldom2_s007,001,2025-02-06_15h05.59.535,Vis-B-Scan_AC,2022.2.5,None,
0,0.0,None,fixation,stimulus/viswhere_stim/blank_white.png,stimulus/viswhere_stim/blank_white.png,stimulus/viswhat_stim/blank_white.png,stimulus/viswhat_stim/blank_white.png,stimulus/viswhere_stim/blank_white.png,stimulus/viswhere_stim/blank_white.png,stimulus/viswhere_stim/blank_white.png,stimulus/viswhere_stim/blank_white.png,0.0,0.0,0.0,0.0,0,0.0,0,0.0,0,0.0,0,0.0,0,0.0,0.0,0,0.0,0,0.0,0,0.0,0,0.0,0,0,0,0,0,0,0,0,16,,,,,0,0,0,0,,,,,,,,,36.09108858299987,36.09108858299987,36.09108858299987,36.09108858299987,36.09108858299987,36.09108858299987,36.09108858299987,36.09108858299987,35.98752162533341,36.09108858299987,36.09108858299987,36.09108858299987,35.98752162533341,36.09108858299987,36.09108858299987,36.09108858299987,36.09108858299987,36.09108858299987,36.09108858299987,36.09108858299987,36.09108858299987,36.09108858299987,36.09108858299987,36.09108858299987,36.09108858299987,36.09108858299987,36.09108858299987,36.05418829200007,36.09108858299987,36.09108858299987,36.09108858299987,36.05418829200007,36.09108858299987,36.09108858299987,36.09108858299987,36.09108858299987,36.09108858299987,41.2809585,41.2809585,52.2817682079999,None,0,,reldom2_s007,001,2025-02-06_15h05.59.535,Vis-B-Scan_AC,2022.2.5,None,
1,First_Order,1.0,viswhere,stimulus/viswhere_stim/blank_white.png,stimulus/viswhere_stim/blank_white.png,stimulus/viswhere_stim/150-deg_dot-left_royalblue.png,stimulus/viswhere_stim/150-deg_dot-right_peru.png,stimulus/viswhere_stim/blank_white.png,stimulus/viswhere_stim/dot_box.png,stimulus/viswhere_stim/dot_yes.png,stimulus/viswhere_stim/dot_no.png,None,Dot,None,Line,2,0.0,0,5.125,0,5.125,0,5.125,0,0.0,0.625,0,0.0,0,0.0,1,0.5,1,2.125,0,0,0,0,0,0,0,0,0,,,,,0,1,1,1,,,,,,,,,52.2817682079999,52.2817682079999,52.2817682079999,52.2817682079999,52.2817682079999,52.2817682079999,52.2817682079999,52.2817682079999,52.25554279200005,52.2817682079999,52.2817682079999,52.2817682079999,52.25554279200005,52.2817682079999,52.2817682079999,52.2817682079999,54.38911029199994,58.335427208000056,52.2817682079999,52.2817682079999,57.41150741699994,52.76662099999999,53.77313870800003,54.38911029199994,55.400432666999905,52.2817682079999,52.2817682079999,52.272209458666715,52.2817682079999,52.2817682079999,52.2817682079999,52.272209458666715,52.2817682079999,52.2817682079999,57.41150741699994,52.2817682079999,57.41150741699994,57.506100583000034,58.12724012500007,52.2817682079999,2,1,1.3517517080001653,reldom2_s007,001,2025-02-06_15h05.59.535,Vis-B-Scan_AC,2022.2.5,None,
2,First_Order,1.0,viswhere,stimulus/viswhere_stim/blank_white.png,stimulus/viswhere_stim/blank_white.png,stimulus/viswhere_stim/30-deg_dot-left_salmon.png,stimulus/viswhere_stim/30-deg_dot-right_seagreen.png,stimulus/viswhere_stim/blank_white.png,stimulus/viswhere_stim/dot_box.png,stimulus/viswhere_stim/dot_yes.png,stimulus/viswhere_stim/dot_no.png,None,Dot,None,Line,2,0.0,0,5.125,0,5.125,0,5.125,0,0.0,0.625,0,0.0,0,0.0,1,0.5,1,2.125,0,0,0,0,0,0,0,0,0,,,,,0,2,2,2,,,,,,,,,58.335427208000056,58.335427208000056,58.335427208000056,58.335427208000056,58.335427208000056,58.335427208000056,58.335427208000056,58.335427208000056,58.317449041333326,58.335427208000056,58.335427208000056,58.335427208000056,58.317449041333326,58.335427208000056,58.335427208000056,58.335427208000056,60.433527082999944,64.39243287499994,58.335427208000056,58.335427208000056,63.462969582999904,58.812898542000084,59.82434695799998,60.433527082999944,61.452233750000005,58.335427208000056,58.335427208000056,58.317449041333326,58.335427208000056,58.335427208000056,58.335427208000056,58.317449041333326,58.335427208000056,58.335427208000056,63.462969582999904,58.335427208000056,63.462969582999904,63.55643491699993,64.18389774999991,58.335427208000056,2,1,1.289189958000179,reldom2_s007,001,2025-02-06_15h05.59.535,Vis-B-Scan_AC,2022.2.5,None,
3,First_Order,1.0,viswhere,stimulus/viswhere_stim/blank_white.png,stimulus/viswhere_stim/blank_white.png,stimulus/viswhere_stim/120-deg_dot-left_goldenrod.png,stimulus/viswhere_stim/30-deg_dot-left_slateblue.png,stimulus/viswhere_stim/blank_white.png,stimulus/viswhere_stim/dot_box.png,stimulus/viswhere_stim/dot_yes.png,stimulus/viswhere_stim/dot_no.png,None,Dot,None,Dot,1,0.0,0,5.125,0,5.125,0,5.125,0,0.0,0.625,0,0.0,0,0.0,1,0.5,1,2.125,0,0,0,0,0,0,0,0,0,,,,,0,3,3,3,,,,,,,,,64.39243287499994,64.39243287499994,64.39243287499994,64.39243287499994,64.39243287499994,64.39243287499994,64.39243287499994,64.39243287499994,64.37402725033333,64.39243287499994,64.39243287499994,64.39243287499994,64.37402725033333,64.39243287499994,64.39243287499994,64.39243287499994,66.49431166699992,70.45472562500004,64.39243287499994,64.39243287499994,69.51523429200006,64.87169337499995,65.88399212500008,66.49431166699992,67.49663908299999,64.39243287499994,64.39243287499994,64.37402725033333,64.39243287499994,64.39243287499994,64.39243287499994,64.37402725033333,64.39243287499994,64.39243287499994,69.51523429200006,64.39243287499994,69.51523429200006,69.61029479199988,70.24513124999999,64.39243287499994,1,1,1.7082188740000674,reldom2_s007,001,2025-02-06_15h05.59.535,Vis-B-Scan_AC,2022.2.5,None,
4,First_Order,1.0,viswhere,stimulus/viswhere_stim/blank_white.png,stimulus/viswhere_stim/blank_white.png,stimulus/viswhere_stim/150-deg_dot-right_royalblue.png,stimulus/viswhere_stim/30-deg_dot-right_salmon.png,stimulus/viswhere_stim/blank_white.png,stimulus/viswhere_stim/line_box.png,stimulus/viswhere_stim/line_yes.png,stimulus/viswhere_stim/line_no.png,None,Line,None,Dot,2,0.0,0,5.125,0,5.125,0,5.125,0,0.0,0.625,0,0.0,0,0.0,1,0.5,1,2.125,0,0,0,0,0,0,0,0,0,,,,,0,4,4,4,,,,,,,,,70.45472562500004,70.45472562500004,70.45472562500004,70.45472562500004,70.45472562500004,70.45472562500004,70.45472562500004,70.45472562500004,70.43494083333333,70.45472562500004,70.45472562500004,70.45472562500004,70.43494083333333,70.45472562500004,70.45472562500004,70.45472562500004,72.55395554200004,76.58710191699993,70.45472562500004,70.45472562500004,75.57992120800009,70.94180591700001,71.95379908299992,72.55395554200004,73.57294425000009,70.45472562500004,70.45472562500004,70.43494083333333,70.45472562500004,70.45472562500004,70.45472562500004,70.43494083333333,70.45472562500004,70.45472562500004,75.57992120800009,70.45472562500004,75.57992120800009,75.67433383299999,76.30551041700005,70.45472562500004,2,1,0.9277561240003251,reldom2_s007,001,2025-02-06_15h05.59.535,Vis-B-Scan_AC,2022.2.5,None,
0,0.0,None,fixation,stimulus/viswhere_stim/blank_white.png,stimulus/viswhere_stim/blank_white.png,stimulus/viswhat_stim/blank_white.png,stimulus/viswhat_stim/blank_white.png,stimulus/viswhere_stim/blank_white.png,stimulus/viswhere_stim/blank_white.png,stimulus/viswhere_stim/blank_white.png,stimulus/viswhere_stim/blank_white.png,0.0,0.0,0.0,0.0,0,0.0,0,0.0,0,0.0,0,0.0,0,0.0,0.0,0,0.0,0,0.0,0,0.0,0,0.0,0,0,0,0,0,0,0,0,9,,,,,0,5,5,5,,,,,,,,,76.58710191699993,76.58710191699993,76.58710191699993,76.58710191699993,76.58710191699993,76.58710191699993,76.58710191699993,76.58710191699993,76.49582133333327,76.58710191699993,76.58710191699993,76.58710191699993,76.49582133333327,76.58710191699993,76.58710191699993,76.58710191699993,76.58710191699993,76.58710191699993,76.58710191699993,76.58710191699993,76.58710191699993,76.58710191699993,76.58710191699993,76.58710191699993,76.58710191699993,76.58710191699993,76.58710191699993,76.54582133333327,76.58710191699993,76.58710191699993,76.58710191699993,76.54582133333327,76.58710191699993,76.58710191699993,76.58710191699993,76.58710191699993,76.58710191699993,81.80151191699997,81.80151191699997,85.69092541700002,None,0,,reldom2_s007,001,2025-02-06_15h05.59.535,Vis-B-Scan_AC,2022.2.5,None,
5,Second_Order,1.0,viswhere,stimulus/viswhere_stim/90-deg_dot-left_mediumslateblue.png,stimulus/viswhere_stim/30-deg_dot-left_slateblue.png,stimulus/viswhere_stim/90-deg_dot-left_royalblue.png,stimulus/viswhere_stim/90-deg_dot-right_goldenrod.png,stimulus/viswhere_stim/match_blank.png,stimulus/viswhere_stim/match_box.png,stimulus/viswhere_stim/match_yes.png,stimulus/viswhere_stim/match_no.png,2.0,Match,Dot,Line,2,5.125,0,5.125,0,5.125,0,5.125,0,0.75,0.75,1,0.5,1,2.125,1,0.5,1,2.125,0,0,0,0,0,0,0,0,0,,,,,0,6,6,6,,,,,,,,,85.69092541700002,90.81538225000008,86.17041641700007,87.16881008299993,87.79223383299995,88.78895162499998,85.69092541700002,85.69092541700002,85.68755999966662,85.69092541700002,85.69092541700002,85.69092541700002,85.68755999966662,85.69092541700002,90.81538225000008,91.5929134999999,93.67930766699988,97.58074566699997,91.5929134999999,91.5929134999999,96.73056195799995,92.06338245799998,93.07885429199996,93.67930766699988,94.6878402079999,91.5929134999999,91.5929134999999,91.58185879133342,91.5929134999999,91.5929134999999,91.5929134999999,91.58185879133342,91.5929134999999,91.5929134999999,96.73056195799995,91.5929134999999,96.73056195799995,96.80000958300002,97.58074566699997,91.5929134999999,2,1,0.8835879160001241,reldom2_s007,001,2025-02-06_15h05.59.535,Vis-B-Scan_AC,2022.2.5,None,
6,Second_Order,1.0,viswhere,stimulus/viswhere_stim/30-deg_dot-right_turquoise.png,stimulus/viswhere_stim/30-deg_dot-left_goldenrod.png,stimulus/viswhere_stim/60-deg_dot-left_salmon.png,stimulus/viswhere_stim/60-deg_dot-right_slateblue.png,stimulus/viswhere_stim/match_blank.png,stimulus/viswhere_stim/match_box.png,stimulus/viswhere_stim/match_yes.png,stimulus/viswhere_stim/match_no.png,1.0,Match,Line,Line,1,5.125,0,5.125,0,5.125,0,5.125,0,0.625,0.625,1,0.5,1,2.125,1,0.5,1,2.125,0,0,0,0,0,0,0,0,0,,,,,0,7,7,7,,,,,,,,,97.58074566699997,102.70409404199995,98.06358354200006,99.06232245799993,99.686131875,100.6828814999999,97.58074566699997,97.58074566699997,97.59455941700007,97.58074566699997,97.58074566699997,97.58074566699997,97.59455941700007,97.58074566699997,102.70409404199995,103.36505029199998,105.46044475000008,109.49401012499993,103.36505029199998,103.36505029199998,108.51683912499993,103.83158687500008,104.84316220799997,105.46044475000008,106.46461008300003,103.36505029199998,103.36505029199998,103.35584208333333,103.36505029199998,103.36505029199998,103.36505029199998,103.35584208333333,103.36505029199998,103.36505029199998,108.51683912499993,103.36505029199998,108.51683912499993,108.57335045800005,109.20165487500003,103.36505029199998,1,1,0.9637801250000848,reldom2_s007,001,2025-02-06_15h05.59.535,Vis-B-Scan_AC,2022.2.5,None,
0,0.0,None,fixation,stimulus/viswhere_stim/blank_white.png,stimulus/viswhere_stim/blank_white.png,stimulus/viswhat_stim/blank_white.png,stimulus/viswhat_stim/blank_white.png,stimulus/viswhere_stim/blank_white.png,stimulus/viswhere_stim/blank_white.png,stimulus/viswhere_stim/blank_white.png,stimulus/viswhere_stim/blank_white.png,0.0,0.0,0.0,0.0,0,0.0,0,0.0,0,0.0,0,0.0,0,0.0,0.0,0,0.0,0,0.0,0,0.0,0,0.0,0,0,0,0,0,0,0,0,9,,,,,0,8,8,8,,,,,,,,,109.49401012499993,109.49401012499993,109.49401012499993,109.49401012499993,109.49401012499993,109.49401012499993,109.49401012499993,109.49401012499993,109.39593516633325,109.49401012499993,109.49401012499993,109.49401012499993,109.39593516633325,109.49401012499993,109.49401012499993,109.49401012499993,109.49401012499993,109.49401012499993,109.49401012499993,109.49401012499993,109.49401012499993,109.49401012499993,109.49401012499993,109.49401012499993,109.49401012499993,109.49401012499993,109.49401012499993,109.44593516633324,109.49401012499993,109.49401012499993,109.49401012499993,109.44593516633324,109.49401012499993,109.49401012499993,109.49401012499993,109.49401012499993,109.49401012499993,114.71409808299995,114.71409808299995,118.6694594999999,None,0,,reldom2_s007,001,2025-02-06_15h05.59.535,Vis-B-Scan_AC,2022.2.5,None,
7,First_Order,2.0,viswhere,stimulus/viswhere_stim/blank_white.png,stimulus/viswhere_stim/blank_white.png,stimulus/viswhere_stim/60-deg_dot-right_peru.png,stimulus/viswhere_stim/120-deg_dot-right_goldenrod.png,stimulus/viswhere_stim/blank_white.png,stimulus/viswhere_stim/line_box.png,stimulus/viswhere_stim/line_yes.png,stimulus/viswhere_stim/line_no.png,None,Line,None,Dot,2,0.0,0,5.125,0,5.125,0,5.125,0,0.0,0.625,0,0.0,0,0.0,1,0.5,1,2.125,0,0,0,0,0,0,0,0,0,,,,,0,9,9,9,,,,,,,,,118.6694594999999,118.6694594999999,118.6694594999999,118.6694594999999,118.6694594999999,118.6694594999999,118.6694594999999,118.6694594999999,118.64915124966676,118.6694594999999,118.6694594999999,118.6694594999999,118.64915124966676,118.6694594999999,118.6694594999999,118.6694594999999,120.77202579200002,124.72384954199993,118.6694594999999,118.6694594999999,123.79554899999994,119.14288687499993,120.14761145800003,120.77202579200002,121.78337470799988,118.6694594999999,118.6694594999999,118.66581791633342,118.6694594999999,118.6694594999999,118.6694594999999,118.66581791633342,118.6694594999999,118.6694594999999,123.79554899999994,118.6694594999999,123.79554899999994,123.89587354199989,124.53703333299995,118.6694594999999,2,1,2.9367533750000803,reldom2_s007,001,2025-02-06_15h05.59.535,Vis-B-Scan_AC,2022.2.5,None,
8,First_Order,2.0,viswhere,stimulus/viswhere_stim/blank_white.png,stimulus/viswhere_stim/blank_white.png,stimulus/viswhere_stim/90-deg_dot-left_turquoise.png,stimulus/viswhere_stim/90-deg_dot-right_peru.png,stimulus/viswhere_stim/blank_white.png,stimulus/viswhere_stim/line_box.png,stimulus/viswhere_stim/line_yes.png,stimulus/viswhere_stim/line_no.png,None,Line,None,Line,1,0.0,0,5.125,0,5.125,0,5.125,0,0.0,0.625,0,0.0,0,0.0,1,0.5,1,2.125,0,0,0,0,0,0,0,0,0,,,,,0,10,10,10,,,,,,,,,124.72384954199993,124.72384954199993,124.72384954199993,124.72384954199993,124.72384954199993,124.72384954199993,124.72384954199993,124.72384954199993,124.70386029133336,124.72384954199993,124.72384954199993,124.72384954199993,124.70386029133336,124.72384954199993,124.72384954199993,124.72384954199993,126.82212904199991,130.80450445799988,124.72384954199993,124.72384954199993,129.86210258300002,125.20127733300001,126.21362595799997,126.82212904199991,127.83790516699992,124.72384954199993,124.72384954199993,124.70386029133336,124.72384954199993,124.72384954199993,124.72384954199993,124.70386029133336,124.72384954199993,124.72384954199993,129.86210258300002,124.72384954199993,129.86210258300002,129.94753087499998,130.574714417,124.72384954199993,1,1,1.617738333000034,reldom2_s007,001,2025-02-06_15h05.59.535,Vis-B-Scan_AC,2022.2.5,None,
9,First_Order,2.0,viswhere,stimulus/viswhere_stim/blank_white.png,stimulus/viswhere_stim/blank_white.png,stimulus/viswhere_stim/60-deg_dot-right_seagreen.png,stimulus/viswhere_stim/120-deg_dot-right_salmon.png,stimulus/viswhere_stim/blank_white.png,stimulus/viswhere_stim/dot_box.png,stimulus/viswhere_stim/dot_yes.png,stimulus/viswhere_stim/dot_no.png,None,Dot,None,Dot,1,0.0,0,5.125,0,5.125,0,5.125,0,0.0,0.625,0,0.0,0,0.0,1,0.5,1,2.125,0,0,0,0,0,0,0,0,0,,,,,0,11,11,11,,,,,,,,,130.80450445799988,130.80450445799988,130.80450445799988,130.80450445799988,130.80450445799988,130.80450445799988,130.80450445799988,130.80450445799988,130.78468700033326,130.80450445799988,130.80450445799988,130.80450445799988,130.78468700033326,130.80450445799988,130.80450445799988,130.80450445799988,132.9168334169999,136.869244042,130.80450445799988,130.80450445799988,135.930222125,131.28005495799994,132.2901018749999,132.9168334169999,133.9310411250001,130.80450445799988,130.80450445799988,130.78468700033326,130.80450445799988,130.80450445799988,130.80450445799988,130.78468700033326,130.80450445799988,130.80450445799988,135.930222125,130.80450445799988,135.930222125,136.02721258299994,136.65199070800008,130.80450445799988,1,1,0.9633937490002609,reldom2_s007,001,2025-02-06_15h05.59.535,Vis-B-Scan_AC,2022.2.5,None,
10,First_Order,2.0,viswhere,stimulus/viswhere_stim/blank_white.png,stimulus/viswhere_stim/blank_white.png,stimulus/viswhere_stim/120-deg_dot-right_cyan.png,stimulus/viswhere_stim/120-deg_dot-left_turquoise.png,stimulus/viswhere_stim/blank_white.png,stimulus/viswhere_stim/line_box.png,stimulus/viswhere_stim/line_yes.png,stimulus/viswhere_stim/line_no.png,None,Line,None,Line,1,0.0,0,5.125,0,5.125,0,5.125,0,0.0,0.625,0,0.0,0,0.0,1,0.5,1,2.125,0,0,0,0,0,0,0,0,0,,,,,0,12,12,12,,,,,,,,,136.869244042,136.869244042,136.869244042,136.869244042,136.869244042,136.869244042,136.869244042,136.869244042,136.84864404133336,136.869244042,136.869244042,136.869244042,136.84864404133336,136.869244042,136.869244042,136.869244042,138.97234691699987,143.00824120800007,136.869244042,136.869244042,142.00024058300005,137.34807183299995,138.36320183299995,138.97234691699987,139.99235283300004,136.869244042,136.869244042,136.86531070800004,136.869244042,136.869244042,136.869244042,136.86531070800004,136.869244042,136.869244042,142.00024058300005,136.869244042,142.00024058300005,142.09694083299996,142.72894199999996,136.869244042,1,1,0.9406678749999173,reldom2_s007,001,2025-02-06_15h05.59.535,Vis-B-Scan_AC,2022.2.5,None,
0,0.0,None,fixation,stimulus/viswhere_stim/blank_white.png,stimulus/viswhere_stim/blank_white.png,stimulus/viswhat_stim/blank_white.png,stimulus/viswhat_stim/blank_white.png,stimulus/viswhere_stim/blank_white.png,stimulus/viswhere_stim/blank_white.png,stimulus/viswhere_stim/blank_white.png,stimulus/viswhere_stim/blank_white.png,0.0,0.0,0.0,0.0,0,0.0,0,0.0,0,0.0,0,0.0,0,0.0,0.0,0,0.0,0,0.0,0,0.0,0,0.0,0,0,0,0,0,0,0,0,8,,,,,0,13,13,13,,,,,,,,,143.00824120800007,143.00824120800007,143.00824120800007,143.00824120800007,143.00824120800007,143.00824120800007,143.00824120800007,143.00824120800007,142.91269012533334,143.00824120800007,143.00824120800007,143.00824120800007,142.91269012533334,143.00824120800007,143.00824120800007,143.00824120800007,143.00824120800007,143.00824120800007,143.00824120800007,143.00824120800007,143.00824120800007,143.00824120800007,143.00824120800007,143.00824120800007,143.00824120800007,143.00824120800007,143.00824120800007,142.96269012533335,143.00824120800007,143.00824120800007,143.00824120800007,142.96269012533335,143.00824120800007,143.00824120800007,143.00824120800007,143.00824120800007,143.00824120800007,148.20349191700006,148.20349191700006,151.15960595799993,None,0,,reldom2_s007,001,2025-02-06_15h05.59.535,Vis-B-Scan_AC,2022.2.5,None,
11,Second_Order,2.0,viswhere,stimulus/viswhere_stim/120-deg_dot-left_slateblue.png,stimulus/viswhere_stim/60-deg_dot-left_seagreen.png,stimulus/viswhere_stim/90-deg_dot-right_seagreen.png,stimulus/viswhere_stim/30-deg_dot-right_mediumslateblue.png,stimulus/viswhere_stim/match_blank.png,stimulus/viswhere_stim/match_box.png,stimulus/viswhere_stim/match_yes.png,stimulus/viswhere_stim/match_no.png,1.0,Match,Dot,Dot,1,5.125,0,5.125,0,5.125,0,5.125,0,0.75,0.75,1,0.5,1,2.125,1,0.5,1,2.125,0,0,0,0,0,0,0,0,0,,,,,0,14,14,14,,,,,,,,,151.15960595799993,156.2820543329999,151.63780754200002,152.63599483300004,153.25988370799996,154.2565508749999,151.15960595799993,151.15960595799993,151.17428912533333,151.15960595799993,151.15960595799993,151.15960595799993,151.17428912533333,151.15960595799993,156.2820543329999,157.05992745799995,159.150328875,163.0633473329999,157.05992745799995,157.05992745799995,162.19710283299992,157.5189943329999,158.53708849999998,159.150328875,160.15666354199993,157.05992745799995,157.05992745799995,157.04941962533331,157.05992745799995,157.05992745799995,157.05992745799995,157.04941962533331,157.05992745799995,157.05992745799995,162.19710283299992,157.05992745799995,162.19710283299992,162.27100312499988,163.0633473329999,157.05992745799995,1,1,1.165601166000215,reldom2_s007,001,2025-02-06_15h05.59.535,Vis-B-Scan_AC,2022.2.5,None,
12,Second_Order,2.0,viswhere,stimulus/viswhere_stim/90-deg_dot-right_cyan.png,stimulus/viswhere_stim/90-deg_dot-left_salmon.png,stimulus/viswhere_stim/30-deg_dot-left_goldenrod.png,stimulus/viswhere_stim/60-deg_dot-left_turquoise.png,stimulus/viswhere_stim/match_blank.png,stimulus/viswhere_stim/match_box.png,stimulus/viswhere_stim/match_yes.png,stimulus/viswhere_stim/match_no.png,2.0,Match,Line,Dot,2,5.125,0,5.125,0,5.125,0,5.125,0,0.625,0.625,1,0.5,1,2.125,1,0.5,1,2.125,0,0,0,0,0,0,0,0,0,,,,,0,15,15,15,,,,,,,,,163.0633473329999,168.17801400000008,163.54839929199989,164.54700400000002,165.16960575000007,166.1671369999999,163.0633473329999,163.0633473329999,163.07593141700005,163.0633473329999,163.0633473329999,163.0633473329999,163.07593141700005,163.0633473329999,168.17801400000008,168.831543625,170.93061516700004,174.9611970829999,168.831543625,168.831543625,173.96795095800007,169.30804375000002,170.3206325829999,170.93061516700004,171.933288833,168.831543625,168.831543625,168.8234427503333,168.831543625,168.831543625,168.831543625,168.8234427503333,168.831543625,168.831543625,173.96795095800007,168.831543625,173.96795095800007,174.051258792,174.68288770799995,168.831543625,2,1,0.9550579160002144,reldom2_s007,001,2025-02-06_15h05.59.535,Vis-B-Scan_AC,2022.2.5,None,
0,0.0,None,fixation,stimulus/viswhere_stim/blank_white.png,stimulus/viswhere_stim/blank_white.png,stimulus/viswhat_stim/blank_white.png,stimulus/viswhat_stim/blank_white.png,stimulus/viswhere_stim/blank_white.png,stimulus/viswhere_stim/blank_white.png,stimulus/viswhere_stim/blank_white.png,stimulus/viswhere_stim/blank_white.png,0.0,0.0,0.0,0.0,0,0.0,0,0.0,0,0.0,0,0.0,0,0.0,0.0,0,0.0,0,0.0,0,0.0,0,0.0,0,0,0,0,0,0,0,0,10,,,,,0,16,16,16,,,,,,,,,174.9611970829999,174.9611970829999,174.9611970829999,174.9611970829999,174.9611970829999,174.9611970829999,174.9611970829999,174.9611970829999,174.8628262083333,174.9611970829999,174.9611970829999,174.9611970829999,174.8628262083333,174.9611970829999,174.9611970829999,174.9611970829999,174.9611970829999,174.9611970829999,174.9611970829999,174.9611970829999,174.9611970829999,174.9611970829999,174.9611970829999,174.9611970829999,174.9611970829999,174.9611970829999,174.9611970829999,174.9128262083333,174.9611970829999,174.9611970829999,174.9611970829999,174.9128262083333,174.9611970829999,174.9611970829999,174.9611970829999,174.9611970829999,174.9611970829999,180.19059850000008,180.19059850000008,185.23046562500008,None,0,,reldom2_s007,001,2025-02-06_15h05.59.535,Vis-B-Scan_AC,2022.2.5,None,
13,First_Order,3.0,viswhat,stimulus/viswhat_stim/blank_white.png,stimulus/viswhat_stim/blank_white.png,stimulus/viswhat_stim/land_animal-moose.png,stimulus/viswhat_stim/water_animal-whale (1).png,stimulus/viswhat_stim/blank_white.png,stimulus/viswhat_stim/type_box.png,stimulus/viswhat_stim/type_yes.png,stimulus/viswhat_stim/type_no.png,None,Type,None,Type,1,0.0,0,5.125,0,5.125,0,5.125,0,0.0,0.625,0,0.0,0,0.0,1,0.5,1,2.125,0,0,0,0,0,0,0,0,0,,,,,0,17,17,17,,,,,,,,,185.23046562500008,185.23046562500008,185.23046562500008,185.23046562500008,185.23046562500008,185.23046562500008,185.23046562500008,185.23046562500008,185.1274410416667,185.23046562500008,185.23046562500008,185.23046562500008,185.1274410416667,185.23046562500008,185.23046562500008,185.23046562500008,187.28306891700004,,185.23046562500008,185.23046562500008,190.39571095799988,185.698629042,186.75517487499997,187.28306891700004,188.34164833299997,185.23046562500008,185.23046562500008,185.1774410416667,185.23046562500008,185.23046562500008,185.23046562500008,185.1774410416667,185.23046562500008,185.23046562500008,190.39571095799988,185.23046562500008,190.39571095799988,190.44852316700008,191.28479966700002,185.23046562500008,1,1,1.6276527910001732,reldom2_s007,001,2025-02-06_15h05.59.535,Vis-B-Scan_AC,2022.2.5,None,
14,First_Order,3.0,viswhat,stimulus/viswhat_stim/blank_white.png,stimulus/viswhat_stim/blank_white.png,stimulus/viswhat_stim/land_vehicle-trolley.png,stimulus/viswhat_stim/water_vehicle-jetski.png,stimulus/viswhat_stim/blank_white.png,stimulus/viswhat_stim/location_box.png,stimulus/viswhat_stim/location_yes.png,stimulus/viswhat_stim/location_no.png,None,Location,None,Type,2,0.0,0,5.125,0,5.125,0,5.125,0,0.0,0.625,0,0.0,0,0.0,1,0.5,1,2.125,0,0,0,0,0,0,0,0,0,,,,,0,18,18,18,,,,,,,,,191.28479966700002,191.28479966700002,191.28479966700002,191.28479966700002,191.28479966700002,191.28479966700002,191.28479966700002,191.28479966700002,191.25226395866656,191.28479966700002,191.28479966700002,191.28479966700002,191.25226395866656,191.28479966700002,191.28479966700002,191.28479966700002,193.38383208300002,197.3517388749999,191.28479966700002,191.28479966700002,196.42510070799995,191.76477225000008,192.7781768330001,193.38383208300002,194.40115458299988,191.28479966700002,191.28479966700002,191.2689306253332,191.28479966700002,191.28479966700002,191.28479966700002,191.2689306253332,191.28479966700002,191.28479966700002,196.42510070799995,191.28479966700002,196.42510070799995,196.50264349999998,197.14659195800004,191.28479966700002,2,1,1.1569095830000151,reldom2_s007,001,2025-02-06_15h05.59.535,Vis-B-Scan_AC,2022.2.5,None,
15,First_Order,3.0,viswhat,stimulus/viswhat_stim/blank_white.png,stimulus/viswhat_stim/blank_white.png,stimulus/viswhat_stim/land_animal-ostrich.png,stimulus/viswhat_stim/land_vehicle-train.png,stimulus/viswhat_stim/blank_white.png,stimulus/viswhat_stim/location_box.png,stimulus/viswhat_stim/location_yes.png,stimulus/viswhat_stim/location_no.png,None,Location,None,Location,1,0.0,0,5.125,0,5.125,0,5.125,0,0.0,0.625,0,0.0,0,0.0,1,0.5,1,2.125,0,0,0,0,0,0,0,0,0,,,,,0,19,19,19,,,,,,,,,197.3517388749999,197.3517388749999,197.3517388749999,197.3517388749999,197.3517388749999,197.3517388749999,197.3517388749999,197.3517388749999,197.32481058299993,197.3517388749999,197.3517388749999,197.3517388749999,197.32481058299993,197.3517388749999,197.3517388749999,197.3517388749999,199.45769879199997,203.75128945799997,197.3517388749999,197.3517388749999,202.477605583,197.838164667,198.8591879999999,199.45769879199997,200.4833780419999,197.3517388749999,197.3517388749999,197.34147724966658,197.3517388749999,197.3517388749999,197.3517388749999,197.34147724966658,197.3517388749999,197.3517388749999,202.477605583,197.3517388749999,202.477605583,202.56458162500007,203.19329737499993,197.3517388749999,1,1,1.23112154200021,reldom2_s007,001,2025-02-06_15h05.59.535,Vis-B-Scan_AC,2022.2.5,None,
16,First_Order,3.0,viswhat,stimulus/viswhat_stim/blank_white.png,stimulus/viswhat_stim/blank_white.png,stimulus/viswhat_stim/water_animal-lobster.png,stimulus/viswhat_stim/land_animal-moose.png,stimulus/viswhat_stim/blank_white.png,stimulus/viswhat_stim/location_box.png,stimulus/viswhat_stim/location_yes.png,stimulus/viswhat_stim/location_no.png,None,Location,None,Type,2,0.0,0,5.125,0,5.125,0,5.125,0,0.0,0.625,0,0.0,0,0.0,1,0.5,1,2.125,0,0,0,0,0,0,0,0,0,,,,,0,20,20,20,,,,,,,,,203.75128945799997,203.75128945799997,203.75128945799997,203.75128945799997,203.75128945799997,203.75128945799997,203.75128945799997,203.75128945799997,203.3796901253332,203.75128945799997,203.75128945799997,203.75128945799997,203.3796901253332,203.75128945799997,203.75128945799997,203.75128945799997,205.74493416699988,,203.75128945799997,203.75128945799997,209.1860288329999,204.11592058299993,205.38324891699995,205.74493416699988,207.0115290419999,203.75128945799997,203.75128945799997,203.57969012533323,203.75128945799997,203.75128945799997,203.75128945799997,203.57969012533323,203.75128945799997,203.75128945799997,209.1860288329999,203.75128945799997,209.1860288329999,208.8283684999999,,203.75128945799997,2,1,0.8048526249999668,reldom2_s007,001,2025-02-06_15h05.59.535,Vis-B-Scan_AC,2022.2.5,None,
0,0.0,None,fixation,stimulus/viswhere_stim/blank_white.png,stimulus/viswhere_stim/blank_white.png,stimulus/viswhat_stim/blank_white.png,stimulus/viswhat_stim/blank_white.png,stimulus/viswhere_stim/blank_white.png,stimulus/viswhere_stim/blank_white.png,stimulus/viswhere_stim/blank_white.png,stimulus/viswhere_stim/blank_white.png,0.0,0.0,0.0,0.0,0,0.0,0,0.0,0,0.0,0,0.0,0,0.0,0.0,0,0.0,0,0.0,0,0.0,0,0.0,0,0,0,0,0,0,0,0,8,,,,,0,21,21,21,,,,,,,,,209.86382812500005,209.86382812500005,209.86382812500005,209.86382812500005,209.86382812500005,209.86382812500005,209.86382812500005,209.86382812500005,209.76038195800007,209.86382812500005,209.86382812500005,209.86382812500005,209.76038195800007,209.86382812500005,209.86382812500005,209.86382812500005,209.86382812500005,209.86382812500005,209.86382812500005,209.86382812500005,209.86382812500005,209.86382812500005,209.86382812500005,209.86382812500005,209.86382812500005,209.86382812500005,209.86382812500005,209.81038195800008,209.86382812500005,209.86382812500005,209.86382812500005,209.81038195800008,209.86382812500005,209.86382812500005,209.86382812500005,209.86382812500005,209.86382812500005,215.08079204199998,215.08079204199998,217.99880545799988,None,0,,reldom2_s007,001,2025-02-06_15h05.59.535,Vis-B-Scan_AC,2022.2.5,None,
17,Second_Order,3.0,viswhat,stimulus/viswhat_stim/land_animal-giraffe.png,stimulus/viswhat_stim/water_animal-stingray.png,stimulus/viswhat_stim/water_animal-squid.png,stimulus/viswhat_stim/water_vehicle-yacht.png,stimulus/viswhere_stim/match_blank.png,stimulus/viswhere_stim/match_box.png,stimulus/viswhere_stim/match_yes.png,stimulus/viswhere_stim/match_no.png,2.0,Match,Type,Location,2,5.125,0,5.125,0,5.125,0,5.125,0,0.75,0.75,1,0.5,1,2.125,1,0.5,1,2.125,0,0,0,0,0,0,0,0,0,,,,,0,22,22,22,,,,,,,,,217.99880545799988,223.11953745799997,218.441914042,219.43996520799988,220.07488783300005,221.06410954199987,217.99880545799988,217.99880545799988,217.99869883300008,217.99880545799988,217.99880545799988,217.99880545799988,217.99869883300008,217.99880545799988,223.11953745799997,223.93914604199995,226.01585291700007,229.95365883299996,223.93914604199995,223.93914604199995,229.11528016700004,224.39116383300006,225.4114508329999,226.01585291700007,227.03759104200003,223.93914604199995,223.93914604199995,223.90470887499993,223.93914604199995,223.93914604199995,223.93914604199995,223.90470887499993,223.93914604199995,223.93914604199995,229.11528016700004,223.93914604199995,229.11528016700004,229.14780395799994,,223.93914604199995,2,1,0.9218669160002264,reldom2_s007,001,2025-02-06_15h05.59.535,Vis-B-Scan_AC,2022.2.5,None,
18,Second_Order,3.0,viswhat,stimulus/viswhat_stim/water_animal-whale (1).png,stimulus/viswhat_stim/land_animal-tiger.png,stimulus/viswhat_stim/water_animal-orka.png,stimulus/viswhat_stim/water_vehicle-cargoboat.png,stimulus/viswhere_stim/match_blank.png,stimulus/viswhere_stim/match_box.png,stimulus/viswhere_stim/match_yes.png,stimulus/viswhere_stim/match_no.png,2.0,Match,Type,Location,2,5.125,0,5.125,0,5.125,0,5.125,0,0.625,0.625,1,0.5,1,2.125,1,0.5,1,2.125,0,0,0,0,0,0,0,0,0,,,,,0,23,23,23,,,,,,,,,229.95365883299996,235.07651658300006,230.41521062499987,231.404883208,232.040568292,233.03832925000006,229.95365883299996,229.95365883299996,229.95627508299992,229.95365883299996,229.95365883299996,229.95365883299996,229.95627508299992,229.95365883299996,235.07651658300006,235.83690812500004,237.92865216699988,,235.83690812500004,235.83690812500004,241.06699054199998,236.29429866700002,237.4059299999999,237.92865216699988,239.03972783299992,235.83690812500004,235.83690812500004,235.77790066633324,235.83690812500004,235.83690812500004,235.83690812500004,235.77790066633324,235.83690812500004,235.83690812500004,241.06699054199998,235.83690812500004,241.06699054199998,241.0063029999999,241.94383074999996,235.83690812500004,2,1,1.0154935830000795,reldom2_s007,001,2025-02-06_15h05.59.535,Vis-B-Scan_AC,2022.2.5,None,
0,0.0,None,fixation,stimulus/viswhere_stim/blank_white.png,stimulus/viswhere_stim/blank_white.png,stimulus/viswhat_stim/blank_white.png,stimulus/viswhat_stim/blank_white.png,stimulus/viswhere_stim/blank_white.png,stimulus/viswhere_stim/blank_white.png,stimulus/viswhere_stim/blank_white.png,stimulus/viswhere_stim/blank_white.png,0.0,0.0,0.0,0.0,0,0.0,0,0.0,0,0.0,0,0.0,0,0.0,0.0,0,0.0,0,0.0,0,0.0,0,0.0,0,0,0,0,0,0,0,0,9,,,,,0,24,24,24,,,,,,,,,241.94383074999996,241.94383074999996,241.94383074999996,241.94383074999996,241.94383074999996,241.94383074999996,241.94383074999996,241.94383074999996,241.84911500033326,241.94383074999996,241.94383074999996,241.94383074999996,241.84911500033326,241.94383074999996,241.94383074999996,241.94383074999996,241.94383074999996,241.94383074999996,241.94383074999996,241.94383074999996,241.94383074999996,241.94383074999996,241.94383074999996,241.94383074999996,241.94383074999996,241.94383074999996,241.94383074999996,241.89911500033327,241.94383074999996,241.94383074999996,241.94383074999996,241.89911500033327,241.94383074999996,241.94383074999996,241.94383074999996,241.94383074999996,241.94383074999996,247.16432245800002,247.16432245800002,251.18689333299994,None,0,,reldom2_s007,001,2025-02-06_15h05.59.535,Vis-B-Scan_AC,2022.2.5,None,
19,First_Order,4.0,viswhat,stimulus/viswhat_stim/blank_white.png,stimulus/viswhat_stim/blank_white.png,stimulus/viswhat_stim/water_animal-dolphin.png,stimulus/viswhat_stim/water_vehicle-canoe.png,stimulus/viswhat_stim/blank_white.png,stimulus/viswhat_stim/type_box.png,stimulus/viswhat_stim/type_yes.png,stimulus/viswhat_stim/type_no.png,None,Type,None,Location,2,0.0,0,5.125,0,5.125,0,5.125,0,0.0,0.625,0,0.0,0,0.0,1,0.5,1,2.125,0,0,0,0,0,0,0,0,0,,,,,0,25,25,25,,,,,,,,,251.18689333299994,251.18689333299994,251.18689333299994,251.18689333299994,251.18689333299994,251.18689333299994,251.18689333299994,251.18689333299994,251.14528558366663,251.18689333299994,251.18689333299994,251.18689333299994,251.14528558366663,251.18689333299994,251.18689333299994,251.18689333299994,253.28320454200002,257.3312478329999,251.18689333299994,251.18689333299994,256.34563249999997,251.65112220800006,252.67325437499994,253.28320454200002,254.3068237079999,251.18689333299994,251.18689333299994,251.1619522503333,251.18689333299994,251.18689333299994,251.18689333299994,251.1619522503333,251.18689333299994,251.18689333299994,256.34563249999997,251.18689333299994,256.34563249999997,256.39364683300005,257.0278229579999,251.18689333299994,2,1,3.099142167000082,reldom2_s007,001,2025-02-06_15h05.59.535,Vis-B-Scan_AC,2022.2.5,None,
20,First_Order,4.0,viswhat,stimulus/viswhat_stim/blank_white.png,stimulus/viswhat_stim/blank_white.png,stimulus/viswhat_stim/land_animal-elephant.png,stimulus/viswhat_stim/land_vehicle-pickuptruck.png,stimulus/viswhat_stim/blank_white.png,stimulus/viswhat_stim/type_box.png,stimulus/viswhat_stim/type_yes.png,stimulus/viswhat_stim/type_no.png,None,Type,None,Location,2,0.0,0,5.125,0,5.125,0,5.125,0,0.0,0.625,0,0.0,0,0.0,1,0.5,1,2.125,0,0,0,0,0,0,0,0,0,,,,,0,26,26,26,,,,,,,,,257.3312478329999,257.3312478329999,257.3312478329999,257.3312478329999,257.3312478329999,257.3312478329999,257.3312478329999,257.3312478329999,257.22113533299995,257.3312478329999,257.3312478329999,257.3312478329999,257.22113533299995,257.3312478329999,257.3312478329999,257.3312478329999,259.42697291700006,,257.3312478329999,257.3312478329999,262.5396101670001,257.8095087500001,258.8889024580001,259.42697291700006,260.50580041700005,257.3312478329999,257.3312478329999,257.27113533299996,257.3312478329999,257.3312478329999,257.3312478329999,257.27113533299996,257.3312478329999,257.3312478329999,262.5396101670001,257.3312478329999,262.5396101670001,262.5396101670001,263.5892603330001,257.3312478329999,2,1,1.5378724160000274,reldom2_s007,001,2025-02-06_15h05.59.535,Vis-B-Scan_AC,2022.2.5,None,
21,First_Order,4.0,viswhat,stimulus/viswhat_stim/blank_white.png,stimulus/viswhat_stim/blank_white.png,stimulus/viswhat_stim/water_vehicle-cruiseship.png,stimulus/viswhat_stim/land_vehicle-oldcar.png,stimulus/viswhat_stim/blank_white.png,stimulus/viswhat_stim/type_box.png,stimulus/viswhat_stim/type_yes.png,stimulus/viswhat_stim/type_no.png,None,Type,None,Type,1,0.0,0,5.125,0,5.125,0,5.125,0,0.0,0.625,0,0.0,0,0.0,1,0.5,1,2.125,0,0,0,0,0,0,0,0,0,,,,,0,27,27,27,,,,,,,,,263.5892603330001,263.5892603330001,263.5892603330001,263.5892603330001,263.5892603330001,263.5892603330001,263.5892603330001,263.5892603330001,263.3565122916667,263.5892603330001,263.5892603330001,263.5892603330001,263.3565122916667,263.5892603330001,263.5892603330001,263.5892603330001,265.58132845800014,,263.5892603330001,263.5892603330001,268.8604295829998,264.05987466700003,265.22944837499995,265.58132845800014,266.7560021249999,263.5892603330001,263.5892603330001,263.4731789583334,263.5892603330001,263.5892603330001,263.5892603330001,263.4731789583334,263.5892603330001,263.5892603330001,268.8604295829998,263.5892603330001,268.8604295829998,268.7494531250002,,263.5892603330001,1,1,2.7154897490001986,reldom2_s007,001,2025-02-06_15h05.59.535,Vis-B-Scan_AC,2022.2.5,None,
22,First_Order,4.0,viswhat,stimulus/viswhat_stim/blank_white.png,stimulus/viswhat_stim/blank_white.png,stimulus/viswhat_stim/water_vehicle-pirateship.png,stimulus/viswhat_stim/water_animal-orka.png,stimulus/viswhat_stim/blank_white.png,stimulus/viswhat_stim/location_box.png,stimulus/viswhat_stim/location_yes.png,stimulus/viswhat_stim/location_no.png,None,Location,None,Location,1,0.0,0,5.125,0,5.125,0,5.125,0,0.0,0.625,0,0.0,0,0.0,1,0.5,1,2.125,0,0,0,0,0,0,0,0,0,,,,,0,28,28,28,,,,,,,,,269.70892791699976,269.70892791699976,269.70892791699976,269.70892791699976,269.70892791699976,269.70892791699976,269.70892791699976,269.70892791699976,269.5897680413334,269.70892791699976,269.70892791699976,269.70892791699976,269.5897680413334,269.70892791699976,269.70892791699976,269.70892791699976,271.79374137499985,275.84954841700005,269.70892791699976,269.70892791699976,274.8963003329998,270.18185900000003,271.2554884580002,271.79374137499985,272.8767931670002,269.70892791699976,269.70892791699976,269.65643470800006,269.70892791699976,269.70892791699976,269.70892791699976,269.65643470800006,269.70892791699976,269.70892791699976,274.8963003329998,269.70892791699976,274.8963003329998,274.8963003329998,275.57202949999987,269.70892791699976,1,1,0.626317040999993,reldom2_s007,001,2025-02-06_15h05.59.535,Vis-B-Scan_AC,2022.2.5,None,
0,0.0,None,fixation,stimulus/viswhere_stim/blank_white.png,stimulus/viswhere_stim/blank_white.png,stimulus/viswhat_stim/blank_white.png,stimulus/viswhat_stim/blank_white.png,stimulus/viswhere_stim/blank_white.png,stimulus/viswhere_stim/blank_white.png,stimulus/viswhere_stim/blank_white.png,stimulus/viswhere_stim/blank_white.png,0.0,0.0,0.0,0.0,0,0.0,0,0.0,0,0.0,0,0.0,0,0.0,0.0,0,0.0,0,0.0,0,0.0,0,0.0,0,0,0,0,0,0,0,0,10,,,,,0,29,29,29,,,,,,,,,275.84954841700005,275.84954841700005,275.84954841700005,275.84954841700005,275.84954841700005,275.84954841700005,275.84954841700005,275.84954841700005,275.7553628333332,275.84954841700005,275.84954841700005,275.84954841700005,275.7553628333332,275.84954841700005,275.84954841700005,275.84954841700005,275.84954841700005,275.84954841700005,275.84954841700005,275.84954841700005,275.84954841700005,275.84954841700005,275.84954841700005,275.84954841700005,275.84954841700005,275.84954841700005,275.84954841700005,275.80536283333316,275.84954841700005,275.84954841700005,275.84954841700005,275.80536283333316,275.84954841700005,275.84954841700005,275.84954841700005,275.84954841700005,275.84954841700005,281.0511509999999,281.0511509999999,286.01319766699976,None,0,,reldom2_s007,001,2025-02-06_15h05.59.535,Vis-B-Scan_AC,2022.2.5,None,
23,Second_Order,4.0,viswhat,stimulus/viswhat_stim/land_vehicle-pickuptruck.png,stimulus/viswhat_stim/land_animal-lion.png,stimulus/viswhat_stim/water_animal-jellyfish.png,stimulus/viswhat_stim/water_vehicle-cabincruiser.png,stimulus/viswhere_stim/match_blank.png,stimulus/viswhere_stim/match_box.png,stimulus/viswhere_stim/match_yes.png,stimulus/viswhere_stim/match_no.png,1.0,Match,Location,Location,1,5.125,0,5.125,0,5.125,0,5.125,0,0.75,0.75,1,0.5,1,2.125,1,0.5,1,2.125,0,0,0,0,0,0,0,0,0,,,,,0,30,30,30,,,,,,,,,286.01319766699976,291.12738541700014,286.4780052499998,287.4678187920001,288.1034663329999,289.1011126669998,286.01319766699976,286.01319766699976,286.026525333,286.01319766699976,286.01319766699976,286.01319766699976,286.026525333,286.01319766699976,291.12738541700014,291.95128220799984,294.0360158330002,297.962227667,291.95128220799984,291.95128220799984,297.1299227080001,292.3910602919998,293.4323212500001,294.0360158330002,295.08349970799986,291.95128220799984,291.95128220799984,291.91204054199994,291.95128220799984,291.95128220799984,291.95128220799984,291.91204054199994,291.95128220799984,291.95128220799984,297.1299227080001,291.95128220799984,297.1299227080001,297.1299227080001,,291.95128220799984,1,1,0.7017763740002465,reldom2_s007,001,2025-02-06_15h05.59.535,Vis-B-Scan_AC,2022.2.5,None,
24,Second_Order,4.0,viswhat,stimulus/viswhat_stim/water_vehicle-pirateship.png,stimulus/viswhat_stim/land_vehicle-oldcar.png,stimulus/viswhat_stim/land_animal-zebra.png,stimulus/viswhat_stim/water_animal-seahorse.png,stimulus/viswhere_stim/match_blank.png,stimulus/viswhere_stim/match_box.png,stimulus/viswhere_stim/match_yes.png,stimulus/viswhere_stim/match_no.png,1.0,Match,Type,Type,1,5.125,0,5.125,0,5.125,0,5.125,0,0.625,0.625,1,0.5,1,2.125,1,0.5,1,2.125,0,0,0,0,0,0,0,0,0,,,,,0,31,31,31,,,,,,,,,297.962227667,303.08278725000014,298.42225437499997,299.41144020800016,300.0474475829999,301.04495620800003,297.962227667,297.962227667,297.9736147496666,297.962227667,297.962227667,297.962227667,297.9736147496666,297.962227667,303.08278725000014,303.75883066699976,305.84079583300013,309.87976170800016,303.75883066699976,303.75883066699976,308.89411612499975,304.2247199579999,305.2537061249998,305.84079583300013,306.85488254200004,303.75883066699976,303.75883066699976,303.7345539163332,303.75883066699976,303.75883066699976,303.75883066699976,303.7345539163332,303.75883066699976,303.75883066699976,308.89411612499975,303.75883066699976,308.89411612499975,308.9698782920002,309.6100478750002,303.75883066699976,1,1,0.7416359990004366,reldom2_s007,001,2025-02-06_15h05.59.535,Vis-B-Scan_AC,2022.2.5,None,
0,0.0,None,fixation,stimulus/viswhere_stim/blank_white.png,stimulus/viswhere_stim/blank_white.png,stimulus/viswhat_stim/blank_white.png,stimulus/viswhat_stim/blank_white.png,stimulus/viswhere_stim/blank_white.png,stimulus/viswhere_stim/blank_white.png,stimulus/viswhere_stim/blank_white.png,stimulus/viswhere_stim/blank_white.png,0.0,0.0,0.0,0.0,0,0.0,0,0.0,0,0.0,0,0.0,0,0.0,0.0,0,0.0,0,0.0,0,0.0,0,0.0,0,0,0,0,0,0,0,0,9,,,,,0,32,32,32,,,,,,,,,309.87976170800016,309.87976170800016,309.87976170800016,309.87976170800016,309.87976170800016,309.87976170800016,309.87976170800016,309.87976170800016,309.78541449999994,309.87976170800016,309.87976170800016,309.87976170800016,309.78541449999994,309.87976170800016,309.87976170800016,309.87976170800016,309.87976170800016,309.87976170800016,309.87976170800016,309.87976170800016,309.87976170800016,309.87976170800016,309.87976170800016,309.87976170800016,309.87976170800016,309.87976170800016,309.87976170800016,309.83541449999996,309.87976170800016,309.87976170800016,309.87976170800016,309.83541449999996,309.87976170800016,309.87976170800016,309.87976170800016,309.87976170800016,309.87976170800016,315.08142766700007,315.08142766700007,319.10052529200016,None,0,,reldom2_s007,001,2025-02-06_15h05.59.535,Vis-B-Scan_AC,2022.2.5,None,
25,First_Order,5.0,viswhere,stimulus/viswhere_stim/blank_white.png,stimulus/viswhere_stim/blank_white.png,stimulus/viswhere_stim/90-deg_dot-right_seagreen.png,stimulus/viswhere_stim/150-deg_dot-right_turquoise.png,stimulus/viswhere_stim/blank_white.png,stimulus/viswhere_stim/line_box.png,stimulus/viswhere_stim/line_yes.png,stimulus/viswhere_stim/line_no.png,None,Line,None,Dot,2,0.0,0,5.125,0,5.125,0,5.125,0,0.0,0.625,0,0.0,0,0.0,1,0.5,1,2.125,0,0,0,0,0,0,0,0,0,,,,,0,33,33,33,,,,,,,,,319.10052529200016,319.10052529200016,319.10052529200016,319.10052529200016,319.10052529200016,319.10052529200016,319.10052529200016,319.10052529200016,319.07867004166644,319.10052529200016,319.10052529200016,319.10052529200016,319.07867004166644,319.10052529200016,319.10052529200016,319.10052529200016,321.19831154200006,325.16058045800014,319.10052529200016,319.10052529200016,324.23378212500006,319.5861524999998,320.5977486250001,321.19831154200006,322.21375187499984,319.10052529200016,319.10052529200016,319.09533670833315,319.10052529200016,319.10052529200016,319.10052529200016,319.09533670833315,319.10052529200016,319.10052529200016,324.23378212500006,319.10052529200016,324.23378212500006,324.31706358299994,324.94340504199977,319.10052529200016,2,1,0.9473332909999499,reldom2_s007,001,2025-02-06_15h05.59.535,Vis-B-Scan_AC,2022.2.5,None,
26,First_Order,5.0,viswhere,stimulus/viswhere_stim/blank_white.png,stimulus/viswhere_stim/blank_white.png,stimulus/viswhere_stim/150-deg_dot-left_seagreen.png,stimulus/viswhere_stim/150-deg_dot-right_seagreen.png,stimulus/viswhere_stim/blank_white.png,stimulus/viswhere_stim/dot_box.png,stimulus/viswhere_stim/dot_yes.png,stimulus/viswhere_stim/dot_no.png,None,Dot,None,Line,2,0.0,0,5.125,0,5.125,0,5.125,0,0.0,0.625,0,0.0,0,0.0,1,0.5,1,2.125,0,0,0,0,0,0,0,0,0,,,,,0,34,34,34,,,,,,,,,325.16058045800014,325.16058045800014,325.16058045800014,325.16058045800014,325.16058045800014,325.16058045800014,325.16058045800014,325.16058045800014,325.13779295833325,325.16058045800014,325.16058045800014,325.16058045800014,325.13779295833325,325.16058045800014,325.16058045800014,325.16058045800014,327.2661653329999,331.2275174170002,325.16058045800014,325.16058045800014,330.29497512500006,325.64870366699984,326.6647104169999,327.2661653329999,328.28678449999984,325.16058045800014,325.16058045800014,325.1544596249999,325.16058045800014,325.16058045800014,325.16058045800014,325.1544596249999,325.16058045800014,325.16058045800014,330.29497512500006,325.16058045800014,330.29497512500006,330.37860129199976,331.01046875,325.16058045800014,2,1,0.8116679160004878,reldom2_s007,001,2025-02-06_15h05.59.535,Vis-B-Scan_AC,2022.2.5,None,
27,First_Order,5.0,viswhere,stimulus/viswhere_stim/blank_white.png,stimulus/viswhere_stim/blank_white.png,stimulus/viswhere_stim/90-deg_dot-left_turquoise.png,stimulus/viswhere_stim/90-deg_dot-right_seagreen.png,stimulus/viswhere_stim/blank_white.png,stimulus/viswhere_stim/line_box.png,stimulus/viswhere_stim/line_yes.png,stimulus/viswhere_stim/line_no.png,None,Line,None,Line,1,0.0,0,5.125,0,5.125,0,5.125,0,0.0,0.625,0,0.0,0,0.0,1,0.5,1,2.125,0,0,0,0,0,0,0,0,0,,,,,0,35,35,35,,,,,,,,,331.2275174170002,331.2275174170002,331.2275174170002,331.2275174170002,331.2275174170002,331.2275174170002,331.2275174170002,331.2275174170002,331.2048597503331,331.2275174170002,331.2275174170002,331.2275174170002,331.2048597503331,331.2275174170002,331.2275174170002,331.2275174170002,333.34082387500007,337.29444575,331.2275174170002,331.2275174170002,336.3524124170001,331.7116034170001,332.7226079169998,333.34082387500007,334.3568280000002,331.2275174170002,331.2275174170002,331.2215264169998,331.2275174170002,331.2275174170002,331.2275174170002,331.2215264169998,331.2275174170002,331.2275174170002,336.3524124170001,331.2275174170002,336.3524124170001,336.4503715829999,337.0771917499999,331.2275174170002,1,1,0.956282708000117,reldom2_s007,001,2025-02-06_15h05.59.535,Vis-B-Scan_AC,2022.2.5,None,
28,First_Order,5.0,viswhere,stimulus/viswhere_stim/blank_white.png,stimulus/viswhere_stim/blank_white.png,stimulus/viswhere_stim/120-deg_dot-right_mediumslateblue.png,stimulus/viswhere_stim/90-deg_dot-right_lightsseagreen.png,stimulus/viswhere_stim/blank_white.png,stimulus/viswhere_stim/dot_box.png,stimulus/viswhere_stim/dot_yes.png,stimulus/viswhere_stim/dot_no.png,None,Dot,None,Dot,1,0.0,0,5.125,0,5.125,0,5.125,0,0.0,0.625,0,0.0,0,0.0,1,0.5,1,2.125,0,0,0,0,0,0,0,0,0,,,,,0,36,36,36,,,,,,,,,337.29444575,337.29444575,337.29444575,337.29444575,337.29444575,337.29444575,337.29444575,337.29444575,337.2715945833334,337.29444575,337.29444575,337.29444575,337.2715945833334,337.29444575,337.29444575,337.29444575,339.406621458,343.435117667,337.29444575,337.29444575,342.4176942920001,337.7752389169998,338.7943317920001,339.406621458,340.4112012500002,337.29444575,337.29444575,337.28826125000006,337.29444575,337.29444575,337.29444575,337.28826125000006,337.29444575,337.29444575,342.4176942920001,337.29444575,342.4176942920001,342.51406866699995,343.14124079199996,337.29444575,1,1,1.0486617490003027,reldom2_s007,001,2025-02-06_15h05.59.535,Vis-B-Scan_AC,2022.2.5,None,
0,0.0,None,fixation,stimulus/viswhere_stim/blank_white.png,stimulus/viswhere_stim/blank_white.png,stimulus/viswhat_stim/blank_white.png,stimulus/viswhat_stim/blank_white.png,stimulus/viswhere_stim/blank_white.png,stimulus/viswhere_stim/blank_white.png,stimulus/viswhere_stim/blank_white.png,stimulus/viswhere_stim/blank_white.png,0.0,0.0,0.0,0.0,0,0.0,0,0.0,0,0.0,0,0.0,0,0.0,0.0,0,0.0,0,0.0,0,0.0,0,0.0,0,0,0,0,0,0,0,0,10,,,,,0,37,37,37,,,,,,,,,343.435117667,343.435117667,343.435117667,343.435117667,343.435117667,343.435117667,343.435117667,343.435117667,343.3353952913331,343.435117667,343.435117667,343.435117667,343.3353952913331,343.435117667,343.435117667,343.435117667,343.435117667,343.435117667,343.435117667,343.435117667,343.435117667,343.435117667,343.435117667,343.435117667,343.435117667,343.435117667,343.435117667,343.3853952913331,343.435117667,343.435117667,343.435117667,343.3853952913331,343.435117667,343.435117667,343.435117667,343.435117667,343.435117667,348.66677979200017,348.66677979200017,353.585957042,None,0,,reldom2_s007,001,2025-02-06_15h05.59.535,Vis-B-Scan_AC,2022.2.5,None,
29,Second_Order,5.0,viswhere,stimulus/viswhere_stim/30-deg_dot-right_peru.png,stimulus/viswhere_stim/120-deg_dot-right_royalblue.png,stimulus/viswhere_stim/120-deg_dot-left_lightsseagreen.png,stimulus/viswhere_stim/90-deg_dot-left_seagreen.png,stimulus/viswhere_stim/match_blank.png,stimulus/viswhere_stim/match_box.png,stimulus/viswhere_stim/match_yes.png,stimulus/viswhere_stim/match_no.png,1.0,Match,Dot,Dot,1,5.125,0,5.125,0,5.125,0,5.125,0,0.75,0.75,1,0.5,1,2.125,1,0.5,1,2.125,0,0,0,0,0,0,0,0,0,,,,,0,38,38,38,,,,,,,,,353.585957042,358.69968541699996,354.06726545800007,355.05661720800003,355.6924496670001,356.68971262499986,353.585957042,353.585957042,353.5977588753334,353.585957042,353.585957042,353.585957042,353.5977588753334,353.585957042,358.69968541699996,359.47949374999985,361.57544083300013,365.45809358300016,359.47949374999985,359.47949374999985,364.6112339580002,359.94598604199996,360.95546383299984,361.57544083300013,362.59287641700007,359.47949374999985,359.47949374999985,359.46766641633326,359.47949374999985,359.47949374999985,359.47949374999985,359.46766641633326,359.47949374999985,359.47949374999985,364.6112339580002,359.47949374999985,364.6112339580002,364.68235791699976,365.45809358300016,359.47949374999985,1,1,0.6457872490002501,reldom2_s007,001,2025-02-06_15h05.59.535,Vis-B-Scan_AC,2022.2.5,None,
30,Second_Order,5.0,viswhere,stimulus/viswhere_stim/60-deg_dot-right_seagreen.png,stimulus/viswhere_stim/60-deg_dot-left_slateblue.png,stimulus/viswhere_stim/120-deg_dot-left_seagreen.png,stimulus/viswhere_stim/30-deg_dot-left_cyan.png,stimulus/viswhere_stim/match_blank.png,stimulus/viswhere_stim/match_box.png,stimulus/viswhere_stim/match_yes.png,stimulus/viswhere_stim/match_no.png,2.0,Match,Line,Dot,2,5.125,0,5.125,0,5.125,0,5.125,0,0.625,0.625,1,0.5,1,2.125,1,0.5,1,2.125,0,0,0,0,0,0,0,0,0,,,,,0,39,39,39,,,,,,,,,365.45809358300016,370.5769734580001,365.94488783300017,366.9348644170002,367.5714169999999,368.56749858299986,365.45809358300016,365.45809358300016,365.4704308750002,365.45809358300016,365.45809358300016,365.45809358300016,365.4704308750002,365.45809358300016,370.5769734580001,371.23289620799983,373.3367317499999,377.3637970829998,371.23289620799983,371.23289620799983,376.363727833,371.6954146249998,372.7006074170001,373.3367317499999,374.3507874579998,371.23289620799983,371.23289620799983,371.2235041663332,371.23289620799983,371.23289620799983,371.23289620799983,371.2235041663332,371.23289620799983,371.23289620799983,376.363727833,371.23289620799983,376.363727833,376.451427792,377.0769630829998,371.23289620799983,2,1,0.7526222080002754,reldom2_s007,001,2025-02-06_15h05.59.535,Vis-B-Scan_AC,2022.2.5,None,
0,0.0,None,fixation,stimulus/viswhere_stim/blank_white.png,stimulus/viswhere_stim/blank_white.png,stimulus/viswhat_stim/blank_white.png,stimulus/viswhat_stim/blank_white.png,stimulus/viswhere_stim/blank_white.png,stimulus/viswhere_stim/blank_white.png,stimulus/viswhere_stim/blank_white.png,stimulus/viswhere_stim/blank_white.png,0.0,0.0,0.0,0.0,0,0.0,0,0.0,0,0.0,0,0.0,0,0.0,0.0,0,0.0,0,0.0,0,0.0,0,0.0,0,0,0,0,0,0,0,0,9,,,,,0,40,40,40,,,,,,,,,377.3637970829998,377.3637970829998,377.3637970829998,377.3637970829998,377.3637970829998,377.3637970829998,377.3637970829998,377.3637970829998,377.25803512533327,377.3637970829998,377.3637970829998,377.3637970829998,377.25803512533327,377.3637970829998,377.3637970829998,377.3637970829998,377.3637970829998,377.3637970829998,377.3637970829998,377.3637970829998,377.3637970829998,377.3637970829998,377.3637970829998,377.3637970829998,377.3637970829998,377.3637970829998,377.3637970829998,377.3080351253333,377.3637970829998,377.3637970829998,377.3637970829998,377.3080351253333,377.3637970829998,377.3637970829998,377.3637970829998,377.3637970829998,377.3637970829998,382.55206387500016,382.55206387500016,386.5473070830001,None,0,,reldom2_s007,001,2025-02-06_15h05.59.535,Vis-B-Scan_AC,2022.2.5,None,
31,First_Order,6.0,viswhere,stimulus/viswhere_stim/blank_white.png,stimulus/viswhere_stim/blank_white.png,stimulus/viswhere_stim/120-deg_dot-left_royalblue.png,stimulus/viswhere_stim/30-deg_dot-left_goldenrod.png,stimulus/viswhere_stim/blank_white.png,stimulus/viswhere_stim/dot_box.png,stimulus/viswhere_stim/dot_yes.png,stimulus/viswhere_stim/dot_no.png,None,Dot,None,Dot,1,0.0,0,5.125,0,5.125,0,5.125,0,0.0,0.625,0,0.0,0,0.0,1,0.5,1,2.125,0,0,0,0,0,0,0,0,0,,,,,0,41,41,41,,,,,,,,,386.5473070830001,386.5473070830001,386.5473070830001,386.5473070830001,386.5473070830001,386.5473070830001,386.5473070830001,386.5473070830001,386.5254732496668,386.5473070830001,386.5473070830001,386.5473070830001,386.5254732496668,386.5473070830001,386.5473070830001,386.5473070830001,388.6520069169999,392.611743917,386.5473070830001,386.5473070830001,391.67626808299997,387.0301001669998,388.036352417,388.6520069169999,389.6600017919998,386.5473070830001,386.5473070830001,386.5421399163335,386.5473070830001,386.5473070830001,386.5473070830001,386.5421399163335,386.5473070830001,386.5473070830001,391.67626808299997,386.5473070830001,391.67626808299997,391.76409249999983,392.39266625000005,386.5473070830001,1,1,2.0055250829998386,reldom2_s007,001,2025-02-06_15h05.59.535,Vis-B-Scan_AC,2022.2.5,None,
32,First_Order,6.0,viswhere,stimulus/viswhere_stim/blank_white.png,stimulus/viswhere_stim/blank_white.png,stimulus/viswhere_stim/150-deg_dot-left_salmon.png,stimulus/viswhere_stim/150-deg_dot-right_salmon.png,stimulus/viswhere_stim/blank_white.png,stimulus/viswhere_stim/dot_box.png,stimulus/viswhere_stim/dot_yes.png,stimulus/viswhere_stim/dot_no.png,None,Dot,None,Line,2,0.0,0,5.125,0,5.125,0,5.125,0,0.0,0.625,0,0.0,0,0.0,1,0.5,1,2.125,0,0,0,0,0,0,0,0,0,,,,,0,42,42,42,,,,,,,,,392.611743917,392.611743917,392.611743917,392.611743917,392.611743917,392.611743917,392.611743917,392.611743917,392.58831062533324,392.611743917,392.611743917,392.611743917,392.58831062533324,392.611743917,392.611743917,392.611743917,394.71920962499985,398.6812075,392.611743917,392.611743917,397.7673377919998,393.10002091699994,394.1164930829998,394.71920962499985,395.740236417,392.611743917,392.611743917,392.6049772919999,392.611743917,392.611743917,392.611743917,392.6049772919999,392.611743917,392.611743917,397.7673377919998,392.611743917,397.7673377919998,397.83936683299976,398.471667,392.611743917,2,1,0.7016285830002289,reldom2_s007,001,2025-02-06_15h05.59.535,Vis-B-Scan_AC,2022.2.5,None,
33,First_Order,6.0,viswhere,stimulus/viswhere_stim/blank_white.png,stimulus/viswhere_stim/blank_white.png,stimulus/viswhere_stim/150-deg_dot-left_cyan.png,stimulus/viswhere_stim/150-deg_dot-right_seagreen.png,stimulus/viswhere_stim/blank_white.png,stimulus/viswhere_stim/line_box.png,stimulus/viswhere_stim/line_yes.png,stimulus/viswhere_stim/line_no.png,None,Line,None,Line,1,0.0,0,5.125,0,5.125,0,5.125,0,0.0,0.625,0,0.0,0,0.0,1,0.5,1,2.125,0,0,0,0,0,0,0,0,0,,,,,0,43,43,43,,,,,,,,,398.6812075,398.6812075,398.6812075,398.6812075,398.6812075,398.6812075,398.6812075,398.6812075,398.65738191633324,398.6812075,398.6812075,398.6812075,398.65738191633324,398.6812075,398.6812075,398.6812075,400.78131554200013,404.7470474999998,398.6812075,398.6812075,403.8065292499998,399.1719552080001,400.1742513749998,400.78131554200013,401.78654270799984,398.6812075,398.6812075,398.6740485829999,398.6812075,398.6812075,398.6812075,398.6740485829999,398.6812075,398.6812075,403.8065292499998,398.6812075,403.8065292499998,403.9105552919998,404.5382228330002,398.6812075,1,1,1.0685719999999037,reldom2_s007,001,2025-02-06_15h05.59.535,Vis-B-Scan_AC,2022.2.5,None,
34,First_Order,6.0,viswhere,stimulus/viswhere_stim/blank_white.png,stimulus/viswhere_stim/blank_white.png,stimulus/viswhere_stim/150-deg_dot-right_cyan.png,stimulus/viswhere_stim/120-deg_dot-right_cyan.png,stimulus/viswhere_stim/blank_white.png,stimulus/viswhere_stim/line_box.png,stimulus/viswhere_stim/line_yes.png,stimulus/viswhere_stim/line_no.png,None,Line,None,Dot,2,0.0,0,5.125,0,5.125,0,5.125,0,0.0,0.625,0,0.0,0,0.0,1,0.5,1,2.125,0,0,0,0,0,0,0,0,0,,,,,0,44,44,44,,,,,,,,,404.7470474999998,404.7470474999998,404.7470474999998,404.7470474999998,404.7470474999998,404.7470474999998,404.7470474999998,404.7470474999998,404.7192738333334,404.7470474999998,404.7470474999998,404.7470474999998,404.7192738333334,404.7470474999998,404.7470474999998,404.7470474999998,406.84719070799997,410.8834106669999,404.7470474999998,404.7470474999998,409.872948125,405.23292666700013,406.24582187500005,406.84719070799997,407.8655402500001,404.7470474999998,404.7470474999998,404.7359405,404.7470474999998,404.7470474999998,404.7470474999998,404.7359405,404.7470474999998,404.7470474999998,409.872948125,404.7470474999998,409.872948125,409.9761500000002,410.6018430830002,404.7470474999998,2,1,0.8991939990003175,reldom2_s007,001,2025-02-06_15h05.59.535,Vis-B-Scan_AC,2022.2.5,None,
0,0.0,None,fixation,stimulus/viswhere_stim/blank_white.png,stimulus/viswhere_stim/blank_white.png,stimulus/viswhat_stim/blank_white.png,stimulus/viswhat_stim/blank_white.png,stimulus/viswhere_stim/blank_white.png,stimulus/viswhere_stim/blank_white.png,stimulus/viswhere_stim/blank_white.png,stimulus/viswhere_stim/blank_white.png,0.0,0.0,0.0,0.0,0,0.0,0,0.0,0,0.0,0,0.0,0,0.0,0.0,0,0.0,0,0.0,0,0.0,0,0.0,0,0,0,0,0,0,0,0,8,,,,,0,45,45,45,,,,,,,,,410.8834106669999,410.8834106669999,410.8834106669999,410.8834106669999,410.8834106669999,410.8834106669999,410.8834106669999,410.8834106669999,410.78299379133347,410.8834106669999,410.8834106669999,410.8834106669999,410.78299379133347,410.8834106669999,410.8834106669999,410.8834106669999,410.8834106669999,410.8834106669999,410.8834106669999,410.8834106669999,410.8834106669999,410.8834106669999,410.8834106669999,410.8834106669999,410.8834106669999,410.8834106669999,410.8834106669999,410.8329937913335,410.8834106669999,410.8834106669999,410.8834106669999,410.8329937913335,410.8834106669999,410.8834106669999,410.8834106669999,410.8834106669999,410.8834106669999,416.0789698330002,416.0789698330002,419.0085952500001,None,0,,reldom2_s007,001,2025-02-06_15h05.59.535,Vis-B-Scan_AC,2022.2.5,None,
35,Second_Order,6.0,viswhere,stimulus/viswhere_stim/60-deg_dot-right_cyan.png,stimulus/viswhere_stim/60-deg_dot-left_goldenrod.png,stimulus/viswhere_stim/150-deg_dot-left_salmon.png,stimulus/viswhere_stim/150-deg_dot-right_goldenrod.png,stimulus/viswhere_stim/match_blank.png,stimulus/viswhere_stim/match_box.png,stimulus/viswhere_stim/match_yes.png,stimulus/viswhere_stim/match_no.png,1.0,Match,Line,Line,1,5.125,0,5.125,0,5.125,0,5.125,0,0.75,0.75,1,0.5,1,2.125,1,0.5,1,2.125,0,0,0,0,0,0,0,0,0,,,,,0,46,46,46,,,,,,,,,419.0085952500001,424.1292241670001,419.4887867499999,420.487408708,421.10985212499986,422.10769612499985,419.0085952500001,419.0085952500001,419.0211073753334,419.0085952500001,419.0085952500001,419.0085952500001,419.0211073753334,419.0085952500001,424.1292241670001,424.9123381669999,426.99592125000004,430.89553112499993,424.9123381669999,424.9123381669999,430.0461670829998,425.3830365000001,426.3869818750002,426.99592125000004,428.00563095799976,424.9123381669999,424.9123381669999,424.8974282913334,424.9123381669999,424.9123381669999,424.9123381669999,424.8974282913334,424.9123381669999,424.9123381669999,430.0461670829998,424.9123381669999,430.0461670829998,430.1230536249998,430.89553112499993,424.9123381669999,1,1,0.7988593750003474,reldom2_s007,001,2025-02-06_15h05.59.535,Vis-B-Scan_AC,2022.2.5,None,
36,Second_Order,6.0,viswhere,stimulus/viswhere_stim/120-deg_dot-right_slateblue.png,stimulus/viswhere_stim/120-deg_dot-left_royalblue.png,stimulus/viswhere_stim/150-deg_dot-right_royalblue.png,stimulus/viswhere_stim/150-deg_dot-left_salmon.png,stimulus/viswhere_stim/match_blank.png,stimulus/viswhere_stim/match_box.png,stimulus/viswhere_stim/match_yes.png,stimulus/viswhere_stim/match_no.png,1.0,Match,Line,Line,1,5.125,0,5.125,0,5.125,0,5.125,0,0.625,0.625,1,0.5,1,2.125,1,0.5,1,2.125,0,0,0,0,0,0,0,0,0,,,,,0,47,47,47,,,,,,,,,430.89553112499993,436.0105228330001,431.38304754199976,432.380997125,433.0039990829998,434.00146737499995,430.89553112499993,430.89553112499993,430.9076702920002,430.89553112499993,430.89553112499993,430.89553112499993,430.9076702920002,430.89553112499993,436.0105228330001,436.6686941669998,438.76526924999985,442.80080866699996,436.6686941669998,436.6686941669998,441.80935883300003,437.13732975000016,438.139255542,438.76526924999985,439.7709281670002,436.6686941669998,436.6686941669998,436.65786212533317,436.6686941669998,436.6686941669998,436.6686941669998,436.65786212533317,436.6686941669998,436.6686941669998,441.80935883300003,436.6686941669998,441.80935883300003,441.88033999999993,442.5177071249998,436.6686941669998,1,1,0.7268052490001082,reldom2_s007,001,2025-02-06_15h05.59.535,Vis-B-Scan_AC,2022.2.5,None,
0,0.0,None,fixation,stimulus/viswhere_stim/blank_white.png,stimulus/viswhere_stim/blank_white.png,stimulus/viswhat_stim/blank_white.png,stimulus/viswhat_stim/blank_white.png,stimulus/viswhere_stim/blank_white.png,stimulus/viswhere_stim/blank_white.png,stimulus/viswhere_stim/blank_white.png,stimulus/viswhere_stim/blank_white.png,0.0,0.0,0.0,0.0,0,0.0,0,0.0,0,0.0,0,0.0,0,0.0,0.0,0,0.0,0,0.0,0,0.0,0,0.0,0,0,0,0,0,0,0,0,10,,,,,0,48,48,48,,,,,,,,,442.80080866699996,442.80080866699996,442.80080866699996,442.80080866699996,442.80080866699996,442.80080866699996,442.80080866699996,442.80080866699996,442.6983732083332,442.80080866699996,442.80080866699996,442.80080866699996,442.6983732083332,442.80080866699996,442.80080866699996,442.80080866699996,442.80080866699996,442.80080866699996,442.80080866699996,442.80080866699996,442.80080866699996,442.80080866699996,442.80080866699996,442.80080866699996,442.80080866699996,442.80080866699996,442.80080866699996,442.7483732083332,442.80080866699996,442.80080866699996,442.80080866699996,442.7483732083332,442.80080866699996,442.80080866699996,442.80080866699996,442.80080866699996,442.80080866699996,448.03228141700015,448.03228141700015,453.08025004199976,None,0,,reldom2_s007,001,2025-02-06_15h05.59.535,Vis-B-Scan_AC,2022.2.5,None,
37,First_Order,7.0,viswhat,stimulus/viswhat_stim/blank_white.png,stimulus/viswhat_stim/blank_white.png,stimulus/viswhat_stim/water_vehicle-sailboat.png,stimulus/viswhat_stim/land_vehicle-bus.png,stimulus/viswhat_stim/blank_white.png,stimulus/viswhat_stim/location_box.png,stimulus/viswhat_stim/location_yes.png,stimulus/viswhat_stim/location_no.png,None,Location,None,Type,2,0.0,0,5.125,0,5.125,0,5.125,0,0.0,0.625,0,0.0,0,0.0,1,0.5,1,2.125,0,0,0,0,0,0,0,0,0,,,,,0,49,49,49,,,,,,,,,453.08025004199976,453.08025004199976,453.08025004199976,453.08025004199976,453.08025004199976,453.08025004199976,453.08025004199976,453.08025004199976,452.9840249166667,453.08025004199976,453.08025004199976,453.08025004199976,452.9840249166667,453.08025004199976,453.08025004199976,453.08025004199976,455.18228920800016,459.2220140000002,453.08025004199976,453.08025004199976,458.2463889170001,453.51343529200017,454.59233225,455.18228920800016,456.26160945800007,453.08025004199976,453.08025004199976,453.03402491666674,453.08025004199976,453.08025004199976,453.08025004199976,453.03402491666674,453.08025004199976,453.08025004199976,458.2463889170001,453.08025004199976,458.2463889170001,458.2941012499998,458.965409958,453.08025004199976,2,1,0.6987353330002861,reldom2_s007,001,2025-02-06_15h05.59.535,Vis-B-Scan_AC,2022.2.5,None,
38,First_Order,7.0,viswhat,stimulus/viswhat_stim/blank_white.png,stimulus/viswhat_stim/blank_white.png,stimulus/viswhat_stim/land_vehicle-tank.png,stimulus/viswhat_stim/land_animal-elephant.png,stimulus/viswhat_stim/blank_white.png,stimulus/viswhat_stim/type_box.png,stimulus/viswhat_stim/type_yes.png,stimulus/viswhat_stim/type_no.png,None,Type,None,Location,2,0.0,0,5.125,0,5.125,0,5.125,0,0.0,0.625,0,0.0,0,0.0,1,0.5,1,2.125,0,0,0,0,0,0,0,0,0,,,,,0,50,50,50,,,,,,,,,459.2220140000002,459.2220140000002,459.2220140000002,459.2220140000002,459.2220140000002,459.2220140000002,459.2220140000002,459.2220140000002,459.115409958,459.2220140000002,459.2220140000002,459.2220140000002,459.115409958,459.2220140000002,459.2220140000002,459.2220140000002,461.3314873749998,,459.2220140000002,459.2220140000002,464.43792937500007,459.6904364169998,460.74642937500016,461.3314873749998,462.388723583,459.2220140000002,459.2220140000002,459.165409958,459.2220140000002,459.2220140000002,459.2220140000002,459.165409958,459.2220140000002,459.2220140000002,464.43792937500007,459.2220140000002,464.43792937500007,464.43792937500007,465.28248712499976,459.2220140000002,2,1,1.791675916000031,reldom2_s007,001,2025-02-06_15h05.59.535,Vis-B-Scan_AC,2022.2.5,None,
39,First_Order,7.0,viswhat,stimulus/viswhat_stim/blank_white.png,stimulus/viswhat_stim/blank_white.png,stimulus/viswhat_stim/land_animal-ostrich.png,stimulus/viswhat_stim/water_animal-whale.png,stimulus/viswhat_stim/blank_white.png,stimulus/viswhat_stim/location_box.png,stimulus/viswhat_stim/location_yes.png,stimulus/viswhat_stim/location_no.png,None,Location,None,Type,2,0.0,0,5.125,0,5.125,0,5.125,0,0.0,0.625,0,0.0,0,0.0,1,0.5,1,2.125,0,0,0,0,0,0,0,0,0,,,,,0,51,51,51,,,,,,,,,465.28248712499976,465.28248712499976,465.28248712499976,465.28248712499976,465.28248712499976,465.28248712499976,465.28248712499976,465.28248712499976,465.2400496666668,465.28248712499976,465.28248712499976,465.28248712499976,465.2400496666668,465.28248712499976,465.28248712499976,465.28248712499976,467.37271104199976,471.348883417,465.28248712499976,465.28248712499976,470.41877091699985,465.75622395799996,466.78847733299995,467.37271104199976,468.385397625,465.28248712499976,465.28248712499976,465.2567163333335,465.28248712499976,465.28248712499976,465.28248712499976,465.2567163333335,465.28248712499976,465.28248712499976,470.41877091699985,465.28248712499976,470.41877091699985,470.4855862500001,471.1266189579999,465.28248712499976,2,1,0.8944702500000403,reldom2_s007,001,2025-02-06_15h05.59.535,Vis-B-Scan_AC,2022.2.5,None,
40,First_Order,7.0,viswhat,stimulus/viswhat_stim/blank_white.png,stimulus/viswhat_stim/blank_white.png,stimulus/viswhat_stim/land_vehicle-truck.png,stimulus/viswhat_stim/land_animal-fox.png,stimulus/viswhat_stim/blank_white.png,stimulus/viswhat_stim/location_box.png,stimulus/viswhat_stim/location_yes.png,stimulus/viswhat_stim/location_no.png,None,Location,None,Location,1,0.0,0,5.125,0,5.125,0,5.125,0,0.0,0.625,0,0.0,0,0.0,1,0.5,1,2.125,0,0,0,0,0,0,0,0,0,,,,,0,52,52,52,,,,,,,,,471.348883417,471.348883417,471.348883417,471.348883417,471.348883417,471.348883417,471.348883417,471.348883417,471.3150872919999,471.348883417,471.348883417,471.348883417,471.3150872919999,471.348883417,471.348883417,471.348883417,473.43958862500017,477.49332016699987,471.348883417,471.348883417,476.48903233299984,471.8237231249998,472.845820583,473.43958862500017,474.46824037500005,471.348883417,471.348883417,471.3317539586666,471.348883417,471.348883417,471.348883417,471.3317539586666,471.348883417,471.348883417,476.48903233299984,471.348883417,476.48903233299984,476.5606157499999,477.19319599999994,471.348883417,1,1,0.48860774999980094,reldom2_s007,001,2025-02-06_15h05.59.535,Vis-B-Scan_AC,2022.2.5,None,
0,0.0,None,fixation,stimulus/viswhere_stim/blank_white.png,stimulus/viswhere_stim/blank_white.png,stimulus/viswhat_stim/blank_white.png,stimulus/viswhat_stim/blank_white.png,stimulus/viswhere_stim/blank_white.png,stimulus/viswhere_stim/blank_white.png,stimulus/viswhere_stim/blank_white.png,stimulus/viswhere_stim/blank_white.png,0.0,0.0,0.0,0.0,0,0.0,0,0.0,0,0.0,0,0.0,0,0.0,0.0,0,0.0,0,0.0,0,0.0,0,0.0,0,0,0,0,0,0,0,0,8,,,,,0,53,53,53,,,,,,,,,477.49332016699987,477.49332016699987,477.49332016699987,477.49332016699987,477.49332016699987,477.49332016699987,477.49332016699987,477.49332016699987,477.40089500000005,477.49332016699987,477.49332016699987,477.49332016699987,477.40089500000005,477.49332016699987,477.49332016699987,477.49332016699987,477.49332016699987,477.49332016699987,477.49332016699987,477.49332016699987,477.49332016699987,477.49332016699987,477.49332016699987,477.49332016699987,477.49332016699987,477.49332016699987,477.49332016699987,477.45089500000006,477.49332016699987,477.49332016699987,477.49332016699987,477.45089500000006,477.49332016699987,477.49332016699987,477.49332016699987,477.49332016699987,477.49332016699987,482.7044961670001,482.7044961670001,485.6512573749999,None,0,,reldom2_s007,001,2025-02-06_15h05.59.535,Vis-B-Scan_AC,2022.2.5,None,
41,Second_Order,7.0,viswhat,stimulus/viswhat_stim/water_animal-whale (1).png,stimulus/viswhat_stim/water_vehicle-canoe(1).png,stimulus/viswhat_stim/land_animal-tiger.png,stimulus/viswhat_stim/land_vehicle-train.png,stimulus/viswhere_stim/match_blank.png,stimulus/viswhere_stim/match_box.png,stimulus/viswhere_stim/match_yes.png,stimulus/viswhere_stim/match_no.png,1.0,Match,Location,Location,1,5.125,0,5.125,0,5.125,0,5.125,0,0.75,0.75,1,0.5,1,2.125,1,0.5,1,2.125,0,0,0,0,0,0,0,0,0,,,,,0,54,54,54,,,,,,,,,485.6512573749999,490.7720838329999,486.1261870000001,487.12434633299995,487.7481365420001,488.744808958,485.6512573749999,485.6512573749999,485.6570274163331,485.6512573749999,485.6512573749999,485.6512573749999,485.6570274163331,485.6512573749999,490.7720838329999,491.58183466700007,493.65479370800017,,491.58183466700007,491.58183466700007,496.718449792,492.0242022499999,493.04360066699996,493.65479370800017,494.68201591699994,491.58183466700007,491.58183466700007,491.5544685830001,491.58183466700007,491.58183466700007,491.58183466700007,491.5544685830001,491.58183466700007,491.58183466700007,496.718449792,491.58183466700007,496.718449792,496.77540995799995,,491.58183466700007,1,1,0.6984777909999593,reldom2_s007,001,2025-02-06_15h05.59.535,Vis-B-Scan_AC,2022.2.5,None,
42,Second_Order,7.0,viswhat,stimulus/viswhat_stim/land_vehicle-buldozer.png,stimulus/viswhat_stim/water_vehicle-jetski.png,stimulus/viswhat_stim/water_animal-whale.png,stimulus/viswhat_stim/land_animal-fox.png,stimulus/viswhere_stim/match_blank.png,stimulus/viswhere_stim/match_box.png,stimulus/viswhere_stim/match_yes.png,stimulus/viswhere_stim/match_no.png,1.0,Match,Type,Type,1,5.125,0,5.125,0,5.125,0,5.125,0,0.625,0.625,1,0.5,1,2.125,1,0.5,1,2.125,0,0,0,0,0,0,0,0,0,,,,,0,55,55,55,,,,,,,,,497.5681432499998,502.68111250000015,498.0358239579998,499.0217208749998,499.659224708,500.655120917,497.5681432499998,497.5681432499998,497.5663156663332,497.5681432499998,497.5681432499998,497.5681432499998,497.5663156663332,497.5681432499998,502.68111250000015,503.3524373329999,505.45167179199984,509.4834942079999,503.3524373329999,503.3524373329999,508.4870534170002,503.8287268749998,504.8412715000002,505.45167179199984,506.46524995799996,503.3524373329999,503.3524373329999,503.32829975033314,503.3524373329999,503.3524373329999,503.3524373329999,503.32829975033314,503.3524373329999,503.3524373329999,508.4870534170002,503.3524373329999,508.4870534170002,508.5499995419998,509.1786154580002,503.3524373329999,2,0,3.3241713750001054,reldom2_s007,001,2025-02-06_15h05.59.535,Vis-B-Scan_AC,2022.2.5,None,
0,0.0,None,fixation,stimulus/viswhere_stim/blank_white.png,stimulus/viswhere_stim/blank_white.png,stimulus/viswhat_stim/blank_white.png,stimulus/viswhat_stim/blank_white.png,stimulus/viswhere_stim/blank_white.png,stimulus/viswhere_stim/blank_white.png,stimulus/viswhere_stim/blank_white.png,stimulus/viswhere_stim/blank_white.png,0.0,0.0,0.0,0.0,0,0.0,0,0.0,0,0.0,0,0.0,0,0.0,0.0,0,0.0,0,0.0,0,0.0,0,0.0,0,0,0,0,0,0,0,0,9,,,,,0,56,56,56,,,,,,,,,509.4834942079999,509.4834942079999,509.4834942079999,509.4834942079999,509.4834942079999,509.4834942079999,509.4834942079999,509.4834942079999,509.38231683299983,509.4834942079999,509.4834942079999,509.4834942079999,509.38231683299983,509.4834942079999,509.4834942079999,509.4834942079999,509.4834942079999,509.4834942079999,509.4834942079999,509.4834942079999,509.4834942079999,509.4834942079999,509.4834942079999,509.4834942079999,509.4834942079999,509.4834942079999,509.4834942079999,509.43231683299985,509.4834942079999,509.4834942079999,509.4834942079999,509.43231683299985,509.4834942079999,509.4834942079999,509.4834942079999,509.4834942079999,509.4834942079999,514.6989840829999,514.6989840829999,518.6787367499999,None,0,,reldom2_s007,001,2025-02-06_15h05.59.535,Vis-B-Scan_AC,2022.2.5,None,
43,First_Order,8.0,viswhat,stimulus/viswhat_stim/blank_white.png,stimulus/viswhat_stim/blank_white.png,stimulus/viswhat_stim/land_animal-fox.png,stimulus/viswhat_stim/land_vehicle-motorcycle.png,stimulus/viswhat_stim/blank_white.png,stimulus/viswhat_stim/type_box.png,stimulus/viswhat_stim/type_yes.png,stimulus/viswhat_stim/type_no.png,None,Type,None,Location,2,0.0,0,5.125,0,5.125,0,5.125,0,0.0,0.625,0,0.0,0,0.0,1,0.5,1,2.125,0,0,0,0,0,0,0,0,0,,,,,0,57,57,57,,,,,,,,,518.6787367499999,518.6787367499999,518.6787367499999,518.6787367499999,518.6787367499999,518.6787367499999,518.6787367499999,518.6787367499999,518.6335128336667,518.6787367499999,518.6787367499999,518.6787367499999,518.6335128336667,518.6787367499999,518.6787367499999,518.6787367499999,520.7672205000001,,518.6787367499999,518.6787367499999,523.839063875,519.1384223749999,520.1530692079998,520.7672205000001,521.7842094169998,518.6787367499999,518.6787367499999,518.6501795003334,518.6787367499999,518.6787367499999,518.6787367499999,518.6501795003334,518.6787367499999,518.6787367499999,523.839063875,518.6787367499999,523.839063875,523.888793458,524.527525833,518.6787367499999,2,1,1.5878225829999337,reldom2_s007,001,2025-02-06_15h05.59.535,Vis-B-Scan_AC,2022.2.5,None,
44,First_Order,8.0,viswhat,stimulus/viswhat_stim/blank_white.png,stimulus/viswhat_stim/blank_white.png,stimulus/viswhat_stim/land_animal-pig.png,stimulus/viswhat_stim/land_vehicle-firetruck.png,stimulus/viswhat_stim/blank_white.png,stimulus/viswhat_stim/location_box.png,stimulus/viswhat_stim/location_yes.png,stimulus/viswhat_stim/location_no.png,None,Location,None,Location,1,0.0,0,5.125,0,5.125,0,5.125,0,0.0,0.625,0,0.0,0,0.0,1,0.5,1,2.125,0,0,0,0,0,0,0,0,0,,,,,0,58,58,58,,,,,,,,,524.7420248750002,524.7420248750002,524.7420248750002,524.7420248750002,524.7420248750002,524.7420248750002,524.7420248750002,524.7420248750002,524.7023009170001,524.7420248750002,524.7420248750002,524.7420248750002,524.7023009170001,524.7420248750002,524.7420248750002,524.7420248750002,526.8347785419999,530.871520375,524.7420248750002,524.7420248750002,529.8856189169999,525.2171773329999,526.2406857499998,526.8347785419999,527.8623111250001,524.7420248750002,524.7420248750002,524.7189675836668,524.7420248750002,524.7420248750002,524.7420248750002,524.7189675836668,524.7420248750002,524.7420248750002,529.8856189169999,524.7420248750002,529.8856189169999,529.9598185829998,530.586862417,524.7420248750002,1,1,0.8026437500000156,reldom2_s007,001,2025-02-06_15h05.59.535,Vis-B-Scan_AC,2022.2.5,None,
45,First_Order,8.0,viswhat,stimulus/viswhat_stim/blank_white.png,stimulus/viswhat_stim/blank_white.png,stimulus/viswhat_stim/land_vehicle-trolley.png,stimulus/viswhat_stim/water_vehicle-sailboat.png,stimulus/viswhat_stim/blank_white.png,stimulus/viswhat_stim/type_box.png,stimulus/viswhat_stim/type_yes.png,stimulus/viswhat_stim/type_no.png,None,Type,None,Type,1,0.0,0,5.125,0,5.125,0,5.125,0,0.0,0.625,0,0.0,0,0.0,1,0.5,1,2.125,0,0,0,0,0,0,0,0,0,,,,,0,59,59,59,,,,,,,,,530.871520375,530.871520375,530.871520375,530.871520375,530.871520375,530.871520375,530.871520375,530.871520375,530.795386917,530.871520375,530.871520375,530.871520375,530.795386917,530.871520375,530.871520375,530.871520375,532.9412321249999,,530.871520375,530.871520375,536.0565077919998,531.3141343330001,532.3499438749998,532.9412321249999,533.9841300420001,530.871520375,530.871520375,530.8287202503333,530.871520375,530.871520375,530.871520375,530.8287202503333,530.871520375,530.871520375,536.0565077919998,530.871520375,536.0565077919998,536.0565077919998,536.7107261250001,530.871520375,1,1,1.4239777489999597,reldom2_s007,001,2025-02-06_15h05.59.535,Vis-B-Scan_AC,2022.2.5,None,
46,First_Order,8.0,viswhat,stimulus/viswhat_stim/blank_white.png,stimulus/viswhat_stim/blank_white.png,stimulus/viswhat_stim/water_vehicle-canoe(1).png,stimulus/viswhat_stim/land_vehicle-truck.png,stimulus/viswhat_stim/blank_white.png,stimulus/viswhat_stim/type_box.png,stimulus/viswhat_stim/type_yes.png,stimulus/viswhat_stim/type_no.png,None,Type,None,Type,1,0.0,0,5.125,0,5.125,0,5.125,0,0.0,0.625,0,0.0,0,0.0,1,0.5,1,2.125,0,0,0,0,0,0,0,0,0,,,,,0,60,60,60,,,,,,,,,536.9317686669999,536.9317686669999,536.9317686669999,536.9317686669999,536.9317686669999,536.9317686669999,536.9317686669999,536.9317686669999,536.9043834579999,536.9317686669999,536.9317686669999,536.9317686669999,536.9043834579999,536.9317686669999,536.9317686669999,536.9317686669999,539.0379155829999,543.0781920830002,536.9317686669999,536.9317686669999,542.0617019170002,537.3967345829999,538.4189362919999,539.0379155829999,540.0636830000001,536.9317686669999,536.9317686669999,536.9210501246665,536.9317686669999,536.9317686669999,536.9317686669999,536.9210501246665,536.9317686669999,536.9317686669999,542.0617019170002,536.9317686669999,542.0617019170002,542.1445108330001,542.770790667,536.9317686669999,1,1,1.1942262500003835,reldom2_s007,001,2025-02-06_15h05.59.535,Vis-B-Scan_AC,2022.2.5,None,
0,0.0,None,fixation,stimulus/viswhere_stim/blank_white.png,stimulus/viswhere_stim/blank_white.png,stimulus/viswhat_stim/blank_white.png,stimulus/viswhat_stim/blank_white.png,stimulus/viswhere_stim/blank_white.png,stimulus/viswhere_stim/blank_white.png,stimulus/viswhere_stim/blank_white.png,stimulus/viswhere_stim/blank_white.png,0.0,0.0,0.0,0.0,0,0.0,0,0.0,0,0.0,0,0.0,0,0.0,0.0,0,0.0,0,0.0,0,0.0,0,0.0,0,0,0,0,0,0,0,0,9,,,,,0,61,61,61,,,,,,,,,543.0781920830002,543.0781920830002,543.0781920830002,543.0781920830002,543.0781920830002,543.0781920830002,543.0781920830002,543.0781920830002,542.9710547913334,543.0781920830002,543.0781920830002,543.0781920830002,542.9710547913334,543.0781920830002,543.0781920830002,543.0781920830002,543.0781920830002,543.0781920830002,543.0781920830002,543.0781920830002,543.0781920830002,543.0781920830002,543.0781920830002,543.0781920830002,543.0781920830002,543.0781920830002,543.0781920830002,543.037721458,543.0781920830002,543.0781920830002,543.0781920830002,543.037721458,543.0781920830002,543.0781920830002,543.0781920830002,543.0781920830002,543.0781920830002,548.281297708,548.281297708,552.2090436249998,None,0,,reldom2_s007,001,2025-02-06_15h05.59.535,Vis-B-Scan_AC,2022.2.5,None,
47,Second_Order,8.0,viswhat,stimulus/viswhat_stim/water_animal-seaturtle.png,stimulus/viswhat_stim/water_vehicle-kayak.png,stimulus/viswhat_stim/water_vehicle-motorboatraft.png,stimulus/viswhat_stim/land_vehicle-tank.png,stimulus/viswhere_stim/match_blank.png,stimulus/viswhere_stim/match_box.png,stimulus/viswhere_stim/match_yes.png,stimulus/viswhere_stim/match_no.png,2.0,Match,Location,Type,2,5.125,0,5.125,0,5.125,0,5.125,0,0.75,0.75,1,0.5,1,2.125,1,0.5,1,2.125,0,0,0,0,0,0,0,0,0,,,,,0,62,62,62,,,,,,,,,552.2090436249998,557.3242546250001,552.6793836250001,553.677847917,554.300241917,555.2986854170001,552.2090436249998,552.2090436249998,552.2086907503334,552.2090436249998,552.2090436249998,552.2090436249998,552.2086907503334,552.2090436249998,557.3242546250001,558.1064560829998,560.1890752920001,564.1020342919999,558.1064560829998,558.1064560829998,563.2360551250001,558.56468625,559.5855980419999,560.1890752920001,561.1927235830001,558.1064560829998,558.1064560829998,558.0921464163332,558.1064560829998,558.1064560829998,558.1064560829998,558.0921464163332,558.1064560829998,558.1064560829998,563.2360551250001,558.1064560829998,563.2360551250001,563.3180599169998,564.1020342919999,558.1064560829998,2,1,1.522837582999955,reldom2_s007,001,2025-02-06_15h05.59.535,Vis-B-Scan_AC,2022.2.5,None,
48,Second_Order,8.0,viswhat,stimulus/viswhat_stim/land_vehicle-rv.png,stimulus/viswhat_stim/water_vehicle-cargoboat.png,stimulus/viswhat_stim/water_animal-squid.png,stimulus/viswhat_stim/land_animal-dog.png,stimulus/viswhere_stim/match_blank.png,stimulus/viswhere_stim/match_box.png,stimulus/viswhere_stim/match_yes.png,stimulus/viswhere_stim/match_no.png,1.0,Match,Type,Type,1,5.125,0,5.125,0,5.125,0,5.125,0,0.625,0.625,1,0.5,1,2.125,1,0.5,1,2.125,0,0,0,0,0,0,0,0,0,,,,,0,63,63,63,,,,,,,,,564.1020342919999,569.2199041249999,564.5735942919998,565.571708917,566.2068199580001,567.196076083,564.1020342919999,564.1020342919999,564.105637917,564.1020342919999,564.1020342919999,564.1020342919999,564.105637917,564.1020342919999,569.2199041249999,569.9021420830002,571.978285417,,569.9021420830002,569.9021420830002,575.0650013329998,570.3736283750002,571.411466708,571.978285417,572.9921608329998,569.9021420830002,569.9021420830002,569.8818233749998,569.9021420830002,569.9021420830002,569.9021420830002,569.8818233749998,569.9021420830002,569.9021420830002,575.0650013329998,569.9021420830002,575.0650013329998,575.1164974169999,575.75879375,569.9021420830002,1,1,0.4672247910000351,reldom2_s007,001,2025-02-06_15h05.59.535,Vis-B-Scan_AC,2022.2.5,None,
0,0.0,None,fixation,stimulus/viswhere_stim/blank_white.png,stimulus/viswhere_stim/blank_white.png,stimulus/viswhat_stim/blank_white.png,stimulus/viswhat_stim/blank_white.png,stimulus/viswhere_stim/blank_white.png,stimulus/viswhere_stim/blank_white.png,stimulus/viswhere_stim/blank_white.png,stimulus/viswhere_stim/blank_white.png,0.0,0.0,0.0,0.0,0,0.0,0,0.0,0,0.0,0,0.0,0,0.0,0.0,0,0.0,0,0.0,0,0.0,0,0.0,0,0,0,0,0,0,0,0,16,,,,,0,64,64,64,,,,,,,,,576.0226002080001,576.0226002080001,576.0226002080001,576.0226002080001,576.0226002080001,576.0226002080001,576.0226002080001,576.0226002080001,575.9263529996666,576.0226002080001,576.0226002080001,576.0226002080001,575.9263529996666,576.0226002080001,576.0226002080001,576.0226002080001,576.0226002080001,576.0226002080001,576.0226002080001,576.0226002080001,576.0226002080001,576.0226002080001,576.0226002080001,576.0226002080001,576.0226002080001,576.0226002080001,576.0226002080001,575.9763529996666,576.0226002080001,576.0226002080001,576.0226002080001,575.9763529996666,576.0226002080001,576.0226002080001,576.0226002080001,576.0226002080001,576.0226002080001,581.24366175,581.24366175,592.1821253330002,None,0,,reldom2_s007,001,2025-02-06_15h05.59.535,Vis-B-Scan_AC,2022.2.5,None,
