Trial,Order,Block,Type,Stimuli_File1,Stimuli_File2,Stimuli_File3,Stimuli_File4,Cue_File1,Cue_File2,Response_File_Yes,Response_File_No,Match,Cue_Dimension,Pair1_Dimension,Pair2_Dimension,Key,Cue1_Duration,Cue1_Onset,Cue2_Duration,Cue2_Onset,ResponseYes_Duration,ResponseYes_Onset,ResponseNo_Duration,ResponseNo_Onset,ITI_Within,ITI_Between,Image1_Duration,Image1_Onset,Image2_Duration,Image2_Onset,Image3_Duration,Image3_Onset,Image4_Duration,Image4_Onset,Sound1_Duration,Sound1_Onset,Sound2_Duration,Sound2_Onset,Sound3_Duration,Sound3_Onset,Sound4_Duration,Sound4_Onset,Fixation_Duration,trials_2.thisRepN,trials_2.thisTrialN,trials_2.thisN,trials_2.thisIndex,trials.thisRepN,trials.thisTrialN,trials.thisN,trials.thisIndex,text_start.started,key_resp_start.started,key_resp_start.keys,key_resp_start.rt,text2.started,key_resp_2.started,key_resp_2.keys,key_resp_2.rt,cue_file1.started,cue_file1.stopped,image_1.started,image_1.stopped,image_2.started,image_2.stopped,sound_icon1.started,sound_icon1.stopped,sound_1.started,sound_1.stopped,sound_icon2.started,sound_icon2.stopped,sound_2.started,sound_2.stopped,image_blank_1.started,image_blank_1.stopped,key_press.started,key_press.stopped,fixation_text.started,cue_file2.started,cue_file2.stopped,image_3.started,image_3.stopped,image_4.started,image_4.stopped,sound_icon3.started,sound_icon3.stopped,sound_3.started,sound_3.stopped,sound_icon4.started,sound_icon4.stopped,sound_4.started,sound_4.stopped,response_yes.started,response_yes.stopped,response_no.started,response_no.stopped,iti_blank.started,iti_blank.stopped,fixation_text.stopped,key_press.keys,key_press.corr,key_press.rt,participant,session,date,expName,psychopyVersion,frameRate,
,,,,,,,,,,,,,,,,,,,,,,,,,,,,,,,,,,,,,,,,,,,,,,,,,,,,6.998364625000249,6.998364625000249,2,0.8118500830000812,,,,,,,,,,,,,,,,,,,,,,,,,,,,,,,,,,,,,,,,,,,,,,,,reldom2_s007,001,2025-02-06_15h29.02.339,Where-B-Scan_AC,2022.2.5,None,
,,,,,,,,,,,,,,,,,,,,,,,,,,,,,,,,,,,,,,,,,,,,0,0,0,0,,,,,,,,,7.827504500000032,7.827504500000032,5,14.81037891699998,,,,,,,,,,,,,,,,,,,,,,,,,,,,,,,,,,,,,,,,,,,,reldom2_s007,001,2025-02-06_15h29.02.339,Where-B-Scan_AC,2022.2.5,None,
,,,,,,,,,,,,,,,,,,,,,,,,,,,,,,,,,,,,,,,,,,,,1,0,1,0,,,,,,,,,22.64857120800025,22.64857120800025,5,1.9906152080002357,,,,,,,,,,,,,,,,,,,,,,,,,,,,,,,,,,,,,,,,,,,,reldom2_s007,001,2025-02-06_15h29.02.339,Where-B-Scan_AC,2022.2.5,None,
,,,,,,,,,,,,,,,,,,,,,,,,,,,,,,,,,,,,,,,,,,,,2,0,2,0,,,,,,,,,24.653176207999877,24.653176207999877,5,1.9858838330001163,,,,,,,,,,,,,,,,,,,,,,,,,,,,,,,,,,,,,,,,,,,,reldom2_s007,001,2025-02-06_15h29.02.339,Where-B-Scan_AC,2022.2.5,None,
,,,,,,,,,,,,,,,,,,,,,,,,,,,,,,,,,,,,,,,,,,,,3,0,3,0,,,,,,,,,26.65720445800025,26.65720445800025,5,1.9809814579998601,,,,,,,,,,,,,,,,,,,,,,,,,,,,,,,,,,,,,,,,,,,,reldom2_s007,001,2025-02-06_15h29.02.339,Where-B-Scan_AC,2022.2.5,None,
0,0.0,None,fixation,stimulus/audwhere_stim/blank_white.png,stimulus/audwhere_stim/blank_white.png,stimulus/viswhere_stim/blank_white.png,stimulus/viswhere_stim/blank_white.png,stimulus/audwhere_stim/blank_white.png,stimulus/audwhere_stim/blank_white.png,stimulus/audwhere_stim/blank_white.png,stimulus/audwhere_stim/blank_white.png,0.0,0.0,0.0,0.0,0,0.0,0,0.0,0,0.0,0,0.0,0,0.0,0.0,0,0.0,0,0.0,0,0.0,0,0.0,0,0.0,0,0.0,0,0.0,0,0.0,16,,,,,0,0,0,0,,,,,,,,,28.829395167000257,28.829395167000257,28.829395167000257,28.829395167000257,28.829395167000257,28.829395167000257,28.829395167000257,28.829395167000257,28.738486249999912,28.829395167000257,28.829395167000257,28.829395167000257,28.738486249999912,28.829395167000257,28.829395167000257,28.829395167000257,28.829395167000257,28.829395167000257,28.829395167000257,28.829395167000257,28.829395167000257,28.829395167000257,28.829395167000257,28.829395167000257,28.829395167000257,28.829395167000257,28.829395167000257,28.788486249999913,28.829395167000257,28.829395167000257,28.829395167000257,28.788486249999913,28.829395167000257,28.829395167000257,28.829395167000257,28.829395167000257,28.829395167000257,34.01817137500029,34.01817137500029,45.06789437499992,None,0,,reldom2_s007,001,2025-02-06_15h29.02.339,Where-B-Scan_AC,2022.2.5,None,
1,First_Order,1.0,audwhere,stimulus/audwhere_stim/dummy.wav,stimulus/audwhere_stim/dummy.wav,stimulus/audwhere_stim/right_away_290h.wav,stimulus/audwhere_stim/right_toward_300h.wav,stimulus/audwhere_stim/blank_white.png,stimulus/audwhere_stim/direction_box.png,stimulus/audwhere_stim/direction_yes.png,stimulus/audwhere_stim/direction_no.png,None,Direction,None,Side,2,0.0,0,5.125,0,5.125,0,5.125,0,0.0,0.625,0,0.0,0,0.0,0,0.0,0,0.0,0,0.0,0,0.0,1,0.5,1,2.125,0,,,,,0,1,1,1,,,,,,,,,45.06789437499992,45.06789437499992,45.06789437499992,45.06789437499992,45.06789437499992,45.06789437499992,45.06789437499992,45.06789437499992,44.99073083300018,45.06789437499992,45.06789437499992,45.06789437499992,44.99073083300018,45.06789437499992,45.06789437499992,45.06789437499992,47.16535974999988,51.18901654199999,45.06789437499992,45.06789437499992,50.22982374999992,45.06789437499992,45.06789437499992,45.06789437499992,45.06789437499992,45.53459283300026,46.604417708000256,45.50547033366662,,47.16535974999988,48.236548917000164,47.135457124666814,,45.06789437499992,50.22982374999992,45.06789437499992,50.22982374999992,50.2708361670002,50.928127167000184,45.06789437499992,2,1,1.3924589160001233,reldom2_s007,001,2025-02-06_15h29.02.339,Where-B-Scan_AC,2022.2.5,None,
2,First_Order,1.0,audwhere,stimulus/audwhere_stim/dummy.wav,stimulus/audwhere_stim/dummy.wav,stimulus/audwhere_stim/left_toward_290h.wav,stimulus/audwhere_stim/right_toward_280h.wav,stimulus/audwhere_stim/blank_white.png,stimulus/audwhere_stim/side_box.png,stimulus/audwhere_stim/side_yes.png,stimulus/audwhere_stim/side_no.png,None,Side,None,Direction,2,0.0,0,5.125,0,5.125,0,5.125,0,0.0,0.625,0,0.0,0,0.0,0,0.0,0,0.0,0,0.0,0,0.0,1,0.5,1,2.125,0,,,,,0,2,2,2,,,,,,,,,51.18901654199999,51.18901654199999,51.18901654199999,51.18901654199999,51.18901654199999,51.18901654199999,51.18901654199999,51.18901654199999,51.10259737533318,51.18901654199999,51.18901654199999,51.18901654199999,51.10259737533318,51.18901654199999,51.18901654199999,51.18901654199999,53.27797408300012,57.308418542000254,51.18901654199999,51.18901654199999,56.3522069579999,51.18901654199999,51.18901654199999,51.18901654199999,51.18901654199999,51.65360099999998,52.721504000000095,51.62252054166653,,53.27797408300012,54.34822149999991,53.24810379166662,,51.18901654199999,56.3522069579999,51.18901654199999,56.3522069579999,56.393089000000145,57.05136304200005,51.18901654199999,2,1,1.7648462080001082,reldom2_s007,001,2025-02-06_15h29.02.339,Where-B-Scan_AC,2022.2.5,None,
3,First_Order,1.0,audwhere,stimulus/audwhere_stim/dummy.wav,stimulus/audwhere_stim/dummy.wav,stimulus/audwhere_stim/right_toward_280h.wav,stimulus/audwhere_stim/right_away_300h.wav,stimulus/audwhere_stim/blank_white.png,stimulus/audwhere_stim/direction_box.png,stimulus/audwhere_stim/direction_yes.png,stimulus/audwhere_stim/direction_no.png,None,Direction,None,Side,2,0.0,0,5.125,0,5.125,0,5.125,0,0.0,0.625,0,0.0,0,0.0,0,0.0,0,0.0,0,0.0,0,0.0,1,0.5,1,2.125,0,,,,,0,3,3,3,,,,,,,,,57.308418542000254,57.308418542000254,57.308418542000254,57.308418542000254,57.308418542000254,57.308418542000254,57.308418542000254,57.308418542000254,57.225915625333194,57.308418542000254,57.308418542000254,57.308418542000254,57.225915625333194,57.308418542000254,57.308418542000254,57.308418542000254,59.42054429200016,63.434757792000255,57.308418542000254,57.308418542000254,62.47733704200027,57.308418542000254,57.308418542000254,57.308418542000254,57.308418542000254,57.777852707999955,58.81178558300007,57.74787416666665,,59.42054429200016,60.45525533299997,59.39064637466687,,57.308418542000254,62.47733704200027,57.308418542000254,62.47733704200027,62.518329667000216,63.17717291700001,57.308418542000254,2,1,1.315663792000123,reldom2_s007,001,2025-02-06_15h29.02.339,Where-B-Scan_AC,2022.2.5,None,
4,First_Order,1.0,audwhere,stimulus/audwhere_stim/dummy.wav,stimulus/audwhere_stim/dummy.wav,stimulus/audwhere_stim/left_toward_270h.wav,stimulus/audwhere_stim/right_toward_300h.wav,stimulus/audwhere_stim/blank_white.png,stimulus/audwhere_stim/direction_box.png,stimulus/audwhere_stim/direction_yes.png,stimulus/audwhere_stim/direction_no.png,None,Direction,None,Direction,1,0.0,0,5.125,0,5.125,0,5.125,0,0.0,0.625,0,0.0,0,0.0,0,0.0,0,0.0,0,0.0,0,0.0,1,0.5,1,2.125,0,,,,,0,4,4,4,,,,,,,,,63.434757792000255,63.434757792000255,63.434757792000255,63.434757792000255,63.434757792000255,63.434757792000255,63.434757792000255,63.434757792000255,63.35208600033332,63.434757792000255,63.434757792000255,63.434757792000255,63.35208600033332,63.434757792000255,63.434757792000255,63.434757792000255,65.55140870800005,,63.434757792000255,63.434757792000255,68.60756316700008,63.434757792000255,63.434757792000255,63.434757792000255,63.434757792000255,63.90468937500009,64.9411338750001,63.87519804166665,,65.55140870800005,66.58528174999992,65.52172616666691,,63.434757792000255,68.60756316700008,63.434757792000255,68.60756316700008,68.65048754200006,69.31330829199987,63.434757792000255,1,1,1.1727660000001379,reldom2_s007,001,2025-02-06_15h29.02.339,Where-B-Scan_AC,2022.2.5,None,
0,0.0,None,fixation,stimulus/audwhere_stim/blank_white.png,stimulus/audwhere_stim/blank_white.png,stimulus/viswhere_stim/blank_white.png,stimulus/viswhere_stim/blank_white.png,stimulus/audwhere_stim/blank_white.png,stimulus/audwhere_stim/blank_white.png,stimulus/audwhere_stim/blank_white.png,stimulus/audwhere_stim/blank_white.png,0.0,0.0,0.0,0.0,0,0.0,0,0.0,0,0.0,0,0.0,0,0.0,0.0,0,0.0,0,0.0,0,0.0,0,0.0,0,0.0,0,0.0,0,0.0,0,0.0,10,,,,,0,5,5,5,,,,,,,,,69.54837025000006,69.54837025000006,69.54837025000006,69.54837025000006,69.54837025000006,69.54837025000006,69.54837025000006,69.54837025000006,69.4466416253332,69.54837025000006,69.54837025000006,69.54837025000006,69.4466416253332,69.54837025000006,69.54837025000006,69.54837025000006,69.54837025000006,69.54837025000006,69.54837025000006,69.54837025000006,69.54837025000006,69.54837025000006,69.54837025000006,69.54837025000006,69.54837025000006,69.54837025000006,69.54837025000006,69.49664162533321,69.54837025000006,69.54837025000006,69.54837025000006,69.49664162533321,69.54837025000006,69.54837025000006,69.54837025000006,69.54837025000006,69.54837025000006,74.73544520799987,74.73544520799987,79.69252125000003,None,0,,reldom2_s007,001,2025-02-06_15h29.02.339,Where-B-Scan_AC,2022.2.5,None,
5,Second_Order,1.0,audwhere,stimulus/audwhere_stim/right_toward_300h.wav,stimulus/audwhere_stim/left_toward_280h.wav,stimulus/audwhere_stim/right_toward_280h.wav,stimulus/audwhere_stim/right_away_280h.wav,stimulus/audwhere_stim/match_blank.png,stimulus/audwhere_stim/match_box.png,stimulus/audwhere_stim/match_yes.png,stimulus/audwhere_stim/match_no.png,2.0,Match,Direction,Side,2,5.125,0,5.125,0,5.125,0,5.125,0,0.75,0.75,0,0.0,0,0.0,0,0.0,0,0.0,1,0.5,1,2.125,1,0.5,1,2.125,0,,,,,0,6,6,6,,,,,,,,,79.69252125000003,84.80699891699987,79.69252125000003,79.69252125000003,79.69252125000003,79.69252125000003,80.14467749999994,81.14305404200013,80.15737454166653,81.15133854199985,81.76570562500001,82.76333079200003,81.77768645866651,82.77210204199991,84.80699891699987,85.63886929199998,87.737482,91.64995708300012,85.63886929199998,85.63886929199998,90.830286333,85.63886929199998,85.63886929199998,85.63886929199998,85.63886929199998,86.10513291699999,87.17862033300025,86.07501204166671,,87.737482,88.76926779199994,87.70730574966662,,85.63886929199998,90.830286333,85.63886929199998,90.830286333,90.830286333,,85.63886929199998,2,1,1.5093262489999688,reldom2_s007,001,2025-02-06_15h29.02.339,Where-B-Scan_AC,2022.2.5,None,
6,Second_Order,1.0,audwhere,stimulus/audwhere_stim/right_toward_270h.wav,stimulus/audwhere_stim/right_away_290h.wav,stimulus/audwhere_stim/left_toward_300h.wav,stimulus/audwhere_stim/left_away_290h.wav,stimulus/audwhere_stim/match_blank.png,stimulus/audwhere_stim/match_box.png,stimulus/audwhere_stim/match_yes.png,stimulus/audwhere_stim/match_no.png,1.0,Match,Side,Side,1,5.125,0,5.125,0,5.125,0,5.125,0,0.625,0.625,0,0.0,0,0.0,0,0.0,0,0.0,1,0.5,1,2.125,1,0.5,1,2.125,0,,,,,0,7,7,7,,,,,,,,,91.64995708300012,96.76667508299988,91.64995708300012,91.64995708300012,91.64995708300012,91.64995708300012,92.10593449999988,93.10379550000016,92.11840549966679,93.11176862499997,93.72692600000028,94.72403904200019,93.73884191666663,94.7320533330003,96.76667508299988,97.47810466700003,99.57000954200021,,97.47810466700003,97.47810466700003,102.6520565830001,97.47810466700003,97.47810466700003,97.47810466700003,97.47810466700003,97.94272583300017,99.01178012499986,97.91268641666672,,99.57000954200021,100.59912279199989,99.5394420416667,,97.47810466700003,102.6520565830001,97.47810466700003,102.6520565830001,102.69372974999987,103.34959720799998,97.47810466700003,1,1,1.0922294580000198,reldom2_s007,001,2025-02-06_15h29.02.339,Where-B-Scan_AC,2022.2.5,None,
0,0.0,None,fixation,stimulus/audwhere_stim/blank_white.png,stimulus/audwhere_stim/blank_white.png,stimulus/viswhere_stim/blank_white.png,stimulus/viswhere_stim/blank_white.png,stimulus/audwhere_stim/blank_white.png,stimulus/audwhere_stim/blank_white.png,stimulus/audwhere_stim/blank_white.png,stimulus/audwhere_stim/blank_white.png,0.0,0.0,0.0,0.0,0,0.0,0,0.0,0,0.0,0,0.0,0,0.0,0.0,0,0.0,0,0.0,0,0.0,0,0.0,0,0.0,0,0.0,0,0.0,0,0.0,9,,,,,0,8,8,8,,,,,,,,,103.58458337499997,103.58458337499997,103.58458337499997,103.58458337499997,103.58458337499997,103.58458337499997,103.58458337499997,103.58458337499997,103.4829305413333,103.58458337499997,103.58458337499997,103.58458337499997,103.4829305413333,103.58458337499997,103.58458337499997,103.58458337499997,103.58458337499997,103.58458337499997,103.58458337499997,103.58458337499997,103.58458337499997,103.58458337499997,103.58458337499997,103.58458337499997,103.58458337499997,103.58458337499997,103.58458337499997,103.53293054133331,103.58458337499997,103.58458337499997,103.58458337499997,103.53293054133331,103.58458337499997,103.58458337499997,103.58458337499997,103.58458337499997,103.58458337499997,108.79634079200014,108.79634079200014,112.86380858300026,None,0,,reldom2_s007,001,2025-02-06_15h29.02.339,Where-B-Scan_AC,2022.2.5,None,
7,First_Order,2.0,audwhere,stimulus/audwhere_stim/dummy.wav,stimulus/audwhere_stim/dummy.wav,stimulus/audwhere_stim/left_toward_270h.wav,stimulus/audwhere_stim/right_toward_270h.wav,stimulus/audwhere_stim/blank_white.png,stimulus/audwhere_stim/direction_box.png,stimulus/audwhere_stim/direction_yes.png,stimulus/audwhere_stim/direction_no.png,None,Direction,None,Direction,1,0.0,0,5.125,0,5.125,0,5.125,0,0.0,0.625,0,0.0,0,0.0,0,0.0,0,0.0,0,0.0,0,0.0,1,0.5,1,2.125,0,,,,,0,9,9,9,,,,,,,,,112.86380858300026,112.86380858300026,112.86380858300026,112.86380858300026,112.86380858300026,112.86380858300026,112.86380858300026,112.86380858300026,112.78634429166657,112.86380858300026,112.86380858300026,112.86380858300026,112.78634429166657,112.86380858300026,112.86380858300026,112.86380858300026,114.94503287499992,118.98308716700012,112.86380858300026,112.86380858300026,118.06040737500007,112.86380858300026,112.86380858300026,112.86380858300026,112.86380858300026,113.33556483300026,114.37782675000017,113.30481429166663,,114.94503287499992,115.98348050000004,114.91441420866683,,112.86380858300026,118.06040737500007,112.86380858300026,118.06040737500007,118.06040737500007,118.72508212499997,112.86380858300026,1,1,1.633165290999841,reldom2_s007,001,2025-02-06_15h29.02.339,Where-B-Scan_AC,2022.2.5,None,
8,First_Order,2.0,audwhere,stimulus/audwhere_stim/dummy.wav,stimulus/audwhere_stim/dummy.wav,stimulus/audwhere_stim/left_toward_280h.wav,stimulus/audwhere_stim/right_toward_290h.wav,stimulus/audwhere_stim/blank_white.png,stimulus/audwhere_stim/side_box.png,stimulus/audwhere_stim/side_yes.png,stimulus/audwhere_stim/side_no.png,None,Side,None,Direction,2,0.0,0,5.125,0,5.125,0,5.125,0,0.0,0.625,0,0.0,0,0.0,0,0.0,0,0.0,0,0.0,0,0.0,1,0.5,1,2.125,0,,,,,0,10,10,10,,,,,,,,,118.98308716700012,118.98308716700012,118.98308716700012,118.98308716700012,118.98308716700012,118.98308716700012,118.98308716700012,118.98308716700012,118.89996195833339,118.98308716700012,118.98308716700012,118.98308716700012,118.89996195833339,118.98308716700012,118.98308716700012,118.98308716700012,121.09844250000015,125.115532583,118.98308716700012,118.98308716700012,124.15331354199998,118.98308716700012,118.98308716700012,118.98308716700012,118.98308716700012,119.45271349999985,120.48719870800005,119.42204512466675,,121.09844250000015,122.13461687500012,121.06782533366665,,118.98308716700012,124.15331354199998,118.98308716700012,124.15331354199998,124.1945183329999,124.85609075000002,118.98308716700012,2,1,2.127450374000091,reldom2_s007,001,2025-02-06_15h29.02.339,Where-B-Scan_AC,2022.2.5,None,
9,First_Order,2.0,audwhere,stimulus/audwhere_stim/dummy.wav,stimulus/audwhere_stim/dummy.wav,stimulus/audwhere_stim/left_away_270h.wav,stimulus/audwhere_stim/left_toward_290h.wav,stimulus/audwhere_stim/blank_white.png,stimulus/audwhere_stim/side_box.png,stimulus/audwhere_stim/side_yes.png,stimulus/audwhere_stim/side_no.png,None,Side,None,Side,1,0.0,0,5.125,0,5.125,0,5.125,0,0.0,0.625,0,0.0,0,0.0,0,0.0,0,0.0,0,0.0,0,0.0,1,0.5,1,2.125,0,,,,,0,11,11,11,,,,,,,,,125.115532583,125.115532583,125.115532583,125.115532583,125.115532583,125.115532583,125.115532583,125.115532583,125.0308704583332,125.115532583,125.115532583,125.115532583,125.0308704583332,125.115532583,125.115532583,125.115532583,127.1874868330001,,125.115532583,125.115532583,130.2896209999999,125.115532583,125.115532583,125.115532583,125.115532583,125.58718658299995,126.62218258300027,125.55679949966658,,127.1874868330001,128.2229205829999,127.15687241666662,,125.115532583,130.2896209999999,125.115532583,130.2896209999999,130.33124266699997,130.9956712500002,125.115532583,1,1,2.128773583000111,reldom2_s007,001,2025-02-06_15h29.02.339,Where-B-Scan_AC,2022.2.5,None,
10,First_Order,2.0,audwhere,stimulus/audwhere_stim/dummy.wav,stimulus/audwhere_stim/dummy.wav,stimulus/audwhere_stim/right_away_290h.wav,stimulus/audwhere_stim/right_toward_290h.wav,stimulus/audwhere_stim/blank_white.png,stimulus/audwhere_stim/side_box.png,stimulus/audwhere_stim/side_yes.png,stimulus/audwhere_stim/side_no.png,None,Side,None,Side,1,0.0,0,5.125,0,5.125,0,5.125,0,0.0,0.625,0,0.0,0,0.0,0,0.0,0,0.0,0,0.0,0,0.0,1,0.5,1,2.125,0,,,,,0,12,12,12,,,,,,,,,131.21191104199988,131.21191104199988,131.21191104199988,131.21191104199988,131.21191104199988,131.21191104199988,131.21191104199988,131.21191104199988,131.12900458333357,131.21191104199988,131.21191104199988,131.21191104199988,131.12900458333357,131.21191104199988,131.21191104199988,131.21191104199988,133.283152083,,131.21191104199988,131.21191104199988,136.39027320800005,131.21191104199988,131.21191104199988,131.21191104199988,131.21191104199988,131.6827585420001,132.71980662500027,131.65221729166686,,133.283152083,134.32185479200007,133.2520323336669,,131.21191104199988,136.39027320800005,131.21191104199988,136.39027320800005,136.43164670800024,137.09692537499996,131.21191104199988,1,1,1.407475249000072,reldom2_s007,001,2025-02-06_15h29.02.339,Where-B-Scan_AC,2022.2.5,None,
0,0.0,None,fixation,stimulus/audwhere_stim/blank_white.png,stimulus/audwhere_stim/blank_white.png,stimulus/viswhere_stim/blank_white.png,stimulus/viswhere_stim/blank_white.png,stimulus/audwhere_stim/blank_white.png,stimulus/audwhere_stim/blank_white.png,stimulus/audwhere_stim/blank_white.png,stimulus/audwhere_stim/blank_white.png,0.0,0.0,0.0,0.0,0,0.0,0,0.0,0,0.0,0,0.0,0,0.0,0.0,0,0.0,0,0.0,0,0.0,0,0.0,0,0.0,0,0.0,0,0.0,0,0.0,9,,,,,0,13,13,13,,,,,,,,,137.33413766700005,137.33413766700005,137.33413766700005,137.33413766700005,137.33413766700005,137.33413766700005,137.33413766700005,137.33413766700005,137.2302587083333,137.33413766700005,137.33413766700005,137.33413766700005,137.2302587083333,137.33413766700005,137.33413766700005,137.33413766700005,137.33413766700005,137.33413766700005,137.33413766700005,137.33413766700005,137.33413766700005,137.33413766700005,137.33413766700005,137.33413766700005,137.33413766700005,137.33413766700005,137.33413766700005,137.2802587083333,137.33413766700005,137.33413766700005,137.33413766700005,137.2802587083333,137.33413766700005,137.33413766700005,137.33413766700005,137.33413766700005,137.33413766700005,142.54179883300003,142.54179883300003,146.48646725000026,None,0,,reldom2_s007,001,2025-02-06_15h29.02.339,Where-B-Scan_AC,2022.2.5,None,
11,Second_Order,2.0,audwhere,stimulus/audwhere_stim/left_toward_280h.wav,stimulus/audwhere_stim/left_away_290h.wav,stimulus/audwhere_stim/left_away_290h.wav,stimulus/audwhere_stim/right_away_280h.wav,stimulus/audwhere_stim/match_blank.png,stimulus/audwhere_stim/match_box.png,stimulus/audwhere_stim/match_yes.png,stimulus/audwhere_stim/match_no.png,2.0,Match,Side,Direction,2,5.125,0,5.125,0,5.125,0,5.125,0,0.75,0.75,0,0.0,0,0.0,0,0.0,0,0.0,1,0.5,1,2.125,1,0.5,1,2.125,0,,,,,0,14,14,14,,,,,,,,,146.48646725000026,151.6106328750002,146.48646725000026,146.48646725000026,146.48646725000026,146.48646725000026,146.94471783300014,147.93845150000016,146.94802333366695,147.93845150000016,148.56986629199992,149.56743754199988,148.58193449966691,149.575273208,151.6106328750002,152.4449490420002,154.50929916699988,,152.4449490420002,152.4449490420002,157.61256841700015,152.4449490420002,152.4449490420002,152.4449490420002,152.4449490420002,152.91355854199992,153.94483183300008,152.8836551666666,,154.50929916699988,155.54910604199995,154.4786439166667,,152.4449490420002,157.61256841700015,152.4449490420002,157.61256841700015,157.65398970800015,,152.4449490420002,2,1,0.9364077489999545,reldom2_s007,001,2025-02-06_15h29.02.339,Where-B-Scan_AC,2022.2.5,None,
12,Second_Order,2.0,audwhere,stimulus/audwhere_stim/left_away_270h.wav,stimulus/audwhere_stim/left_toward_280h.wav,stimulus/audwhere_stim/right_away_280h.wav,stimulus/audwhere_stim/right_toward_300h.wav,stimulus/audwhere_stim/match_blank.png,stimulus/audwhere_stim/match_box.png,stimulus/audwhere_stim/match_yes.png,stimulus/audwhere_stim/match_no.png,1.0,Match,Side,Side,1,5.125,0,5.125,0,5.125,0,5.125,0,0.625,0.625,0,0.0,0,0.0,0,0.0,0,0.0,1,0.5,1,2.125,1,0.5,1,2.125,0,,,,,0,15,15,15,,,,,,,,,158.43594766700016,163.5543035830001,158.43594766700016,158.43594766700016,158.43594766700016,158.43594766700016,158.89296054199986,159.89131212500024,158.9059162086667,159.90139475000024,160.51405408300025,161.51143870800024,160.5261588746669,161.51943445799998,163.5543035830001,164.26599987500003,166.36803429200017,170.39839179199998,164.26599987500003,164.26599987500003,169.4185966670002,164.26599987500003,164.26599987500003,164.26599987500003,164.26599987500003,164.7335136669999,165.8072010420001,164.70303141666662,,166.36803429200017,167.40482658300016,166.33741395866653,,164.26599987500003,169.4185966670002,164.26599987500003,169.4185966670002,169.46022437500005,170.1198005000001,164.26599987500003,1,1,0.9993507080002928,reldom2_s007,001,2025-02-06_15h29.02.339,Where-B-Scan_AC,2022.2.5,None,
0,0.0,None,fixation,stimulus/audwhere_stim/blank_white.png,stimulus/audwhere_stim/blank_white.png,stimulus/viswhere_stim/blank_white.png,stimulus/viswhere_stim/blank_white.png,stimulus/audwhere_stim/blank_white.png,stimulus/audwhere_stim/blank_white.png,stimulus/audwhere_stim/blank_white.png,stimulus/audwhere_stim/blank_white.png,0.0,0.0,0.0,0.0,0,0.0,0,0.0,0,0.0,0,0.0,0,0.0,0.0,0,0.0,0,0.0,0,0.0,0,0.0,0,0.0,0,0.0,0,0.0,0,0.0,8,,,,,0,16,16,16,,,,,,,,,170.39839179199998,170.39839179199998,170.39839179199998,170.39839179199998,170.39839179199998,170.39839179199998,170.39839179199998,170.39839179199998,170.29440891633354,170.39839179199998,170.39839179199998,170.39839179199998,170.29440891633354,170.39839179199998,170.39839179199998,170.39839179199998,170.39839179199998,170.39839179199998,170.39839179199998,170.39839179199998,170.39839179199998,170.39839179199998,170.39839179199998,170.39839179199998,170.39839179199998,170.39839179199998,170.39839179199998,170.34440891633352,170.39839179199998,170.39839179199998,170.39839179199998,170.34440891633352,170.39839179199998,170.39839179199998,170.39839179199998,170.39839179199998,170.39839179199998,175.58493229199985,175.58493229199985,178.58659258299986,None,0,,reldom2_s007,001,2025-02-06_15h29.02.339,Where-B-Scan_AC,2022.2.5,None,
13,First_Order,3.0,viswhere,stimulus/viswhere_stim/blank_white.png,stimulus/viswhere_stim/blank_white.png,stimulus/viswhere_stim/150-deg_dot-left_seagreen.png,stimulus/viswhere_stim/150-deg_dot-right_royalblue.png,stimulus/viswhere_stim/blank_white.png,stimulus/viswhere_stim/line_box.png,stimulus/viswhere_stim/line_yes.png,stimulus/viswhere_stim/line_no.png,None,Line,None,Line,1,0.0,0,5.125,0,5.125,0,5.125,0,0.0,0.625,0,0.0,0,0.0,1,0.5,1,2.125,0,0.0,0,0.0,0,0.0,0,0.0,0,,,,,0,17,17,17,,,,,,,,,178.58659258299986,178.58659258299986,178.58659258299986,178.58659258299986,178.58659258299986,178.58659258299986,178.58659258299986,178.58659258299986,178.56237087466678,178.58659258299986,178.58659258299986,178.58659258299986,178.56237087466678,178.58659258299986,178.58659258299986,178.58659258299986,180.69190470800004,184.64694416700013,178.58659258299986,178.58659258299986,183.72911324999995,179.06121004199986,180.08267916700015,180.69190470800004,181.6983579580001,178.58659258299986,178.58659258299986,178.57903754133343,178.58659258299986,178.58659258299986,178.58659258299986,178.57903754133343,178.58659258299986,178.58659258299986,183.72911324999995,178.58659258299986,183.72911324999995,183.81499962499993,184.45003491700027,178.58659258299986,2,0,1.0750311660003717,reldom2_s007,001,2025-02-06_15h29.02.339,Where-B-Scan_AC,2022.2.5,None,
14,First_Order,3.0,viswhere,stimulus/viswhere_stim/blank_white.png,stimulus/viswhere_stim/blank_white.png,stimulus/viswhere_stim/90-deg_dot-right_cyan.png,stimulus/viswhere_stim/90-deg_dot-left_turquoise.png,stimulus/viswhere_stim/blank_white.png,stimulus/viswhere_stim/line_box.png,stimulus/viswhere_stim/line_yes.png,stimulus/viswhere_stim/line_no.png,None,Line,None,Line,1,0.0,0,5.125,0,5.125,0,5.125,0,0.0,0.625,0,0.0,0,0.0,1,0.5,1,2.125,0,0.0,0,0.0,0,0.0,0,0.0,0,,,,,0,18,18,18,,,,,,,,,184.64694416700013,184.64694416700013,184.64694416700013,184.64694416700013,184.64694416700013,184.64694416700013,184.64694416700013,184.64694416700013,184.62236775033338,184.64694416700013,184.64694416700013,184.64694416700013,184.62236775033338,184.64694416700013,184.64694416700013,184.64694416700013,186.75351633299988,190.71462429200028,184.64694416700013,184.64694416700013,189.783869417,185.13474466700018,186.14898825,186.75351633299988,187.77402391700025,184.64694416700013,184.64694416700013,184.63903441700006,184.64694416700013,184.64694416700013,184.64694416700013,184.63903441700006,184.64694416700013,184.64694416700013,189.783869417,184.64694416700013,189.783869417,189.8678634580001,190.49440262500002,184.64694416700013,1,1,0.6378647500000625,reldom2_s007,001,2025-02-06_15h29.02.339,Where-B-Scan_AC,2022.2.5,None,
15,First_Order,3.0,viswhere,stimulus/viswhere_stim/blank_white.png,stimulus/viswhere_stim/blank_white.png,stimulus/viswhere_stim/60-deg_dot-right_salmon.png,stimulus/viswhere_stim/150-deg_dot-right_turquoise.png,stimulus/viswhere_stim/blank_white.png,stimulus/viswhere_stim/dot_box.png,stimulus/viswhere_stim/dot_yes.png,stimulus/viswhere_stim/dot_no.png,None,Dot,None,Dot,1,0.0,0,5.125,0,5.125,0,5.125,0,0.0,0.625,0,0.0,0,0.0,1,0.5,1,2.125,0,0.0,0,0.0,0,0.0,0,0.0,0,,,,,0,19,19,19,,,,,,,,,190.71462429200028,190.71462429200028,190.71462429200028,190.71462429200028,190.71462429200028,190.71462429200028,190.71462429200028,190.71462429200028,190.6891233333334,190.71462429200028,190.71462429200028,190.71462429200028,190.6891233333334,190.71462429200028,190.71462429200028,190.71462429200028,192.82209308300025,196.77946758300004,190.71462429200028,190.71462429200028,195.85689737500024,191.20226374999993,192.21708508300026,192.82209308300025,193.82464708299995,190.71462429200028,190.71462429200028,190.7057900000001,190.71462429200028,190.71462429200028,190.71462429200028,190.7057900000001,190.71462429200028,190.71462429200028,195.85689737500024,190.71462429200028,195.85689737500024,195.94020041700014,196.57211395800005,190.71462429200028,1,1,0.6751932080001097,reldom2_s007,001,2025-02-06_15h29.02.339,Where-B-Scan_AC,2022.2.5,None,
16,First_Order,3.0,viswhere,stimulus/viswhere_stim/blank_white.png,stimulus/viswhere_stim/blank_white.png,stimulus/viswhere_stim/120-deg_dot-left_peru.png,stimulus/viswhere_stim/120-deg_dot-right_royalblue.png,stimulus/viswhere_stim/blank_white.png,stimulus/viswhere_stim/dot_box.png,stimulus/viswhere_stim/dot_yes.png,stimulus/viswhere_stim/dot_no.png,None,Dot,None,Line,2,0.0,0,5.125,0,5.125,0,5.125,0,0.0,0.625,0,0.0,0,0.0,1,0.5,1,2.125,0,0.0,0,0.0,0,0.0,0,0.0,0,,,,,0,20,20,20,,,,,,,,,196.77946758300004,196.77946758300004,196.77946758300004,196.77946758300004,196.77946758300004,196.77946758300004,196.77946758300004,196.77946758300004,196.75575337533323,196.77946758300004,196.77946758300004,196.77946758300004,196.75575337533323,196.77946758300004,196.77946758300004,196.77946758300004,198.88938070799986,202.93089845800023,196.77946758300004,196.77946758300004,201.90417262500023,197.2635945420002,198.26952141699985,198.88938070799986,199.90502241700005,196.77946758300004,196.77946758300004,196.7724200419999,196.77946758300004,196.77946758300004,196.77946758300004,196.7724200419999,196.77946758300004,196.77946758300004,201.90417262500023,196.77946758300004,201.90417262500023,202.00133749999986,202.62730712500024,196.77946758300004,2,1,0.661041374999968,reldom2_s007,001,2025-02-06_15h29.02.339,Where-B-Scan_AC,2022.2.5,None,
0,0.0,None,fixation,stimulus/audwhere_stim/blank_white.png,stimulus/audwhere_stim/blank_white.png,stimulus/viswhere_stim/blank_white.png,stimulus/viswhere_stim/blank_white.png,stimulus/audwhere_stim/blank_white.png,stimulus/audwhere_stim/blank_white.png,stimulus/audwhere_stim/blank_white.png,stimulus/audwhere_stim/blank_white.png,0.0,0.0,0.0,0.0,0,0.0,0,0.0,0,0.0,0,0.0,0,0.0,0.0,0,0.0,0,0.0,0,0.0,0,0.0,0,0.0,0,0.0,0,0.0,0,0.0,10,,,,,0,21,21,21,,,,,,,,,202.93089845800023,202.93089845800023,202.93089845800023,202.93089845800023,202.93089845800023,202.93089845800023,202.93089845800023,202.93089845800023,202.82511483333323,202.93089845800023,202.93089845800023,202.93089845800023,202.82511483333323,202.93089845800023,202.93089845800023,202.93089845800023,202.93089845800023,202.93089845800023,202.93089845800023,202.93089845800023,202.93089845800023,202.93089845800023,202.93089845800023,202.93089845800023,202.93089845800023,202.93089845800023,202.93089845800023,202.87511483333324,202.93089845800023,202.93089845800023,202.93089845800023,202.87511483333324,202.93089845800023,202.93089845800023,202.93089845800023,202.93089845800023,202.93089845800023,208.15103399999998,208.15103399999998,213.05563862500003,None,0,,reldom2_s007,001,2025-02-06_15h29.02.339,Where-B-Scan_AC,2022.2.5,None,
17,Second_Order,3.0,viswhere,stimulus/viswhere_stim/90-deg_dot-left_lightsseagreen.png,stimulus/viswhere_stim/90-deg_dot-right_lightsseagreen.png,stimulus/viswhere_stim/120-deg_dot-right_cyan.png,stimulus/viswhere_stim/60-deg_dot-right_royalblue.png,stimulus/audwhere_stim/match_blank.png,stimulus/audwhere_stim/match_box.png,stimulus/audwhere_stim/match_yes.png,stimulus/audwhere_stim/match_no.png,2.0,Match,Line,Dot,2,5.125,0,5.125,0,5.125,0,5.125,0,0.75,0.75,1,0.5,1,2.125,1,0.5,1,2.125,0,0.0,0,0.0,0,0.0,0,0.0,0,,,,,0,22,22,22,,,,,,,,,213.05563862500003,218.17594308300022,213.5357757920001,214.53446574999998,215.156554917,216.15447704200005,213.05563862500003,213.05563862500003,213.06699295833337,213.05563862500003,213.05563862500003,213.05563862500003,213.06699295833337,213.05563862500003,218.17594308300022,218.95785375000014,221.04612825000004,224.91205137499992,218.95785375000014,218.95785375000014,224.0967162500001,219.42607350000026,220.44084729199994,221.04612825000004,222.0667238330002,218.95785375000014,218.95785375000014,218.94431895833355,218.95785375000014,218.95785375000014,218.95785375000014,218.94431895833355,218.95785375000014,218.95785375000014,224.0967162500001,218.95785375000014,224.0967162500001,224.17211799999995,224.94984012500026,218.95785375000014,2,1,1.3197547079998913,reldom2_s007,001,2025-02-06_15h29.02.339,Where-B-Scan_AC,2022.2.5,None,
18,Second_Order,3.0,viswhere,stimulus/viswhere_stim/90-deg_dot-left_lightsseagreen.png,stimulus/viswhere_stim/60-deg_dot-left_mediumslateblue.png,stimulus/viswhere_stim/60-deg_dot-right_lightsseagreen.png,stimulus/viswhere_stim/30-deg_dot-right_goldenrod.png,stimulus/audwhere_stim/match_blank.png,stimulus/audwhere_stim/match_box.png,stimulus/audwhere_stim/match_yes.png,stimulus/audwhere_stim/match_no.png,1.0,Match,Dot,Dot,1,5.125,0,5.125,0,5.125,0,5.125,0,0.625,0.625,1,0.5,1,2.125,1,0.5,1,2.125,0,0.0,0,0.0,0,0.0,0,0.0,0,,,,,0,23,23,23,,,,,,,,,224.94984012500026,230.0740326250002,225.42994233299987,226.42798995800013,227.0513232080002,228.0482847080002,224.94984012500026,224.94984012500026,224.96205137499993,224.94984012500026,224.94984012500026,224.94984012500026,224.96205137499993,224.94984012500026,230.0740326250002,230.72956650000015,232.83288520799988,236.86982916700026,230.72956650000015,230.72956650000015,235.86571541700005,231.19650249999995,232.20883004200005,232.83288520799988,233.85306750000018,230.72956650000015,230.72956650000015,230.72166804133354,230.72956650000015,230.72956650000015,230.72956650000015,230.72166804133354,230.72956650000015,230.72956650000015,235.86571541700005,230.72956650000015,235.86571541700005,235.96595862499998,236.5949680829999,230.72956650000015,1,1,0.8301758329998847,reldom2_s007,001,2025-02-06_15h29.02.339,Where-B-Scan_AC,2022.2.5,None,
0,0.0,None,fixation,stimulus/audwhere_stim/blank_white.png,stimulus/audwhere_stim/blank_white.png,stimulus/viswhere_stim/blank_white.png,stimulus/viswhere_stim/blank_white.png,stimulus/audwhere_stim/blank_white.png,stimulus/audwhere_stim/blank_white.png,stimulus/audwhere_stim/blank_white.png,stimulus/audwhere_stim/blank_white.png,0.0,0.0,0.0,0.0,0,0.0,0,0.0,0,0.0,0,0.0,0,0.0,0.0,0,0.0,0,0.0,0,0.0,0,0.0,0,0.0,0,0.0,0,0.0,0,0.0,9,,,,,0,24,24,24,,,,,,,,,236.86982916700026,236.86982916700026,236.86982916700026,236.86982916700026,236.86982916700026,236.86982916700026,236.86982916700026,236.86982916700026,236.76513645833333,236.86982916700026,236.86982916700026,236.86982916700026,236.76513645833333,236.86982916700026,236.86982916700026,236.86982916700026,236.86982916700026,236.86982916700026,236.86982916700026,236.86982916700026,236.86982916700026,236.86982916700026,236.86982916700026,236.86982916700026,236.86982916700026,236.86982916700026,236.86982916700026,236.81513645833334,236.86982916700026,236.86982916700026,236.86982916700026,236.81513645833334,236.86982916700026,236.86982916700026,236.86982916700026,236.86982916700026,236.86982916700026,242.07982654199986,242.07982654199986,246.0700965000001,None,0,,reldom2_s007,001,2025-02-06_15h29.02.339,Where-B-Scan_AC,2022.2.5,None,
19,First_Order,4.0,viswhere,stimulus/viswhere_stim/blank_white.png,stimulus/viswhere_stim/blank_white.png,stimulus/viswhere_stim/90-deg_dot-left_seagreen.png,stimulus/viswhere_stim/150-deg_dot-left_lightsseagreen.png,stimulus/viswhere_stim/blank_white.png,stimulus/viswhere_stim/dot_box.png,stimulus/viswhere_stim/dot_yes.png,stimulus/viswhere_stim/dot_no.png,None,Dot,None,Dot,1,0.0,0,5.125,0,5.125,0,5.125,0,0.0,0.625,0,0.0,0,0.0,1,0.5,1,2.125,0,0.0,0,0.0,0,0.0,0,0.0,0,,,,,0,25,25,25,,,,,,,,,246.0700965000001,246.0700965000001,246.0700965000001,246.0700965000001,246.0700965000001,246.0700965000001,246.0700965000001,246.0700965000001,246.0455675836667,246.0700965000001,246.0700965000001,246.0700965000001,246.0455675836667,246.0700965000001,246.0700965000001,246.0700965000001,248.18058579199987,252.12658795800007,246.0700965000001,246.0700965000001,251.2034251250002,246.53973050000013,247.55686008300017,248.18058579199987,249.18681608299994,246.0700965000001,246.0700965000001,246.06223425033335,246.0700965000001,246.0700965000001,246.0700965000001,246.06223425033335,246.0700965000001,246.0700965000001,251.2034251250002,246.0700965000001,251.2034251250002,251.28752125000028,251.92208683299987,246.0700965000001,1,1,0.6609492920001685,reldom2_s007,001,2025-02-06_15h29.02.339,Where-B-Scan_AC,2022.2.5,None,
20,First_Order,4.0,viswhere,stimulus/viswhere_stim/blank_white.png,stimulus/viswhere_stim/blank_white.png,stimulus/viswhere_stim/30-deg_dot-left_peru.png,stimulus/viswhere_stim/30-deg_dot-right_salmon.png,stimulus/viswhere_stim/blank_white.png,stimulus/viswhere_stim/dot_box.png,stimulus/viswhere_stim/dot_yes.png,stimulus/viswhere_stim/dot_no.png,None,Dot,None,Line,2,0.0,0,5.125,0,5.125,0,5.125,0,0.0,0.625,0,0.0,0,0.0,1,0.5,1,2.125,0,0.0,0,0.0,0,0.0,0,0.0,0,,,,,0,26,26,26,,,,,,,,,252.12658795800007,252.12658795800007,252.12658795800007,252.12658795800007,252.12658795800007,252.12658795800007,252.12658795800007,252.12658795800007,252.10293929133363,252.12658795800007,252.12658795800007,252.12658795800007,252.10293929133363,252.12658795800007,252.12658795800007,252.12658795800007,254.2422429170001,258.187924417,252.12658795800007,252.12658795800007,257.25835000000006,252.61208695799996,253.6231250830001,254.2422429170001,255.25919729199995,252.12658795800007,252.12658795800007,252.1196059580003,252.12658795800007,252.12658795800007,252.12658795800007,252.1196059580003,252.12658795800007,252.12658795800007,257.25835000000006,252.12658795800007,257.25835000000006,257.3429822500002,257.96883720799997,252.12658795800007,2,1,0.6904799580001963,reldom2_s007,001,2025-02-06_15h29.02.339,Where-B-Scan_AC,2022.2.5,None,
21,First_Order,4.0,viswhere,stimulus/viswhere_stim/blank_white.png,stimulus/viswhere_stim/blank_white.png,stimulus/viswhere_stim/60-deg_dot-left_lightsseagreen.png,stimulus/viswhere_stim/30-deg_dot-left_slateblue.png,stimulus/viswhere_stim/blank_white.png,stimulus/viswhere_stim/line_box.png,stimulus/viswhere_stim/line_yes.png,stimulus/viswhere_stim/line_no.png,None,Line,None,Dot,2,0.0,0,5.125,0,5.125,0,5.125,0,0.0,0.625,0,0.0,0,0.0,1,0.5,1,2.125,0,0.0,0,0.0,0,0.0,0,0.0,0,,,,,0,27,27,27,,,,,,,,,258.187924417,258.187924417,258.187924417,258.187924417,258.187924417,258.187924417,258.187924417,258.187924417,258.16430683333357,258.187924417,258.187924417,258.187924417,258.16430683333357,258.187924417,258.187924417,258.187924417,260.28876924999986,264.25485725,258.187924417,258.187924417,263.31249912500016,258.6770445000002,259.68777341700024,260.28876924999986,261.30729958300026,258.187924417,258.187924417,258.1809735000002,258.187924417,258.187924417,258.187924417,258.1809735000002,258.187924417,258.187924417,263.31249912500016,258.187924417,263.31249912500016,263.4094567920001,264.0356957500003,258.187924417,2,1,0.7404522910001106,reldom2_s007,001,2025-02-06_15h29.02.339,Where-B-Scan_AC,2022.2.5,None,
22,First_Order,4.0,viswhere,stimulus/viswhere_stim/blank_white.png,stimulus/viswhere_stim/blank_white.png,stimulus/viswhere_stim/120-deg_dot-right_peru.png,stimulus/viswhere_stim/150-deg_dot-right_peru.png,stimulus/viswhere_stim/blank_white.png,stimulus/viswhere_stim/line_box.png,stimulus/viswhere_stim/line_yes.png,stimulus/viswhere_stim/line_no.png,None,Line,None,Dot,2,0.0,0,5.125,0,5.125,0,5.125,0,0.0,0.625,0,0.0,0,0.0,1,0.5,1,2.125,0,0.0,0,0.0,0,0.0,0,0.0,0,,,,,0,28,28,28,,,,,,,,,264.25485725,264.25485725,264.25485725,264.25485725,264.25485725,264.25485725,264.25485725,264.25485725,264.2308982913335,264.25485725,264.25485725,264.25485725,264.2308982913335,264.25485725,264.25485725,264.25485725,266.3637939170003,270.3936623750001,264.25485725,264.25485725,269.3821467500002,264.74501958300016,265.760575667,266.3637939170003,267.36592870799996,264.25485725,264.25485725,264.24756495800017,264.25485725,264.25485725,264.25485725,264.24756495800017,264.25485725,264.25485725,269.3821467500002,264.25485725,269.3821467500002,269.47975641699986,270.111302625,264.25485725,2,1,1.9346917500001837,reldom2_s007,001,2025-02-06_15h29.02.339,Where-B-Scan_AC,2022.2.5,None,
0,0.0,None,fixation,stimulus/audwhere_stim/blank_white.png,stimulus/audwhere_stim/blank_white.png,stimulus/viswhere_stim/blank_white.png,stimulus/viswhere_stim/blank_white.png,stimulus/audwhere_stim/blank_white.png,stimulus/audwhere_stim/blank_white.png,stimulus/audwhere_stim/blank_white.png,stimulus/audwhere_stim/blank_white.png,0.0,0.0,0.0,0.0,0,0.0,0,0.0,0,0.0,0,0.0,0,0.0,0.0,0,0.0,0,0.0,0,0.0,0,0.0,0,0.0,0,0.0,0,0.0,0,0.0,10,,,,,0,29,29,29,,,,,,,,,270.3936623750001,270.3936623750001,270.3936623750001,270.3936623750001,270.3936623750001,270.3936623750001,270.3936623750001,270.3936623750001,270.2919220003335,270.3936623750001,270.3936623750001,270.3936623750001,270.2919220003335,270.3936623750001,270.3936623750001,270.3936623750001,270.3936623750001,270.3936623750001,270.3936623750001,270.3936623750001,270.3936623750001,270.3936623750001,270.3936623750001,270.3936623750001,270.3936623750001,270.3936623750001,270.3936623750001,270.3419220003335,270.3936623750001,270.3936623750001,270.3936623750001,270.3419220003335,270.3936623750001,270.3936623750001,270.3936623750001,270.3936623750001,270.3936623750001,275.62563316700016,275.62563316700016,280.5392173330001,None,0,,reldom2_s007,001,2025-02-06_15h29.02.339,Where-B-Scan_AC,2022.2.5,None,
23,Second_Order,4.0,viswhere,stimulus/viswhere_stim/60-deg_dot-right_peru.png,stimulus/viswhere_stim/60-deg_dot-left_royalblue.png,stimulus/viswhere_stim/90-deg_dot-left_slateblue.png,stimulus/viswhere_stim/90-deg_dot-right_royalblue.png,stimulus/audwhere_stim/match_blank.png,stimulus/audwhere_stim/match_box.png,stimulus/audwhere_stim/match_yes.png,stimulus/audwhere_stim/match_no.png,1.0,Match,Line,Line,1,5.125,0,5.125,0,5.125,0,5.125,0,0.75,0.75,1,0.5,1,2.125,1,0.5,1,2.125,0,0.0,0,0.0,0,0.0,0,0.0,0,,,,,0,30,30,30,,,,,,,,,280.5392173330001,285.65251854200005,281.0207756670002,282.01060766699993,282.64931754200006,283.64734983300013,280.5392173330001,280.5392173330001,280.5508322503334,280.5392173330001,280.5392173330001,280.5392173330001,280.5508322503334,280.5392173330001,285.65251854200005,286.42865125000026,288.52717674999985,292.41370837500017,286.42865125000026,286.42865125000026,291.55730729200013,286.9016863750003,287.92110137500003,288.52717674999985,289.5349902500002,286.42865125000026,286.42865125000026,286.42013545833333,286.42865125000026,286.42865125000026,286.42865125000026,286.42013545833333,286.42865125000026,286.42865125000026,291.55730729200013,286.42865125000026,291.55730729200013,291.641883667,292.41370837500017,286.42865125000026,1,1,0.6746309579998524,reldom2_s007,001,2025-02-06_15h29.02.339,Where-B-Scan_AC,2022.2.5,None,
24,Second_Order,4.0,viswhere,stimulus/viswhere_stim/120-deg_dot-left_peru.png,stimulus/viswhere_stim/120-deg_dot-right_peru.png,stimulus/viswhere_stim/30-deg_dot-right_peru.png,stimulus/viswhere_stim/30-deg_dot-left_lightsseagreen.png,stimulus/audwhere_stim/match_blank.png,stimulus/audwhere_stim/match_box.png,stimulus/audwhere_stim/match_yes.png,stimulus/audwhere_stim/match_no.png,1.0,Match,Line,Line,1,5.125,0,5.125,0,5.125,0,5.125,0,0.625,0.625,1,0.5,1,2.125,1,0.5,1,2.125,0,0.0,0,0.0,0,0.0,0,0.0,0,,,,,0,31,31,31,,,,,,,,,292.41370837500017,297.5302042500002,292.8978829580001,293.88688870800024,294.524322667,295.5208849579999,292.41370837500017,292.41370837500017,292.42643875000005,292.41370837500017,292.41370837500017,292.41370837500017,292.42643875000005,292.41370837500017,297.5302042500002,298.1863874579999,300.27277216699986,304.32294512499993,298.1863874579999,298.1863874579999,303.325484083,298.656685292,299.67121929199993,300.27277216699986,301.29176370799996,298.1863874579999,298.1863874579999,298.1770767503335,298.1863874579999,298.1863874579999,298.1863874579999,298.1770767503335,298.1863874579999,298.1863874579999,303.325484083,298.1863874579999,303.325484083,303.396344667,304.02269983299993,298.1863874579999,1,1,1.6611427909997474,reldom2_s007,001,2025-02-06_15h29.02.339,Where-B-Scan_AC,2022.2.5,None,
0,0.0,None,fixation,stimulus/audwhere_stim/blank_white.png,stimulus/audwhere_stim/blank_white.png,stimulus/viswhere_stim/blank_white.png,stimulus/viswhere_stim/blank_white.png,stimulus/audwhere_stim/blank_white.png,stimulus/audwhere_stim/blank_white.png,stimulus/audwhere_stim/blank_white.png,stimulus/audwhere_stim/blank_white.png,0.0,0.0,0.0,0.0,0,0.0,0,0.0,0,0.0,0,0.0,0,0.0,0.0,0,0.0,0,0.0,0,0.0,0,0.0,0,0.0,0,0.0,0,0.0,0,0.0,9,,,,,0,32,32,32,,,,,,,,,304.32294512499993,304.32294512499993,304.32294512499993,304.32294512499993,304.32294512499993,304.32294512499993,304.32294512499993,304.32294512499993,304.21757791633337,304.32294512499993,304.32294512499993,304.32294512499993,304.21757791633337,304.32294512499993,304.32294512499993,304.32294512499993,304.32294512499993,304.32294512499993,304.32294512499993,304.32294512499993,304.32294512499993,304.32294512499993,304.32294512499993,304.32294512499993,304.32294512499993,304.32294512499993,304.32294512499993,304.2675779163334,304.32294512499993,304.32294512499993,304.32294512499993,304.2675779163334,304.32294512499993,304.32294512499993,304.32294512499993,304.32294512499993,304.32294512499993,309.5387221250003,309.5387221250003,313.58447849999993,None,0,,reldom2_s007,001,2025-02-06_15h29.02.339,Where-B-Scan_AC,2022.2.5,None,
25,First_Order,5.0,audwhere,stimulus/audwhere_stim/dummy.wav,stimulus/audwhere_stim/dummy.wav,stimulus/audwhere_stim/right_toward_280h.wav,stimulus/audwhere_stim/right_away_290h.wav,stimulus/audwhere_stim/blank_white.png,stimulus/audwhere_stim/side_box.png,stimulus/audwhere_stim/side_yes.png,stimulus/audwhere_stim/side_no.png,None,Side,None,Side,1,0.0,0,5.125,0,5.125,0,5.125,0,0.0,0.625,0,0.0,0,0.0,0,0.0,0,0.0,0,0.0,0,0.0,1,0.5,1,2.125,0,,,,,0,33,33,33,,,,,,,,,313.58447849999993,313.58447849999993,313.58447849999993,313.58447849999993,313.58447849999993,313.58447849999993,313.58447849999993,313.58447849999993,313.5084123746666,313.58447849999993,313.58447849999993,313.58447849999993,313.5084123746666,313.58447849999993,313.58447849999993,313.58447849999993,315.662544583,,313.58447849999993,313.58447849999993,318.77645841699996,313.58447849999993,313.58447849999993,313.58447849999993,313.58447849999993,314.05720095800007,315.09678516700023,314.0261527496666,,315.662544583,316.7044431250001,315.6320831666669,,313.58447849999993,318.77645841699996,313.58447849999993,318.77645841699996,318.77645841699996,319.43900137499986,313.58447849999993,1,1,1.2124550000003183,reldom2_s007,001,2025-02-06_15h29.02.339,Where-B-Scan_AC,2022.2.5,None,
26,First_Order,5.0,audwhere,stimulus/audwhere_stim/dummy.wav,stimulus/audwhere_stim/dummy.wav,stimulus/audwhere_stim/right_toward_300h.wav,stimulus/audwhere_stim/left_toward_270h.wav,stimulus/audwhere_stim/blank_white.png,stimulus/audwhere_stim/direction_box.png,stimulus/audwhere_stim/direction_yes.png,stimulus/audwhere_stim/direction_no.png,None,Direction,None,Direction,1,0.0,0,5.125,0,5.125,0,5.125,0,0.0,0.625,0,0.0,0,0.0,0,0.0,0,0.0,0,0.0,0,0.0,1,0.5,1,2.125,0,,,,,0,34,34,34,,,,,,,,,319.69895666699995,319.69895666699995,319.69895666699995,319.69895666699995,319.69895666699995,319.69895666699995,319.69895666699995,319.69895666699995,319.6138036253334,319.69895666699995,319.69895666699995,319.69895666699995,319.6138036253334,319.69895666699995,319.69895666699995,319.69895666699995,321.78695933300014,,319.69895666699995,319.69895666699995,324.87987679200023,319.69895666699995,319.69895666699995,319.69895666699995,319.69895666699995,320.1739444580003,321.2186422499999,320.14289337466676,,321.78695933300014,322.8408961250002,321.7565502916666,322.7922605419999,319.69895666699995,324.87987679200023,319.69895666699995,324.87987679200023,324.92208225000013,325.5892036670002,319.69895666699995,1,1,1.0150811240000621,reldom2_s007,001,2025-02-06_15h29.02.339,Where-B-Scan_AC,2022.2.5,None,
27,First_Order,5.0,audwhere,stimulus/audwhere_stim/dummy.wav,stimulus/audwhere_stim/dummy.wav,stimulus/audwhere_stim/left_toward_290h.wav,stimulus/audwhere_stim/left_away_300h.wav,stimulus/audwhere_stim/blank_white.png,stimulus/audwhere_stim/direction_box.png,stimulus/audwhere_stim/direction_yes.png,stimulus/audwhere_stim/direction_no.png,None,Direction,None,Side,2,0.0,0,5.125,0,5.125,0,5.125,0,0.0,0.625,0,0.0,0,0.0,0,0.0,0,0.0,0,0.0,0,0.0,1,0.5,1,2.125,0,,,,,0,35,35,35,,,,,,,,,325.80701154200005,325.80701154200005,325.80701154200005,325.80701154200005,325.80701154200005,325.80701154200005,325.80701154200005,325.80701154200005,325.72253700033355,325.80701154200005,325.80701154200005,325.80701154200005,325.72253700033355,325.80701154200005,325.80701154200005,325.80701154200005,327.89449945800015,,325.80701154200005,325.80701154200005,330.9772374170002,325.80701154200005,325.80701154200005,325.80701154200005,325.80701154200005,326.2810302500002,327.3265029170002,326.2502627496667,,327.89449945800015,328.9400855419999,327.8632822916668,,325.80701154200005,330.9772374170002,325.80701154200005,330.9772374170002,331.01941516700026,331.6853105,325.80701154200005,2,1,1.189021498999864,reldom2_s007,001,2025-02-06_15h29.02.339,Where-B-Scan_AC,2022.2.5,None,
28,First_Order,5.0,audwhere,stimulus/audwhere_stim/dummy.wav,stimulus/audwhere_stim/dummy.wav,stimulus/audwhere_stim/right_away_300h.wav,stimulus/audwhere_stim/right_toward_290h.wav,stimulus/audwhere_stim/blank_white.png,stimulus/audwhere_stim/direction_box.png,stimulus/audwhere_stim/direction_yes.png,stimulus/audwhere_stim/direction_no.png,None,Direction,None,Side,2,0.0,0,5.125,0,5.125,0,5.125,0,0.0,0.625,0,0.0,0,0.0,0,0.0,0,0.0,0,0.0,0,0.0,1,0.5,1,2.125,0,,,,,0,36,36,36,,,,,,,,,331.9042911249999,331.9042911249999,331.9042911249999,331.9042911249999,331.9042911249999,331.9042911249999,331.9042911249999,331.9042911249999,331.81864383333334,331.9042911249999,331.9042911249999,331.9042911249999,331.81864383333334,331.9042911249999,331.9042911249999,331.9042911249999,333.99444374999985,,331.9042911249999,331.9042911249999,337.08679329200004,331.9042911249999,331.9042911249999,331.9042911249999,331.9042911249999,332.37997029200005,333.4261755000002,332.34920170866667,,333.99444374999985,335.04709608300027,333.9633978746667,334.9997538329999,331.9042911249999,337.08679329200004,331.9042911249999,337.08679329200004,337.1288090000003,337.794779542,331.9042911249999,2,1,1.540909458000442,reldom2_s007,001,2025-02-06_15h29.02.339,Where-B-Scan_AC,2022.2.5,None,
0,0.0,None,fixation,stimulus/audwhere_stim/blank_white.png,stimulus/audwhere_stim/blank_white.png,stimulus/viswhere_stim/blank_white.png,stimulus/viswhere_stim/blank_white.png,stimulus/audwhere_stim/blank_white.png,stimulus/audwhere_stim/blank_white.png,stimulus/audwhere_stim/blank_white.png,stimulus/audwhere_stim/blank_white.png,0.0,0.0,0.0,0.0,0,0.0,0,0.0,0,0.0,0,0.0,0,0.0,0.0,0,0.0,0,0.0,0,0.0,0,0.0,0,0.0,0,0.0,0,0.0,0,0.0,10,,,,,0,37,37,37,,,,,,,,,338.0340899580001,338.0340899580001,338.0340899580001,338.0340899580001,338.0340899580001,338.0340899580001,338.0340899580001,338.0340899580001,337.92811287533334,338.0340899580001,338.0340899580001,338.0340899580001,337.92811287533334,338.0340899580001,338.0340899580001,338.0340899580001,338.0340899580001,338.0340899580001,338.0340899580001,338.0340899580001,338.0340899580001,338.0340899580001,338.0340899580001,338.0340899580001,338.0340899580001,338.0340899580001,338.0340899580001,337.994779542,338.0340899580001,338.0340899580001,338.0340899580001,337.994779542,338.0340899580001,338.0340899580001,338.0340899580001,338.0340899580001,338.0340899580001,343.2212353750001,343.2212353750001,348.1643481250003,None,0,,reldom2_s007,001,2025-02-06_15h29.02.339,Where-B-Scan_AC,2022.2.5,None,
29,Second_Order,5.0,audwhere,stimulus/audwhere_stim/right_toward_270h.wav,stimulus/audwhere_stim/right_away_280h.wav,stimulus/audwhere_stim/left_away_270h.wav,stimulus/audwhere_stim/right_away_300h.wav,stimulus/audwhere_stim/match_blank.png,stimulus/audwhere_stim/match_box.png,stimulus/audwhere_stim/match_yes.png,stimulus/audwhere_stim/match_no.png,2.0,Match,Side,Direction,2,5.125,0,5.125,0,5.125,0,5.125,0,0.75,0.75,0,0.0,0,0.0,0,0.0,0,0.0,1,0.5,1,2.125,1,0.5,1,2.125,0,,,,,0,38,38,38,,,,,,,,,348.1643481250003,353.2878780830001,348.1643481250003,348.1643481250003,348.1643481250003,348.1643481250003,348.61393825000005,349.6123345420001,348.62647958366665,349.6202054579999,350.2472897920002,351.24141870799986,350.2504335416668,351.24141870799986,353.2878780830001,354.1226538330002,356.19926183300004,360.14041183300014,354.1226538330002,354.1226538330002,359.2733319580002,354.1226538330002,354.1226538330002,354.1226538330002,354.1226538330002,354.5947744170003,355.6341782919999,354.5637506246669,,356.19926183300004,357.2432335829999,356.1688325836669,,354.1226538330002,359.2733319580002,354.1226538330002,359.2733319580002,359.31432762500026,,354.1226538330002,2,1,0.9370268749999013,reldom2_s007,001,2025-02-06_15h29.02.339,Where-B-Scan_AC,2022.2.5,None,
30,Second_Order,5.0,audwhere,stimulus/audwhere_stim/right_away_300h.wav,stimulus/audwhere_stim/right_toward_300h.wav,stimulus/audwhere_stim/left_toward_290h.wav,stimulus/audwhere_stim/left_away_270h.wav,stimulus/audwhere_stim/match_blank.png,stimulus/audwhere_stim/match_box.png,stimulus/audwhere_stim/match_yes.png,stimulus/audwhere_stim/match_no.png,1.0,Match,Side,Side,1,5.125,0,5.125,0,5.125,0,5.125,0,0.625,0.625,0,0.0,0,0.0,0,0.0,0,0.0,1,0.5,1,2.125,1,0.5,1,2.125,0,,,,,0,39,39,39,,,,,,,,,360.14041183300014,365.25405200000023,360.14041183300014,360.14041183300014,360.14041183300014,360.14041183300014,360.5905917079999,361.5768029579999,360.6041934586667,361.5974435420003,362.2248036670003,363.2137379169999,362.2288679996666,363.2265685000002,365.25405200000023,365.96683654200024,368.030985375,,365.96683654200024,365.96683654200024,371.13857154200014,365.96683654200024,365.96683654200024,365.96683654200024,365.96683654200024,366.43384345799996,367.46890091700016,366.4031722916668,,368.030985375,369.0713154170003,368.0006469586667,,365.96683654200024,371.13857154200014,365.96683654200024,371.13857154200014,371.1800082499999,371.8406299170001,365.96683654200024,1,1,0.8295212080001875,reldom2_s007,001,2025-02-06_15h29.02.339,Where-B-Scan_AC,2022.2.5,None,
0,0.0,None,fixation,stimulus/audwhere_stim/blank_white.png,stimulus/audwhere_stim/blank_white.png,stimulus/viswhere_stim/blank_white.png,stimulus/viswhere_stim/blank_white.png,stimulus/audwhere_stim/blank_white.png,stimulus/audwhere_stim/blank_white.png,stimulus/audwhere_stim/blank_white.png,stimulus/audwhere_stim/blank_white.png,0.0,0.0,0.0,0.0,0,0.0,0,0.0,0,0.0,0,0.0,0,0.0,0.0,0,0.0,0,0.0,0,0.0,0,0.0,0,0.0,0,0.0,0,0.0,0,0.0,8,,,,,0,40,40,40,,,,,,,,,372.07896174999996,372.07896174999996,372.07896174999996,372.07896174999996,372.07896174999996,372.07896174999996,372.07896174999996,372.07896174999996,371.97396325033344,372.07896174999996,372.07896174999996,372.07896174999996,371.97396325033344,372.07896174999996,372.07896174999996,372.07896174999996,372.07896174999996,372.07896174999996,372.07896174999996,372.07896174999996,372.07896174999996,372.07896174999996,372.07896174999996,372.07896174999996,372.07896174999996,372.07896174999996,372.07896174999996,372.0406299170001,372.07896174999996,372.07896174999996,372.07896174999996,372.0406299170001,372.07896174999996,372.07896174999996,372.07896174999996,372.07896174999996,372.07896174999996,377.29508183300004,377.29508183300004,380.30905466700005,None,0,,reldom2_s007,001,2025-02-06_15h29.02.339,Where-B-Scan_AC,2022.2.5,None,
31,First_Order,6.0,audwhere,stimulus/audwhere_stim/dummy.wav,stimulus/audwhere_stim/dummy.wav,stimulus/audwhere_stim/left_toward_270h.wav,stimulus/audwhere_stim/right_toward_280h.wav,stimulus/audwhere_stim/blank_white.png,stimulus/audwhere_stim/side_box.png,stimulus/audwhere_stim/side_yes.png,stimulus/audwhere_stim/side_no.png,None,Side,None,Direction,2,0.0,0,5.125,0,5.125,0,5.125,0,0.0,0.625,0,0.0,0,0.0,0,0.0,0,0.0,0,0.0,0,0.0,1,0.5,1,2.125,0,,,,,0,41,41,41,,,,,,,,,380.30905466700005,380.30905466700005,380.30905466700005,380.30905466700005,380.30905466700005,380.30905466700005,380.30905466700005,380.30905466700005,380.2317994586666,380.30905466700005,380.30905466700005,380.30905466700005,380.2317994586666,380.30905466700005,380.30905466700005,380.30905466700005,382.3845995830002,,380.30905466700005,380.30905466700005,385.49977795799987,380.30905466700005,380.30905466700005,380.30905466700005,380.30905466700005,380.7828212919999,381.81868808299987,380.7518514996666,,382.3845995830002,383.427503417,382.3537866666668,,380.30905466700005,385.49977795799987,380.30905466700005,385.49977795799987,385.49977795799987,386.1637095420001,380.30905466700005,2,1,0.8208828329998141,reldom2_s007,001,2025-02-06_15h29.02.339,Where-B-Scan_AC,2022.2.5,None,
32,First_Order,6.0,audwhere,stimulus/audwhere_stim/dummy.wav,stimulus/audwhere_stim/dummy.wav,stimulus/audwhere_stim/right_toward_280h.wav,stimulus/audwhere_stim/left_toward_290h.wav,stimulus/audwhere_stim/blank_white.png,stimulus/audwhere_stim/direction_box.png,stimulus/audwhere_stim/direction_yes.png,stimulus/audwhere_stim/direction_no.png,None,Direction,None,Direction,1,0.0,0,5.125,0,5.125,0,5.125,0,0.0,0.625,0,0.0,0,0.0,0,0.0,0,0.0,0,0.0,0,0.0,1,0.5,1,2.125,0,,,,,0,42,42,42,,,,,,,,,386.42287129199985,386.42287129199985,386.42287129199985,386.42287129199985,386.42287129199985,386.42287129199985,386.42287129199985,386.42287129199985,386.33871504133333,386.42287129199985,386.42287129199985,386.42287129199985,386.33871504133333,386.42287129199985,386.42287129199985,386.42287129199985,388.5134270419999,,386.42287129199985,386.42287129199985,391.6042434579999,386.42287129199985,386.42287129199985,386.42287129199985,386.42287129199985,386.89980045799985,387.94519579200005,386.8688989166669,,388.5134270419999,389.56695312500005,388.4823827086668,389.51811212500024,386.42287129199985,391.6042434579999,386.42287129199985,391.6042434579999,391.646364875,392.3135956250003,386.42287129199985,1,1,1.0467864160000317,reldom2_s007,001,2025-02-06_15h29.02.339,Where-B-Scan_AC,2022.2.5,None,
33,First_Order,6.0,audwhere,stimulus/audwhere_stim/dummy.wav,stimulus/audwhere_stim/dummy.wav,stimulus/audwhere_stim/left_toward_270h.wav,stimulus/audwhere_stim/left_away_300h.wav,stimulus/audwhere_stim/blank_white.png,stimulus/audwhere_stim/side_box.png,stimulus/audwhere_stim/side_yes.png,stimulus/audwhere_stim/side_no.png,None,Side,None,Side,1,0.0,0,5.125,0,5.125,0,5.125,0,0.0,0.625,0,0.0,0,0.0,0,0.0,0,0.0,0,0.0,0,0.0,1,0.5,1,2.125,0,,,,,0,43,43,43,,,,,,,,,392.53079616700006,392.53079616700006,392.53079616700006,392.53079616700006,392.53079616700006,392.53079616700006,392.53079616700006,392.53079616700006,392.4469289583336,392.53079616700006,392.53079616700006,392.53079616700006,392.4469289583336,392.53079616700006,392.53079616700006,392.53079616700006,394.60924545800026,,392.53079616700006,392.53079616700006,397.679628333,392.53079616700006,392.53079616700006,392.53079616700006,392.53079616700006,393.00578270799997,394.04439062500023,392.9751115416668,,394.60924545800026,395.6519310829999,394.57832145866655,,392.53079616700006,397.679628333,392.53079616700006,397.679628333,397.7218350420003,398.386338625,392.53079616700006,1,1,1.214203292000093,reldom2_s007,001,2025-02-06_15h29.02.339,Where-B-Scan_AC,2022.2.5,None,
34,First_Order,6.0,audwhere,stimulus/audwhere_stim/dummy.wav,stimulus/audwhere_stim/dummy.wav,stimulus/audwhere_stim/right_toward_300h.wav,stimulus/audwhere_stim/left_toward_290h.wav,stimulus/audwhere_stim/blank_white.png,stimulus/audwhere_stim/side_box.png,stimulus/audwhere_stim/side_yes.png,stimulus/audwhere_stim/side_no.png,None,Side,None,Direction,2,0.0,0,5.125,0,5.125,0,5.125,0,0.0,0.625,0,0.0,0,0.0,0,0.0,0,0.0,0,0.0,0,0.0,1,0.5,1,2.125,0,,,,,0,44,44,44,,,,,,,,,398.64596466700004,398.64596466700004,398.64596466700004,398.64596466700004,398.64596466700004,398.64596466700004,398.64596466700004,398.64596466700004,398.5612523333335,398.64596466700004,398.64596466700004,398.64596466700004,398.5612523333335,398.64596466700004,398.64596466700004,398.64596466700004,400.72377866700026,404.79336645800004,398.64596466700004,398.64596466700004,403.79868933299986,398.64596466700004,398.64596466700004,398.64596466700004,398.64596466700004,399.11793291699996,400.15691225,399.08728841666675,,400.72377866700026,401.76285187500025,400.69281033366656,,398.64596466700004,403.79868933299986,398.64596466700004,403.79868933299986,403.8404437080003,404.51144833299986,398.64596466700004,2,1,2.3012169579997135,reldom2_s007,001,2025-02-06_15h29.02.339,Where-B-Scan_AC,2022.2.5,None,
0,0.0,None,fixation,stimulus/audwhere_stim/blank_white.png,stimulus/audwhere_stim/blank_white.png,stimulus/viswhere_stim/blank_white.png,stimulus/viswhere_stim/blank_white.png,stimulus/audwhere_stim/blank_white.png,stimulus/audwhere_stim/blank_white.png,stimulus/audwhere_stim/blank_white.png,stimulus/audwhere_stim/blank_white.png,0.0,0.0,0.0,0.0,0,0.0,0,0.0,0,0.0,0,0.0,0,0.0,0.0,0,0.0,0,0.0,0,0.0,0,0.0,0,0.0,0,0.0,0,0.0,0,0.0,8,,,,,0,45,45,45,,,,,,,,,404.79336645800004,404.79336645800004,404.79336645800004,404.79336645800004,404.79336645800004,404.79336645800004,404.79336645800004,404.79336645800004,404.6864856253334,404.79336645800004,404.79336645800004,404.79336645800004,404.6864856253334,404.79336645800004,404.79336645800004,404.79336645800004,404.79336645800004,404.79336645800004,404.79336645800004,404.79336645800004,404.79336645800004,404.79336645800004,404.79336645800004,404.79336645800004,404.79336645800004,404.79336645800004,404.79336645800004,404.75315229200004,404.79336645800004,404.79336645800004,404.79336645800004,404.75315229200004,404.79336645800004,404.79336645800004,404.79336645800004,404.79336645800004,404.79336645800004,410.0205268750001,410.0205268750001,412.9426248330001,None,0,,reldom2_s007,001,2025-02-06_15h29.02.339,Where-B-Scan_AC,2022.2.5,None,
35,Second_Order,6.0,audwhere,stimulus/audwhere_stim/left_toward_280h.wav,stimulus/audwhere_stim/right_toward_270h.wav,stimulus/audwhere_stim/left_away_300h.wav,stimulus/audwhere_stim/right_away_280h.wav,stimulus/audwhere_stim/match_blank.png,stimulus/audwhere_stim/match_box.png,stimulus/audwhere_stim/match_yes.png,stimulus/audwhere_stim/match_no.png,1.0,Match,Direction,Direction,1,5.125,0,5.125,0,5.125,0,5.125,0,0.75,0.75,0,0.0,0,0.0,0,0.0,0,0.0,1,0.5,1,2.125,1,0.5,1,2.125,0,,,,,0,46,46,46,,,,,,,,,412.9426248330001,418.05790941700025,412.9426248330001,412.9426248330001,412.9426248330001,412.9426248330001,413.39566324999987,414.3823923750001,413.4089311246669,414.4032752920002,415.018390875,416.015621,415.02997399966694,416.02460066699996,418.05790941700025,418.8882470419999,420.96179841699995,424.9049167920002,418.8882470419999,418.8882470419999,424.077165917,418.8882470419999,418.8882470419999,418.8882470419999,418.8882470419999,419.35934675,420.3961093329999,419.32913945866653,,420.96179841699995,422.0019023750001,420.93088529166675,,418.8882470419999,424.077165917,418.8882470419999,424.077165917,424.077165917,,418.8882470419999,1,1,1.1247195830001147,reldom2_s007,001,2025-02-06_15h29.02.339,Where-B-Scan_AC,2022.2.5,None,
36,Second_Order,6.0,audwhere,stimulus/audwhere_stim/left_toward_300h.wav,stimulus/audwhere_stim/right_toward_280h.wav,stimulus/audwhere_stim/left_away_300h.wav,stimulus/audwhere_stim/right_away_300h.wav,stimulus/audwhere_stim/match_blank.png,stimulus/audwhere_stim/match_box.png,stimulus/audwhere_stim/match_yes.png,stimulus/audwhere_stim/match_no.png,1.0,Match,Direction,Direction,1,5.125,0,5.125,0,5.125,0,5.125,0,0.625,0.625,0,0.0,0,0.0,0,0.0,0,0.0,1,0.5,1,2.125,1,0.5,1,2.125,0,,,,,0,47,47,47,,,,,,,,,424.9049167920002,430.01962516699996,424.9049167920002,424.9049167920002,424.9049167920002,424.9049167920002,425.3580035,426.35579637499995,425.37033199966686,426.363787667,426.979231625,427.97619941699986,426.9910480836668,427.98417770800006,430.01962516699996,430.7301130830001,432.7951604580003,,430.7301130830001,430.7301130830001,435.903658792,430.7301130830001,430.7301130830001,430.7301130830001,430.7301130830001,431.1988858750001,432.23032462499987,431.16871195866656,,432.7951604580003,433.8324997919999,432.76477666666665,,430.7301130830001,435.903658792,430.7301130830001,435.903658792,435.94535262499994,436.60806975000014,430.7301130830001,1,1,1.2627289580000252,reldom2_s007,001,2025-02-06_15h29.02.339,Where-B-Scan_AC,2022.2.5,None,
0,0.0,None,fixation,stimulus/audwhere_stim/blank_white.png,stimulus/audwhere_stim/blank_white.png,stimulus/viswhere_stim/blank_white.png,stimulus/viswhere_stim/blank_white.png,stimulus/audwhere_stim/blank_white.png,stimulus/audwhere_stim/blank_white.png,stimulus/audwhere_stim/blank_white.png,stimulus/audwhere_stim/blank_white.png,0.0,0.0,0.0,0.0,0,0.0,0,0.0,0,0.0,0,0.0,0,0.0,0.0,0,0.0,0,0.0,0,0.0,0,0.0,0,0.0,0,0.0,0,0.0,0,0.0,10,,,,,0,48,48,48,,,,,,,,,436.84795558299993,436.84795558299993,436.84795558299993,436.84795558299993,436.84795558299993,436.84795558299993,436.84795558299993,436.84795558299993,436.74140308333347,436.84795558299993,436.84795558299993,436.84795558299993,436.74140308333347,436.84795558299993,436.84795558299993,436.84795558299993,436.84795558299993,436.84795558299993,436.84795558299993,436.84795558299993,436.84795558299993,436.84795558299993,436.84795558299993,436.84795558299993,436.84795558299993,436.84795558299993,436.84795558299993,436.80806975000013,436.84795558299993,436.84795558299993,436.84795558299993,436.80806975000013,436.84795558299993,436.84795558299993,436.84795558299993,436.84795558299993,436.84795558299993,442.0553729170001,442.0553729170001,447.0281341670002,None,0,,reldom2_s007,001,2025-02-06_15h29.02.339,Where-B-Scan_AC,2022.2.5,None,
37,First_Order,7.0,viswhere,stimulus/viswhere_stim/blank_white.png,stimulus/viswhere_stim/blank_white.png,stimulus/viswhere_stim/150-deg_dot-left_turquoise.png,stimulus/viswhere_stim/120-deg_dot-left_mediumslateblue.png,stimulus/viswhere_stim/blank_white.png,stimulus/viswhere_stim/line_box.png,stimulus/viswhere_stim/line_yes.png,stimulus/viswhere_stim/line_no.png,None,Line,None,Dot,2,0.0,0,5.125,0,5.125,0,5.125,0,0.0,0.625,0,0.0,0,0.0,1,0.5,1,2.125,0,0.0,0,0.0,0,0.0,0,0.0,0,,,,,0,49,49,49,,,,,,,,,447.0281341670002,447.0281341670002,447.0281341670002,447.0281341670002,447.0281341670002,447.0281341670002,447.0281341670002,447.0281341670002,447.00418587466686,447.0281341670002,447.0281341670002,447.0281341670002,447.00418587466686,447.0281341670002,447.0281341670002,447.0281341670002,449.13885574999995,453.0847920000001,447.0281341670002,447.0281341670002,452.1596039169999,447.49716108300026,448.5127319170001,449.13885574999995,450.142892375,447.0281341670002,447.0281341670002,447.02085254133357,447.0281341670002,447.0281341670002,447.0281341670002,447.02085254133357,447.0281341670002,447.0281341670002,452.1596039169999,447.0281341670002,452.1596039169999,452.26478904199985,452.89370662500005,447.0281341670002,2,1,0.926561750000019,reldom2_s007,001,2025-02-06_15h29.02.339,Where-B-Scan_AC,2022.2.5,None,
38,First_Order,7.0,viswhere,stimulus/viswhere_stim/blank_white.png,stimulus/viswhere_stim/blank_white.png,stimulus/viswhere_stim/120-deg_dot-left_mediumslateblue.png,stimulus/viswhere_stim/120-deg_dot-right_seagreen.png,stimulus/viswhere_stim/blank_white.png,stimulus/viswhere_stim/dot_box.png,stimulus/viswhere_stim/dot_yes.png,stimulus/viswhere_stim/dot_no.png,None,Dot,None,Line,2,0.0,0,5.125,0,5.125,0,5.125,0,0.0,0.625,0,0.0,0,0.0,1,0.5,1,2.125,0,0.0,0,0.0,0,0.0,0,0.0,0,,,,,0,50,50,50,,,,,,,,,453.0847920000001,453.0847920000001,453.0847920000001,453.0847920000001,453.0847920000001,453.0847920000001,453.0847920000001,453.0847920000001,453.06100254133327,453.0847920000001,453.0847920000001,453.0847920000001,453.06100254133327,453.0847920000001,453.0847920000001,453.0847920000001,455.1977380829999,459.156804792,453.0847920000001,453.0847920000001,458.2120089170003,453.56900029200006,454.5764442499999,455.1977380829999,456.21176916700006,453.0847920000001,453.0847920000001,453.0776692079999,453.0847920000001,453.0847920000001,453.0847920000001,453.0776692079999,453.0847920000001,453.0847920000001,458.2120089170003,453.0847920000001,458.2120089170003,458.30898079200006,458.9379948750002,453.0847920000001,2,1,1.151789583000209,reldom2_s007,001,2025-02-06_15h29.02.339,Where-B-Scan_AC,2022.2.5,None,
39,First_Order,7.0,viswhere,stimulus/viswhere_stim/blank_white.png,stimulus/viswhere_stim/blank_white.png,stimulus/viswhere_stim/60-deg_dot-right_salmon.png,stimulus/viswhere_stim/60-deg_dot-left_peru.png,stimulus/viswhere_stim/blank_white.png,stimulus/viswhere_stim/line_box.png,stimulus/viswhere_stim/line_yes.png,stimulus/viswhere_stim/line_no.png,None,Line,None,Line,1,0.0,0,5.125,0,5.125,0,5.125,0,0.0,0.625,0,0.0,0,0.0,1,0.5,1,2.125,0,0.0,0,0.0,0,0.0,0,0.0,0,,,,,0,51,51,51,,,,,,,,,459.156804792,459.156804792,459.156804792,459.156804792,459.156804792,459.156804792,459.156804792,459.156804792,459.13299925033317,459.156804792,459.156804792,459.156804792,459.13299925033317,459.156804792,459.156804792,459.156804792,461.2566605830002,465.21739824999986,459.156804792,459.156804792,464.27937733299996,459.643106,460.654241708,461.2566605830002,462.2772754580001,459.156804792,459.156804792,459.1496659169998,459.156804792,459.156804792,459.156804792,459.1496659169998,459.156804792,459.156804792,464.27937733299996,459.156804792,464.27937733299996,464.38109895800017,465.01333191699996,459.156804792,1,1,0.8131976250001571,reldom2_s007,001,2025-02-06_15h29.02.339,Where-B-Scan_AC,2022.2.5,None,
40,First_Order,7.0,viswhere,stimulus/viswhere_stim/blank_white.png,stimulus/viswhere_stim/blank_white.png,stimulus/viswhere_stim/60-deg_dot-right_slateblue.png,stimulus/viswhere_stim/90-deg_dot-right_royalblue.png,stimulus/viswhere_stim/blank_white.png,stimulus/viswhere_stim/dot_box.png,stimulus/viswhere_stim/dot_yes.png,stimulus/viswhere_stim/dot_no.png,None,Dot,None,Dot,1,0.0,0,5.125,0,5.125,0,5.125,0,0.0,0.625,0,0.0,0,0.0,1,0.5,1,2.125,0,0.0,0,0.0,0,0.0,0,0.0,0,,,,,0,52,52,52,,,,,,,,,465.21739824999986,465.21739824999986,465.21739824999986,465.21739824999986,465.21739824999986,465.21739824999986,465.21739824999986,465.21739824999986,465.1944309163335,465.21739824999986,465.21739824999986,465.21739824999986,465.1944309163335,465.21739824999986,465.21739824999986,465.21739824999986,467.3178347080002,471.3690136250002,465.21739824999986,465.21739824999986,470.35653437500014,465.70298979200015,466.71706354200023,467.3178347080002,468.33569658299984,465.21739824999986,465.21739824999986,465.21109758300014,465.21739824999986,465.21739824999986,465.21739824999986,465.21109758300014,465.21739824999986,465.21739824999986,470.35653437500014,465.21739824999986,470.35653437500014,470.4426776670002,471.068712625,465.21739824999986,1,1,0.8479407079998964,reldom2_s007,001,2025-02-06_15h29.02.339,Where-B-Scan_AC,2022.2.5,None,
0,0.0,None,fixation,stimulus/audwhere_stim/blank_white.png,stimulus/audwhere_stim/blank_white.png,stimulus/viswhere_stim/blank_white.png,stimulus/viswhere_stim/blank_white.png,stimulus/audwhere_stim/blank_white.png,stimulus/audwhere_stim/blank_white.png,stimulus/audwhere_stim/blank_white.png,stimulus/audwhere_stim/blank_white.png,0.0,0.0,0.0,0.0,0,0.0,0,0.0,0,0.0,0,0.0,0,0.0,0.0,0,0.0,0,0.0,0,0.0,0,0.0,0,0.0,0,0.0,0,0.0,0,0.0,8,,,,,0,53,53,53,,,,,,,,,471.3690136250002,471.3690136250002,471.3690136250002,471.3690136250002,471.3690136250002,471.3690136250002,471.3690136250002,471.3690136250002,471.2630295003335,471.3690136250002,471.3690136250002,471.3690136250002,471.2630295003335,471.3690136250002,471.3690136250002,471.3690136250002,471.3690136250002,471.3690136250002,471.3690136250002,471.3690136250002,471.3690136250002,471.3690136250002,471.3690136250002,471.3690136250002,471.3690136250002,471.3690136250002,471.3690136250002,471.3130295003335,471.3690136250002,471.3690136250002,471.3690136250002,471.3130295003335,471.3690136250002,471.3690136250002,471.3690136250002,471.3690136250002,471.3690136250002,476.55047345799994,476.55047345799994,479.50544520799986,None,0,,reldom2_s007,001,2025-02-06_15h29.02.339,Where-B-Scan_AC,2022.2.5,None,
41,Second_Order,7.0,viswhere,stimulus/viswhere_stim/60-deg_dot-right_seagreen.png,stimulus/viswhere_stim/30-deg_dot-right_mediumslateblue.png,stimulus/viswhere_stim/60-deg_dot-left_mediumslateblue.png,stimulus/viswhere_stim/150-deg_dot-left_salmon.png,stimulus/audwhere_stim/match_blank.png,stimulus/audwhere_stim/match_box.png,stimulus/audwhere_stim/match_yes.png,stimulus/audwhere_stim/match_no.png,1.0,Match,Dot,Dot,1,5.125,0,5.125,0,5.125,0,5.125,0,0.75,0.75,1,0.5,1,2.125,1,0.5,1,2.125,0,0.0,0,0.0,0,0.0,0,0.0,0,,,,,0,54,54,54,,,,,,,,,479.50544520799986,484.62829862499984,479.98363529200014,480.98230575000025,481.60441208300017,482.60241241699987,479.50544520799986,479.50544520799986,479.51643129133356,479.50544520799986,479.50544520799986,479.50544520799986,479.51643129133356,479.50544520799986,484.62829862499984,485.4081140000003,487.4903213749999,491.38702712500026,485.4081140000003,485.4081140000003,490.53945762500007,485.8806669999999,486.8840332919999,487.4903213749999,488.49551037499987,485.4081140000003,485.4081140000003,485.3957317913332,485.4081140000003,485.4081140000003,485.4081140000003,485.3957317913332,485.4081140000003,485.4081140000003,490.53945762500007,485.4081140000003,490.53945762500007,490.61450625,491.38702712500026,485.4081140000003,1,1,2.336824790999799,reldom2_s007,001,2025-02-06_15h29.02.339,Where-B-Scan_AC,2022.2.5,None,
42,Second_Order,7.0,viswhere,stimulus/viswhere_stim/90-deg_dot-right_goldenrod.png,stimulus/viswhere_stim/120-deg_dot-right_mediumslateblue.png,stimulus/viswhere_stim/60-deg_dot-right_peru.png,stimulus/viswhere_stim/60-deg_dot-left_mediumslateblue.png,stimulus/audwhere_stim/match_blank.png,stimulus/audwhere_stim/match_box.png,stimulus/audwhere_stim/match_yes.png,stimulus/audwhere_stim/match_no.png,2.0,Match,Dot,Line,2,5.125,0,5.125,0,5.125,0,5.125,0,0.625,0.625,1,0.5,1,2.125,1,0.5,1,2.125,0,0.0,0,0.0,0,0.0,0,0.0,0,,,,,0,55,55,55,,,,,,,,,491.38702712500026,496.5061067500001,491.86116470800016,492.85907183300014,493.49868541700016,494.4961535000002,491.38702712500026,491.38702712500026,491.399368833,491.38702712500026,491.38702712500026,491.38702712500026,491.399368833,491.38702712500026,496.5061067500001,497.1603449170002,499.264042667,503.2946037500001,497.1603449170002,497.1603449170002,502.29009241699987,497.62686195800006,498.639742458,499.264042667,500.2841404999999,497.1603449170002,497.1603449170002,497.1524932913335,497.1603449170002,497.1603449170002,497.1603449170002,497.1524932913335,497.1603449170002,497.1603449170002,502.29009241699987,497.1603449170002,502.29009241699987,502.3745560000002,503.009263208,497.1603449170002,2,1,0.687566875000357,reldom2_s007,001,2025-02-06_15h29.02.339,Where-B-Scan_AC,2022.2.5,None,
0,0.0,None,fixation,stimulus/audwhere_stim/blank_white.png,stimulus/audwhere_stim/blank_white.png,stimulus/viswhere_stim/blank_white.png,stimulus/viswhere_stim/blank_white.png,stimulus/audwhere_stim/blank_white.png,stimulus/audwhere_stim/blank_white.png,stimulus/audwhere_stim/blank_white.png,stimulus/audwhere_stim/blank_white.png,0.0,0.0,0.0,0.0,0,0.0,0,0.0,0,0.0,0,0.0,0,0.0,0.0,0,0.0,0,0.0,0,0.0,0,0.0,0,0.0,0,0.0,0,0.0,0,0.0,8,,,,,0,56,56,56,,,,,,,,,503.2946037500001,503.2946037500001,503.2946037500001,503.2946037500001,503.2946037500001,503.2946037500001,503.2946037500001,503.2946037500001,503.1900005413334,503.2946037500001,503.2946037500001,503.2946037500001,503.1900005413334,503.2946037500001,503.2946037500001,503.2946037500001,503.2946037500001,503.2946037500001,503.2946037500001,503.2946037500001,503.2946037500001,503.2946037500001,503.2946037500001,503.2946037500001,503.2946037500001,503.2946037500001,503.2946037500001,503.2400005413334,503.2946037500001,503.2946037500001,503.2946037500001,503.2400005413334,503.2946037500001,503.2946037500001,503.2946037500001,503.2946037500001,503.2946037500001,508.51293050000004,508.51293050000004,511.4790532500001,None,0,,reldom2_s007,001,2025-02-06_15h29.02.339,Where-B-Scan_AC,2022.2.5,None,
43,First_Order,8.0,viswhere,stimulus/viswhere_stim/blank_white.png,stimulus/viswhere_stim/blank_white.png,stimulus/viswhere_stim/120-deg_dot-left_lightsseagreen.png,stimulus/viswhere_stim/120-deg_dot-right_royalblue.png,stimulus/viswhere_stim/blank_white.png,stimulus/viswhere_stim/line_box.png,stimulus/viswhere_stim/line_yes.png,stimulus/viswhere_stim/line_no.png,None,Line,None,Line,1,0.0,0,5.125,0,5.125,0,5.125,0,0.0,0.625,0,0.0,0,0.0,1,0.5,1,2.125,0,0.0,0,0.0,0,0.0,0,0.0,0,,,,,0,57,57,57,,,,,,,,,511.4790532500001,511.4790532500001,511.4790532500001,511.4790532500001,511.4790532500001,511.4790532500001,511.4790532500001,511.4790532500001,511.4549092496669,511.4790532500001,511.4790532500001,511.4790532500001,511.4549092496669,511.4790532500001,511.4790532500001,511.4790532500001,513.5781520830001,517.5466124580003,511.4790532500001,511.4790532500001,516.6133224579999,511.96535037500007,512.976676667,513.5781520830001,514.5940014170001,511.4790532500001,511.4790532500001,511.4715759163336,511.4790532500001,511.4790532500001,511.4790532500001,511.4715759163336,511.4790532500001,511.4790532500001,516.6133224579999,511.4790532500001,516.6133224579999,516.6993344580001,517.325395542,511.4790532500001,1,1,0.6631359160001011,reldom2_s007,001,2025-02-06_15h29.02.339,Where-B-Scan_AC,2022.2.5,None,
44,First_Order,8.0,viswhere,stimulus/viswhere_stim/blank_white.png,stimulus/viswhere_stim/blank_white.png,stimulus/viswhere_stim/60-deg_dot-right_peru.png,stimulus/viswhere_stim/90-deg_dot-right_turquoise.png,stimulus/viswhere_stim/blank_white.png,stimulus/viswhere_stim/dot_box.png,stimulus/viswhere_stim/dot_yes.png,stimulus/viswhere_stim/dot_no.png,None,Dot,None,Dot,1,0.0,0,5.125,0,5.125,0,5.125,0,0.0,0.625,0,0.0,0,0.0,1,0.5,1,2.125,0,0.0,0,0.0,0,0.0,0,0.0,0,,,,,0,58,58,58,,,,,,,,,517.5466124580003,517.5466124580003,517.5466124580003,517.5466124580003,517.5466124580003,517.5466124580003,517.5466124580003,517.5466124580003,517.5196667913336,517.5466124580003,517.5466124580003,517.5466124580003,517.5196667913336,517.5466124580003,517.5466124580003,517.5466124580003,519.6455097920002,523.6037495,517.5466124580003,517.5466124580003,522.6869083330002,518.033242167,519.0449922500002,519.6455097920002,520.6643545420002,517.5466124580003,517.5466124580003,517.5363334580003,517.5466124580003,517.5466124580003,517.5466124580003,517.5363334580003,517.5466124580003,517.5466124580003,522.6869083330002,517.5466124580003,522.6869083330002,522.7718532920003,523.3980450419999,517.5466124580003,1,1,0.6786974159999772,reldom2_s007,001,2025-02-06_15h29.02.339,Where-B-Scan_AC,2022.2.5,None,
45,First_Order,8.0,viswhere,stimulus/viswhere_stim/blank_white.png,stimulus/viswhere_stim/blank_white.png,stimulus/viswhere_stim/150-deg_dot-right_lightsseagreen.png,stimulus/viswhere_stim/150-deg_dot-left_royalblue.png,stimulus/viswhere_stim/blank_white.png,stimulus/viswhere_stim/dot_box.png,stimulus/viswhere_stim/dot_yes.png,stimulus/viswhere_stim/dot_no.png,None,Dot,None,Line,2,0.0,0,5.125,0,5.125,0,5.125,0,0.0,0.625,0,0.0,0,0.0,1,0.5,1,2.125,0,0.0,0,0.0,0,0.0,0,0.0,0,,,,,0,59,59,59,,,,,,,,,523.6037495,523.6037495,523.6037495,523.6037495,523.6037495,523.6037495,523.6037495,523.6037495,523.5789676663334,523.6037495,523.6037495,523.6037495,523.5789676663334,523.6037495,523.6037495,523.6037495,525.7061503330001,529.6695797920001,523.6037495,523.6037495,528.7411972499999,524.094401542,525.0978489170002,525.7061503330001,526.7163573749999,523.6037495,523.6037495,523.595634333,523.6037495,523.6037495,523.6037495,523.595634333,523.6037495,523.6037495,528.7411972499999,523.6037495,528.7411972499999,528.8273194170001,529.4765822919999,523.6037495,2,1,0.7265693739996095,reldom2_s007,001,2025-02-06_15h29.02.339,Where-B-Scan_AC,2022.2.5,None,
46,First_Order,8.0,viswhere,stimulus/viswhere_stim/blank_white.png,stimulus/viswhere_stim/blank_white.png,stimulus/viswhere_stim/30-deg_dot-left_salmon.png,stimulus/viswhere_stim/150-deg_dot-left_turquoise.png,stimulus/viswhere_stim/blank_white.png,stimulus/viswhere_stim/line_box.png,stimulus/viswhere_stim/line_yes.png,stimulus/viswhere_stim/line_no.png,None,Line,None,Dot,2,0.0,0,5.125,0,5.125,0,5.125,0,0.0,0.625,0,0.0,0,0.0,1,0.5,1,2.125,0,0.0,0,0.0,0,0.0,0,0.0,0,,,,,0,60,60,60,,,,,,,,,529.6695797920001,529.6695797920001,529.6695797920001,529.6695797920001,529.6695797920001,529.6695797920001,529.6695797920001,529.6695797920001,529.6458791663334,529.6695797920001,529.6695797920001,529.6695797920001,529.6458791663334,529.6695797920001,529.6695797920001,529.6695797920001,531.76913625,535.8153246249999,529.6695797920001,529.6695797920001,534.7945508749999,530.1606262079999,531.163128792,531.76913625,532.7741153750003,529.6695797920001,529.6695797920001,529.6625458330001,529.6695797920001,529.6695797920001,529.6695797920001,529.6625458330001,529.6695797920001,529.6695797920001,534.7945508749999,529.6695797920001,534.7945508749999,534.8973731670003,535.5267374170003,529.6695797920001,2,1,1.3843658329997197,reldom2_s007,001,2025-02-06_15h29.02.339,Where-B-Scan_AC,2022.2.5,None,
0,0.0,None,fixation,stimulus/audwhere_stim/blank_white.png,stimulus/audwhere_stim/blank_white.png,stimulus/viswhere_stim/blank_white.png,stimulus/viswhere_stim/blank_white.png,stimulus/audwhere_stim/blank_white.png,stimulus/audwhere_stim/blank_white.png,stimulus/audwhere_stim/blank_white.png,stimulus/audwhere_stim/blank_white.png,0.0,0.0,0.0,0.0,0,0.0,0,0.0,0,0.0,0,0.0,0,0.0,0.0,0,0.0,0,0.0,0,0.0,0,0.0,0,0.0,0,0.0,0,0.0,0,0.0,9,,,,,0,61,61,61,,,,,,,,,535.8153246249999,535.8153246249999,535.8153246249999,535.8153246249999,535.8153246249999,535.8153246249999,535.8153246249999,535.8153246249999,535.7120560003335,535.8153246249999,535.8153246249999,535.8153246249999,535.7120560003335,535.8153246249999,535.8153246249999,535.8153246249999,535.8153246249999,535.8153246249999,535.8153246249999,535.8153246249999,535.8153246249999,535.8153246249999,535.8153246249999,535.8153246249999,535.8153246249999,535.8153246249999,535.8153246249999,535.7620560003335,535.8153246249999,535.8153246249999,535.8153246249999,535.7620560003335,535.8153246249999,535.8153246249999,535.8153246249999,535.8153246249999,535.8153246249999,541.0473520830001,541.0473520830001,544.9340131250001,None,0,,reldom2_s007,001,2025-02-06_15h29.02.339,Where-B-Scan_AC,2022.2.5,None,
47,Second_Order,8.0,viswhere,stimulus/viswhere_stim/90-deg_dot-left_lightsseagreen.png,stimulus/viswhere_stim/120-deg_dot-left_royalblue.png,stimulus/viswhere_stim/30-deg_dot-right_mediumslateblue.png,stimulus/viswhere_stim/60-deg_dot-right_lightsseagreen.png,stimulus/audwhere_stim/match_blank.png,stimulus/audwhere_stim/match_box.png,stimulus/audwhere_stim/match_yes.png,stimulus/audwhere_stim/match_no.png,1.0,Match,Dot,Dot,1,5.125,0,5.125,0,5.125,0,5.125,0,0.75,0.75,1,0.5,1,2.125,1,0.5,1,2.125,0,0.0,0,0.0,0,0.0,0,0.0,0,,,,,0,62,62,62,,,,,,,,,544.9340131250001,550.047546667,545.4177237080003,546.4165252080002,547.0397604580003,548.0365378750002,544.9340131250001,544.9340131250001,544.9460074583336,544.9340131250001,544.9340131250001,544.9340131250001,544.9460074583336,544.9340131250001,550.047546667,550.8388392920001,552.9276233750002,556.8241795829999,550.8388392920001,550.8388392920001,555.9619337499998,551.3076637499998,552.3227394999999,552.9276233750002,553.9485701670001,550.8388392920001,550.8388392920001,550.8262399163332,550.8388392920001,550.8388392920001,550.8388392920001,550.8262399163332,550.8388392920001,550.8388392920001,555.9619337499998,550.8388392920001,555.9619337499998,556.0456479580002,556.8241795829999,550.8388392920001,1,1,0.7904386250002062,reldom2_s007,001,2025-02-06_15h29.02.339,Where-B-Scan_AC,2022.2.5,None,
48,Second_Order,8.0,viswhere,stimulus/viswhere_stim/60-deg_dot-left_seagreen.png,stimulus/viswhere_stim/90-deg_dot-left_peru.png,stimulus/viswhere_stim/30-deg_dot-right_turquoise.png,stimulus/viswhere_stim/30-deg_dot-left_lightsseagreen.png,stimulus/audwhere_stim/match_blank.png,stimulus/audwhere_stim/match_box.png,stimulus/audwhere_stim/match_yes.png,stimulus/audwhere_stim/match_no.png,2.0,Match,Dot,Line,2,5.125,0,5.125,0,5.125,0,5.125,0,0.625,0.625,1,0.5,1,2.125,1,0.5,1,2.125,0,0.0,0,0.0,0,0.0,0,0.0,0,,,,,0,63,63,63,,,,,,,,,556.8241795829999,561.939965042,557.307949,558.2973804170001,558.934116333,559.9305427079998,556.8241795829999,556.8241795829999,556.8363456250001,556.8241795829999,556.8241795829999,556.8241795829999,556.8363456250001,556.8241795829999,561.939965042,562.5946491250002,564.6819085000002,568.733488583,562.5946491250002,562.5946491250002,567.7169759580001,563.0648193330003,564.074965667,564.6819085000002,565.684495208,562.5946491250002,562.5946491250002,562.5866107503334,562.5946491250002,562.5946491250002,562.5946491250002,562.5866107503334,562.5946491250002,562.5946491250002,567.7169759580001,562.5946491250002,567.7169759580001,567.8314057080001,568.4607786249999,562.5946491250002,2,1,0.7936452499998268,reldom2_s007,001,2025-02-06_15h29.02.339,Where-B-Scan_AC,2022.2.5,None,
0,0.0,None,fixation,stimulus/audwhere_stim/blank_white.png,stimulus/audwhere_stim/blank_white.png,stimulus/viswhere_stim/blank_white.png,stimulus/viswhere_stim/blank_white.png,stimulus/audwhere_stim/blank_white.png,stimulus/audwhere_stim/blank_white.png,stimulus/audwhere_stim/blank_white.png,stimulus/audwhere_stim/blank_white.png,0.0,0.0,0.0,0.0,0,0.0,0,0.0,0,0.0,0,0.0,0,0.0,0.0,0,0.0,0,0.0,0,0.0,0,0.0,0,0.0,0,0.0,0,0.0,0,0.0,16,,,,,0,64,64,64,,,,,,,,,568.733488583,568.733488583,568.733488583,568.733488583,568.733488583,568.733488583,568.733488583,568.733488583,568.6268113333334,568.733488583,568.733488583,568.733488583,568.6268113333334,568.733488583,568.733488583,568.733488583,568.733488583,568.733488583,568.733488583,568.733488583,568.733488583,568.733488583,568.733488583,568.733488583,568.733488583,568.733488583,568.733488583,568.6768113333334,568.733488583,568.733488583,568.733488583,568.6768113333334,568.733488583,568.733488583,568.733488583,568.733488583,568.733488583,573.958385167,573.958385167,584.892611625,None,0,,reldom2_s007,001,2025-02-06_15h29.02.339,Where-B-Scan_AC,2022.2.5,None,
