Trial,Order,Block,Type,Stimuli_File1,Stimuli_File2,Stimuli_File3,Stimuli_File4,Cue_File1,Cue_File2,Response_File_Yes,Response_File_No,Match,Cue_Dimension,Pair1_Dimension,Pair2_Dimension,Key,Cue1_Duration,Cue1_Onset,Cue2_Duration,Cue2_Onset,ResponseYes_Duration,ResponseYes_Onset,ResponseNo_Duration,ResponseNo_Onset,ITI_Within,ITI_Between,Image1_Duration,Image1_Onset,Image2_Duration,Image2_Onset,Image3_Duration,Image3_Onset,Image4_Duration,Image4_Onset,Sound1_Duration,Sound1_Onset,Sound2_Duration,Sound2_Onset,Sound3_Duration,Sound3_Onset,Sound4_Duration,Sound4_Onset,Fixation_Duration,trials_2.thisRepN,trials_2.thisTrialN,trials_2.thisN,trials_2.thisIndex,trials.thisRepN,trials.thisTrialN,trials.thisN,trials.thisIndex,text_start.started,key_resp_start.started,key_resp_start.keys,key_resp_start.rt,text2.started,key_resp_2.started,key_resp_2.keys,key_resp_2.rt,cue_file1.started,cue_file1.stopped,image_1.started,image_1.stopped,image_2.started,image_2.stopped,sound_icon1.started,sound_icon1.stopped,sound_1.started,sound_1.stopped,sound_icon2.started,sound_icon2.stopped,sound_2.started,sound_2.stopped,image_blank_1.started,image_blank_1.stopped,key_press.started,key_press.stopped,fixation_text.started,cue_file2.started,cue_file2.stopped,image_3.started,image_3.stopped,image_4.started,image_4.stopped,sound_icon3.started,sound_icon3.stopped,sound_3.started,sound_3.stopped,sound_icon4.started,sound_icon4.stopped,sound_4.started,sound_4.stopped,response_yes.started,response_yes.stopped,response_no.started,response_no.stopped,iti_blank.started,iti_blank.stopped,fixation_text.stopped,key_press.keys,key_press.corr,key_press.rt,participant,session,date,expName,psychopyVersion,frameRate,
,,,,,,,,,,,,,,,,,,,,,,,,,,,,,,,,,,,,,,,,,,,,,,,,,,,,7.215317916999993,7.215317916999993,2,2.2931780829999298,,,,,,,,,,,,,,,,,,,,,,,,,,,,,,,,,,,,,,,,,,,,,,,,reldom2_s007,001,2025-02-06_15h17.40.598,What-B-Scan_AC,2022.2.5,None,
,,,,,,,,,,,,,,,,,,,,,,,,,,,,,,,,,,,,,,,,,,,,0,0,0,0,,,,,,,,,9.530049208000037,9.530049208000037,5,17.013363583000228,,,,,,,,,,,,,,,,,,,,,,,,,,,,,,,,,,,,,,,,,,,,reldom2_s007,001,2025-02-06_15h17.40.598,What-B-Scan_AC,2022.2.5,None,
,,,,,,,,,,,,,,,,,,,,,,,,,,,,,,,,,,,,,,,,,,,,1,0,1,0,,,,,,,,,26.556664042000193,26.556664042000193,5,1.9865676240001449,,,,,,,,,,,,,,,,,,,,,,,,,,,,,,,,,,,,,,,,,,,,reldom2_s007,001,2025-02-06_15h17.40.598,What-B-Scan_AC,2022.2.5,None,
,,,,,,,,,,,,,,,,,,,,,,,,,,,,,,,,,,,,,,,,,,,,2,0,2,0,,,,,,,,,28.55534608300013,28.55534608300013,5,1.9904519990000153,,,,,,,,,,,,,,,,,,,,,,,,,,,,,,,,,,,,,,,,,,,,reldom2_s007,001,2025-02-06_15h17.40.598,What-B-Scan_AC,2022.2.5,None,
,,,,,,,,,,,,,,,,,,,,,,,,,,,,,,,,,,,,,,,,,,,,3,0,3,0,,,,,,,,,30.559581667000202,30.559581667000202,5,1.9840911250003046,,,,,,,,,,,,,,,,,,,,,,,,,,,,,,,,,,,,,,,,,,,,reldom2_s007,001,2025-02-06_15h17.40.598,What-B-Scan_AC,2022.2.5,None,
0,0.0,None,fixation,stimulus/viswhat_stim/blank_white.png,stimulus/viswhat_stim/blank_white.png,stimulus/audwhat_stim/blank_white.png,stimulus/audwhat_stim/blank_white.png,stimulus/viswhat_stim/blank_white.png,stimulus/viswhat_stim/blank_white.png,stimulus/viswhat_stim/blank_white.png,stimulus/viswhat_stim/blank_white.png,0.0,0.0,0.0,0.0,0,0.0,0,0.0,0,0.0,0,0.0,0,0.0,0.0,0,0.0,0,0.0,0,0.0,0,0.0,0,0.0,0,0.0,0,0.0,0,0.0,16,,,,,0,0,0,0,,,,,,,,,32.738761417000205,32.738761417000205,32.738761417000205,32.738761417000205,32.738761417000205,32.738761417000205,32.738761417000205,32.738761417000205,32.648355667000125,32.738761417000205,32.738761417000205,32.738761417000205,32.648355667000125,32.738761417000205,32.738761417000205,32.738761417000205,32.738761417000205,32.738761417000205,32.738761417000205,32.738761417000205,32.738761417000205,32.738761417000205,32.738761417000205,32.738761417000205,32.738761417000205,32.738761417000205,32.738761417000205,32.69835566700012,32.738761417000205,32.738761417000205,32.738761417000205,32.69835566700012,32.738761417000205,32.738761417000205,32.738761417000205,32.738761417000205,32.738761417000205,37.95216312499997,37.95216312499997,49.20253124999999,None,0,,reldom2_s007,001,2025-02-06_15h17.40.598,What-B-Scan_AC,2022.2.5,None,
1,First_Order,1.0,viswhat,stimulus/viswhat_stim/blank_white.png,stimulus/viswhat_stim/blank_white.png,stimulus/viswhat_stim/water_vehicle-pirateship.png,stimulus/viswhat_stim/water_animal-lobster.png,stimulus/viswhat_stim/blank_white.png,stimulus/viswhat_stim/location_box.png,stimulus/viswhat_stim/location_yes.png,stimulus/viswhat_stim/location_no.png,None,Location,None,Location,1,0.0,0,5.125,0,5.125,0,5.125,0,0.0,0.625,0,0.0,0,0.0,1,0.5,1,2.125,0,0.0,0,0.0,0,0.0,0,0.0,0,,,,,0,1,1,1,,,,,,,,,49.20253124999999,49.20253124999999,49.20253124999999,49.20253124999999,49.20253124999999,49.20253124999999,49.20253124999999,49.20253124999999,48.90691708300019,49.20253124999999,49.20253124999999,49.20253124999999,48.90691708300019,49.20253124999999,49.20253124999999,49.20253124999999,51.258455250000225,,49.20253124999999,49.20253124999999,54.486963708000076,49.643581708000056,50.818570333000025,51.258455250000225,52.432367500000055,49.20253124999999,49.20253124999999,49.05691708300019,49.20253124999999,49.20253124999999,49.20253124999999,49.05691708300019,49.20253124999999,49.20253124999999,54.486963708000076,49.20253124999999,54.486963708000076,54.346548583000185,,49.20253124999999,2,0,1.2201473740001347,reldom2_s007,001,2025-02-06_15h17.40.598,What-B-Scan_AC,2022.2.5,None,
2,First_Order,1.0,viswhat,stimulus/viswhat_stim/blank_white.png,stimulus/viswhat_stim/blank_white.png,stimulus/viswhat_stim/land_vehicle-firetruck.png,stimulus/viswhat_stim/water_vehicle-jetski.png,stimulus/viswhat_stim/blank_white.png,stimulus/viswhat_stim/location_box.png,stimulus/viswhat_stim/location_yes.png,stimulus/viswhat_stim/location_no.png,None,Location,None,Type,2,0.0,0,5.125,0,5.125,0,5.125,0,0.0,0.625,0,0.0,0,0.0,1,0.5,1,2.125,0,0.0,0,0.0,0,0.0,0,0.0,0,,,,,0,2,2,2,,,,,,,,,55.14337129200021,55.14337129200021,55.14337129200021,55.14337129200021,55.14337129200021,55.14337129200021,55.14337129200021,55.14337129200021,55.10281283333355,55.14337129200021,55.14337129200021,55.14337129200021,55.10281283333355,55.14337129200021,55.14337129200021,55.14337129200021,57.24027895800009,61.2940941249999,55.14337129200021,55.14337129200021,60.27245808299995,55.61441979200026,56.644870999999966,57.24027895800009,58.263489458000095,55.14337129200021,55.14337129200021,55.11947950000022,55.14337129200021,55.14337129200021,55.14337129200021,55.11947950000022,55.14337129200021,55.14337129200021,60.27245808299995,55.14337129200021,60.27245808299995,60.36752087500008,60.998824625,55.14337129200021,2,1,0.8517960409999432,reldom2_s007,001,2025-02-06_15h17.40.598,What-B-Scan_AC,2022.2.5,None,
3,First_Order,1.0,viswhat,stimulus/viswhat_stim/blank_white.png,stimulus/viswhat_stim/blank_white.png,stimulus/viswhat_stim/land_animal-moose.png,stimulus/viswhat_stim/water_animal-jellyfish.png,stimulus/viswhat_stim/blank_white.png,stimulus/viswhat_stim/type_box.png,stimulus/viswhat_stim/type_yes.png,stimulus/viswhat_stim/type_no.png,None,Type,None,Type,1,0.0,0,5.125,0,5.125,0,5.125,0,0.0,0.625,0,0.0,0,0.0,1,0.5,1,2.125,0,0.0,0,0.0,0,0.0,0,0.0,0,,,,,0,3,3,3,,,,,,,,,61.2940941249999,61.2940941249999,61.2940941249999,61.2940941249999,61.2940941249999,61.2940941249999,61.2940941249999,61.2940941249999,61.193239667000036,61.2940941249999,61.2940941249999,61.2940941249999,61.193239667000036,61.2940941249999,61.2940941249999,61.2940941249999,63.3470241670002,,61.2940941249999,61.2940941249999,66.48028787500016,61.77611470800002,62.8651836250001,63.3470241670002,64.43236866699999,61.2940941249999,61.2940941249999,61.24323966700003,61.2940941249999,61.2940941249999,61.2940941249999,61.24323966700003,61.2940941249999,61.2940941249999,66.48028787500016,61.2940941249999,66.48028787500016,66.48028787500016,67.35808862500016,61.2940941249999,1,1,3.092677124000147,reldom2_s007,001,2025-02-06_15h17.40.598,What-B-Scan_AC,2022.2.5,None,
4,First_Order,1.0,viswhat,stimulus/viswhat_stim/blank_white.png,stimulus/viswhat_stim/blank_white.png,stimulus/viswhat_stim/land_animal-tiger.png,stimulus/viswhat_stim/land_vehicle-rv.png,stimulus/viswhat_stim/blank_white.png,stimulus/viswhat_stim/type_box.png,stimulus/viswhat_stim/type_yes.png,stimulus/viswhat_stim/type_no.png,None,Type,None,Location,2,0.0,0,5.125,0,5.125,0,5.125,0,0.0,0.625,0,0.0,0,0.0,1,0.5,1,2.125,0,0.0,0,0.0,0,0.0,0,0.0,0,,,,,0,4,4,4,,,,,,,,,67.35808862500016,67.35808862500016,67.35808862500016,67.35808862500016,67.35808862500016,67.35808862500016,67.35808862500016,67.35808862500016,67.30568570866687,67.35808862500016,67.35808862500016,67.35808862500016,67.30568570866687,67.35808862500016,67.35808862500016,67.35808862500016,69.45778595799993,73.50803195800017,67.35808862500016,67.35808862500016,72.50111095800003,67.847243875,68.89967458299998,69.45778595799993,70.5084484580002,67.35808862500016,67.35808862500016,67.32235237533354,67.35808862500016,67.35808862500016,67.35808862500016,67.32235237533354,67.35808862500016,67.35808862500016,72.50111095800003,67.35808862500016,72.50111095800003,72.56104720800022,73.20766670800003,67.35808862500016,2,1,1.17293487500001,reldom2_s007,001,2025-02-06_15h17.40.598,What-B-Scan_AC,2022.2.5,None,
0,0.0,None,fixation,stimulus/viswhat_stim/blank_white.png,stimulus/viswhat_stim/blank_white.png,stimulus/audwhat_stim/blank_white.png,stimulus/audwhat_stim/blank_white.png,stimulus/viswhat_stim/blank_white.png,stimulus/viswhat_stim/blank_white.png,stimulus/viswhat_stim/blank_white.png,stimulus/viswhat_stim/blank_white.png,0.0,0.0,0.0,0.0,0,0.0,0,0.0,0,0.0,0,0.0,0,0.0,0.0,0,0.0,0,0.0,0,0.0,0,0.0,0,0.0,0,0.0,0,0.0,0,0.0,9,,,,,0,5,5,5,,,,,,,,,73.50803195800017,73.50803195800017,73.50803195800017,73.50803195800017,73.50803195800017,73.50803195800017,73.50803195800017,73.50803195800017,73.4126020836669,73.50803195800017,73.50803195800017,73.50803195800017,73.4126020836669,73.50803195800017,73.50803195800017,73.50803195800017,73.50803195800017,73.50803195800017,73.50803195800017,73.50803195800017,73.50803195800017,73.50803195800017,73.50803195800017,73.50803195800017,73.50803195800017,73.50803195800017,73.50803195800017,73.46260208366691,73.50803195800017,73.50803195800017,73.50803195800017,73.46260208366691,73.50803195800017,73.50803195800017,73.50803195800017,73.50803195800017,73.50803195800017,78.73238991700009,78.73238991700009,82.67618562500002,None,0,,reldom2_s007,001,2025-02-06_15h17.40.598,What-B-Scan_AC,2022.2.5,None,
5,Second_Order,1.0,viswhat,stimulus/viswhat_stim/land_animal-bunny.png,stimulus/viswhat_stim/land_vehicle-motorcycle.png,stimulus/viswhat_stim/water_animal-octopus.png,stimulus/viswhat_stim/land_animal-fox.png,stimulus/viswhat_stim/match_blank.png,stimulus/viswhat_stim/match_box.png,stimulus/viswhat_stim/match_yes.png,stimulus/viswhat_stim/match_no.png,2.0,Match,Location,Type,2,5.125,0,5.125,0,5.125,0,5.125,0,0.75,0.75,1,0.5,1,2.125,1,0.5,1,2.125,0,0.0,0,0.0,0,0.0,0,0.0,0,,,,,0,6,6,6,,,,,,,,,82.67618562500002,87.79914654200002,83.11894091700015,84.11726550000003,84.739941542,85.7373070829999,82.67618562500002,82.67618562500002,82.68258604166674,82.67618562500002,82.67618562500002,82.67618562500002,82.68258604166674,82.67618562500002,87.79914654200002,88.604711125,90.68420508300005,94.58644591700022,88.604711125,88.604711125,93.74288954200028,89.07558179199987,90.11569362499995,90.68420508300005,91.7285944170003,88.604711125,88.604711125,88.58194295799994,88.604711125,88.604711125,88.604711125,88.58194295799994,88.604711125,88.604711125,93.74288954200028,88.604711125,93.74288954200028,93.7949187500003,,88.604711125,2,1,0.7593212500000845,reldom2_s007,001,2025-02-06_15h17.40.598,What-B-Scan_AC,2022.2.5,None,
6,Second_Order,1.0,viswhat,stimulus/viswhat_stim/land_vehicle-tank.png,stimulus/viswhat_stim/land_animal-wolf.png,stimulus/viswhat_stim/water_vehicle-motorboatraft.png,stimulus/viswhat_stim/water_animal-squid.png,stimulus/viswhat_stim/match_blank.png,stimulus/viswhat_stim/match_box.png,stimulus/viswhat_stim/match_yes.png,stimulus/viswhat_stim/match_no.png,1.0,Match,Location,Location,1,5.125,0,5.125,0,5.125,0,5.125,0,0.625,0.625,1,0.5,1,2.125,1,0.5,1,2.125,0,0.0,0,0.0,0,0.0,0,0.0,0,,,,,0,7,7,7,,,,,,,,,94.58644591700022,99.7077676670001,95.06359316699991,96.06125308299988,96.68431429200018,97.68203725000012,94.58644591700022,94.58644591700022,94.58623074966687,94.58644591700022,94.58644591700022,94.58644591700022,94.58623074966687,94.58644591700022,99.7077676670001,100.38768441699995,102.4689115000001,106.52043595800023,100.38768441699995,100.38768441699995,105.54543420800019,100.83498950000012,101.87528108300012,102.4689115000001,103.48872412499986,100.38768441699995,100.38768441699995,100.37131308299995,100.38768441699995,100.38768441699995,100.38768441699995,100.37131308299995,100.38768441699995,100.38768441699995,105.54543420800019,100.38768441699995,105.54543420800019,105.5940599999999,106.24306370800014,100.38768441699995,1,1,0.8112418740001885,reldom2_s007,001,2025-02-06_15h17.40.598,What-B-Scan_AC,2022.2.5,None,
0,0.0,None,fixation,stimulus/viswhat_stim/blank_white.png,stimulus/viswhat_stim/blank_white.png,stimulus/audwhat_stim/blank_white.png,stimulus/audwhat_stim/blank_white.png,stimulus/viswhat_stim/blank_white.png,stimulus/viswhat_stim/blank_white.png,stimulus/viswhat_stim/blank_white.png,stimulus/viswhat_stim/blank_white.png,0.0,0.0,0.0,0.0,0,0.0,0,0.0,0,0.0,0,0.0,0,0.0,0.0,0,0.0,0,0.0,0,0.0,0,0.0,0,0.0,0,0.0,0,0.0,0,0.0,9,,,,,0,8,8,8,,,,,,,,,106.52043595800023,106.52043595800023,106.52043595800023,106.52043595800023,106.52043595800023,106.52043595800023,106.52043595800023,106.52043595800023,106.41521191699994,106.52043595800023,106.52043595800023,106.52043595800023,106.41521191699994,106.52043595800023,106.52043595800023,106.52043595800023,106.52043595800023,106.52043595800023,106.52043595800023,106.52043595800023,106.52043595800023,106.52043595800023,106.52043595800023,106.52043595800023,106.52043595800023,106.52043595800023,106.52043595800023,106.48187858366661,106.52043595800023,106.52043595800023,106.52043595800023,106.48187858366661,106.52043595800023,106.52043595800023,106.52043595800023,106.52043595800023,106.52043595800023,111.72841800000015,111.72841800000015,115.96994987500011,None,0,,reldom2_s007,001,2025-02-06_15h17.40.598,What-B-Scan_AC,2022.2.5,None,
7,First_Order,2.0,viswhat,stimulus/viswhat_stim/blank_white.png,stimulus/viswhat_stim/blank_white.png,stimulus/viswhat_stim/water_animal-lobster.png,stimulus/viswhat_stim/water_vehicle-canoe.png,stimulus/viswhat_stim/blank_white.png,stimulus/viswhat_stim/location_box.png,stimulus/viswhat_stim/location_yes.png,stimulus/viswhat_stim/location_no.png,None,Location,None,Location,1,0.0,0,5.125,0,5.125,0,5.125,0,0.0,0.625,0,0.0,0,0.0,1,0.5,1,2.125,0,0.0,0,0.0,0,0.0,0,0.0,0,,,,,0,9,9,9,,,,,,,,,115.96994987500011,115.96994987500011,115.96994987500011,115.96994987500011,115.96994987500011,115.96994987500011,115.96994987500011,115.96994987500011,115.68365737466654,115.96994987500011,115.96994987500011,115.96994987500011,115.68365737466654,115.96994987500011,115.96994987500011,115.96994987500011,117.94466125000008,,115.96994987500011,115.96994987500011,121.28058733299986,116.42585412500011,117.64134545800016,117.94466125000008,119.16144166699996,115.96994987500011,115.96994987500011,115.81699070799986,115.96994987500011,115.96994987500011,115.96994987500011,115.81699070799986,115.96994987500011,115.96994987500011,121.28058733299986,115.96994987500011,121.28058733299986,121.13400412500005,,115.96994987500011,1,1,0.715830250000181,reldom2_s007,001,2025-02-06_15h17.40.598,What-B-Scan_AC,2022.2.5,None,
8,First_Order,2.0,viswhat,stimulus/viswhat_stim/blank_white.png,stimulus/viswhat_stim/blank_white.png,stimulus/viswhat_stim/water_animal-jellyfish.png,stimulus/viswhat_stim/land_animal-bunny.png,stimulus/viswhat_stim/blank_white.png,stimulus/viswhat_stim/type_box.png,stimulus/viswhat_stim/type_yes.png,stimulus/viswhat_stim/type_no.png,None,Type,None,Type,1,0.0,0,5.125,0,5.125,0,5.125,0,0.0,0.625,0,0.0,0,0.0,1,0.5,1,2.125,0,0.0,0,0.0,0,0.0,0,0.0,0,,,,,0,10,10,10,,,,,,,,,122.01505329200018,122.01505329200018,122.01505329200018,122.01505329200018,122.01505329200018,122.01505329200018,122.01505329200018,122.01505329200018,121.92256887499988,122.01505329200018,122.01505329200018,122.01505329200018,121.92256887499988,122.01505329200018,122.01505329200018,122.01505329200018,124.08112475000007,128.1142395830002,122.01505329200018,122.01505329200018,127.205377667,122.49126550000028,123.55104262500026,124.08112475000007,125.14639225000019,122.01505329200018,122.01505329200018,121.9725688749999,122.01505329200018,122.01505329200018,122.01505329200018,121.9725688749999,122.01505329200018,122.01505329200018,127.205377667,122.01505329200018,127.205377667,127.205377667,127.86514054200006,122.01505329200018,1,1,0.9806005830000686,reldom2_s007,001,2025-02-06_15h17.40.598,What-B-Scan_AC,2022.2.5,None,
9,First_Order,2.0,viswhat,stimulus/viswhat_stim/blank_white.png,stimulus/viswhat_stim/blank_white.png,stimulus/viswhat_stim/land_animal-cat.png,stimulus/viswhat_stim/water_animal-whale (1).png,stimulus/viswhat_stim/blank_white.png,stimulus/viswhat_stim/location_box.png,stimulus/viswhat_stim/location_yes.png,stimulus/viswhat_stim/location_no.png,None,Location,None,Type,2,0.0,0,5.125,0,5.125,0,5.125,0,0.0,0.625,0,0.0,0,0.0,1,0.5,1,2.125,0,0.0,0,0.0,0,0.0,0,0.0,0,,,,,0,11,11,11,,,,,,,,,128.1142395830002,128.1142395830002,128.1142395830002,128.1142395830002,128.1142395830002,128.1142395830002,128.1142395830002,128.1142395830002,128.0622842500001,128.1142395830002,128.1142395830002,128.1142395830002,128.0622842500001,128.1142395830002,128.1142395830002,128.1142395830002,130.19930658300018,134.22554975000003,128.1142395830002,128.1142395830002,133.26401212500014,128.57170304200008,129.6144532080002,130.19930658300018,131.2154756670002,128.1142395830002,128.1142395830002,128.09561758333342,128.1142395830002,128.1142395830002,128.1142395830002,128.09561758333342,128.1142395830002,128.1142395830002,133.26401212500014,128.1142395830002,133.26401212500014,133.317942958,133.96077587499985,128.1142395830002,2,1,0.9312138330001289,reldom2_s007,001,2025-02-06_15h17.40.598,What-B-Scan_AC,2022.2.5,None,
10,First_Order,2.0,viswhat,stimulus/viswhat_stim/blank_white.png,stimulus/viswhat_stim/blank_white.png,stimulus/viswhat_stim/water_animal-shark.png,stimulus/viswhat_stim/water_vehicle-yacht.png,stimulus/viswhat_stim/blank_white.png,stimulus/viswhat_stim/type_box.png,stimulus/viswhat_stim/type_yes.png,stimulus/viswhat_stim/type_no.png,None,Type,None,Location,2,0.0,0,5.125,0,5.125,0,5.125,0,0.0,0.625,0,0.0,0,0.0,1,0.5,1,2.125,0,0.0,0,0.0,0,0.0,0,0.0,0,,,,,0,12,12,12,,,,,,,,,134.22554975000003,134.22554975000003,134.22554975000003,134.22554975000003,134.22554975000003,134.22554975000003,134.22554975000003,134.22554975000003,134.15762670866695,134.22554975000003,134.22554975000003,134.22554975000003,134.15762670866695,134.22554975000003,134.22554975000003,134.22554975000003,136.308869167,,134.22554975000003,134.22554975000003,139.39230258299995,134.70601687499993,135.74655458300003,136.308869167,137.35448720800014,134.22554975000003,134.22554975000003,134.19096004200028,134.22554975000003,134.22554975000003,134.22554975000003,134.19096004200028,134.22554975000003,134.22554975000003,139.39230258299995,134.22554975000003,139.39230258299995,139.43021325000018,140.1077614579999,134.22554975000003,2,1,1.5788104170005681,reldom2_s007,001,2025-02-06_15h17.40.598,What-B-Scan_AC,2022.2.5,None,
0,0.0,None,fixation,stimulus/viswhat_stim/blank_white.png,stimulus/viswhat_stim/blank_white.png,stimulus/audwhat_stim/blank_white.png,stimulus/audwhat_stim/blank_white.png,stimulus/viswhat_stim/blank_white.png,stimulus/viswhat_stim/blank_white.png,stimulus/viswhat_stim/blank_white.png,stimulus/viswhat_stim/blank_white.png,0.0,0.0,0.0,0.0,0,0.0,0,0.0,0,0.0,0,0.0,0,0.0,0.0,0,0.0,0,0.0,0,0.0,0,0.0,0,0.0,0,0.0,0,0.0,0,0.0,10,,,,,0,13,13,13,,,,,,,,,140.34118237500024,140.34118237500024,140.34118237500024,140.34118237500024,140.34118237500024,140.34118237500024,140.34118237500024,140.34118237500024,140.24109479133327,140.34118237500024,140.34118237500024,140.34118237500024,140.24109479133327,140.34118237500024,140.34118237500024,140.34118237500024,140.34118237500024,140.34118237500024,140.34118237500024,140.34118237500024,140.34118237500024,140.34118237500024,140.34118237500024,140.34118237500024,140.34118237500024,140.34118237500024,140.34118237500024,140.29109479133325,140.34118237500024,140.34118237500024,140.34118237500024,140.29109479133325,140.34118237500024,140.34118237500024,140.34118237500024,140.34118237500024,140.34118237500024,145.5206128330001,145.5206128330001,150.44865254200022,None,0,,reldom2_s007,001,2025-02-06_15h17.40.598,What-B-Scan_AC,2022.2.5,None,
11,Second_Order,2.0,viswhat,stimulus/viswhat_stim/land_animal-ostrich.png,stimulus/viswhat_stim/water_animal-stingray.png,stimulus/viswhat_stim/water_vehicle-cruiseship.png,stimulus/viswhat_stim/water_animal-seaturtle.png,stimulus/viswhat_stim/match_blank.png,stimulus/viswhat_stim/match_box.png,stimulus/viswhat_stim/match_yes.png,stimulus/viswhat_stim/match_no.png,2.0,Match,Type,Location,2,5.125,0,5.125,0,5.125,0,5.125,0,0.75,0.75,1,0.5,1,2.125,1,0.5,1,2.125,0,0.0,0,0.0,0,0.0,0,0.0,0,,,,,0,14,14,14,,,,,,,,,150.44865254200022,155.56957491699995,150.92543354200006,151.92335950000006,152.54912916700005,153.5483623330001,150.44865254200022,150.44865254200022,150.45884958333332,150.44865254200022,150.44865254200022,150.44865254200022,150.45884958333332,150.44865254200022,155.56957491699995,156.52456637500018,158.5750817080002,,156.52456637500018,156.52456637500018,161.7425961670001,156.9357489580002,158.06215720799992,158.5750817080002,159.70116504199996,156.52456637500018,156.52456637500018,156.42160433366678,156.52456637500018,156.52456637500018,156.52456637500018,156.42160433366678,156.52456637500018,156.52456637500018,161.7425961670001,156.52456637500018,161.7425961670001,161.64639145799993,,156.52456637500018,2,1,0.6121203739999146,reldom2_s007,001,2025-02-06_15h17.40.598,What-B-Scan_AC,2022.2.5,None,
12,Second_Order,2.0,viswhat,stimulus/viswhat_stim/land_animal-ostrich.png,stimulus/viswhat_stim/land_vehicle-oldcar.png,stimulus/viswhat_stim/water_vehicle-ship.png,stimulus/viswhat_stim/land_vehicle-vespa.png,stimulus/viswhat_stim/match_blank.png,stimulus/viswhat_stim/match_box.png,stimulus/viswhat_stim/match_yes.png,stimulus/viswhat_stim/match_no.png,2.0,Match,Location,Type,2,5.125,0,5.125,0,5.125,0,5.125,0,0.625,0.625,1,0.5,1,2.125,1,0.5,1,2.125,0,0.0,0,0.0,0,0.0,0,0.0,0,,,,,0,15,15,15,,,,,,,,,162.4539561669999,167.57649383299986,162.91559804200006,163.90470700000014,164.54123574999994,165.53819870799998,162.4539561669999,162.4539561669999,162.45933487533352,162.4539561669999,162.4539561669999,162.4539561669999,162.45933487533352,162.4539561669999,167.57649383299986,168.34287587500012,170.4120468330002,,168.34287587500012,168.34287587500012,173.52681816699987,168.75655050000023,169.86160745799998,170.4120468330002,171.52416541699995,168.34287587500012,168.34287587500012,168.27782412533347,168.34287587500012,168.34287587500012,168.34287587500012,168.27782412533347,168.34287587500012,168.34287587500012,173.52681816699987,168.34287587500012,173.52681816699987,173.52681816699987,174.44894116700016,168.34287587500012,2,1,0.8223970419999205,reldom2_s007,001,2025-02-06_15h17.40.598,What-B-Scan_AC,2022.2.5,None,
0,0.0,None,fixation,stimulus/viswhat_stim/blank_white.png,stimulus/viswhat_stim/blank_white.png,stimulus/audwhat_stim/blank_white.png,stimulus/audwhat_stim/blank_white.png,stimulus/viswhat_stim/blank_white.png,stimulus/viswhat_stim/blank_white.png,stimulus/viswhat_stim/blank_white.png,stimulus/viswhat_stim/blank_white.png,0.0,0.0,0.0,0.0,0,0.0,0,0.0,0,0.0,0,0.0,0,0.0,0.0,0,0.0,0,0.0,0,0.0,0,0.0,0,0.0,0,0.0,0,0.0,0,0.0,9,,,,,0,16,16,16,,,,,,,,,174.44894116700016,174.44894116700016,174.44894116700016,174.44894116700016,174.44894116700016,174.44894116700016,174.44894116700016,174.44894116700016,174.3453918333334,174.44894116700016,174.44894116700016,174.44894116700016,174.3453918333334,174.44894116700016,174.44894116700016,174.44894116700016,174.44894116700016,174.44894116700016,174.44894116700016,174.44894116700016,174.44894116700016,174.44894116700016,174.44894116700016,174.44894116700016,174.44894116700016,174.44894116700016,174.44894116700016,174.3953918333334,174.44894116700016,174.44894116700016,174.44894116700016,174.3953918333334,174.44894116700016,174.44894116700016,174.44894116700016,174.44894116700016,174.44894116700016,179.65628420800022,179.65628420800022,183.71474795799986,None,0,,reldom2_s007,001,2025-02-06_15h17.40.598,What-B-Scan_AC,2022.2.5,None,
13,First_Order,3.0,audwhat,stimulus/audwhat_stim/dummy.wav,stimulus/audwhat_stim/dummy.wav,stimulus/audwhat_stim/percussion mallet_low-pitch_Ftri_loud.wav,stimulus/audwhat_stim/percussion xylophone_high-pitch_Dtri_loud.wav,stimulus/audwhat_stim/blank_white.png,stimulus/audwhat_stim/pitch_box.png,stimulus/audwhat_stim/pitch_yes.png,stimulus/audwhat_stim/pitch_no.png,None,Pitch,None,Category,2,0.0,0,5.125,0,5.125,0,5.125,0,0.0,0.625,0,0.0,0,0.0,0,0.0,0,0.0,0,0.0,0,0.0,1,0.5,1,2.125,0,,,,,0,17,17,17,,,,,,,,,183.71474795799986,183.71474795799986,183.71474795799986,183.71474795799986,183.71474795799986,183.71474795799986,183.71474795799986,183.71474795799986,183.63782337466654,183.71474795799986,183.71474795799986,183.71474795799986,183.63782337466654,183.71474795799986,183.71474795799986,183.71474795799986,185.8186812920003,,183.71474795799986,183.71474795799986,188.90777404200026,183.71474795799986,183.71474795799986,183.71474795799986,183.71474795799986,184.1839561669999,185.25848616700023,184.15378762466688,,185.8186812920003,186.8522472919999,185.78781241666664,186.8522472919999,183.71474795799986,188.90777404200026,183.71474795799986,188.90777404200026,188.90777404200026,189.5635179169999,183.71474795799986,2,1,1.2022941240002183,reldom2_s007,001,2025-02-06_15h17.40.598,What-B-Scan_AC,2022.2.5,None,
14,First_Order,3.0,audwhat,stimulus/audwhat_stim/dummy.wav,stimulus/audwhat_stim/dummy.wav,stimulus/audwhat_stim/string cello_low-pitch_D_loud.wav,stimulus/audwhat_stim/percussion mallet_low-pitch_D_loud.wav,stimulus/audwhat_stim/blank_white.png,stimulus/audwhat_stim/pitch_box.png,stimulus/audwhat_stim/pitch_yes.png,stimulus/audwhat_stim/pitch_no.png,None,Pitch,None,Pitch,1,0.0,0,5.125,0,5.125,0,5.125,0,0.0,0.625,0,0.0,0,0.0,0,0.0,0,0.0,0,0.0,0,0.0,1,0.5,1,2.125,0,,,,,0,18,18,18,,,,,,,,,189.82178537500022,189.82178537500022,189.82178537500022,189.82178537500022,189.82178537500022,189.82178537500022,189.82178537500022,189.82178537500022,189.7375473333333,189.82178537500022,189.82178537500022,189.82178537500022,189.7375473333333,189.82178537500022,189.82178537500022,189.82178537500022,191.92766254200023,,189.82178537500022,189.82178537500022,194.9747147920002,189.82178537500022,189.82178537500022,189.82178537500022,189.82178537500022,190.28815733300007,191.31989783300014,190.25835683366657,,191.92766254200023,192.96212708300027,191.89752749966672,,189.82178537500022,194.9747147920002,189.82178537500022,194.9747147920002,195.01645133300008,195.6759387080001,189.82178537500022,1,1,0.8801800000001094,reldom2_s007,001,2025-02-06_15h17.40.598,What-B-Scan_AC,2022.2.5,None,
15,First_Order,3.0,audwhat,stimulus/audwhat_stim/dummy.wav,stimulus/audwhat_stim/dummy.wav,stimulus/audwhat_stim/string cello_high-pitch_D_loud.wav,stimulus/audwhat_stim/string cello_low-pitch_Ftri_loud.wav,stimulus/audwhat_stim/blank_white.png,stimulus/audwhat_stim/category_box.png,stimulus/audwhat_stim/category_yes.png,stimulus/audwhat_stim/category_no.png,None,Category,None,Category,1,0.0,0,5.125,0,5.125,0,5.125,0,0.0,0.625,0,0.0,0,0.0,0,0.0,0,0.0,0,0.0,0,0.0,1,0.5,1,2.125,0,,,,,0,19,19,19,,,,,,,,,195.93400904200007,195.93400904200007,195.93400904200007,195.93400904200007,195.93400904200007,195.93400904200007,195.93400904200007,195.93400904200007,195.85021579133323,195.93400904200007,195.93400904200007,195.93400904200007,195.85021579133323,195.93400904200007,195.93400904200007,195.93400904200007,198.00747091699986,,195.93400904200007,195.93400904200007,201.11852395799997,195.93400904200007,195.93400904200007,195.93400904200007,195.93400904200007,196.40567187500028,197.4448254580002,196.37496937466656,,198.00747091699986,199.0486558749999,197.97660229166675,,195.93400904200007,201.11852395799997,195.93400904200007,201.11852395799997,201.16077483300023,201.8219563749999,195.93400904200007,1,1,0.9041193740004019,reldom2_s007,001,2025-02-06_15h17.40.598,What-B-Scan_AC,2022.2.5,None,
16,First_Order,3.0,audwhat,stimulus/audwhat_stim/dummy.wav,stimulus/audwhat_stim/dummy.wav,stimulus/audwhat_stim/string viola_low-pitch_F_loud.wav,stimulus/audwhat_stim/percussion mallet_low-pitch_F_loud.wav,stimulus/audwhat_stim/blank_white.png,stimulus/audwhat_stim/category_box.png,stimulus/audwhat_stim/category_yes.png,stimulus/audwhat_stim/category_no.png,None,Category,None,Pitch,2,0.0,0,5.125,0,5.125,0,5.125,0,0.0,0.625,0,0.0,0,0.0,0,0.0,0,0.0,0,0.0,0,0.0,1,0.5,1,2.125,0,,,,,0,20,20,20,,,,,,,,,202.04196645799993,202.04196645799993,202.04196645799993,202.04196645799993,202.04196645799993,202.04196645799993,202.04196645799993,202.04196645799993,201.95528970833325,202.04196645799993,202.04196645799993,202.04196645799993,201.95528970833325,202.04196645799993,202.04196645799993,202.04196645799993,204.1140754170001,,202.04196645799993,202.04196645799993,207.22501887499993,202.04196645799993,202.04196645799993,202.04196645799993,202.04196645799993,202.51203516700025,203.54914845800022,202.48160337466678,,204.1140754170001,205.15424274999987,204.0841938746669,,202.04196645799993,207.22501887499993,202.04196645799993,207.22501887499993,207.26681300000018,207.92907858299986,202.04196645799993,2,1,1.8195401660000243,reldom2_s007,001,2025-02-06_15h17.40.598,What-B-Scan_AC,2022.2.5,None,
0,0.0,None,fixation,stimulus/viswhat_stim/blank_white.png,stimulus/viswhat_stim/blank_white.png,stimulus/audwhat_stim/blank_white.png,stimulus/audwhat_stim/blank_white.png,stimulus/viswhat_stim/blank_white.png,stimulus/viswhat_stim/blank_white.png,stimulus/viswhat_stim/blank_white.png,stimulus/viswhat_stim/blank_white.png,0.0,0.0,0.0,0.0,0,0.0,0,0.0,0,0.0,0,0.0,0,0.0,0.0,0,0.0,0,0.0,0,0.0,0,0.0,0,0.0,0,0.0,0,0.0,0,0.0,9,,,,,0,21,21,21,,,,,,,,,208.16654966700025,208.16654966700025,208.16654966700025,208.16654966700025,208.16654966700025,208.16654966700025,208.16654966700025,208.16654966700025,208.06241191633322,208.16654966700025,208.16654966700025,208.16654966700025,208.06241191633322,208.16654966700025,208.16654966700025,208.16654966700025,208.16654966700025,208.16654966700025,208.16654966700025,208.16654966700025,208.16654966700025,208.16654966700025,208.16654966700025,208.16654966700025,208.16654966700025,208.16654966700025,208.16654966700025,208.1124119163332,208.16654966700025,208.16654966700025,208.16654966700025,208.1124119163332,208.16654966700025,208.16654966700025,208.16654966700025,208.16654966700025,208.16654966700025,213.36245983300023,213.36245983300023,217.30130533300007,None,0,,reldom2_s007,001,2025-02-06_15h17.40.598,What-B-Scan_AC,2022.2.5,None,
17,Second_Order,3.0,audwhat,stimulus/audwhat_stim/percussion mallet_high-pitch_Ftri_loud.wav,stimulus/audwhat_stim/string cello_high-pitch_Ftri_loud.wav,stimulus/audwhat_stim/percussion mallet_low-pitch_D_loud.wav,stimulus/audwhat_stim/string viola_low-pitch_D_loud.wav,stimulus/viswhat_stim/match_blank.png,stimulus/viswhat_stim/match_box.png,stimulus/viswhat_stim/match_yes.png,stimulus/viswhat_stim/match_no.png,1.0,Match,Pitch,Pitch,1,5.125,0,5.125,0,5.125,0,5.125,0,0.75,0.75,0,0.0,0,0.0,0,0.0,0,0.0,1,0.5,1,2.125,1,0.5,1,2.125,0,,,,,0,22,22,22,,,,,,,,,217.30130533300007,222.42382262499996,217.30130533300007,217.30130533300007,217.30130533300007,217.30130533300007,217.7589089170001,218.7476622500003,217.7623392496669,218.76084229200023,219.38423212499993,220.38120900000013,219.3961427916668,,222.42382262499996,223.25838795800018,225.3177881669999,229.26848195799994,223.25838795800018,223.25838795800018,228.44880016700017,223.25838795800018,223.25838795800018,223.25838795800018,223.25838795800018,223.72378883300007,224.75627995800005,223.6932189996667,,225.3177881669999,226.39418225000009,225.28715799966656,,223.25838795800018,228.44880016700017,223.25838795800018,228.44880016700017,228.44880016700017,,223.25838795800018,1,1,0.9579699580003762,reldom2_s007,001,2025-02-06_15h17.40.598,What-B-Scan_AC,2022.2.5,None,
18,Second_Order,3.0,audwhat,stimulus/audwhat_stim/percussion mallet_high-pitch_Dtri_loud.wav,stimulus/audwhat_stim/string cello_high-pitch_Dtri_loud.wav,stimulus/audwhat_stim/string viola_low-pitch_Ftri_loud.wav,stimulus/audwhat_stim/percussion mallet_low-pitch_Ftri_loud.wav,stimulus/viswhat_stim/match_blank.png,stimulus/viswhat_stim/match_box.png,stimulus/viswhat_stim/match_yes.png,stimulus/viswhat_stim/match_no.png,1.0,Match,Pitch,Pitch,1,5.125,0,5.125,0,5.125,0,5.125,0,0.625,0.625,0,0.0,0,0.0,0,0.0,0,0.0,1,0.5,1,2.125,1,0.5,1,2.125,0,,,,,0,23,23,23,,,,,,,,,229.26848195799994,234.38525208300007,229.26848195799994,229.26848195799994,229.26848195799994,229.26848195799994,229.7234227920003,230.72212500000023,229.73601408366656,230.73002933299995,231.34466408300023,232.3425037080001,231.35674266666663,,234.38525208300007,235.0949546249999,237.18702754200012,,235.0949546249999,235.0949546249999,240.26146508300008,235.0949546249999,235.0949546249999,235.0949546249999,235.0949546249999,235.55802249999988,236.62939300000016,235.5274922086667,,237.18702754200012,238.26209749999998,237.1567950416668,,235.0949546249999,240.26146508300008,235.0949546249999,240.26146508300008,240.30208833300003,240.95988258299985,235.0949546249999,1,1,0.7583099580001544,reldom2_s007,001,2025-02-06_15h17.40.598,What-B-Scan_AC,2022.2.5,None,
0,0.0,None,fixation,stimulus/viswhat_stim/blank_white.png,stimulus/viswhat_stim/blank_white.png,stimulus/audwhat_stim/blank_white.png,stimulus/audwhat_stim/blank_white.png,stimulus/viswhat_stim/blank_white.png,stimulus/viswhat_stim/blank_white.png,stimulus/viswhat_stim/blank_white.png,stimulus/viswhat_stim/blank_white.png,0.0,0.0,0.0,0.0,0,0.0,0,0.0,0,0.0,0,0.0,0,0.0,0.0,0,0.0,0,0.0,0,0.0,0,0.0,0,0.0,0,0.0,0,0.0,0,0.0,8,,,,,0,24,24,24,,,,,,,,,241.19679225000027,241.19679225000027,241.19679225000027,241.19679225000027,241.19679225000027,241.19679225000027,241.19679225000027,241.19679225000027,241.0932159163332,241.19679225000027,241.19679225000027,241.19679225000027,241.0932159163332,241.19679225000027,241.19679225000027,241.19679225000027,241.19679225000027,241.19679225000027,241.19679225000027,241.19679225000027,241.19679225000027,241.19679225000027,241.19679225000027,241.19679225000027,241.19679225000027,241.19679225000027,241.19679225000027,241.1432159163332,241.19679225000027,241.19679225000027,241.19679225000027,241.1432159163332,241.19679225000027,241.19679225000027,241.19679225000027,241.19679225000027,241.19679225000027,246.40396787500003,246.40396787500003,249.4423497920002,None,0,,reldom2_s007,001,2025-02-06_15h17.40.598,What-B-Scan_AC,2022.2.5,None,
19,First_Order,4.0,audwhat,stimulus/audwhat_stim/dummy.wav,stimulus/audwhat_stim/dummy.wav,stimulus/audwhat_stim/percussion mallet_low-pitch_Ftri_loud.wav,stimulus/audwhat_stim/string viola_low-pitch_Ftri_loud.wav,stimulus/audwhat_stim/blank_white.png,stimulus/audwhat_stim/pitch_box.png,stimulus/audwhat_stim/pitch_yes.png,stimulus/audwhat_stim/pitch_no.png,None,Pitch,None,Pitch,1,0.0,0,5.125,0,5.125,0,5.125,0,0.0,0.625,0,0.0,0,0.0,0,0.0,0,0.0,0,0.0,0,0.0,1,0.5,1,2.125,0,,,,,0,25,25,25,,,,,,,,,249.4423497920002,249.4423497920002,249.4423497920002,249.4423497920002,249.4423497920002,249.4423497920002,249.4423497920002,249.4423497920002,249.36721145866676,249.4423497920002,249.4423497920002,249.4423497920002,249.36721145866676,249.4423497920002,249.4423497920002,249.4423497920002,251.54882300000008,,249.4423497920002,249.4423497920002,254.5922949579999,249.4423497920002,249.4423497920002,249.4423497920002,249.4423497920002,249.9107362499999,250.94124979200024,249.8807310836667,,251.54882300000008,252.58225733300014,251.51856591666663,,249.4423497920002,254.5922949579999,249.4423497920002,254.5922949579999,254.63348083300025,255.29066529200009,249.4423497920002,1,1,1.9307859989999088,reldom2_s007,001,2025-02-06_15h17.40.598,What-B-Scan_AC,2022.2.5,None,
20,First_Order,4.0,audwhat,stimulus/audwhat_stim/dummy.wav,stimulus/audwhat_stim/dummy.wav,stimulus/audwhat_stim/string viola_low-pitch_F_loud.wav,stimulus/audwhat_stim/string cello_high-pitch_Ftri_loud.wav,stimulus/audwhat_stim/blank_white.png,stimulus/audwhat_stim/category_box.png,stimulus/audwhat_stim/category_yes.png,stimulus/audwhat_stim/category_no.png,None,Category,None,Category,1,0.0,0,5.125,0,5.125,0,5.125,0,0.0,0.625,0,0.0,0,0.0,0,0.0,0,0.0,0,0.0,0,0.0,1,0.5,1,2.125,0,,,,,0,26,26,26,,,,,,,,,255.54726983299997,255.54726983299997,255.54726983299997,255.54726983299997,255.54726983299997,255.54726983299997,255.54726983299997,255.54726983299997,255.46462233333355,255.54726983299997,255.54726983299997,255.54726983299997,255.46462233333355,255.54726983299997,255.54726983299997,255.54726983299997,257.6222280000002,,255.54726983299997,255.54726983299997,260.73649049999995,255.54726983299997,255.54726983299997,255.54726983299997,255.54726983299997,256.01971249999997,257.0575436250001,255.98881999966696,,257.6222280000002,258.66321500000004,257.5920135836666,,255.54726983299997,260.73649049999995,255.54726983299997,260.73649049999995,260.73649049999995,261.39996129200017,255.54726983299997,1,1,0.8346318330000031,reldom2_s007,001,2025-02-06_15h17.40.598,What-B-Scan_AC,2022.2.5,None,
21,First_Order,4.0,audwhat,stimulus/audwhat_stim/dummy.wav,stimulus/audwhat_stim/dummy.wav,stimulus/audwhat_stim/string viola_high-pitch_F_loud.wav,stimulus/audwhat_stim/percussion mallet_high-pitch_F_loud.wav,stimulus/audwhat_stim/blank_white.png,stimulus/audwhat_stim/category_box.png,stimulus/audwhat_stim/category_yes.png,stimulus/audwhat_stim/category_no.png,None,Category,None,Pitch,2,0.0,0,5.125,0,5.125,0,5.125,0,0.0,0.625,0,0.0,0,0.0,0,0.0,0,0.0,0,0.0,0,0.0,1,0.5,1,2.125,0,,,,,0,27,27,27,,,,,,,,,261.665712125,261.665712125,261.665712125,261.665712125,261.665712125,261.665712125,261.665712125,261.665712125,261.5752146663332,261.665712125,261.665712125,261.665712125,261.5752146663332,261.665712125,261.665712125,261.665712125,263.74184887499996,,261.665712125,261.665712125,266.85383308300015,261.665712125,261.665712125,261.665712125,261.665712125,262.13702408300014,263.176905583,262.1060820416667,,263.74184887499996,264.78384600000027,263.71100120866663,,261.665712125,266.85383308300015,261.665712125,266.85383308300015,266.85383308300015,267.5165471670002,261.665712125,2,1,0.8527404170004047,reldom2_s007,001,2025-02-06_15h17.40.598,What-B-Scan_AC,2022.2.5,None,
22,First_Order,4.0,audwhat,stimulus/audwhat_stim/dummy.wav,stimulus/audwhat_stim/dummy.wav,stimulus/audwhat_stim/percussion xylophone_high-pitch_D_loud.wav,stimulus/audwhat_stim/percussion mallet_low-pitch_F_loud.wav,stimulus/audwhat_stim/blank_white.png,stimulus/audwhat_stim/pitch_box.png,stimulus/audwhat_stim/pitch_yes.png,stimulus/audwhat_stim/pitch_no.png,None,Pitch,None,Category,2,0.0,0,5.125,0,5.125,0,5.125,0,0.0,0.625,0,0.0,0,0.0,0,0.0,0,0.0,0,0.0,0,0.0,1,0.5,1,2.125,0,,,,,0,28,28,28,,,,,,,,,267.77444166700025,267.77444166700025,267.77444166700025,267.77444166700025,267.77444166700025,267.77444166700025,267.77444166700025,267.77444166700025,267.6906017913335,267.77444166700025,267.77444166700025,267.77444166700025,267.6906017913335,267.77444166700025,267.77444166700025,267.77444166700025,269.84587316700026,,267.77444166700025,267.77444166700025,272.94717683299996,267.77444166700025,267.77444166700025,267.77444166700025,267.77444166700025,268.2449677499999,269.2825764170002,268.2142970416669,269.2825764170002,269.84587316700026,270.8826245,269.8150839586667,,267.77444166700025,272.94717683299996,267.77444166700025,272.94717683299996,272.988384708,273.64971295800024,267.77444166700025,2,1,1.878983916999914,reldom2_s007,001,2025-02-06_15h17.40.598,What-B-Scan_AC,2022.2.5,None,
0,0.0,None,fixation,stimulus/viswhat_stim/blank_white.png,stimulus/viswhat_stim/blank_white.png,stimulus/audwhat_stim/blank_white.png,stimulus/audwhat_stim/blank_white.png,stimulus/viswhat_stim/blank_white.png,stimulus/viswhat_stim/blank_white.png,stimulus/viswhat_stim/blank_white.png,stimulus/viswhat_stim/blank_white.png,0.0,0.0,0.0,0.0,0,0.0,0,0.0,0,0.0,0,0.0,0,0.0,0.0,0,0.0,0,0.0,0,0.0,0,0.0,0,0.0,0,0.0,0,0.0,0,0.0,10,,,,,0,29,29,29,,,,,,,,,273.8863812499999,273.8863812499999,273.8863812499999,273.8863812499999,273.8863812499999,273.8863812499999,273.8863812499999,273.8863812499999,273.78304629133356,273.8863812499999,273.8863812499999,273.8863812499999,273.78304629133356,273.8863812499999,273.8863812499999,273.8863812499999,273.8863812499999,273.8863812499999,273.8863812499999,273.8863812499999,273.8863812499999,273.8863812499999,273.8863812499999,273.8863812499999,273.8863812499999,273.8863812499999,273.8863812499999,273.8330462913336,273.8863812499999,273.8863812499999,273.8863812499999,273.8330462913336,273.8863812499999,273.8863812499999,273.8863812499999,273.8863812499999,273.8863812499999,279.08007854200014,279.08007854200014,284.0470820830001,None,0,,reldom2_s007,001,2025-02-06_15h17.40.598,What-B-Scan_AC,2022.2.5,None,
23,Second_Order,4.0,audwhat,stimulus/audwhat_stim/percussion mallet_high-pitch_Ftri_loud.wav,stimulus/audwhat_stim/percussion mallet_low-pitch_Dtri_loud.wav,stimulus/audwhat_stim/percussion mallet_high-pitch_D_loud.wav,stimulus/audwhat_stim/string viola_high-pitch_D_loud.wav,stimulus/viswhat_stim/match_blank.png,stimulus/viswhat_stim/match_box.png,stimulus/viswhat_stim/match_yes.png,stimulus/viswhat_stim/match_no.png,2.0,Match,Category,Pitch,2,5.125,0,5.125,0,5.125,0,5.125,0,0.75,0.75,0,0.0,0,0.0,0,0.0,0,0.0,1,0.5,1,2.125,1,0.5,1,2.125,0,,,,,0,30,30,30,,,,,,,,,284.0470820830001,289.1622655420001,284.0470820830001,284.0470820830001,284.0470820830001,284.0470820830001,284.5002522499999,285.49811612500025,284.51282762466667,285.5059110830002,286.1208459170002,287.118587208,286.1331294996669,287.12662041700014,289.1622655420001,289.99000112500016,292.05262195800015,296.007757375,289.99000112500016,289.99000112500016,295.1441742500001,289.99000112500016,289.99000112500016,289.99000112500016,289.99000112500016,290.45765770800017,291.48981058300024,290.4281658336665,,292.05262195800015,293.08521737499996,292.0214589166669,,289.99000112500016,295.1441742500001,289.99000112500016,295.1441742500001,295.18572495800026,,289.99000112500016,2,1,1.054423625000254,reldom2_s007,001,2025-02-06_15h17.40.598,What-B-Scan_AC,2022.2.5,None,
24,Second_Order,4.0,audwhat,stimulus/audwhat_stim/string viola_high-pitch_Dtri_loud.wav,stimulus/audwhat_stim/percussion mallet_high-pitch_Dtri_loud.wav,stimulus/audwhat_stim/string cello_low-pitch_Dtri_loud.wav,stimulus/audwhat_stim/string viola_high-pitch_Ftri_loud.wav,stimulus/viswhat_stim/match_blank.png,stimulus/viswhat_stim/match_box.png,stimulus/viswhat_stim/match_yes.png,stimulus/viswhat_stim/match_no.png,2.0,Match,Pitch,Category,2,5.125,0,5.125,0,5.125,0,5.125,0,0.625,0.625,0,0.0,0,0.0,0,0.0,0,0.0,1,0.5,1,2.125,1,0.5,1,2.125,0,,,,,0,31,31,31,,,,,,,,,296.007757375,301.12213529200017,296.007757375,296.007757375,296.007757375,296.007757375,296.4609479169999,297.4595723749999,296.4732770416665,,298.0819945000003,299.0798560420003,298.0939464996666,299.0879020420002,301.12213529200017,301.8320399170002,303.937467792,,301.8320399170002,301.8320399170002,306.9971820420001,301.8320399170002,301.8320399170002,301.8320399170002,301.8320399170002,302.29687779200003,303.32641033300024,302.26643829166665,,303.937467792,304.9762787499999,303.9055817916667,,301.8320399170002,306.9971820420001,301.8320399170002,306.9971820420001,307.0391515420001,307.7010740830001,301.8320399170002,2,1,1.1005676660001882,reldom2_s007,001,2025-02-06_15h17.40.598,What-B-Scan_AC,2022.2.5,None,
0,0.0,None,fixation,stimulus/viswhat_stim/blank_white.png,stimulus/viswhat_stim/blank_white.png,stimulus/audwhat_stim/blank_white.png,stimulus/audwhat_stim/blank_white.png,stimulus/viswhat_stim/blank_white.png,stimulus/viswhat_stim/blank_white.png,stimulus/viswhat_stim/blank_white.png,stimulus/viswhat_stim/blank_white.png,0.0,0.0,0.0,0.0,0,0.0,0,0.0,0,0.0,0,0.0,0,0.0,0.0,0,0.0,0,0.0,0,0.0,0,0.0,0,0.0,0,0.0,0,0.0,0,0.0,9,,,,,0,32,32,32,,,,,,,,,307.9381470829999,307.9381470829999,307.9381470829999,307.9381470829999,307.9381470829999,307.9381470829999,307.9381470829999,307.9381470829999,307.8344074163334,307.9381470829999,307.9381470829999,307.9381470829999,307.8344074163334,307.9381470829999,307.9381470829999,307.9381470829999,307.9381470829999,307.9381470829999,307.9381470829999,307.9381470829999,307.9381470829999,307.9381470829999,307.9381470829999,307.9381470829999,307.9381470829999,307.9381470829999,307.9381470829999,307.88440741633343,307.9381470829999,307.9381470829999,307.9381470829999,307.88440741633343,307.9381470829999,307.9381470829999,307.9381470829999,307.9381470829999,307.9381470829999,313.12878691700007,313.12878691700007,317.2255297920001,None,0,,reldom2_s007,001,2025-02-06_15h17.40.598,What-B-Scan_AC,2022.2.5,None,
25,First_Order,5.0,viswhat,stimulus/viswhat_stim/blank_white.png,stimulus/viswhat_stim/blank_white.png,stimulus/viswhat_stim/land_animal-elephant.png,stimulus/viswhat_stim/land_vehicle-firetruck.png,stimulus/viswhat_stim/blank_white.png,stimulus/viswhat_stim/location_box.png,stimulus/viswhat_stim/location_yes.png,stimulus/viswhat_stim/location_no.png,None,Location,None,Location,1,0.0,0,5.125,0,5.125,0,5.125,0,0.0,0.625,0,0.0,0,0.0,1,0.5,1,2.125,0,0.0,0,0.0,0,0.0,0,0.0,0,,,,,0,33,33,33,,,,,,,,,317.2255297920001,317.2255297920001,317.2255297920001,317.2255297920001,317.2255297920001,317.2255297920001,317.2255297920001,317.2255297920001,317.12045287466674,317.2255297920001,317.2255297920001,317.2255297920001,317.12045287466674,317.2255297920001,317.2255297920001,317.2255297920001,319.3295161250003,323.29354462499987,317.2255297920001,317.2255297920001,322.392336375,317.7063787080001,318.7891278750003,319.3295161250003,320.41147283300006,317.2255297920001,317.2255297920001,317.17045287466675,317.2255297920001,317.2255297920001,317.2255297920001,317.17045287466675,317.2255297920001,317.2255297920001,322.392336375,317.2255297920001,322.392336375,322.4464042499999,323.29354462499987,317.2255297920001,1,1,1.5549679160003507,reldom2_s007,001,2025-02-06_15h17.40.598,What-B-Scan_AC,2022.2.5,None,
26,First_Order,5.0,viswhat,stimulus/viswhat_stim/blank_white.png,stimulus/viswhat_stim/blank_white.png,stimulus/viswhat_stim/land_vehicle-tank.png,stimulus/viswhat_stim/land_animal-pig.png,stimulus/viswhat_stim/blank_white.png,stimulus/viswhat_stim/type_box.png,stimulus/viswhat_stim/type_yes.png,stimulus/viswhat_stim/type_no.png,None,Type,None,Location,2,0.0,0,5.125,0,5.125,0,5.125,0,0.0,0.625,0,0.0,0,0.0,1,0.5,1,2.125,0,0.0,0,0.0,0,0.0,0,0.0,0,,,,,0,34,34,34,,,,,,,,,323.29354462499987,323.29354462499987,323.29354462499987,323.29354462499987,323.29354462499987,323.29354462499987,323.29354462499987,323.29354462499987,323.2661926666666,323.29354462499987,323.29354462499987,323.29354462499987,323.2661926666666,323.29354462499987,323.29354462499987,323.29354462499987,325.402131583,329.46483829199997,323.29354462499987,323.29354462499987,328.4200202920001,323.78140320800003,324.805133542,325.402131583,326.4272363330001,323.29354462499987,323.29354462499987,323.2828593333333,323.29354462499987,323.29354462499987,323.29354462499987,323.2828593333333,323.29354462499987,323.29354462499987,328.4200202920001,323.29354462499987,328.4200202920001,328.51874287500004,329.15048212500005,323.29354462499987,2,1,0.5579452910001237,reldom2_s007,001,2025-02-06_15h17.40.598,What-B-Scan_AC,2022.2.5,None,
27,First_Order,5.0,viswhat,stimulus/viswhat_stim/blank_white.png,stimulus/viswhat_stim/blank_white.png,stimulus/viswhat_stim/land_animal-moose.png,stimulus/viswhat_stim/land_vehicle-vespa.png,stimulus/viswhat_stim/blank_white.png,stimulus/viswhat_stim/location_box.png,stimulus/viswhat_stim/location_yes.png,stimulus/viswhat_stim/location_no.png,None,Location,None,Location,1,0.0,0,5.125,0,5.125,0,5.125,0,0.0,0.625,0,0.0,0,0.0,1,0.5,1,2.125,0,0.0,0,0.0,0,0.0,0,0.0,0,,,,,0,35,35,35,,,,,,,,,329.46483829199997,329.46483829199997,329.46483829199997,329.46483829199997,329.46483829199997,329.46483829199997,329.46483829199997,329.46483829199997,329.3342570413336,329.46483829199997,329.46483829199997,329.46483829199997,329.3342570413336,329.46483829199997,329.46483829199997,329.46483829199997,331.56964537500016,,329.46483829199997,329.46483829199997,334.6891082500001,329.9390874169999,331.02846208300025,331.56964537500016,332.6594184579999,329.46483829199997,329.46483829199997,329.4009237080003,329.46483829199997,329.46483829199997,329.46483829199997,329.4009237080003,329.46483829199997,329.46483829199997,334.6891082500001,329.46483829199997,334.6891082500001,334.6891082500001,335.58621895800025,329.46483829199997,1,1,0.7120361249999405,reldom2_s007,001,2025-02-06_15h17.40.598,What-B-Scan_AC,2022.2.5,None,
28,First_Order,5.0,viswhat,stimulus/viswhat_stim/blank_white.png,stimulus/viswhat_stim/blank_white.png,stimulus/viswhat_stim/land_animal-giraffe.png,stimulus/viswhat_stim/water_animal-squid.png,stimulus/viswhat_stim/blank_white.png,stimulus/viswhat_stim/location_box.png,stimulus/viswhat_stim/location_yes.png,stimulus/viswhat_stim/location_no.png,None,Location,None,Type,2,0.0,0,5.125,0,5.125,0,5.125,0,0.0,0.625,0,0.0,0,0.0,1,0.5,1,2.125,0,0.0,0,0.0,0,0.0,0,0.0,0,,,,,0,36,36,36,,,,,,,,,335.58621895800025,335.58621895800025,335.58621895800025,335.58621895800025,335.58621895800025,335.58621895800025,335.58621895800025,335.58621895800025,335.4926021253336,335.58621895800025,335.58621895800025,335.58621895800025,335.4926021253336,335.58621895800025,335.58621895800025,335.58621895800025,337.6638081670003,,335.58621895800025,335.58621895800025,340.7477589170003,336.0335381250002,337.1036228329999,337.6638081670003,338.73570174999986,335.58621895800025,335.58621895800025,335.54260212533353,335.58621895800025,335.58621895800025,335.58621895800025,335.54260212533353,335.58621895800025,335.58621895800025,340.7477589170003,335.58621895800025,340.7477589170003,340.79816633300015,341.7087944580003,335.58621895800025,2,1,0.8078657490000296,reldom2_s007,001,2025-02-06_15h17.40.598,What-B-Scan_AC,2022.2.5,None,
0,0.0,None,fixation,stimulus/viswhat_stim/blank_white.png,stimulus/viswhat_stim/blank_white.png,stimulus/audwhat_stim/blank_white.png,stimulus/audwhat_stim/blank_white.png,stimulus/viswhat_stim/blank_white.png,stimulus/viswhat_stim/blank_white.png,stimulus/viswhat_stim/blank_white.png,stimulus/viswhat_stim/blank_white.png,0.0,0.0,0.0,0.0,0,0.0,0,0.0,0,0.0,0,0.0,0,0.0,0.0,0,0.0,0,0.0,0,0.0,0,0.0,0,0.0,0,0.0,0,0.0,0,0.0,9,,,,,0,37,37,37,,,,,,,,,341.7087944580003,341.7087944580003,341.7087944580003,341.7087944580003,341.7087944580003,341.7087944580003,341.7087944580003,341.7087944580003,341.601004042,341.7087944580003,341.7087944580003,341.7087944580003,341.601004042,341.7087944580003,341.7087944580003,341.7087944580003,341.7087944580003,341.7087944580003,341.7087944580003,341.7087944580003,341.7087944580003,341.7087944580003,341.7087944580003,341.7087944580003,341.7087944580003,341.7087944580003,341.7087944580003,341.66767070866666,341.7087944580003,341.7087944580003,341.7087944580003,341.66767070866666,341.7087944580003,341.7087944580003,341.7087944580003,341.7087944580003,341.7087944580003,346.93476558300017,346.93476558300017,350.8744406670003,None,0,,reldom2_s007,001,2025-02-06_15h17.40.598,What-B-Scan_AC,2022.2.5,None,
29,Second_Order,5.0,viswhat,stimulus/viswhat_stim/water_vehicle-pirateship.png,stimulus/viswhat_stim/land_vehicle-schoolbus.png,stimulus/viswhat_stim/water_animal-dolphin.png,stimulus/viswhat_stim/land_animal-cat.png,stimulus/viswhat_stim/match_blank.png,stimulus/viswhat_stim/match_box.png,stimulus/viswhat_stim/match_yes.png,stimulus/viswhat_stim/match_no.png,1.0,Match,Type,Type,1,5.125,0,5.125,0,5.125,0,5.125,0,0.75,0.75,1,0.5,1,2.125,1,0.5,1,2.125,0,0.0,0,0.0,0,0.0,0,0.0,0,,,,,0,38,38,38,,,,,,,,,350.8744406670003,355.99867729200014,351.3497421249999,352.33839045800005,352.975580542,353.9727217919999,350.8744406670003,350.8744406670003,350.87720504133324,350.8744406670003,350.8744406670003,350.8744406670003,350.87720504133324,350.8744406670003,355.99867729200014,356.801979417,358.87612637500024,362.8647165000002,356.801979417,356.801979417,361.9534412080002,357.25596895800027,358.29257425000014,358.87612637500024,359.91610575000004,356.801979417,356.801979417,356.7827649170002,356.801979417,356.801979417,356.801979417,356.7827649170002,356.801979417,356.801979417,361.9534412080002,356.801979417,361.9534412080002,362.006842667,,356.801979417,1,1,0.5266560830004892,reldom2_s007,001,2025-02-06_15h17.40.598,What-B-Scan_AC,2022.2.5,None,
30,Second_Order,5.0,viswhat,stimulus/viswhat_stim/water_animal-orka.png,stimulus/viswhat_stim/land_animal-bunny.png,stimulus/viswhat_stim/land_vehicle-motorcycle.png,stimulus/viswhat_stim/water_vehicle-motorboatraft.png,stimulus/viswhat_stim/match_blank.png,stimulus/viswhat_stim/match_box.png,stimulus/viswhat_stim/match_yes.png,stimulus/viswhat_stim/match_no.png,1.0,Match,Type,Type,1,5.125,0,5.125,0,5.125,0,5.125,0,0.625,0.625,1,0.5,1,2.125,1,0.5,1,2.125,0,0.0,0,0.0,0,0.0,0,0.0,0,,,,,0,39,39,39,,,,,,,,,362.8647165000002,367.988320292,363.278645417,364.26662754200015,364.90280787500024,365.9004292079999,362.8647165000002,362.8647165000002,362.8775947080002,362.8647165000002,362.8647165000002,362.8647165000002,362.8775947080002,362.8647165000002,367.988320292,368.6628679579999,370.7731263750002,374.8078547079999,368.6628679579999,368.6628679579999,373.81764816700024,369.1443556250001,370.1700416670001,370.7731263750002,371.8034562920002,368.6628679579999,368.6628679579999,368.6400321663332,368.6628679579999,368.6628679579999,368.6628679579999,368.6400321663332,368.6628679579999,368.6628679579999,373.81764816700024,368.6628679579999,373.81764816700024,373.8664692080001,374.4991815000003,368.6628679579999,1,1,0.6436730410005111,reldom2_s007,001,2025-02-06_15h17.40.598,What-B-Scan_AC,2022.2.5,None,
0,0.0,None,fixation,stimulus/viswhat_stim/blank_white.png,stimulus/viswhat_stim/blank_white.png,stimulus/audwhat_stim/blank_white.png,stimulus/audwhat_stim/blank_white.png,stimulus/viswhat_stim/blank_white.png,stimulus/viswhat_stim/blank_white.png,stimulus/viswhat_stim/blank_white.png,stimulus/viswhat_stim/blank_white.png,0.0,0.0,0.0,0.0,0,0.0,0,0.0,0,0.0,0,0.0,0,0.0,0.0,0,0.0,0,0.0,0,0.0,0,0.0,0,0.0,0,0.0,0,0.0,0,0.0,9,,,,,0,40,40,40,,,,,,,,,374.8078547079999,374.8078547079999,374.8078547079999,374.8078547079999,374.8078547079999,374.8078547079999,374.8078547079999,374.8078547079999,374.71456437466657,374.8078547079999,374.8078547079999,374.8078547079999,374.71456437466657,374.8078547079999,374.8078547079999,374.8078547079999,374.8078547079999,374.8078547079999,374.8078547079999,374.8078547079999,374.8078547079999,374.8078547079999,374.8078547079999,374.8078547079999,374.8078547079999,374.8078547079999,374.8078547079999,374.7645643746665,374.8078547079999,374.8078547079999,374.8078547079999,374.7645643746665,374.8078547079999,374.8078547079999,374.8078547079999,374.8078547079999,374.8078547079999,380.034116542,380.034116542,384.0851785,None,0,,reldom2_s007,001,2025-02-06_15h17.40.598,What-B-Scan_AC,2022.2.5,None,
31,First_Order,6.0,viswhat,stimulus/viswhat_stim/blank_white.png,stimulus/viswhat_stim/blank_white.png,stimulus/viswhat_stim/water_vehicle-ship.png,stimulus/viswhat_stim/land_vehicle-schoolbus.png,stimulus/viswhat_stim/blank_white.png,stimulus/viswhat_stim/location_box.png,stimulus/viswhat_stim/location_yes.png,stimulus/viswhat_stim/location_no.png,None,Location,None,Type,2,0.0,0,5.125,0,5.125,0,5.125,0,0.0,0.625,0,0.0,0,0.0,1,0.5,1,2.125,0,0.0,0,0.0,0,0.0,0,0.0,0,,,,,0,41,41,41,,,,,,,,,384.0851785,384.0851785,384.0851785,384.0851785,384.0851785,384.0851785,384.0851785,384.0851785,383.9777064166666,384.0851785,384.0851785,384.0851785,383.9777064166666,384.0851785,384.0851785,384.0851785,386.1679999170001,,384.0851785,384.0851785,389.2791849170003,384.5135807500001,385.6162276250002,386.1679999170001,387.27163066699995,384.0851785,384.0851785,384.0277064166666,384.0851785,384.0851785,384.0851785,384.0277064166666,384.0851785,384.0851785,389.2791849170003,384.0851785,389.2791849170003,389.2791849170003,389.9423202080002,384.0851785,2,1,2.0507464170000276,reldom2_s007,001,2025-02-06_15h17.40.598,What-B-Scan_AC,2022.2.5,None,
32,First_Order,6.0,viswhat,stimulus/viswhat_stim/blank_white.png,stimulus/viswhat_stim/blank_white.png,stimulus/viswhat_stim/land_vehicle-bus.png,stimulus/viswhat_stim/water_vehicle-jetski.png,stimulus/viswhat_stim/blank_white.png,stimulus/viswhat_stim/type_box.png,stimulus/viswhat_stim/type_yes.png,stimulus/viswhat_stim/type_no.png,None,Type,None,Type,1,0.0,0,5.125,0,5.125,0,5.125,0,0.0,0.625,0,0.0,0,0.0,1,0.5,1,2.125,0,0.0,0,0.0,0,0.0,0,0.0,0,,,,,0,42,42,42,,,,,,,,,390.1527510830001,390.1527510830001,390.1527510830001,390.1527510830001,390.1527510830001,390.1527510830001,390.1527510830001,390.1527510830001,390.1089868746668,390.1527510830001,390.1527510830001,390.1527510830001,390.1089868746668,390.1527510830001,390.1527510830001,390.1527510830001,392.24193979200027,396.24706433300025,390.1527510830001,390.1527510830001,395.29973625,390.63163183300003,391.6727812080003,392.24193979200027,393.28337154200017,390.1527510830001,390.1527510830001,390.1256535413335,390.1527510830001,390.1527510830001,390.1527510830001,390.1256535413335,390.1527510830001,390.1527510830001,395.29973625,390.1527510830001,395.29973625,395.3719599169999,396.01625270800014,390.1527510830001,1,1,1.156859333000284,reldom2_s007,001,2025-02-06_15h17.40.598,What-B-Scan_AC,2022.2.5,None,
33,First_Order,6.0,viswhat,stimulus/viswhat_stim/blank_white.png,stimulus/viswhat_stim/blank_white.png,stimulus/viswhat_stim/water_animal-seahorse.png,stimulus/viswhat_stim/water_vehicle-cabincruiser.png,stimulus/viswhat_stim/blank_white.png,stimulus/viswhat_stim/type_box.png,stimulus/viswhat_stim/type_yes.png,stimulus/viswhat_stim/type_no.png,None,Type,None,Location,2,0.0,0,5.125,0,5.125,0,5.125,0,0.0,0.625,0,0.0,0,0.0,1,0.5,1,2.125,0,0.0,0,0.0,0,0.0,0,0.0,0,,,,,0,43,43,43,,,,,,,,,396.24706433300025,396.24706433300025,396.24706433300025,396.24706433300025,396.24706433300025,396.24706433300025,396.24706433300025,396.24706433300025,396.1871777920001,396.24706433300025,396.24706433300025,396.24706433300025,396.1871777920001,396.24706433300025,396.24706433300025,396.24706433300025,398.3503326250002,402.3588705830002,396.24706433300025,396.24706433300025,401.4095107500002,396.7054470420003,397.755647083,398.3503326250002,399.37190495799996,396.24706433300025,396.24706433300025,396.2205111253335,396.24706433300025,396.24706433300025,396.24706433300025,396.2205111253335,396.24706433300025,396.24706433300025,401.4095107500002,396.24706433300025,401.4095107500002,401.46824675000016,402.1126158330003,396.24706433300025,2,1,1.1889009580004313,reldom2_s007,001,2025-02-06_15h17.40.598,What-B-Scan_AC,2022.2.5,None,
34,First_Order,6.0,viswhat,stimulus/viswhat_stim/blank_white.png,stimulus/viswhat_stim/blank_white.png,stimulus/viswhat_stim/land_animal-tiger.png,stimulus/viswhat_stim/water_animal-octopus.png,stimulus/viswhat_stim/blank_white.png,stimulus/viswhat_stim/type_box.png,stimulus/viswhat_stim/type_yes.png,stimulus/viswhat_stim/type_no.png,None,Type,None,Type,1,0.0,0,5.125,0,5.125,0,5.125,0,0.0,0.625,0,0.0,0,0.0,1,0.5,1,2.125,0,0.0,0,0.0,0,0.0,0,0.0,0,,,,,0,44,44,44,,,,,,,,,402.3588705830002,402.3588705830002,402.3588705830002,402.3588705830002,402.3588705830002,402.3588705830002,402.3588705830002,402.3588705830002,402.2877790416668,402.3588705830002,402.3588705830002,402.3588705830002,402.2877790416668,402.3588705830002,402.3588705830002,402.3588705830002,404.43195349999996,,402.3588705830002,402.3588705830002,407.52264079199995,402.8451231670001,403.9006485,404.43195349999996,405.49719562500013,402.3588705830002,402.3588705830002,402.3211123750001,402.3588705830002,402.3588705830002,402.3588705830002,402.3211123750001,402.3588705830002,402.3588705830002,407.52264079199995,402.3588705830002,407.52264079199995,407.56057545800013,408.2085655000001,402.3588705830002,1,1,0.5106758330002776,reldom2_s007,001,2025-02-06_15h17.40.598,What-B-Scan_AC,2022.2.5,None,
0,0.0,None,fixation,stimulus/viswhat_stim/blank_white.png,stimulus/viswhat_stim/blank_white.png,stimulus/audwhat_stim/blank_white.png,stimulus/audwhat_stim/blank_white.png,stimulus/viswhat_stim/blank_white.png,stimulus/viswhat_stim/blank_white.png,stimulus/viswhat_stim/blank_white.png,stimulus/viswhat_stim/blank_white.png,0.0,0.0,0.0,0.0,0,0.0,0,0.0,0,0.0,0,0.0,0,0.0,0.0,0,0.0,0,0.0,0,0.0,0,0.0,0,0.0,0,0.0,0,0.0,0,0.0,8,,,,,0,45,45,45,,,,,,,,,408.4815552079999,408.4815552079999,408.4815552079999,408.4815552079999,408.4815552079999,408.4815552079999,408.4815552079999,408.4815552079999,408.3803017083334,408.4815552079999,408.4815552079999,408.4815552079999,408.3803017083334,408.4815552079999,408.4815552079999,408.4815552079999,408.4815552079999,408.4815552079999,408.4815552079999,408.4815552079999,408.4815552079999,408.4815552079999,408.4815552079999,408.4815552079999,408.4815552079999,408.4815552079999,408.4815552079999,408.4303017083334,408.4815552079999,408.4815552079999,408.4815552079999,408.4303017083334,408.4815552079999,408.4815552079999,408.4815552079999,408.4815552079999,408.4815552079999,413.7065634579999,413.7065634579999,416.60730783300005,None,0,,reldom2_s007,001,2025-02-06_15h17.40.598,What-B-Scan_AC,2022.2.5,None,
35,Second_Order,6.0,viswhat,stimulus/viswhat_stim/land_animal-wolf.png,stimulus/viswhat_stim/land_vehicle-schoolbus.png,stimulus/viswhat_stim/water_animal-shark.png,stimulus/viswhat_stim/water_vehicle-ship.png,stimulus/viswhat_stim/match_blank.png,stimulus/viswhat_stim/match_box.png,stimulus/viswhat_stim/match_yes.png,stimulus/viswhat_stim/match_no.png,1.0,Match,Location,Location,1,5.125,0,5.125,0,5.125,0,5.125,0,0.75,0.75,1,0.5,1,2.125,1,0.5,1,2.125,0,0.0,0,0.0,0,0.0,0,0.0,0,,,,,0,46,46,46,,,,,,,,,416.60730783300005,421.7292796249999,417.0727796670003,418.0708127920002,418.7101412920001,419.7085655000001,416.60730783300005,416.60730783300005,416.6119059163335,416.60730783300005,416.60730783300005,416.60730783300005,416.6119059163335,416.60730783300005,421.7292796249999,422.61735233299987,424.67054591700025,,422.61735233299987,422.61735233299987,427.85284491699986,423.0408685420002,424.1036588750003,424.67054591700025,425.735570542,422.61735233299987,422.61735233299987,422.5475097913334,422.61735233299987,422.61735233299987,422.61735233299987,422.5475097913334,422.61735233299987,422.61735233299987,427.85284491699986,422.61735233299987,427.85284491699986,427.78826641700016,,422.61735233299987,1,1,0.4236772080002993,reldom2_s007,001,2025-02-06_15h17.40.598,What-B-Scan_AC,2022.2.5,None,
36,Second_Order,6.0,viswhat,stimulus/viswhat_stim/land_vehicle-oldcar.png,stimulus/viswhat_stim/land_animal-cat.png,stimulus/viswhat_stim/water_vehicle-cargoboat.png,stimulus/viswhat_stim/water_animal-orka.png,stimulus/viswhat_stim/match_blank.png,stimulus/viswhat_stim/match_box.png,stimulus/viswhat_stim/match_yes.png,stimulus/viswhat_stim/match_no.png,1.0,Match,Location,Location,1,5.125,0,5.125,0,5.125,0,5.125,0,0.625,0.625,1,0.5,1,2.125,1,0.5,1,2.125,0,0.0,0,0.0,0,0.0,0,0.0,0,,,,,0,47,47,47,,,,,,,,,428.6082858330001,433.72909974999993,429.0628032919999,430.05185520800023,430.6875194580002,431.68559637499993,428.6082858330001,428.6082858330001,428.6208235833332,428.6082858330001,428.6082858330001,428.6082858330001,428.6208235833332,428.6082858330001,433.72909974999993,434.48444879199997,436.56310833299995,440.6163146250001,434.48444879199997,434.48444879199997,439.6560963330003,434.95425816700026,436.02667733299995,436.56310833299995,437.643200042,434.48444879199997,434.48444879199997,434.42510375033345,434.48444879199997,434.48444879199997,434.48444879199997,434.42510375033345,434.48444879199997,434.48444879199997,439.6560963330003,434.48444879199997,439.6560963330003,439.6560963330003,440.333030708,434.48444879199997,1,1,0.5744422080001641,reldom2_s007,001,2025-02-06_15h17.40.598,What-B-Scan_AC,2022.2.5,None,
0,0.0,None,fixation,stimulus/viswhat_stim/blank_white.png,stimulus/viswhat_stim/blank_white.png,stimulus/audwhat_stim/blank_white.png,stimulus/audwhat_stim/blank_white.png,stimulus/viswhat_stim/blank_white.png,stimulus/viswhat_stim/blank_white.png,stimulus/viswhat_stim/blank_white.png,stimulus/viswhat_stim/blank_white.png,0.0,0.0,0.0,0.0,0,0.0,0,0.0,0,0.0,0,0.0,0,0.0,0.0,0,0.0,0,0.0,0,0.0,0,0.0,0,0.0,0,0.0,0,0.0,0,0.0,10,,,,,0,48,48,48,,,,,,,,,440.6163146250001,440.6163146250001,440.6163146250001,440.6163146250001,440.6163146250001,440.6163146250001,440.6163146250001,440.6163146250001,440.51636404133336,440.6163146250001,440.6163146250001,440.6163146250001,440.51636404133336,440.6163146250001,440.6163146250001,440.6163146250001,440.6163146250001,440.6163146250001,440.6163146250001,440.6163146250001,440.6163146250001,440.6163146250001,440.6163146250001,440.6163146250001,440.6163146250001,440.6163146250001,440.6163146250001,440.5663640413333,440.6163146250001,440.6163146250001,440.6163146250001,440.5663640413333,440.6163146250001,440.6163146250001,440.6163146250001,440.6163146250001,440.6163146250001,445.8476001250001,445.8476001250001,450.8957519579999,None,0,,reldom2_s007,001,2025-02-06_15h17.40.598,What-B-Scan_AC,2022.2.5,None,
37,First_Order,7.0,audwhat,stimulus/audwhat_stim/dummy.wav,stimulus/audwhat_stim/dummy.wav,stimulus/audwhat_stim/string viola_low-pitch_Ftri_loud.wav,stimulus/audwhat_stim/string viola_high-pitch_Dtri_loud.wav,stimulus/audwhat_stim/blank_white.png,stimulus/audwhat_stim/category_box.png,stimulus/audwhat_stim/category_yes.png,stimulus/audwhat_stim/category_no.png,None,Category,None,Category,1,0.0,0,5.125,0,5.125,0,5.125,0,0.0,0.625,0,0.0,0,0.0,0,0.0,0,0.0,0,0.0,0,0.0,1,0.5,1,2.125,0,,,,,0,49,49,49,,,,,,,,,450.8957519579999,450.8957519579999,450.8957519579999,450.8957519579999,450.8957519579999,450.8957519579999,450.8957519579999,450.8957519579999,450.8194710416666,450.8957519579999,450.8957519579999,450.8957519579999,450.8194710416666,450.8957519579999,450.8957519579999,450.8957519579999,452.975471708,457.01373179200027,450.8957519579999,450.8957519579999,456.08973916700006,450.8957519579999,450.8957519579999,450.8957519579999,450.8957519579999,451.367731458,452.4063900000001,451.3373280416665,,452.975471708,454.01354579200006,452.9442121246668,,450.8957519579999,456.08973916700006,450.8957519579999,456.08973916700006,456.08973916700006,456.75605162500005,450.8957519579999,1,1,1.091983583000001,reldom2_s007,001,2025-02-06_15h17.40.598,What-B-Scan_AC,2022.2.5,None,
38,First_Order,7.0,audwhat,stimulus/audwhat_stim/dummy.wav,stimulus/audwhat_stim/dummy.wav,stimulus/audwhat_stim/percussion mallet_high-pitch_D_loud.wav,stimulus/audwhat_stim/string viola_high-pitch_D_loud.wav,stimulus/audwhat_stim/blank_white.png,stimulus/audwhat_stim/pitch_box.png,stimulus/audwhat_stim/pitch_yes.png,stimulus/audwhat_stim/pitch_no.png,None,Pitch,None,Pitch,1,0.0,0,5.125,0,5.125,0,5.125,0,0.0,0.625,0,0.0,0,0.0,0,0.0,0,0.0,0,0.0,0,0.0,1,0.5,1,2.125,0,,,,,0,50,50,50,,,,,,,,,457.01373179200027,457.01373179200027,457.01373179200027,457.01373179200027,457.01373179200027,457.01373179200027,457.01373179200027,457.01373179200027,456.9305236663332,457.01373179200027,457.01373179200027,457.01373179200027,456.9305236663332,457.01373179200027,457.01373179200027,457.01373179200027,459.08353725000006,463.1465687499999,457.01373179200027,457.01373179200027,462.18389641700014,457.01373179200027,457.01373179200027,457.01373179200027,457.01373179200027,457.485565125,458.51873045799994,457.4547954996667,,459.08353725000006,460.1226807920002,459.0532026246667,,457.01373179200027,462.18389641700014,457.01373179200027,462.18389641700014,462.225187042,462.887628208,457.01373179200027,1,1,0.7099171670001851,reldom2_s007,001,2025-02-06_15h17.40.598,What-B-Scan_AC,2022.2.5,None,
39,First_Order,7.0,audwhat,stimulus/audwhat_stim/dummy.wav,stimulus/audwhat_stim/dummy.wav,stimulus/audwhat_stim/string viola_low-pitch_Dtri_loud.wav,stimulus/audwhat_stim/percussion mallet_low-pitch_Dtri_loud.wav,stimulus/audwhat_stim/blank_white.png,stimulus/audwhat_stim/category_box.png,stimulus/audwhat_stim/category_yes.png,stimulus/audwhat_stim/category_no.png,None,Category,None,Pitch,2,0.0,0,5.125,0,5.125,0,5.125,0,0.0,0.625,0,0.0,0,0.0,0,0.0,0,0.0,0,0.0,0,0.0,1,0.5,1,2.125,0,,,,,0,51,51,51,,,,,,,,,463.1465687499999,463.1465687499999,463.1465687499999,463.1465687499999,463.1465687499999,463.1465687499999,463.1465687499999,463.1465687499999,463.0623217503336,463.1465687499999,463.1465687499999,463.1465687499999,463.0623217503336,463.1465687499999,463.1465687499999,463.1465687499999,465.2300142920003,469.26314675000003,463.1465687499999,463.1465687499999,468.2967389579999,463.1465687499999,463.1465687499999,463.1465687499999,463.1465687499999,463.6214897079999,464.66244000000006,463.59013108366685,,465.2300142920003,466.2700462920002,465.19906008366684,,463.1465687499999,468.2967389579999,463.1465687499999,468.2967389579999,468.338677708,469.00484537500006,463.1465687499999,2,1,0.727620332999777,reldom2_s007,001,2025-02-06_15h17.40.598,What-B-Scan_AC,2022.2.5,None,
40,First_Order,7.0,audwhat,stimulus/audwhat_stim/dummy.wav,stimulus/audwhat_stim/dummy.wav,stimulus/audwhat_stim/string viola_high-pitch_F_loud.wav,stimulus/audwhat_stim/string viola_low-pitch_Ftri_loud.wav,stimulus/audwhat_stim/blank_white.png,stimulus/audwhat_stim/pitch_box.png,stimulus/audwhat_stim/pitch_yes.png,stimulus/audwhat_stim/pitch_no.png,None,Pitch,None,Category,2,0.0,0,5.125,0,5.125,0,5.125,0,0.0,0.625,0,0.0,0,0.0,0,0.0,0,0.0,0,0.0,0,0.0,1,0.5,1,2.125,0,,,,,0,52,52,52,,,,,,,,,469.26314675000003,469.26314675000003,469.26314675000003,469.26314675000003,469.26314675000003,469.26314675000003,469.26314675000003,469.26314675000003,469.17980329133354,469.26314675000003,469.26314675000003,469.26314675000003,469.17980329133354,469.26314675000003,469.26314675000003,469.26314675000003,471.33768425000017,,469.26314675000003,469.26314675000003,474.44374562500025,469.26314675000003,469.26314675000003,469.26314675000003,469.26314675000003,469.7346000000002,470.7726137079999,469.7039019166666,,471.33768425000017,472.37563387499995,471.3067920836668,,469.26314675000003,474.44374562500025,469.26314675000003,474.44374562500025,474.4855713750003,475.1483887919999,469.26314675000003,2,1,2.48314366600016,reldom2_s007,001,2025-02-06_15h17.40.598,What-B-Scan_AC,2022.2.5,None,
0,0.0,None,fixation,stimulus/viswhat_stim/blank_white.png,stimulus/viswhat_stim/blank_white.png,stimulus/audwhat_stim/blank_white.png,stimulus/audwhat_stim/blank_white.png,stimulus/viswhat_stim/blank_white.png,stimulus/viswhat_stim/blank_white.png,stimulus/viswhat_stim/blank_white.png,stimulus/viswhat_stim/blank_white.png,0.0,0.0,0.0,0.0,0,0.0,0,0.0,0,0.0,0,0.0,0,0.0,0.0,0,0.0,0,0.0,0,0.0,0,0.0,0,0.0,0,0.0,0,0.0,0,0.0,9,,,,,0,53,53,53,,,,,,,,,475.386491708,475.386491708,475.386491708,475.386491708,475.386491708,475.386491708,475.386491708,475.386491708,475.2817221253332,475.386491708,475.386491708,475.386491708,475.2817221253332,475.386491708,475.386491708,475.386491708,475.386491708,475.386491708,475.386491708,475.386491708,475.386491708,475.386491708,475.386491708,475.386491708,475.386491708,475.386491708,475.386491708,475.3317221253332,475.386491708,475.386491708,475.386491708,475.3317221253332,475.386491708,475.386491708,475.386491708,475.386491708,475.386491708,480.596875792,480.596875792,484.5380117499999,None,0,,reldom2_s007,001,2025-02-06_15h17.40.598,What-B-Scan_AC,2022.2.5,None,
41,Second_Order,7.0,audwhat,stimulus/audwhat_stim/percussion mallet_low-pitch_F_loud.wav,stimulus/audwhat_stim/percussion mallet_high-pitch_D_loud.wav,stimulus/audwhat_stim/string cello_low-pitch_Dtri_loud.wav,stimulus/audwhat_stim/string viola_high-pitch_F_loud.wav,stimulus/viswhat_stim/match_blank.png,stimulus/viswhat_stim/match_box.png,stimulus/viswhat_stim/match_yes.png,stimulus/viswhat_stim/match_no.png,1.0,Match,Category,Category,1,5.125,0,5.125,0,5.125,0,5.125,0,0.75,0.75,0,0.0,0,0.0,0,0.0,0,0.0,1,0.5,1,2.125,1,0.5,1,2.125,0,,,,,0,54,54,54,,,,,,,,,484.5380117499999,489.6571711249999,484.5380117499999,484.5380117499999,484.5380117499999,484.5380117499999,484.99610441699997,485.99430066700006,485.0086636246667,486.002274208,486.61683512499985,487.61450650000006,486.6289005836668,487.622384583,489.6571711249999,490.4872276250003,492.55005166699993,496.51180491700006,490.4872276250003,490.4872276250003,495.64985558299986,490.4872276250003,490.4872276250003,490.4872276250003,490.4872276250003,490.95461816700026,491.98611970799993,490.9246719166665,,492.55005166699993,493.5849082919999,492.5185927496666,,490.4872276250003,495.64985558299986,490.4872276250003,495.64985558299986,495.691210167,,490.4872276250003,1,1,0.9094320409999455,reldom2_s007,001,2025-02-06_15h17.40.598,What-B-Scan_AC,2022.2.5,None,
42,Second_Order,7.0,audwhat,stimulus/audwhat_stim/percussion mallet_high-pitch_Ftri_loud.wav,stimulus/audwhat_stim/percussion mallet_low-pitch_F_loud.wav,stimulus/audwhat_stim/percussion mallet_low-pitch_Dtri_loud.wav,stimulus/audwhat_stim/string viola_low-pitch_Dtri_loud.wav,stimulus/viswhat_stim/match_blank.png,stimulus/viswhat_stim/match_box.png,stimulus/viswhat_stim/match_yes.png,stimulus/viswhat_stim/match_no.png,2.0,Match,Category,Pitch,2,5.125,0,5.125,0,5.125,0,5.125,0,0.625,0.625,0,0.0,0,0.0,0,0.0,0,0.0,1,0.5,1,2.125,1,0.5,1,2.125,0,,,,,0,55,55,55,,,,,,,,,496.51180491700006,501.6344852500001,496.51180491700006,496.51180491700006,496.51180491700006,496.51180491700006,496.96949758300025,497.95844083300017,496.9729186666666,497.9715566670002,498.5945710830001,499.5919616670003,498.6068216246665,499.599465625,501.6344852500001,502.344580083,504.44616562500005,508.48623154200004,502.344580083,502.344580083,507.5073713750003,502.344580083,502.344580083,502.344580083,502.344580083,502.8113417079999,503.88607358299987,502.7808632086669,,504.44616562500005,505.4937406250001,504.41558595866695,,502.344580083,507.5073713750003,502.344580083,507.5073713750003,507.5487829580002,508.208101875,502.344580083,2,1,0.8164534160000585,reldom2_s007,001,2025-02-06_15h17.40.598,What-B-Scan_AC,2022.2.5,None,
0,0.0,None,fixation,stimulus/viswhat_stim/blank_white.png,stimulus/viswhat_stim/blank_white.png,stimulus/audwhat_stim/blank_white.png,stimulus/audwhat_stim/blank_white.png,stimulus/viswhat_stim/blank_white.png,stimulus/viswhat_stim/blank_white.png,stimulus/viswhat_stim/blank_white.png,stimulus/viswhat_stim/blank_white.png,0.0,0.0,0.0,0.0,0,0.0,0,0.0,0,0.0,0,0.0,0,0.0,0.0,0,0.0,0,0.0,0,0.0,0,0.0,0,0.0,0,0.0,0,0.0,0,0.0,9,,,,,0,56,56,56,,,,,,,,,508.48623154200004,508.48623154200004,508.48623154200004,508.48623154200004,508.48623154200004,508.48623154200004,508.48623154200004,508.48623154200004,508.3827518753334,508.48623154200004,508.48623154200004,508.48623154200004,508.3827518753334,508.48623154200004,508.48623154200004,508.48623154200004,508.48623154200004,508.48623154200004,508.48623154200004,508.48623154200004,508.48623154200004,508.48623154200004,508.48623154200004,508.48623154200004,508.48623154200004,508.48623154200004,508.48623154200004,508.4327518753334,508.48623154200004,508.48623154200004,508.48623154200004,508.4327518753334,508.48623154200004,508.48623154200004,508.48623154200004,508.48623154200004,508.48623154200004,513.715741208,513.715741208,517.7425942079999,None,0,,reldom2_s007,001,2025-02-06_15h17.40.598,What-B-Scan_AC,2022.2.5,None,
43,First_Order,8.0,audwhat,stimulus/audwhat_stim/dummy.wav,stimulus/audwhat_stim/dummy.wav,stimulus/audwhat_stim/string cello_high-pitch_D_loud.wav,stimulus/audwhat_stim/string cello_low-pitch_F_loud.wav,stimulus/audwhat_stim/blank_white.png,stimulus/audwhat_stim/pitch_box.png,stimulus/audwhat_stim/pitch_yes.png,stimulus/audwhat_stim/pitch_no.png,None,Pitch,None,Category,2,0.0,0,5.125,0,5.125,0,5.125,0,0.0,0.625,0,0.0,0,0.0,0,0.0,0,0.0,0,0.0,0,0.0,1,0.5,1,2.125,0,,,,,0,57,57,57,,,,,,,,,517.7425942079999,517.7425942079999,517.7425942079999,517.7425942079999,517.7425942079999,517.7425942079999,517.7425942079999,517.7425942079999,517.6659119996667,517.7425942079999,517.7425942079999,517.7425942079999,517.6659119996667,517.7425942079999,517.7425942079999,517.7425942079999,519.857208417,,517.7425942079999,517.7425942079999,522.916477583,517.7425942079999,517.7425942079999,517.7425942079999,517.7425942079999,518.2125033749999,519.2476602080001,518.1820902086668,,519.857208417,520.8987964580001,519.8272159996666,,517.7425942079999,522.916477583,517.7425942079999,522.916477583,522.9578771249999,523.6181619580002,517.7425942079999,2,1,0.7434427920002236,reldom2_s007,001,2025-02-06_15h17.40.598,What-B-Scan_AC,2022.2.5,None,
44,First_Order,8.0,audwhat,stimulus/audwhat_stim/dummy.wav,stimulus/audwhat_stim/dummy.wav,stimulus/audwhat_stim/percussion mallet_low-pitch_F_loud.wav,stimulus/audwhat_stim/string cello_low-pitch_F_loud.wav,stimulus/audwhat_stim/blank_white.png,stimulus/audwhat_stim/pitch_box.png,stimulus/audwhat_stim/pitch_yes.png,stimulus/audwhat_stim/pitch_no.png,None,Pitch,None,Pitch,1,0.0,0,5.125,0,5.125,0,5.125,0,0.0,0.625,0,0.0,0,0.0,0,0.0,0,0.0,0,0.0,0,0.0,1,0.5,1,2.125,0,,,,,0,58,58,58,,,,,,,,,523.8347304170002,523.8347304170002,523.8347304170002,523.8347304170002,523.8347304170002,523.8347304170002,523.8347304170002,523.8347304170002,523.7514952913335,523.8347304170002,523.8347304170002,523.8347304170002,523.7514952913335,523.8347304170002,523.8347304170002,523.8347304170002,525.9500655420002,,523.8347304170002,523.8347304170002,529.0057549580001,523.8347304170002,523.8347304170002,523.8347304170002,523.8347304170002,524.3031742080002,525.337660833,524.2725337086665,,525.9500655420002,526.9856415419999,525.9193966666669,,523.8347304170002,529.0057549580001,523.8347304170002,529.0057549580001,529.0471830830002,529.7094674170003,523.8347304170002,1,1,1.0619893739999497,reldom2_s007,001,2025-02-06_15h17.40.598,What-B-Scan_AC,2022.2.5,None,
45,First_Order,8.0,audwhat,stimulus/audwhat_stim/dummy.wav,stimulus/audwhat_stim/dummy.wav,stimulus/audwhat_stim/string viola_low-pitch_Dtri_loud.wav,stimulus/audwhat_stim/string cello_high-pitch_Ftri_loud.wav,stimulus/audwhat_stim/blank_white.png,stimulus/audwhat_stim/category_box.png,stimulus/audwhat_stim/category_yes.png,stimulus/audwhat_stim/category_no.png,None,Category,None,Category,1,0.0,0,5.125,0,5.125,0,5.125,0,0.0,0.625,0,0.0,0,0.0,0,0.0,0,0.0,0,0.0,0,0.0,1,0.5,1,2.125,0,,,,,0,59,59,59,,,,,,,,,529.926183,529.926183,529.926183,529.926183,529.926183,529.926183,529.926183,529.926183,529.8428007503336,529.926183,529.926183,529.926183,529.8428007503336,529.926183,529.926183,529.926183,532.0054165830002,,529.926183,529.926183,535.0947382919999,529.926183,529.926183,529.926183,529.926183,530.3977922500003,531.4386059580002,530.3672262916668,,532.0054165830002,533.0519756670001,531.9750369996666,,529.926183,535.0947382919999,529.926183,535.0947382919999,535.1366007500001,535.8018505,529.926183,1,1,1.2846106660003898,reldom2_s007,001,2025-02-06_15h17.40.598,What-B-Scan_AC,2022.2.5,None,
46,First_Order,8.0,audwhat,stimulus/audwhat_stim/dummy.wav,stimulus/audwhat_stim/dummy.wav,stimulus/audwhat_stim/string viola_high-pitch_Ftri_loud.wav,stimulus/audwhat_stim/percussion xylophone_high-pitch_Ftri_loud.wav,stimulus/audwhat_stim/blank_white.png,stimulus/audwhat_stim/category_box.png,stimulus/audwhat_stim/category_yes.png,stimulus/audwhat_stim/category_no.png,None,Category,None,Pitch,2,0.0,0,5.125,0,5.125,0,5.125,0,0.0,0.625,0,0.0,0,0.0,0,0.0,0,0.0,0,0.0,0,0.0,1,0.5,1,2.125,0,,,,,0,60,60,60,,,,,,,,,536.0196235829999,536.0196235829999,536.0196235829999,536.0196235829999,536.0196235829999,536.0196235829999,536.0196235829999,536.0196235829999,535.9351838333333,536.0196235829999,536.0196235829999,536.0196235829999,535.9351838333333,536.0196235829999,536.0196235829999,536.0196235829999,538.101265667,542.1730990830001,536.0196235829999,536.0196235829999,541.183484917,536.0196235829999,536.0196235829999,536.0196235829999,536.0196235829999,536.491834167,537.5338691249999,536.4608947496665,,538.101265667,539.1508696250003,538.0703064166667,539.1508696250003,536.0196235829999,541.183484917,536.0196235829999,541.183484917,541.2246435420002,541.8901282080001,536.0196235829999,2,1,1.214352333000079,reldom2_s007,001,2025-02-06_15h17.40.598,What-B-Scan_AC,2022.2.5,None,
0,0.0,None,fixation,stimulus/viswhat_stim/blank_white.png,stimulus/viswhat_stim/blank_white.png,stimulus/audwhat_stim/blank_white.png,stimulus/audwhat_stim/blank_white.png,stimulus/viswhat_stim/blank_white.png,stimulus/viswhat_stim/blank_white.png,stimulus/viswhat_stim/blank_white.png,stimulus/viswhat_stim/blank_white.png,0.0,0.0,0.0,0.0,0,0.0,0,0.0,0,0.0,0,0.0,0,0.0,0.0,0,0.0,0,0.0,0,0.0,0,0.0,0,0.0,0,0.0,0,0.0,0,0.0,8,,,,,0,61,61,61,,,,,,,,,542.1730990830001,542.1730990830001,542.1730990830001,542.1730990830001,542.1730990830001,542.1730990830001,542.1730990830001,542.1730990830001,542.0650848333336,542.1730990830001,542.1730990830001,542.1730990830001,542.0650848333336,542.1730990830001,542.1730990830001,542.1730990830001,542.1730990830001,542.1730990830001,542.1730990830001,542.1730990830001,542.1730990830001,542.1730990830001,542.1730990830001,542.1730990830001,542.1730990830001,542.1730990830001,542.1730990830001,542.1317515000002,542.1730990830001,542.1730990830001,542.1730990830001,542.1317515000002,542.1730990830001,542.1730990830001,542.1730990830001,542.1730990830001,542.1730990830001,547.3935973749999,547.3935973749999,550.311506,None,0,,reldom2_s007,001,2025-02-06_15h17.40.598,What-B-Scan_AC,2022.2.5,None,
47,Second_Order,8.0,audwhat,stimulus/audwhat_stim/string cello_low-pitch_Dtri_loud.wav,stimulus/audwhat_stim/string viola_high-pitch_D_loud.wav,stimulus/audwhat_stim/percussion xylophone_high-pitch_F_loud.wav,stimulus/audwhat_stim/percussion mallet_low-pitch_D_loud.wav,stimulus/viswhat_stim/match_blank.png,stimulus/viswhat_stim/match_box.png,stimulus/viswhat_stim/match_yes.png,stimulus/viswhat_stim/match_no.png,1.0,Match,Category,Category,1,5.125,0,5.125,0,5.125,0,5.125,0,0.75,0.75,0,0.0,0,0.0,0,0.0,0,0.0,1,0.5,1,2.125,1,0.5,1,2.125,0,,,,,0,62,62,62,,,,,,,,,550.311506,555.4253265420002,550.311506,550.311506,550.311506,550.311506,550.763846375,551.7623210420002,550.7765812496666,,552.3852925000001,553.382811292,552.3972977086667,,555.4253265420002,556.2619292499999,558.3321527080002,562.265175167,556.2619292499999,556.2619292499999,561.4412376670002,556.2619292499999,556.2619292499999,556.2619292499999,556.2619292499999,556.7338667500003,557.768492958,556.7035652916668,557.768492958,558.3321527080002,559.36933675,558.3019798336666,,556.2619292499999,561.4412376670002,556.2619292499999,561.4412376670002,561.4412376670002,,556.2619292499999,1,1,3.066114041000219,reldom2_s007,001,2025-02-06_15h17.40.598,What-B-Scan_AC,2022.2.5,None,
48,Second_Order,8.0,audwhat,stimulus/audwhat_stim/percussion mallet_high-pitch_D_loud.wav,stimulus/audwhat_stim/percussion mallet_low-pitch_Dtri_loud.wav,stimulus/audwhat_stim/string viola_high-pitch_F_loud.wav,stimulus/audwhat_stim/string viola_low-pitch_Dtri_loud.wav,stimulus/viswhat_stim/match_blank.png,stimulus/viswhat_stim/match_box.png,stimulus/viswhat_stim/match_yes.png,stimulus/viswhat_stim/match_no.png,1.0,Match,Category,Category,1,5.125,0,5.125,0,5.125,0,5.125,0,0.625,0.625,0,0.0,0,0.0,0,0.0,0,0.0,1,0.5,1,2.125,1,0.5,1,2.125,0,,,,,0,63,63,63,,,,,,,,,562.265175167,567.38620425,562.265175167,562.265175167,562.265175167,562.265175167,562.7249167499999,563.7106269579999,562.7375906246668,563.7309742080001,564.3463837499999,565.3437989170002,564.3582890836667,565.3523315420002,567.38620425,568.0949452079999,570.1982668330002,,568.0949452079999,568.0949452079999,573.2720577499999,568.0949452079999,568.0949452079999,568.0949452079999,568.0949452079999,568.5629896250002,569.5920810830003,568.5308037086668,,570.1982668330002,571.2411710420001,570.1678243336667,,568.0949452079999,573.2720577499999,568.0949452079999,573.2720577499999,573.3138025829999,573.9813047080002,568.0949452079999,1,1,0.6318853749999107,reldom2_s007,001,2025-02-06_15h17.40.598,What-B-Scan_AC,2022.2.5,None,
0,0.0,None,fixation,stimulus/viswhat_stim/blank_white.png,stimulus/viswhat_stim/blank_white.png,stimulus/audwhat_stim/blank_white.png,stimulus/audwhat_stim/blank_white.png,stimulus/viswhat_stim/blank_white.png,stimulus/viswhat_stim/blank_white.png,stimulus/viswhat_stim/blank_white.png,stimulus/viswhat_stim/blank_white.png,0.0,0.0,0.0,0.0,0,0.0,0,0.0,0,0.0,0,0.0,0,0.0,0.0,0,0.0,0,0.0,0,0.0,0,0.0,0,0.0,0,0.0,0,0.0,0,0.0,16,,,,,0,64,64,64,,,,,,,,,574.2186379170003,574.2186379170003,574.2186379170003,574.2186379170003,574.2186379170003,574.2186379170003,574.2186379170003,574.2186379170003,574.1146380413335,574.2186379170003,574.2186379170003,574.2186379170003,574.1146380413335,574.2186379170003,574.2186379170003,574.2186379170003,574.2186379170003,574.2186379170003,574.2186379170003,574.2186379170003,574.2186379170003,574.2186379170003,574.2186379170003,574.2186379170003,574.2186379170003,574.2186379170003,574.2186379170003,574.1646380413334,574.2186379170003,574.2186379170003,574.2186379170003,574.1646380413334,574.2186379170003,574.2186379170003,574.2186379170003,574.2186379170003,574.2186379170003,579.4230761250001,579.4230761250001,590.3773943750002,None,0,,reldom2_s007,001,2025-02-06_15h17.40.598,What-B-Scan_AC,2022.2.5,None,
