Trial,Order,Block,Type,Stimuli_File1,Stimuli_File2,Stimuli_File3,Stimuli_File4,Cue_File1,Cue_File2,Response_File_Yes,Response_File_No,Match,Cue_Dimension,Pair1_Dimension,Pair2_Dimension,Key,Cue1_Duration,Cue1_Onset,Cue2_Duration,Cue2_Onset,ResponseYes_Duration,ResponseYes_Onset,ResponseNo_Duration,ResponseNo_Onset,ITI_Within,ITI_Between,Image1_Duration,Image1_Onset,Image2_Duration,Image2_Onset,Image3_Duration,Image3_Onset,Image4_Duration,Image4_Onset,Sound1_Duration,Sound1_Onset,Sound2_Duration,Sound2_Onset,Sound3_Duration,Sound3_Onset,Sound4_Duration,Sound4_Onset,Fixation_Duration,trials_2.thisRepN,trials_2.thisTrialN,trials_2.thisN,trials_2.thisIndex,trials.thisRepN,trials.thisTrialN,trials.thisN,trials.thisIndex,text_start.started,key_resp_start.started,key_resp_start.keys,key_resp_start.rt,text2.started,key_resp_2.started,key_resp_2.keys,key_resp_2.rt,cue_file1.started,cue_file1.stopped,image_1.started,image_1.stopped,image_2.started,image_2.stopped,sound_icon1.started,sound_icon1.stopped,sound_1.started,sound_1.stopped,sound_icon2.started,sound_icon2.stopped,sound_2.started,sound_2.stopped,image_blank_1.started,image_blank_1.stopped,key_press.started,key_press.stopped,fixation_text.started,cue_file2.started,cue_file2.stopped,image_3.started,image_3.stopped,image_4.started,image_4.stopped,sound_icon3.started,sound_icon3.stopped,sound_3.started,sound_3.stopped,sound_icon4.started,sound_icon4.stopped,sound_4.started,sound_4.stopped,response_yes.started,response_yes.stopped,response_no.started,response_no.stopped,iti_blank.started,iti_blank.stopped,fixation_text.stopped,key_press.keys,key_press.corr,key_press.rt,participant,session,date,expName,psychopyVersion,frameRate,
,,,,,,,,,,,,,,,,,,,,,,,,,,,,,,,,,,,,,,,,,,,,,,,,,,,,6.878014042000132,6.878014042000132,2,1.4234028739999758,,,,,,,,,,,,,,,,,,,,,,,,,,,,,,,,,,,,,,,,,,,,,,,,reldom2_s010,001,2025-02-11_15h49.53.697,Aud-A-Scan_AC,2022.2.5,None,
,,,,,,,,,,,,,,,,,,,,,,,,,,,,,,,,,,,,,,,,,,,,0,0,0,0,,,,,,,,,8.329735917000107,8.329735917000107,5,14.372962874999985,,,,,,,,,,,,,,,,,,,,,,,,,,,,,,,,,,,,,,,,,,,,reldom2_s010,001,2025-02-11_15h49.53.697,Aud-A-Scan_AC,2022.2.5,None,
,,,,,,,,,,,,,,,,,,,,,,,,,,,,,,,,,,,,,,,,,,,,1,0,1,0,,,,,,,,,22.710167041999966,22.710167041999966,5,1.9923531239999193,,,,,,,,,,,,,,,,,,,,,,,,,,,,,,,,,,,,,,,,,,,,reldom2_s010,001,2025-02-11_15h49.53.697,Aud-A-Scan_AC,2022.2.5,None,
,,,,,,,,,,,,,,,,,,,,,,,,,,,,,,,,,,,,,,,,,,,,2,0,2,0,,,,,,,,,24.71167712500005,24.71167712500005,5,1.9899514579999504,,,,,,,,,,,,,,,,,,,,,,,,,,,,,,,,,,,,,,,,,,,,reldom2_s010,001,2025-02-11_15h49.53.697,Aud-A-Scan_AC,2022.2.5,None,
,,,,,,,,,,,,,,,,,,,,,,,,,,,,,,,,,,,,,,,,,,,,3,0,3,0,,,,,,,,,26.721044709000125,26.721044709000125,5,1.9808127489998242,,,,,,,,,,,,,,,,,,,,,,,,,,,,,,,,,,,,,,,,,,,,reldom2_s010,001,2025-02-11_15h49.53.697,Aud-A-Scan_AC,2022.2.5,None,
0,0.0,None,fixation,stimulus/audwhere_stim/blank_white.png,stimulus/audwhere_stim/blank_white.png,stimulus/audwhat_stim/blank_white.png,stimulus/audwhat_stim/blank_white.png,stimulus/audwhere_stim/blank_white.png,stimulus/audwhere_stim/blank_white.png,stimulus/audwhere_stim/blank_white.png,stimulus/audwhere_stim/blank_white.png,0.0,0.0,0.0,0.0,0,0.0,0,0.0,0,0.0,0,0.0,0,0.0,0.0,0,0,0,0,0,0,0,0,0,0.0,0,0.0,0,0.0,0,0.0,16,,,,,0,0,0,0,,,,,,,,,28.919948542000157,28.919948542000157,28.919948542000157,28.919948542000157,28.919948542000157,28.919948542000157,28.919948542000157,28.919948542000157,28.812884209000092,28.919948542000157,28.919948542000157,28.919948542000157,28.812884209000092,28.919948542000157,28.919948542000157,28.919948542000157,28.919948542000157,28.919948542000157,28.919948542000157,28.919948542000157,28.919948542000157,28.919948542000157,28.919948542000157,28.919948542000157,28.919948542000157,28.919948542000157,28.919948542000157,28.862884209000093,28.919948542000157,28.919948542000157,28.919948542000157,28.862884209000093,28.919948542000157,28.919948542000157,28.919948542000157,28.919948542000157,28.919948542000157,34.09598725000001,34.09598725000001,45.14749233400016,None,0,,reldom2_s010,001,2025-02-11_15h49.53.697,Aud-A-Scan_AC,2022.2.5,None,
1,First_Order,1.0,audwhere,stimulus/audwhere_stim/dummy.wav,stimulus/audwhere_stim/dummy.wav,stimulus/audwhere_stim/left_away_280h.wav,stimulus/audwhere_stim/right_away_290h.wav,stimulus/audwhere_stim/blank_white.png,stimulus/audwhere_stim/direction_box.png,stimulus/audwhere_stim/direction_yes.png,stimulus/audwhere_stim/direction_no.png,None,Direction,None,Direction,1,0.0,0,5.125,0,5.125,0,5.125,0,0.0,0.625,0,0,0,0,0,0,0,0,0,0.0,0,0.0,1,0.5,1,2.125,0,,,,,0,1,1,1,,,,,,,,,45.14749233400016,45.14749233400016,45.14749233400016,45.14749233400016,45.14749233400016,45.14749233400016,45.14749233400016,45.14749233400016,45.07077600000016,45.14749233400016,45.14749233400016,45.14749233400016,45.07077600000016,45.14749233400016,45.14749233400016,45.14749233400016,47.245325459000014,51.26796516700006,45.14749233400016,45.14749233400016,50.305340375000014,45.14749233400016,45.14749233400016,45.14749233400016,45.14749233400016,45.598676709000074,46.644990750000034,45.56539791666684,,47.245325459000014,48.30269312500013,47.2121780836667,48.252742334000004,45.14749233400016,50.305340375000014,45.14749233400016,50.305340375000014,50.34977579200017,51.008105916999966,45.14749233400016,1,1,1.5174082079997788,reldom2_s010,001,2025-02-11_15h49.53.697,Aud-A-Scan_AC,2022.2.5,None,
2,First_Order,1.0,audwhere,stimulus/audwhere_stim/dummy.wav,stimulus/audwhere_stim/dummy.wav,stimulus/audwhere_stim/left_away_270h.wav,stimulus/audwhere_stim/left_toward_270h.wav,stimulus/audwhere_stim/blank_white.png,stimulus/audwhere_stim/direction_box.png,stimulus/audwhere_stim/direction_yes.png,stimulus/audwhere_stim/direction_no.png,None,Direction,None,Side,2,0.0,0,5.125,0,5.125,0,5.125,0,0.0,0.625,0,0,0,0,0,0,0,0,0,0.0,0,0.0,1,0.5,1,2.125,0,,,,,0,2,2,2,,,,,,,,,51.26796516700006,51.26796516700006,51.26796516700006,51.26796516700006,51.26796516700006,51.26796516700006,51.26796516700006,51.26796516700006,51.1845298753334,51.26796516700006,51.26796516700006,51.26796516700006,51.1845298753334,51.26796516700006,51.26796516700006,51.26796516700006,53.37662437500012,57.39160112500008,51.26796516700006,51.26796516700006,56.43180500000017,51.26796516700006,51.26796516700006,51.26796516700006,51.26796516700006,51.720294375000094,52.7766509170001,51.686987708666734,52.72603604200003,53.37662437500012,54.43347658400012,53.34342108366674,54.38379079200013,51.26796516700006,56.43180500000017,51.26796516700006,56.43180500000017,56.476288334000174,57.133869084000025,51.26796516700006,2,1,1.1646980830000757,reldom2_s010,001,2025-02-11_15h49.53.697,Aud-A-Scan_AC,2022.2.5,None,
3,First_Order,1.0,audwhere,stimulus/audwhere_stim/dummy.wav,stimulus/audwhere_stim/dummy.wav,stimulus/audwhere_stim/left_toward_300h.wav,stimulus/audwhere_stim/left_away_280h.wav,stimulus/audwhere_stim/blank_white.png,stimulus/audwhere_stim/direction_box.png,stimulus/audwhere_stim/direction_yes.png,stimulus/audwhere_stim/direction_no.png,None,Direction,None,Side,2,0.0,0,5.125,0,5.125,0,5.125,0,0.0,0.625,0,0,0,0,0,0,0,0,0,0.0,0,0.0,1,0.5,1,2.125,0,,,,,0,3,3,3,,,,,,,,,57.39160112500008,57.39160112500008,57.39160112500008,57.39160112500008,57.39160112500008,57.39160112500008,57.39160112500008,57.39160112500008,57.310576917333385,57.39160112500008,57.39160112500008,57.39160112500008,57.310576917333385,57.39160112500008,57.39160112500008,57.39160112500008,59.50969479200012,63.50655649999999,57.39160112500008,57.39160112500008,62.57717833400011,57.39160112500008,57.39160112500008,57.39160112500008,57.39160112500008,57.84647341699997,58.90636612499998,57.81154700066669,,59.50969479200012,60.571034499999996,59.476022666666736,,57.39160112500008,62.57717833400011,57.39160112500008,62.57717833400011,62.62214408400018,63.288959084,57.39160112500008,2,1,2.639307332000044,reldom2_s010,001,2025-02-11_15h49.53.697,Aud-A-Scan_AC,2022.2.5,None,
4,First_Order,1.0,audwhere,stimulus/audwhere_stim/dummy.wav,stimulus/audwhere_stim/dummy.wav,stimulus/audwhere_stim/left_away_270h.wav,stimulus/audwhere_stim/left_toward_290h.wav,stimulus/audwhere_stim/blank_white.png,stimulus/audwhere_stim/side_box.png,stimulus/audwhere_stim/side_yes.png,stimulus/audwhere_stim/side_no.png,None,Side,None,Side,1,0.0,0,5.125,0,5.125,0,5.125,0,0.0,0.625,0,0,0,0,0,0,0,0,0,0.0,0,0.0,1,0.5,1,2.125,0,,,,,0,4,4,4,,,,,,,,,63.50655649999999,63.50655649999999,63.50655649999999,63.50655649999999,63.50655649999999,63.50655649999999,63.50655649999999,63.50655649999999,63.42229241733333,63.50655649999999,63.50655649999999,63.50655649999999,63.42229241733333,63.50655649999999,63.50655649999999,63.50655649999999,65.61668266700008,,63.50655649999999,63.50655649999999,68.68628075000015,63.50655649999999,63.50655649999999,63.50655649999999,63.50655649999999,63.95903029200008,65.01717983399999,63.92527420866669,64.96744491699997,65.61668266700008,66.67514366700016,65.5829205836667,66.62428491700007,63.50655649999999,68.68628075000015,63.50655649999999,68.68628075000015,68.73191700000007,69.3940399170001,63.50655649999999,1,1,1.0117623319999893,reldom2_s010,001,2025-02-11_15h49.53.697,Aud-A-Scan_AC,2022.2.5,None,
0,0.0,None,fixation,stimulus/audwhere_stim/blank_white.png,stimulus/audwhere_stim/blank_white.png,stimulus/audwhat_stim/blank_white.png,stimulus/audwhat_stim/blank_white.png,stimulus/audwhere_stim/blank_white.png,stimulus/audwhere_stim/blank_white.png,stimulus/audwhere_stim/blank_white.png,stimulus/audwhere_stim/blank_white.png,0.0,0.0,0.0,0.0,0,0.0,0,0.0,0,0.0,0,0.0,0,0.0,0.0,0,0,0,0,0,0,0,0,0,0.0,0,0.0,0,0.0,0,0.0,9,,,,,0,5,5,5,,,,,,,,,69.62966920899999,69.62966920899999,69.62966920899999,69.62966920899999,69.62966920899999,69.62966920899999,69.62966920899999,69.62966920899999,69.52737325033343,69.62966920899999,69.62966920899999,69.62966920899999,69.52737325033343,69.62966920899999,69.62966920899999,69.62966920899999,69.62966920899999,69.62966920899999,69.62966920899999,69.62966920899999,69.62966920899999,69.62966920899999,69.62966920899999,69.62966920899999,69.62966920899999,69.62966920899999,69.62966920899999,69.57737325033344,69.62966920899999,69.62966920899999,69.62966920899999,69.57737325033344,69.62966920899999,69.62966920899999,69.62966920899999,69.62966920899999,69.62966920899999,74.85868558400011,74.85868558400011,78.7722389590001,None,0,,reldom2_s010,001,2025-02-11_15h49.53.697,Aud-A-Scan_AC,2022.2.5,None,
5,Second_Order,1.0,audwhere,stimulus/audwhere_stim/left_away_290h.wav,stimulus/audwhere_stim/right_away_300h.wav,stimulus/audwhere_stim/right_toward_290h.wav,stimulus/audwhere_stim/left_toward_300h.wav,stimulus/audwhere_stim/match_blank.png,stimulus/audwhere_stim/match_box.png,stimulus/audwhere_stim/match_yes.png,stimulus/audwhere_stim/match_no.png,1.0,Match,Direction,Direction,1,5.125,0,5.125,0,5.125,0,5.125,0,0.75,0.75,0,0,0,0,0,0,0,0,1,0.5,1,2.125,1,0.5,1,2.125,0,,,,,0,6,6,6,,,,,,,,,78.7722389590001,83.89117024999996,78.7722389590001,78.7722389590001,78.7722389590001,78.7722389590001,79.22834554200017,80.21635608400015,79.22977662566679,80.22768487500002,80.84292316699998,81.84624095900017,80.85452204166678,81.84624095900017,83.89117024999996,84.7270517500001,86.80517862500005,90.73716487499996,84.7270517500001,84.7270517500001,89.90301383400015,84.7270517500001,84.7270517500001,84.7270517500001,84.7270517500001,85.1832448340001,86.24810200000002,85.14883245866669,,86.80517862500005,87.87473441700013,86.7714760006668,,84.7270517500001,89.90301383400015,84.7270517500001,89.90301383400015,89.94784570900015,,84.7270517500001,2,0,3.0395738329998494,reldom2_s010,001,2025-02-11_15h49.53.697,Aud-A-Scan_AC,2022.2.5,None,
6,Second_Order,1.0,audwhere,stimulus/audwhere_stim/left_away_280h.wav,stimulus/audwhere_stim/right_away_280h.wav,stimulus/audwhere_stim/left_away_300h.wav,stimulus/audwhere_stim/left_toward_280h.wav,stimulus/audwhere_stim/match_blank.png,stimulus/audwhere_stim/match_box.png,stimulus/audwhere_stim/match_yes.png,stimulus/audwhere_stim/match_no.png,2.0,Match,Direction,Side,2,5.125,0,5.125,0,5.125,0,5.125,0,0.625,0.625,0,0,0,0,0,0,0,0,1,0.5,1,2.125,1,0.5,1,2.125,0,,,,,0,7,7,7,,,,,,,,,90.73716487499996,95.85769608400005,90.73716487499996,90.73716487499996,90.73716487499996,90.73716487499996,91.18265270899997,92.17133270900013,91.19464408366663,92.19516379200013,92.8164837920001,93.82079120900016,92.82839295866667,93.82079120900016,95.85769608400005,96.56467720900014,98.66175762500006,,96.56467720900014,96.56467720900014,101.72420741700012,96.56467720900014,96.56467720900014,96.56467720900014,96.56467720900014,97.02582270900007,98.09842345900006,96.99115954166679,,98.66175762500006,99.73853308399998,98.6271795416667,,96.56467720900014,101.72420741700012,96.56467720900014,101.72420741700012,101.76934766700015,102.44005404200016,96.56467720900014,2,1,1.1818992080000044,reldom2_s010,001,2025-02-11_15h49.53.697,Aud-A-Scan_AC,2022.2.5,None,
0,0.0,None,fixation,stimulus/audwhere_stim/blank_white.png,stimulus/audwhere_stim/blank_white.png,stimulus/audwhat_stim/blank_white.png,stimulus/audwhat_stim/blank_white.png,stimulus/audwhere_stim/blank_white.png,stimulus/audwhere_stim/blank_white.png,stimulus/audwhere_stim/blank_white.png,stimulus/audwhere_stim/blank_white.png,0.0,0.0,0.0,0.0,0,0.0,0,0.0,0,0.0,0,0.0,0,0.0,0.0,0,0,0,0,0,0,0,0,0,0.0,0,0.0,0,0.0,0,0.0,10,,,,,0,8,8,8,,,,,,,,,102.68185495900002,102.68185495900002,102.68185495900002,102.68185495900002,102.68185495900002,102.68185495900002,102.68185495900002,102.68185495900002,102.57338737533348,102.68185495900002,102.68185495900002,102.68185495900002,102.57338737533348,102.68185495900002,102.68185495900002,102.68185495900002,102.68185495900002,102.68185495900002,102.68185495900002,102.68185495900002,102.68185495900002,102.68185495900002,102.68185495900002,102.68185495900002,102.68185495900002,102.68185495900002,102.68185495900002,102.64005404200016,102.68185495900002,102.68185495900002,102.68185495900002,102.64005404200016,102.68185495900002,102.68185495900002,102.68185495900002,102.68185495900002,102.68185495900002,107.87936258400009,107.87936258400009,112.91836566699999,None,0,,reldom2_s010,001,2025-02-11_15h49.53.697,Aud-A-Scan_AC,2022.2.5,None,
7,First_Order,2.0,audwhere,stimulus/audwhere_stim/dummy.wav,stimulus/audwhere_stim/dummy.wav,stimulus/audwhere_stim/left_away_300h.wav,stimulus/audwhere_stim/right_away_300h.wav,stimulus/audwhere_stim/blank_white.png,stimulus/audwhere_stim/side_box.png,stimulus/audwhere_stim/side_yes.png,stimulus/audwhere_stim/side_no.png,None,Side,None,Direction,2,0.0,0,5.125,0,5.125,0,5.125,0,0.0,0.625,0,0,0,0,0,0,0,0,0,0.0,0,0.0,1,0.5,1,2.125,0,,,,,0,9,9,9,,,,,,,,,112.91836566699999,112.91836566699999,112.91836566699999,112.91836566699999,112.91836566699999,112.91836566699999,112.91836566699999,112.91836566699999,112.83762529166681,112.91836566699999,112.91836566699999,112.91836566699999,112.83762529166681,112.91836566699999,112.91836566699999,112.91836566699999,115.01720733399998,,112.91836566699999,112.91836566699999,118.11533774999998,112.91836566699999,112.91836566699999,112.91836566699999,112.91836566699999,113.38001833400017,114.4557155,113.34556958366672,,115.01720733399998,116.07937612500018,114.98270279166674,,112.91836566699999,118.11533774999998,112.91836566699999,118.11533774999998,118.11533774999998,118.78835641700016,112.91836566699999,2,1,1.144677123999827,reldom2_s010,001,2025-02-11_15h49.53.697,Aud-A-Scan_AC,2022.2.5,None,
8,First_Order,2.0,audwhere,stimulus/audwhere_stim/dummy.wav,stimulus/audwhere_stim/dummy.wav,stimulus/audwhere_stim/left_away_280h.wav,stimulus/audwhere_stim/right_away_270h.wav,stimulus/audwhere_stim/blank_white.png,stimulus/audwhere_stim/side_box.png,stimulus/audwhere_stim/side_yes.png,stimulus/audwhere_stim/side_no.png,None,Side,None,Direction,2,0.0,0,5.125,0,5.125,0,5.125,0,0.0,0.625,0,0,0,0,0,0,0,0,0,0.0,0,0.0,1,0.5,1,2.125,0,,,,,0,10,10,10,,,,,,,,,119.00682054200001,119.00682054200001,119.00682054200001,119.00682054200001,119.00682054200001,119.00682054200001,119.00682054200001,119.00682054200001,118.92168975033348,119.00682054200001,119.00682054200001,119.00682054200001,118.92168975033348,119.00682054200001,119.00682054200001,119.00682054200001,121.09833166700014,125.14253054200003,119.00682054200001,119.00682054200001,124.16416775000016,119.00682054200001,119.00682054200001,119.00682054200001,119.00682054200001,119.46568029200012,120.53681625000013,119.43054033366663,,121.09833166700014,122.17087970900002,121.06374570866684,,119.00682054200001,124.16416775000016,119.00682054200001,124.16416775000016,124.20926829200016,124.88024112500011,119.00682054200001,2,1,1.2672591249997822,reldom2_s010,001,2025-02-11_15h49.53.697,Aud-A-Scan_AC,2022.2.5,None,
9,First_Order,2.0,audwhere,stimulus/audwhere_stim/dummy.wav,stimulus/audwhere_stim/dummy.wav,stimulus/audwhere_stim/left_away_280h.wav,stimulus/audwhere_stim/right_away_300h.wav,stimulus/audwhere_stim/blank_white.png,stimulus/audwhere_stim/direction_box.png,stimulus/audwhere_stim/direction_yes.png,stimulus/audwhere_stim/direction_no.png,None,Direction,None,Direction,1,0.0,0,5.125,0,5.125,0,5.125,0,0.0,0.625,0,0,0,0,0,0,0,0,0,0.0,0,0.0,1,0.5,1,2.125,0,,,,,0,11,11,11,,,,,,,,,125.14253054200003,125.14253054200003,125.14253054200003,125.14253054200003,125.14253054200003,125.14253054200003,125.14253054200003,125.14253054200003,125.05737033333332,125.14253054200003,125.14253054200003,125.14253054200003,125.05737033333332,125.14253054200003,125.14253054200003,125.14253054200003,127.24869383400005,131.27095425000016,125.14253054200003,125.14253054200003,130.33049045899998,125.14253054200003,125.14253054200003,125.14253054200003,125.14253054200003,125.60563941700002,126.68277983400003,125.57065387566674,,127.24869383400005,128.33013337500006,127.21378995866668,,125.14253054200003,130.33049045899998,125.14253054200003,130.33049045899998,130.37550083400015,131.049869834,125.14253054200003,1,1,1.5088002909997158,reldom2_s010,001,2025-02-11_15h49.53.697,Aud-A-Scan_AC,2022.2.5,None,
10,First_Order,2.0,audwhere,stimulus/audwhere_stim/dummy.wav,stimulus/audwhere_stim/dummy.wav,stimulus/audwhere_stim/right_away_270h.wav,stimulus/audwhere_stim/right_toward_300h.wav,stimulus/audwhere_stim/blank_white.png,stimulus/audwhere_stim/side_box.png,stimulus/audwhere_stim/side_yes.png,stimulus/audwhere_stim/side_no.png,None,Side,None,Side,1,0.0,0,5.125,0,5.125,0,5.125,0,0.0,0.625,0,0,0,0,0,0,0,0,0,0.0,0,0.0,1,0.5,1,2.125,0,,,,,0,12,12,12,,,,,,,,,131.27095425000016,131.27095425000016,131.27095425000016,131.27095425000016,131.27095425000016,131.27095425000016,131.27095425000016,131.27095425000016,131.18320316733335,131.27095425000016,131.27095425000016,131.27095425000016,131.18320316733335,131.27095425000016,131.27095425000016,131.27095425000016,133.37048979200017,,131.27095425000016,131.27095425000016,136.43918795900004,131.27095425000016,131.27095425000016,131.27095425000016,131.27095425000016,131.73229262500013,132.80836683400003,131.69771987566676,,133.37048979200017,134.44738833400015,133.3358972506667,,131.27095425000016,136.43918795900004,131.27095425000016,136.43918795900004,136.4844780840001,137.15588612500005,131.27095425000016,1,1,1.9499798750000537,reldom2_s010,001,2025-02-11_15h49.53.697,Aud-A-Scan_AC,2022.2.5,None,
0,0.0,None,fixation,stimulus/audwhere_stim/blank_white.png,stimulus/audwhere_stim/blank_white.png,stimulus/audwhat_stim/blank_white.png,stimulus/audwhat_stim/blank_white.png,stimulus/audwhere_stim/blank_white.png,stimulus/audwhere_stim/blank_white.png,stimulus/audwhere_stim/blank_white.png,stimulus/audwhere_stim/blank_white.png,0.0,0.0,0.0,0.0,0,0.0,0,0.0,0,0.0,0,0.0,0,0.0,0.0,0,0,0,0,0,0,0,0,0,0.0,0,0.0,0,0.0,0,0.0,8,,,,,0,13,13,13,,,,,,,,,137.39679441700014,137.39679441700014,137.39679441700014,137.39679441700014,137.39679441700014,137.39679441700014,137.39679441700014,137.39679441700014,137.2892194583334,137.39679441700014,137.39679441700014,137.39679441700014,137.2892194583334,137.39679441700014,137.39679441700014,137.39679441700014,137.39679441700014,137.39679441700014,137.39679441700014,137.39679441700014,137.39679441700014,137.39679441700014,137.39679441700014,137.39679441700014,137.39679441700014,137.39679441700014,137.39679441700014,137.3392194583334,137.39679441700014,137.39679441700014,137.39679441700014,137.3392194583334,137.39679441700014,137.39679441700014,137.39679441700014,137.39679441700014,137.39679441700014,142.60483620900004,142.60483620900004,145.56244708400004,None,0,,reldom2_s010,001,2025-02-11_15h49.53.697,Aud-A-Scan_AC,2022.2.5,None,
11,Second_Order,2.0,audwhere,stimulus/audwhere_stim/left_away_280h.wav,stimulus/audwhere_stim/left_toward_280h.wav,stimulus/audwhere_stim/right_toward_280h.wav,stimulus/audwhere_stim/left_toward_270h.wav,stimulus/audwhere_stim/match_blank.png,stimulus/audwhere_stim/match_box.png,stimulus/audwhere_stim/match_yes.png,stimulus/audwhere_stim/match_no.png,2.0,Match,Side,Direction,2,5.125,0,5.125,0,5.125,0,5.125,0,0.75,0.75,0,0,0,0,0,0,0,0,1,0.5,1,2.125,1,0.5,1,2.125,0,,,,,0,14,14,14,,,,,,,,,145.56244708400004,150.67809233399998,145.56244708400004,145.56244708400004,145.56244708400004,145.56244708400004,146.01957754199998,147.00681591700004,146.02092370866674,147.01506166700005,147.63349966700002,148.63536358400006,147.64471637566683,148.63536358400006,150.67809233399998,151.51059691700016,153.57276529199999,,151.51059691700016,151.51059691700016,156.70819716699998,151.51059691700016,151.51059691700016,151.51059691700016,151.51059691700016,151.9726525000001,153.00662354200017,151.93748845866665,,153.57276529199999,154.65485925000007,153.53775570866677,,151.51059691700016,156.70819716699998,151.51059691700016,156.70819716699998,156.70819716699998,,151.51059691700016,2,1,2.763386707999871,reldom2_s010,001,2025-02-11_15h49.53.697,Aud-A-Scan_AC,2022.2.5,None,
12,Second_Order,2.0,audwhere,stimulus/audwhere_stim/left_away_300h.wav,stimulus/audwhere_stim/right_away_270h.wav,stimulus/audwhere_stim/left_toward_280h.wav,stimulus/audwhere_stim/right_toward_280h.wav,stimulus/audwhere_stim/match_blank.png,stimulus/audwhere_stim/match_box.png,stimulus/audwhere_stim/match_yes.png,stimulus/audwhere_stim/match_no.png,1.0,Match,Direction,Direction,1,5.125,0,5.125,0,5.125,0,5.125,0,0.625,0.625,0,0,0,0,0,0,0,0,1,0.5,1,2.125,1,0.5,1,2.125,0,,,,,0,15,15,15,,,,,,,,,157.50895783400006,162.6274981250001,157.50895783400006,157.50895783400006,157.50895783400006,157.50895783400006,157.95404025000016,158.95719754200013,157.9654807916668,158.95719754200013,159.586476125,160.577057125,159.59836570866676,160.59925016700004,162.6274981250001,163.33083829200018,165.39814216700006,,163.33083829200018,163.33083829200018,168.48620829200013,163.33083829200018,163.33083829200018,163.33083829200018,163.33083829200018,163.79684204199998,164.83248029200013,163.76164775066675,,165.39814216700006,166.483025667,165.36296370866674,,163.33083829200018,168.48620829200013,163.33083829200018,168.48620829200013,168.5317271670001,169.209017334,163.33083829200018,1,1,0.8582497909999347,reldom2_s010,001,2025-02-11_15h49.53.697,Aud-A-Scan_AC,2022.2.5,None,
0,0.0,None,fixation,stimulus/audwhere_stim/blank_white.png,stimulus/audwhere_stim/blank_white.png,stimulus/audwhat_stim/blank_white.png,stimulus/audwhat_stim/blank_white.png,stimulus/audwhere_stim/blank_white.png,stimulus/audwhere_stim/blank_white.png,stimulus/audwhere_stim/blank_white.png,stimulus/audwhere_stim/blank_white.png,0.0,0.0,0.0,0.0,0,0.0,0,0.0,0,0.0,0,0.0,0,0.0,0.0,0,0,0,0,0,0,0,0,0,0.0,0,0.0,0,0.0,0,0.0,8,,,,,0,16,16,16,,,,,,,,,169.45083712500013,169.45083712500013,169.45083712500013,169.45083712500013,169.45083712500013,169.45083712500013,169.45083712500013,169.45083712500013,169.34235066733336,169.45083712500013,169.45083712500013,169.45083712500013,169.34235066733336,169.45083712500013,169.45083712500013,169.45083712500013,169.45083712500013,169.45083712500013,169.45083712500013,169.45083712500013,169.45083712500013,169.45083712500013,169.45083712500013,169.45083712500013,169.45083712500013,169.45083712500013,169.45083712500013,169.40901733400003,169.45083712500013,169.45083712500013,169.45083712500013,169.40901733400003,169.45083712500013,169.45083712500013,169.45083712500013,169.45083712500013,169.45083712500013,174.64385616699997,174.64385616699997,177.71741704200008,None,0,,reldom2_s010,001,2025-02-11_15h49.53.697,Aud-A-Scan_AC,2022.2.5,None,
13,First_Order,3.0,audwhat,stimulus/audwhat_stim/dummy.wav,stimulus/audwhat_stim/dummy.wav,stimulus/audwhat_stim/percussion xylophone_high-pitch_F_loud.wav,stimulus/audwhat_stim/percussion mallet_low-pitch_Dtri_loud.wav,stimulus/audwhat_stim/blank_white.png,stimulus/audwhat_stim/category_box.png,stimulus/audwhat_stim/category_yes.png,stimulus/audwhat_stim/category_no.png,None,Category,None,Category,1,0.0,0,5.125,0,5.125,0,5.125,0,0.0,0.625,0,0,0,0,0,0,0,0,0,0.0,0,0.0,1,0.5,1,2.125,0,,,,,0,17,17,17,,,,,,,,,177.71741704200008,177.71741704200008,177.71741704200008,177.71741704200008,177.71741704200008,177.71741704200008,177.71741704200008,177.71741704200008,177.63213837566667,177.71741704200008,177.71741704200008,177.71741704200008,177.63213837566667,177.71741704200008,177.71741704200008,177.71741704200008,179.78945912500012,183.83508104199996,177.71741704200008,177.71741704200008,182.88561666700002,177.71741704200008,177.71741704200008,177.71741704200008,177.71741704200008,178.182069125,179.22334850000016,178.1469360416668,179.22334850000016,179.78945912500012,180.82416925000007,179.75429366666665,,177.71741704200008,182.88561666700002,177.71741704200008,182.88561666700002,182.93109875000005,183.610166875,177.71741704200008,2,0,2.2867314580000766,reldom2_s010,001,2025-02-11_15h49.53.697,Aud-A-Scan_AC,2022.2.5,None,
14,First_Order,3.0,audwhat,stimulus/audwhat_stim/dummy.wav,stimulus/audwhat_stim/dummy.wav,stimulus/audwhat_stim/string cello_low-pitch_Ftri_loud.wav,stimulus/audwhat_stim/string viola_high-pitch_F_loud.wav,stimulus/audwhat_stim/blank_white.png,stimulus/audwhat_stim/category_box.png,stimulus/audwhat_stim/category_yes.png,stimulus/audwhat_stim/category_no.png,None,Category,None,Category,1,0.0,0,5.125,0,5.125,0,5.125,0,0.0,0.625,0,0,0,0,0,0,0,0,0,0.0,0,0.0,1,0.5,1,2.125,0,,,,,0,18,18,18,,,,,,,,,183.83508104199996,183.83508104199996,183.83508104199996,183.83508104199996,183.83508104199996,183.83508104199996,183.83508104199996,183.83508104199996,183.74350020833336,183.83508104199996,183.83508104199996,183.83508104199996,183.74350020833336,183.83508104199996,183.83508104199996,183.83508104199996,185.95242525000003,189.948621042,183.83508104199996,183.83508104199996,189.00152612500005,183.83508104199996,183.83508104199996,183.83508104199996,183.83508104199996,184.3022595,185.3860642090001,184.2665320416668,,185.95242525000003,186.98886308400006,185.91695341666676,,183.83508104199996,189.00152612500005,183.83508104199996,189.00152612500005,189.0467846250001,189.7249542500001,183.83508104199996,1,1,0.8778085409999221,reldom2_s010,001,2025-02-11_15h49.53.697,Aud-A-Scan_AC,2022.2.5,None,
15,First_Order,3.0,audwhat,stimulus/audwhat_stim/dummy.wav,stimulus/audwhat_stim/dummy.wav,stimulus/audwhat_stim/string viola_low-pitch_D_loud.wav,stimulus/audwhat_stim/percussion mallet_low-pitch_D_loud.wav,stimulus/audwhat_stim/blank_white.png,stimulus/audwhat_stim/pitch_box.png,stimulus/audwhat_stim/pitch_yes.png,stimulus/audwhat_stim/pitch_no.png,None,Pitch,None,Pitch,1,0.0,0,5.125,0,5.125,0,5.125,0,0.0,0.625,0,0,0,0,0,0,0,0,0,0.0,0,0.0,1,0.5,1,2.125,0,,,,,0,19,19,19,,,,,,,,,189.948621042,189.948621042,189.948621042,189.948621042,189.948621042,189.948621042,189.948621042,189.948621042,189.85828758333346,189.948621042,189.948621042,189.948621042,189.85828758333346,189.948621042,189.948621042,189.948621042,192.05774945899998,,189.948621042,189.948621042,195.146671792,189.948621042,189.948621042,189.948621042,189.948621042,190.41225000000009,191.49367291700014,190.37689012566673,,192.05774945899998,193.09185487500008,192.0227054586667,,189.948621042,195.146671792,189.948621042,195.146671792,195.146671792,195.82172687499997,189.948621042,1,1,0.8767417910000859,reldom2_s010,001,2025-02-11_15h49.53.697,Aud-A-Scan_AC,2022.2.5,None,
16,First_Order,3.0,audwhat,stimulus/audwhat_stim/dummy.wav,stimulus/audwhat_stim/dummy.wav,stimulus/audwhat_stim/string cello_low-pitch_D_loud.wav,stimulus/audwhat_stim/string viola_high-pitch_Dtri_loud.wav,stimulus/audwhat_stim/blank_white.png,stimulus/audwhat_stim/pitch_box.png,stimulus/audwhat_stim/pitch_yes.png,stimulus/audwhat_stim/pitch_no.png,None,Pitch,None,Category,2,0.0,0,5.125,0,5.125,0,5.125,0,0.0,0.625,0,0,0,0,0,0,0,0,0,0.0,0,0.0,1,0.5,1,2.125,0,,,,,0,20,20,20,,,,,,,,,196.04499150000015,196.04499150000015,196.04499150000015,196.04499150000015,196.04499150000015,196.04499150000015,196.04499150000015,196.04499150000015,195.95506020833332,196.04499150000015,196.04499150000015,196.04499150000015,195.95506020833332,196.04499150000015,196.04499150000015,196.04499150000015,198.15497987499998,,196.04499150000015,196.04499150000015,201.24132554200014,196.04499150000015,196.04499150000015,196.04499150000015,196.04499150000015,196.50728787499997,197.588807375,196.47222366666668,,198.15497987499998,199.19076591700014,198.11965116666673,,196.04499150000015,201.24132554200014,196.04499150000015,201.24132554200014,201.24132554200014,201.91716020900003,196.04499150000015,1,0,0.9853181659998427,reldom2_s010,001,2025-02-11_15h49.53.697,Aud-A-Scan_AC,2022.2.5,None,
0,0.0,None,fixation,stimulus/audwhere_stim/blank_white.png,stimulus/audwhere_stim/blank_white.png,stimulus/audwhat_stim/blank_white.png,stimulus/audwhat_stim/blank_white.png,stimulus/audwhere_stim/blank_white.png,stimulus/audwhere_stim/blank_white.png,stimulus/audwhere_stim/blank_white.png,stimulus/audwhere_stim/blank_white.png,0.0,0.0,0.0,0.0,0,0.0,0,0.0,0,0.0,0,0.0,0,0.0,0.0,0,0,0,0,0,0,0,0,0,0.0,0,0.0,0,0.0,0,0.0,8,,,,,0,21,21,21,,,,,,,,,202.158489917,202.158489917,202.158489917,202.158489917,202.158489917,202.158489917,202.158489917,202.158489917,202.05049354233338,202.158489917,202.158489917,202.158489917,202.05049354233338,202.158489917,202.158489917,202.158489917,202.158489917,202.158489917,202.158489917,202.158489917,202.158489917,202.158489917,202.158489917,202.158489917,202.158489917,202.158489917,202.158489917,202.10049354233337,202.158489917,202.158489917,202.158489917,202.10049354233337,202.158489917,202.158489917,202.158489917,202.158489917,202.158489917,207.38049158400008,207.38049158400008,210.3026151670001,None,0,,reldom2_s010,001,2025-02-11_15h49.53.697,Aud-A-Scan_AC,2022.2.5,None,
17,Second_Order,3.0,audwhat,stimulus/audwhat_stim/percussion mallet_high-pitch_F_loud.wav,stimulus/audwhat_stim/string viola_high-pitch_F_loud.wav,stimulus/audwhat_stim/string cello_low-pitch_Ftri_loud.wav,stimulus/audwhat_stim/string cello_high-pitch_Dtri_loud.wav,stimulus/audwhere_stim/match_blank.png,stimulus/audwhat_stim/match_box.png,stimulus/audwhere_stim/match_yes.png,stimulus/audwhere_stim/match_no.png,2.0,Match,Pitch,Category,2,5.125,0,5.125,0,5.125,0,5.125,0,0.75,0.75,0,0,0,0,0,0,0,0,1,0.5,1,2.125,1,0.5,1,2.125,0,,,,,0,22,22,22,,,,,,,,,210.3026151670001,215.42604229200015,210.3026151670001,210.3026151670001,210.3026151670001,210.3026151670001,210.7450516250001,211.7365910840001,210.75647775066685,211.7503367500001,212.37740337500009,213.37784758400016,212.38964029166667,,215.42604229200015,216.27387712500013,218.34494145899998,222.29802091700003,216.27387712500013,216.27387712500013,221.44783187500002,216.27387712500013,216.27387712500013,216.27387712500013,216.27387712500013,216.74093570900004,217.82628154200006,216.7044001256668,,218.34494145899998,219.385635459,218.3095189586668,,216.27387712500013,221.44783187500002,216.27387712500013,221.44783187500002,221.49349237499996,,216.27387712500013,1,0,1.91242433299999,reldom2_s010,001,2025-02-11_15h49.53.697,Aud-A-Scan_AC,2022.2.5,None,
18,Second_Order,3.0,audwhat,stimulus/audwhat_stim/string viola_low-pitch_F_loud.wav,stimulus/audwhat_stim/percussion mallet_low-pitch_F_loud.wav,stimulus/audwhat_stim/percussion mallet_high-pitch_Ftri_loud.wav,stimulus/audwhat_stim/string cello_high-pitch_Ftri_loud.wav,stimulus/audwhere_stim/match_blank.png,stimulus/audwhat_stim/match_box.png,stimulus/audwhere_stim/match_yes.png,stimulus/audwhere_stim/match_no.png,1.0,Match,Pitch,Pitch,1,5.125,0,5.125,0,5.125,0,5.125,0,0.625,0.625,0,0,0,0,0,0,0,0,1,0.5,1,2.125,1,0.5,1,2.125,0,,,,,0,23,23,23,,,,,,,,,222.29802091700003,227.41109470900005,222.29802091700003,222.29802091700003,222.29802091700003,222.29802091700003,222.74097870900005,223.7401983750001,222.75222150066682,,224.37388250000004,225.36200295900016,224.38556404166664,225.38508183400018,227.41109470900005,228.13006029200005,230.20578170900012,,228.13006029200005,228.13006029200005,233.30789808400004,228.13006029200005,228.13006029200005,228.13006029200005,228.13006029200005,228.596458042,229.63615145900008,228.56121608366678,,230.20578170900012,231.2406551670001,230.1703571256667,,228.13006029200005,233.30789808400004,228.13006029200005,233.30789808400004,233.30789808400004,233.9903535840001,228.13006029200005,2,0,1.0498294579999765,reldom2_s010,001,2025-02-11_15h49.53.697,Aud-A-Scan_AC,2022.2.5,None,
0,0.0,None,fixation,stimulus/audwhere_stim/blank_white.png,stimulus/audwhere_stim/blank_white.png,stimulus/audwhat_stim/blank_white.png,stimulus/audwhat_stim/blank_white.png,stimulus/audwhere_stim/blank_white.png,stimulus/audwhere_stim/blank_white.png,stimulus/audwhere_stim/blank_white.png,stimulus/audwhere_stim/blank_white.png,0.0,0.0,0.0,0.0,0,0.0,0,0.0,0,0.0,0,0.0,0,0.0,0.0,0,0,0,0,0,0,0,0,0,0.0,0,0.0,0,0.0,0,0.0,9,,,,,0,24,24,24,,,,,,,,,234.2359039590001,234.2359039590001,234.2359039590001,234.2359039590001,234.2359039590001,234.2359039590001,234.2359039590001,234.2359039590001,234.12368691733346,234.2359039590001,234.2359039590001,234.2359039590001,234.12368691733346,234.2359039590001,234.2359039590001,234.2359039590001,234.2359039590001,234.2359039590001,234.2359039590001,234.2359039590001,234.2359039590001,234.2359039590001,234.2359039590001,234.2359039590001,234.2359039590001,234.2359039590001,234.2359039590001,234.19035358400012,234.2359039590001,234.2359039590001,234.2359039590001,234.19035358400012,234.2359039590001,234.2359039590001,234.2359039590001,234.2359039590001,234.2359039590001,239.45271391699998,239.45271391699998,243.519309625,None,0,,reldom2_s010,001,2025-02-11_15h49.53.697,Aud-A-Scan_AC,2022.2.5,None,
19,First_Order,4.0,audwhat,stimulus/audwhat_stim/dummy.wav,stimulus/audwhat_stim/dummy.wav,stimulus/audwhat_stim/percussion mallet_low-pitch_D_loud.wav,stimulus/audwhat_stim/string viola_low-pitch_D_loud.wav,stimulus/audwhat_stim/blank_white.png,stimulus/audwhat_stim/category_box.png,stimulus/audwhat_stim/category_yes.png,stimulus/audwhat_stim/category_no.png,None,Category,None,Pitch,2,0.0,0,5.125,0,5.125,0,5.125,0,0.0,0.625,0,0,0,0,0,0,0,0,0,0.0,0,0.0,1,0.5,1,2.125,0,,,,,0,25,25,25,,,,,,,,,243.519309625,243.519309625,243.519309625,243.519309625,243.519309625,243.519309625,243.519309625,243.519309625,243.43539075066673,243.519309625,243.519309625,243.519309625,243.43539075066673,243.519309625,243.519309625,243.519309625,245.5922028340001,249.65102154200008,243.519309625,243.519309625,248.700700417,243.519309625,243.519309625,243.519309625,243.519309625,243.9880424590001,245.0246897500001,243.95287287566683,,245.5922028340001,246.62958400000002,245.55700020866678,,243.519309625,248.700700417,243.519309625,248.700700417,248.74808895900014,249.42721070900006,243.519309625,2,1,2.2379556239998237,reldom2_s010,001,2025-02-11_15h49.53.697,Aud-A-Scan_AC,2022.2.5,None,
20,First_Order,4.0,audwhat,stimulus/audwhat_stim/dummy.wav,stimulus/audwhat_stim/dummy.wav,stimulus/audwhat_stim/percussion xylophone_high-pitch_Dtri_loud.wav,stimulus/audwhat_stim/string cello_high-pitch_Dtri_loud.wav,stimulus/audwhat_stim/blank_white.png,stimulus/audwhat_stim/pitch_box.png,stimulus/audwhat_stim/pitch_yes.png,stimulus/audwhat_stim/pitch_no.png,None,Pitch,None,Pitch,1,0.0,0,5.125,0,5.125,0,5.125,0,0.0,0.625,0,0,0,0,0,0,0,0,0,0.0,0,0.0,1,0.5,1,2.125,0,,,,,0,26,26,26,,,,,,,,,249.65102154200008,249.65102154200008,249.65102154200008,249.65102154200008,249.65102154200008,249.65102154200008,249.65102154200008,249.65102154200008,249.56054404233342,249.65102154200008,249.65102154200008,249.65102154200008,249.56054404233342,249.65102154200008,249.65102154200008,249.65102154200008,251.76952608400006,255.7676912920001,249.65102154200008,249.65102154200008,254.82014025000012,249.65102154200008,249.65102154200008,249.65102154200008,249.65102154200008,250.11411529200018,251.20269470900007,250.0791616666668,251.1513104170001,251.76952608400006,252.808189417,251.73438191666676,,249.65102154200008,254.82014025000012,249.65102154200008,254.82014025000012,254.86585137500015,255.545005167,249.65102154200008,1,1,1.152280373999929,reldom2_s010,001,2025-02-11_15h49.53.697,Aud-A-Scan_AC,2022.2.5,None,
21,First_Order,4.0,audwhat,stimulus/audwhat_stim/dummy.wav,stimulus/audwhat_stim/dummy.wav,stimulus/audwhat_stim/string viola_low-pitch_D_loud.wav,stimulus/audwhat_stim/percussion mallet_low-pitch_D_loud.wav,stimulus/audwhat_stim/blank_white.png,stimulus/audwhat_stim/category_box.png,stimulus/audwhat_stim/category_yes.png,stimulus/audwhat_stim/category_no.png,None,Category,None,Pitch,2,0.0,0,5.125,0,5.125,0,5.125,0,0.0,0.625,0,0,0,0,0,0,0,0,0,0.0,0,0.0,1,0.5,1,2.125,0,,,,,0,27,27,27,,,,,,,,,255.7676912920001,255.7676912920001,255.7676912920001,255.7676912920001,255.7676912920001,255.7676912920001,255.7676912920001,255.7676912920001,255.67833850033335,255.7676912920001,255.7676912920001,255.7676912920001,255.67833850033335,255.7676912920001,255.7676912920001,255.7676912920001,257.840379709,261.8997870840001,255.7676912920001,255.7676912920001,260.949247584,255.7676912920001,255.7676912920001,255.7676912920001,255.7676912920001,256.23425766700007,257.2707331670001,256.1990406256666,,257.840379709,258.8843960840002,257.8050590416667,,255.7676912920001,260.949247584,255.7676912920001,260.949247584,260.99461625000004,261.67502383400006,255.7676912920001,2,1,0.7542624990001059,reldom2_s010,001,2025-02-11_15h49.53.697,Aud-A-Scan_AC,2022.2.5,None,
22,First_Order,4.0,audwhat,stimulus/audwhat_stim/dummy.wav,stimulus/audwhat_stim/dummy.wav,stimulus/audwhat_stim/string viola_low-pitch_Ftri_loud.wav,stimulus/audwhat_stim/string cello_high-pitch_D_loud.wav,stimulus/audwhat_stim/blank_white.png,stimulus/audwhat_stim/pitch_box.png,stimulus/audwhat_stim/pitch_yes.png,stimulus/audwhat_stim/pitch_no.png,None,Pitch,None,Category,2,0.0,0,5.125,0,5.125,0,5.125,0,0.0,0.625,0,0,0,0,0,0,0,0,0,0.0,0,0.0,1,0.5,1,2.125,0,,,,,0,28,28,28,,,,,,,,,261.8997870840001,261.8997870840001,261.8997870840001,261.8997870840001,261.8997870840001,261.8997870840001,261.8997870840001,261.8997870840001,261.8083571673334,261.8997870840001,261.8997870840001,261.8997870840001,261.8083571673334,261.8997870840001,261.8997870840001,261.8997870840001,263.969111334,,261.8997870840001,261.8997870840001,267.06417525000006,261.8997870840001,261.8997870840001,261.8997870840001,261.8997870840001,262.36509445900015,263.40081258400005,262.3299711256668,,263.969111334,265.00616312500006,263.9334248336668,,261.8997870840001,267.06417525000006,261.8997870840001,267.06417525000006,267.10940570900016,267.78714341700015,261.8997870840001,1,0,0.9894509579999067,reldom2_s010,001,2025-02-11_15h49.53.697,Aud-A-Scan_AC,2022.2.5,None,
0,0.0,None,fixation,stimulus/audwhere_stim/blank_white.png,stimulus/audwhere_stim/blank_white.png,stimulus/audwhat_stim/blank_white.png,stimulus/audwhat_stim/blank_white.png,stimulus/audwhere_stim/blank_white.png,stimulus/audwhere_stim/blank_white.png,stimulus/audwhere_stim/blank_white.png,stimulus/audwhere_stim/blank_white.png,0.0,0.0,0.0,0.0,0,0.0,0,0.0,0,0.0,0,0.0,0,0.0,0.0,0,0,0,0,0,0,0,0,0,0.0,0,0.0,0,0.0,0,0.0,10,,,,,0,29,29,29,,,,,,,,,268.02894783400006,268.02894783400006,268.02894783400006,268.02894783400006,268.02894783400006,268.02894783400006,268.02894783400006,268.02894783400006,267.9204767503335,268.02894783400006,268.02894783400006,268.02894783400006,267.9204767503335,268.02894783400006,268.02894783400006,268.02894783400006,268.02894783400006,268.02894783400006,268.02894783400006,268.02894783400006,268.02894783400006,268.02894783400006,268.02894783400006,268.02894783400006,268.02894783400006,268.02894783400006,268.02894783400006,267.98714341700014,268.02894783400006,268.02894783400006,268.02894783400006,267.98714341700014,268.02894783400006,268.02894783400006,268.02894783400006,268.02894783400006,268.02894783400006,273.238112,273.238112,278.1860555840001,None,0,,reldom2_s010,001,2025-02-11_15h49.53.697,Aud-A-Scan_AC,2022.2.5,None,
23,Second_Order,4.0,audwhat,stimulus/audwhat_stim/string cello_low-pitch_F_loud.wav,stimulus/audwhat_stim/string cello_high-pitch_Ftri_loud.wav,stimulus/audwhat_stim/percussion mallet_high-pitch_Ftri_loud.wav,stimulus/audwhat_stim/percussion mallet_low-pitch_F_loud.wav,stimulus/audwhere_stim/match_blank.png,stimulus/audwhat_stim/match_box.png,stimulus/audwhere_stim/match_yes.png,stimulus/audwhere_stim/match_no.png,1.0,Match,Category,Category,1,5.125,0,5.125,0,5.125,0,5.125,0,0.75,0.75,0,0,0,0,0,0,0,0,1,0.5,1,2.125,1,0.5,1,2.125,0,,,,,0,30,30,30,,,,,,,,,278.1860555840001,283.3054352500001,278.1860555840001,278.1860555840001,278.1860555840001,278.1860555840001,278.63125683400017,279.619628167,278.6432857086668,,280.26119266700016,281.2599955840001,280.26420250066667,,283.3054352500001,284.1398405,286.20923108400007,290.166955292,284.1398405,284.1398405,289.3159968750001,284.1398405,284.1398405,284.1398405,284.1398405,284.608254042,285.643263209,284.57286270866666,,286.20923108400007,287.2479579170001,286.17418004166666,,284.1398405,289.3159968750001,284.1398405,289.3159968750001,289.36156704200016,,284.1398405,2,0,2.4401527489999353,reldom2_s010,001,2025-02-11_15h49.53.697,Aud-A-Scan_AC,2022.2.5,None,
24,Second_Order,4.0,audwhat,stimulus/audwhat_stim/percussion xylophone_high-pitch_Dtri_loud.wav,stimulus/audwhat_stim/percussion mallet_low-pitch_D_loud.wav,stimulus/audwhat_stim/string cello_low-pitch_Ftri_loud.wav,stimulus/audwhat_stim/string viola_high-pitch_D_loud.wav,stimulus/audwhere_stim/match_blank.png,stimulus/audwhat_stim/match_box.png,stimulus/audwhere_stim/match_yes.png,stimulus/audwhere_stim/match_no.png,1.0,Match,Category,Category,1,5.125,0,5.125,0,5.125,0,5.125,0,0.625,0.625,0,0,0,0,0,0,0,0,1,0.5,1,2.125,1,0.5,1,2.125,0,,,,,0,31,31,31,,,,,,,,,290.166955292,295.28459887500003,290.166955292,290.166955292,290.166955292,290.166955292,290.61922437500016,291.623050292,290.6310058756667,291.623050292,292.24514754200004,293.2327340420002,292.25659100066673,293.2559060420001,295.28459887500003,295.98972316699997,298.0654891250001,302.138781334,295.98972316699997,295.98972316699997,301.173028125,295.98972316699997,295.98972316699997,295.98972316699997,295.98972316699997,296.45625533400016,297.49328245900006,296.42100816666675,,298.0654891250001,299.10762287500006,298.0301109586667,,295.98972316699997,301.173028125,295.98972316699997,301.173028125,301.173028125,301.850676667,295.98972316699997,1,1,1.009015207999937,reldom2_s010,001,2025-02-11_15h49.53.697,Aud-A-Scan_AC,2022.2.5,None,
0,0.0,None,fixation,stimulus/audwhere_stim/blank_white.png,stimulus/audwhere_stim/blank_white.png,stimulus/audwhat_stim/blank_white.png,stimulus/audwhat_stim/blank_white.png,stimulus/audwhere_stim/blank_white.png,stimulus/audwhere_stim/blank_white.png,stimulus/audwhere_stim/blank_white.png,stimulus/audwhere_stim/blank_white.png,0.0,0.0,0.0,0.0,0,0.0,0,0.0,0,0.0,0,0.0,0,0.0,0.0,0,0,0,0,0,0,0,0,0,0.0,0,0.0,0,0.0,0,0.0,9,,,,,0,32,32,32,,,,,,,,,302.138781334,302.138781334,302.138781334,302.138781334,302.138781334,302.138781334,302.138781334,302.138781334,302.0285310833334,302.138781334,302.138781334,302.138781334,302.0285310833334,302.138781334,302.138781334,302.138781334,302.138781334,302.138781334,302.138781334,302.138781334,302.138781334,302.138781334,302.138781334,302.138781334,302.138781334,302.138781334,302.138781334,302.09519775000007,302.138781334,302.138781334,302.138781334,302.09519775000007,302.138781334,302.138781334,302.138781334,302.138781334,302.138781334,307.36470504199997,307.36470504199997,311.38613029199996,None,0,,reldom2_s010,001,2025-02-11_15h49.53.697,Aud-A-Scan_AC,2022.2.5,None,
25,First_Order,5.0,audwhere,stimulus/audwhere_stim/dummy.wav,stimulus/audwhere_stim/dummy.wav,stimulus/audwhere_stim/right_away_300h.wav,stimulus/audwhere_stim/right_toward_300h.wav,stimulus/audwhere_stim/blank_white.png,stimulus/audwhere_stim/direction_box.png,stimulus/audwhere_stim/direction_yes.png,stimulus/audwhere_stim/direction_no.png,None,Direction,None,Side,2,0.0,0,5.125,0,5.125,0,5.125,0,0.0,0.625,0,0,0,0,0,0,0,0,0,0.0,0,0.0,1,0.5,1,2.125,0,,,,,0,33,33,33,,,,,,,,,311.38613029199996,311.38613029199996,311.38613029199996,311.38613029199996,311.38613029199996,311.38613029199996,311.38613029199996,311.38613029199996,311.3012602916666,311.38613029199996,311.38613029199996,311.38613029199996,311.3012602916666,311.38613029199996,311.38613029199996,311.38613029199996,313.4655868750001,,311.38613029199996,311.38613029199996,316.57866116700006,311.38613029199996,311.38613029199996,311.38613029199996,311.38613029199996,311.853445167,312.89543233400013,311.81814437566663,,313.4655868750001,314.5067550420001,313.4303010416668,,311.38613029199996,316.57866116700006,311.38613029199996,316.57866116700006,316.57866116700006,317.25922337500015,311.38613029199996,2,1,1.9154224159999558,reldom2_s010,001,2025-02-11_15h49.53.697,Aud-A-Scan_AC,2022.2.5,None,
26,First_Order,5.0,audwhere,stimulus/audwhere_stim/dummy.wav,stimulus/audwhere_stim/dummy.wav,stimulus/audwhere_stim/right_away_280h.wav,stimulus/audwhere_stim/left_away_270h.wav,stimulus/audwhere_stim/blank_white.png,stimulus/audwhere_stim/side_box.png,stimulus/audwhere_stim/side_yes.png,stimulus/audwhere_stim/side_no.png,None,Side,None,Direction,2,0.0,0,5.125,0,5.125,0,5.125,0,0.0,0.625,0,0,0,0,0,0,0,0,0,0.0,0,0.0,1,0.5,1,2.125,0,,,,,0,34,34,34,,,,,,,,,317.4817411670001,317.4817411670001,317.4817411670001,317.4817411670001,317.4817411670001,317.4817411670001,317.4817411670001,317.4817411670001,317.3925567083335,317.4817411670001,317.4817411670001,317.4817411670001,317.3925567083335,317.4817411670001,317.4817411670001,317.4817411670001,319.6024305420001,,317.4817411670001,317.4817411670001,322.6421230840001,317.4817411670001,317.4817411670001,317.4817411670001,317.4817411670001,317.94676575000017,318.985163459,317.9116574586667,,319.6024305420001,320.6371429170001,319.5670965416666,,317.4817411670001,322.6421230840001,317.4817411670001,322.6421230840001,322.6885770000001,323.3692600420002,317.4817411670001,2,1,0.8105619159998696,reldom2_s010,001,2025-02-11_15h49.53.697,Aud-A-Scan_AC,2022.2.5,None,
27,First_Order,5.0,audwhere,stimulus/audwhere_stim/dummy.wav,stimulus/audwhere_stim/dummy.wav,stimulus/audwhere_stim/left_away_300h.wav,stimulus/audwhere_stim/right_away_290h.wav,stimulus/audwhere_stim/blank_white.png,stimulus/audwhere_stim/direction_box.png,stimulus/audwhere_stim/direction_yes.png,stimulus/audwhere_stim/direction_no.png,None,Direction,None,Direction,1,0.0,0,5.125,0,5.125,0,5.125,0,0.0,0.625,0,0,0,0,0,0,0,0,0,0.0,0,0.0,1,0.5,1,2.125,0,,,,,0,35,35,35,,,,,,,,,323.59284525,323.59284525,323.59284525,323.59284525,323.59284525,323.59284525,323.59284525,323.59284525,323.5025933753335,323.59284525,323.59284525,323.59284525,323.5025933753335,323.59284525,323.59284525,323.59284525,325.6705850420001,,323.59284525,323.59284525,328.78838054200014,323.59284525,323.59284525,323.59284525,323.59284525,324.061745084,325.10150158400006,324.02613604166663,,325.6705850420001,326.7117645000001,325.6352876666667,,323.59284525,328.78838054200014,323.59284525,328.78838054200014,328.78838054200014,329.46998600000006,323.59284525,1,1,1.5107024999999794,reldom2_s010,001,2025-02-11_15h49.53.697,Aud-A-Scan_AC,2022.2.5,None,
28,First_Order,5.0,audwhere,stimulus/audwhere_stim/dummy.wav,stimulus/audwhere_stim/dummy.wav,stimulus/audwhere_stim/left_away_290h.wav,stimulus/audwhere_stim/right_away_280h.wav,stimulus/audwhere_stim/blank_white.png,stimulus/audwhere_stim/direction_box.png,stimulus/audwhere_stim/direction_yes.png,stimulus/audwhere_stim/direction_no.png,None,Direction,None,Direction,1,0.0,0,5.125,0,5.125,0,5.125,0,0.0,0.625,0,0,0,0,0,0,0,0,0,0.0,0,0.0,1,0.5,1,2.125,0,,,,,0,36,36,36,,,,,,,,,329.6937310840001,329.6937310840001,329.6937310840001,329.6937310840001,329.6937310840001,329.6937310840001,329.6937310840001,329.6937310840001,329.61998600000004,329.6937310840001,329.6937310840001,329.6937310840001,329.61998600000004,329.6937310840001,329.6937310840001,329.6937310840001,331.765996459,335.851418125,329.6937310840001,329.6937310840001,334.8803828340001,329.6937310840001,329.6937310840001,329.6937310840001,329.6937310840001,330.15993366700013,331.1971679170001,330.1243825006668,,331.765996459,332.80671562500015,331.7305089166666,,329.6937310840001,334.8803828340001,329.6937310840001,334.8803828340001,334.92681004200017,335.60805470900004,329.6937310840001,1,1,1.9578291239999999,reldom2_s010,001,2025-02-11_15h49.53.697,Aud-A-Scan_AC,2022.2.5,None,
0,0.0,None,fixation,stimulus/audwhere_stim/blank_white.png,stimulus/audwhere_stim/blank_white.png,stimulus/audwhat_stim/blank_white.png,stimulus/audwhat_stim/blank_white.png,stimulus/audwhere_stim/blank_white.png,stimulus/audwhere_stim/blank_white.png,stimulus/audwhere_stim/blank_white.png,stimulus/audwhere_stim/blank_white.png,0.0,0.0,0.0,0.0,0,0.0,0,0.0,0,0.0,0,0.0,0,0.0,0.0,0,0,0,0,0,0,0,0,0,0.0,0,0.0,0,0.0,0,0.0,9,,,,,0,37,37,37,,,,,,,,,335.851418125,335.851418125,335.851418125,335.851418125,335.851418125,335.851418125,335.851418125,335.851418125,335.74138804233337,335.851418125,335.851418125,335.851418125,335.74138804233337,335.851418125,335.851418125,335.851418125,335.851418125,335.851418125,335.851418125,335.851418125,335.851418125,335.851418125,335.851418125,335.851418125,335.851418125,335.851418125,335.851418125,335.80805470900003,335.851418125,335.851418125,335.851418125,335.80805470900003,335.851418125,335.851418125,335.851418125,335.851418125,335.851418125,341.07728520900014,341.07728520900014,345.0022510420001,None,0,,reldom2_s010,001,2025-02-11_15h49.53.697,Aud-A-Scan_AC,2022.2.5,None,
29,Second_Order,5.0,audwhere,stimulus/audwhere_stim/right_toward_270h.wav,stimulus/audwhere_stim/right_away_280h.wav,stimulus/audwhere_stim/left_toward_290h.wav,stimulus/audwhere_stim/left_away_290h.wav,stimulus/audwhere_stim/match_blank.png,stimulus/audwhere_stim/match_box.png,stimulus/audwhere_stim/match_yes.png,stimulus/audwhere_stim/match_no.png,1.0,Match,Side,Side,1,5.125,0,5.125,0,5.125,0,5.125,0,0.75,0.75,0,0,0,0,0,0,0,0,1,0.5,1,2.125,1,0.5,1,2.125,0,,,,,0,38,38,38,,,,,,,,,345.0022510420001,350.122718375,345.0022510420001,345.0022510420001,345.0022510420001,345.0022510420001,345.4568286670001,346.44715287500003,345.46868850066676,346.4680067920001,347.08236229199997,348.08462058400005,347.09354641666664,348.0926671670002,350.122718375,350.95814187500014,353.030328584,356.98264812499997,350.95814187500014,350.95814187500014,356.1340748340001,350.95814187500014,350.95814187500014,350.95814187500014,350.95814187500014,351.423388917,352.5089810000002,351.3884731666667,,353.030328584,354.0709468340001,352.99500320866673,,350.95814187500014,356.1340748340001,350.95814187500014,356.1340748340001,356.17945458400004,,350.95814187500014,1,1,1.0122563739998895,reldom2_s010,001,2025-02-11_15h49.53.697,Aud-A-Scan_AC,2022.2.5,None,
30,Second_Order,5.0,audwhere,stimulus/audwhere_stim/left_toward_300h.wav,stimulus/audwhere_stim/left_away_290h.wav,stimulus/audwhere_stim/right_away_290h.wav,stimulus/audwhere_stim/right_toward_280h.wav,stimulus/audwhere_stim/match_blank.png,stimulus/audwhere_stim/match_box.png,stimulus/audwhere_stim/match_yes.png,stimulus/audwhere_stim/match_no.png,1.0,Match,Side,Side,1,5.125,0,5.125,0,5.125,0,5.125,0,0.625,0.625,0,0,0,0,0,0,0,0,1,0.5,1,2.125,1,0.5,1,2.125,0,,,,,0,39,39,39,,,,,,,,,356.98264812499997,362.0977276670001,356.98264812499997,356.98264812499997,356.98264812499997,356.98264812499997,357.43873825000014,358.44079091699996,357.4402130836668,358.44079091699996,359.06406241700006,360.0654253340001,359.0671185836668,360.0654253340001,362.0977276670001,362.813450375,364.8921595840002,,362.813450375,362.813450375,368.00008483400006,362.813450375,362.813450375,362.813450375,362.813450375,363.2818665,364.321547584,363.24573129166674,,364.8921595840002,365.931648084,364.85679037566683,,362.813450375,368.00008483400006,362.813450375,368.00008483400006,368.00008483400006,368.6814637090001,362.813450375,1,1,0.9355844159999833,reldom2_s010,001,2025-02-11_15h49.53.697,Aud-A-Scan_AC,2022.2.5,None,
0,0.0,None,fixation,stimulus/audwhere_stim/blank_white.png,stimulus/audwhere_stim/blank_white.png,stimulus/audwhat_stim/blank_white.png,stimulus/audwhat_stim/blank_white.png,stimulus/audwhere_stim/blank_white.png,stimulus/audwhere_stim/blank_white.png,stimulus/audwhere_stim/blank_white.png,stimulus/audwhere_stim/blank_white.png,0.0,0.0,0.0,0.0,0,0.0,0,0.0,0,0.0,0,0.0,0,0.0,0.0,0,0,0,0,0,0,0,0,0,0.0,0,0.0,0,0.0,0,0.0,9,,,,,0,40,40,40,,,,,,,,,368.92600241700006,368.92600241700006,368.92600241700006,368.92600241700006,368.92600241700006,368.92600241700006,368.92600241700006,368.92600241700006,368.81479704233345,368.92600241700006,368.92600241700006,368.92600241700006,368.81479704233345,368.92600241700006,368.92600241700006,368.92600241700006,368.92600241700006,368.92600241700006,368.92600241700006,368.92600241700006,368.92600241700006,368.92600241700006,368.92600241700006,368.92600241700006,368.92600241700006,368.92600241700006,368.92600241700006,368.8814637090001,368.92600241700006,368.92600241700006,368.92600241700006,368.8814637090001,368.92600241700006,368.92600241700006,368.92600241700006,368.92600241700006,368.92600241700006,374.150064167,374.150064167,378.16981691700016,None,0,,reldom2_s010,001,2025-02-11_15h49.53.697,Aud-A-Scan_AC,2022.2.5,None,
31,First_Order,6.0,audwhere,stimulus/audwhere_stim/dummy.wav,stimulus/audwhere_stim/dummy.wav,stimulus/audwhere_stim/left_away_300h.wav,stimulus/audwhere_stim/left_toward_300h.wav,stimulus/audwhere_stim/blank_white.png,stimulus/audwhere_stim/side_box.png,stimulus/audwhere_stim/side_yes.png,stimulus/audwhere_stim/side_no.png,None,Side,None,Side,1,0.0,0,5.125,0,5.125,0,5.125,0,0.0,0.625,0,0,0,0,0,0,0,0,0,0.0,0,0.0,1,0.5,1,2.125,0,,,,,0,41,41,41,,,,,,,,,378.16981691700016,378.16981691700016,378.16981691700016,378.16981691700016,378.16981691700016,378.16981691700016,378.16981691700016,378.16981691700016,378.0861706256668,378.16981691700016,378.16981691700016,378.16981691700016,378.0861706256668,378.16981691700016,378.16981691700016,378.16981691700016,380.2894388340003,384.2867347920003,378.16981691700016,378.16981691700016,383.33907658400017,378.16981691700016,378.16981691700016,378.16981691700016,378.16981691700016,378.636513292,379.67284137499996,378.6008960006668,,380.2894388340003,381.32569149999995,380.2542092086669,,378.16981691700016,383.33907658400017,378.16981691700016,383.33907658400017,383.3845103340002,384.0664671249999,378.16981691700016,1,1,1.4695540410000376,reldom2_s010,001,2025-02-11_15h49.53.697,Aud-A-Scan_AC,2022.2.5,None,
32,First_Order,6.0,audwhere,stimulus/audwhere_stim/dummy.wav,stimulus/audwhere_stim/dummy.wav,stimulus/audwhere_stim/right_away_270h.wav,stimulus/audwhere_stim/left_away_280h.wav,stimulus/audwhere_stim/blank_white.png,stimulus/audwhere_stim/side_box.png,stimulus/audwhere_stim/side_yes.png,stimulus/audwhere_stim/side_no.png,None,Side,None,Direction,2,0.0,0,5.125,0,5.125,0,5.125,0,0.0,0.625,0,0,0,0,0,0,0,0,0,0.0,0,0.0,1,0.5,1,2.125,0,,,,,0,42,42,42,,,,,,,,,384.2867347920003,384.2867347920003,384.2867347920003,384.2867347920003,384.2867347920003,384.2867347920003,384.2867347920003,384.2867347920003,384.19980045833324,384.2867347920003,384.2867347920003,384.2867347920003,384.19980045833324,384.2867347920003,384.2867347920003,384.2867347920003,386.40347616700024,390.40730420900013,384.2867347920003,384.2867347920003,389.45707474999995,384.2867347920003,384.2867347920003,384.2867347920003,384.2867347920003,384.7529000840002,385.83597266699985,384.7166627506667,,386.40347616700024,387.4423346670003,386.3681434166665,,384.2867347920003,389.45707474999995,384.2867347920003,389.45707474999995,389.5028262090002,390.1818685840001,384.2867347920003,2,1,0.7671581659999447,reldom2_s010,001,2025-02-11_15h49.53.697,Aud-A-Scan_AC,2022.2.5,None,
33,First_Order,6.0,audwhere,stimulus/audwhere_stim/dummy.wav,stimulus/audwhere_stim/dummy.wav,stimulus/audwhere_stim/left_toward_270h.wav,stimulus/audwhere_stim/left_away_270h.wav,stimulus/audwhere_stim/blank_white.png,stimulus/audwhere_stim/direction_box.png,stimulus/audwhere_stim/direction_yes.png,stimulus/audwhere_stim/direction_no.png,None,Direction,None,Side,2,0.0,0,5.125,0,5.125,0,5.125,0,0.0,0.625,0,0,0,0,0,0,0,0,0,0.0,0,0.0,1,0.5,1,2.125,0,,,,,0,43,43,43,,,,,,,,,390.40730420900013,390.40730420900013,390.40730420900013,390.40730420900013,390.40730420900013,390.40730420900013,390.40730420900013,390.40730420900013,390.3152019173334,390.40730420900013,390.40730420900013,390.40730420900013,390.3152019173334,390.40730420900013,390.40730420900013,390.40730420900013,392.48337858399987,,390.40730420900013,390.40730420900013,395.6076055000001,390.40730420900013,390.40730420900013,390.40730420900013,390.40730420900013,390.87587670900007,391.9133037500003,390.8401453336669,,392.48337858399987,393.5297660839999,392.44779508366673,,390.40730420900013,395.6076055000001,390.40730420900013,395.6076055000001,395.6076055000001,396.2887686669999,390.40730420900013,2,1,1.8933444159999908,reldom2_s010,001,2025-02-11_15h49.53.697,Aud-A-Scan_AC,2022.2.5,None,
34,First_Order,6.0,audwhere,stimulus/audwhere_stim/dummy.wav,stimulus/audwhere_stim/dummy.wav,stimulus/audwhere_stim/left_toward_300h.wav,stimulus/audwhere_stim/left_away_300h.wav,stimulus/audwhere_stim/blank_white.png,stimulus/audwhere_stim/side_box.png,stimulus/audwhere_stim/side_yes.png,stimulus/audwhere_stim/side_no.png,None,Side,None,Side,1,0.0,0,5.125,0,5.125,0,5.125,0,0.0,0.625,0,0,0,0,0,0,0,0,0,0.0,0,0.0,1,0.5,1,2.125,0,,,,,0,44,44,44,,,,,,,,,396.51143245900016,396.51143245900016,396.51143245900016,396.51143245900016,396.51143245900016,396.51143245900016,396.51143245900016,396.51143245900016,396.4221020003332,396.51143245900016,396.51143245900016,396.51143245900016,396.4221020003332,396.51143245900016,396.51143245900016,396.51143245900016,398.58191795900007,402.6557547919999,396.51143245900016,396.51143245900016,401.6840822920001,396.51143245900016,396.51143245900016,396.51143245900016,396.51143245900016,396.9784951670001,398.01387524999996,396.9428713756665,,398.58191795900007,399.6185432499999,398.5464852506666,,396.51143245900016,401.6840822920001,396.51143245900016,401.6840822920001,401.72963649999997,402.40743479200023,396.51143245900016,1,1,2.076346708000301,reldom2_s010,001,2025-02-11_15h49.53.697,Aud-A-Scan_AC,2022.2.5,None,
0,0.0,None,fixation,stimulus/audwhere_stim/blank_white.png,stimulus/audwhere_stim/blank_white.png,stimulus/audwhat_stim/blank_white.png,stimulus/audwhat_stim/blank_white.png,stimulus/audwhere_stim/blank_white.png,stimulus/audwhere_stim/blank_white.png,stimulus/audwhere_stim/blank_white.png,stimulus/audwhere_stim/blank_white.png,0.0,0.0,0.0,0.0,0,0.0,0,0.0,0,0.0,0,0.0,0,0.0,0.0,0,0,0,0,0,0,0,0,0,0.0,0,0.0,0,0.0,0,0.0,10,,,,,0,45,45,45,,,,,,,,,402.6557547919999,402.6557547919999,402.6557547919999,402.6557547919999,402.6557547919999,402.6557547919999,402.6557547919999,402.6557547919999,402.54076812533356,402.6557547919999,402.6557547919999,402.6557547919999,402.54076812533356,402.6557547919999,402.6557547919999,402.6557547919999,402.6557547919999,402.6557547919999,402.6557547919999,402.6557547919999,402.6557547919999,402.6557547919999,402.6557547919999,402.6557547919999,402.6557547919999,402.6557547919999,402.6557547919999,402.6074347920002,402.6557547919999,402.6557547919999,402.6557547919999,402.6074347920002,402.6557547919999,402.6557547919999,402.6557547919999,402.6557547919999,402.6557547919999,407.8763261669999,407.8763261669999,412.841980167,None,0,,reldom2_s010,001,2025-02-11_15h49.53.697,Aud-A-Scan_AC,2022.2.5,None,
35,Second_Order,6.0,audwhere,stimulus/audwhere_stim/left_away_280h.wav,stimulus/audwhere_stim/left_toward_300h.wav,stimulus/audwhere_stim/right_away_280h.wav,stimulus/audwhere_stim/right_toward_300h.wav,stimulus/audwhere_stim/match_blank.png,stimulus/audwhere_stim/match_box.png,stimulus/audwhere_stim/match_yes.png,stimulus/audwhere_stim/match_no.png,1.0,Match,Side,Side,1,5.125,0,5.125,0,5.125,0,5.125,0,0.75,0.75,0,0,0,0,0,0,0,0,1,0.5,1,2.125,1,0.5,1,2.125,0,,,,,0,46,46,46,,,,,,,,,412.841980167,417.95876816700024,412.841980167,412.841980167,412.841980167,412.841980167,413.28457437500015,414.2732007920001,413.29661604166677,414.2977269589999,414.9217462090003,415.91559566699993,414.92280158366657,415.91559566699993,417.95876816700024,418.79152350000027,420.86507525,,418.79152350000027,418.79152350000027,423.97616070900017,418.79152350000027,418.79152350000027,418.79152350000027,418.79152350000027,419.260292792,420.2958483750001,419.2252495006669,,420.86507525,421.9029827500001,420.8296286256668,,418.79152350000027,423.97616070900017,418.79152350000027,423.97616070900017,423.97616070900017,,418.79152350000027,1,1,0.5925854160002473,reldom2_s010,001,2025-02-11_15h49.53.697,Aud-A-Scan_AC,2022.2.5,None,
36,Second_Order,6.0,audwhere,stimulus/audwhere_stim/left_away_290h.wav,stimulus/audwhere_stim/left_toward_270h.wav,stimulus/audwhere_stim/left_toward_290h.wav,stimulus/audwhere_stim/right_toward_270h.wav,stimulus/audwhere_stim/match_blank.png,stimulus/audwhere_stim/match_box.png,stimulus/audwhere_stim/match_yes.png,stimulus/audwhere_stim/match_no.png,2.0,Match,Side,Direction,2,5.125,0,5.125,0,5.125,0,5.125,0,0.625,0.625,0,0,0,0,0,0,0,0,1,0.5,1,2.125,1,0.5,1,2.125,0,,,,,0,47,47,47,,,,,,,,,424.7854401249999,429.9010639999999,424.7854401249999,424.7854401249999,424.7854401249999,424.7854401249999,425.23865,426.2296462500001,425.25051950066654,426.25221783400025,426.85507033399995,427.8599543339999,426.86736408366687,427.8599543339999,429.9010639999999,430.61780995899994,432.69336291700006,,430.61780995899994,430.61780995899994,435.81130558400014,430.61780995899994,430.61780995899994,430.61780995899994,430.61780995899994,431.0860579590001,432.12209187500025,431.0508358336665,,432.69336291700006,433.74151662500003,432.6578483756666,,430.61780995899994,435.81130558400014,430.61780995899994,435.81130558400014,435.81130558400014,436.49278958399987,430.61780995899994,2,1,0.8127262079999582,reldom2_s010,001,2025-02-11_15h49.53.697,Aud-A-Scan_AC,2022.2.5,None,
0,0.0,None,fixation,stimulus/audwhere_stim/blank_white.png,stimulus/audwhere_stim/blank_white.png,stimulus/audwhat_stim/blank_white.png,stimulus/audwhat_stim/blank_white.png,stimulus/audwhere_stim/blank_white.png,stimulus/audwhere_stim/blank_white.png,stimulus/audwhere_stim/blank_white.png,stimulus/audwhere_stim/blank_white.png,0.0,0.0,0.0,0.0,0,0.0,0,0.0,0,0.0,0,0.0,0,0.0,0.0,0,0,0,0,0,0,0,0,0,0.0,0,0.0,0,0.0,0,0.0,9,,,,,0,48,48,48,,,,,,,,,436.74190166699987,436.74190166699987,436.74190166699987,436.74190166699987,436.74190166699987,436.74190166699987,436.74190166699987,436.74190166699987,436.6261229173332,436.74190166699987,436.74190166699987,436.74190166699987,436.6261229173332,436.74190166699987,436.74190166699987,436.74190166699987,436.74190166699987,436.74190166699987,436.74190166699987,436.74190166699987,436.74190166699987,436.74190166699987,436.74190166699987,436.74190166699987,436.74190166699987,436.74190166699987,436.74190166699987,436.69278958399985,436.74190166699987,436.74190166699987,436.74190166699987,436.69278958399985,436.74190166699987,436.74190166699987,436.74190166699987,436.74190166699987,436.74190166699987,441.9664765,441.9664765,445.9933933340001,None,0,,reldom2_s010,001,2025-02-11_15h49.53.697,Aud-A-Scan_AC,2022.2.5,None,
37,First_Order,7.0,audwhat,stimulus/audwhat_stim/dummy.wav,stimulus/audwhat_stim/dummy.wav,stimulus/audwhat_stim/string cello_low-pitch_Ftri_loud.wav,stimulus/audwhat_stim/string cello_high-pitch_D_loud.wav,stimulus/audwhat_stim/blank_white.png,stimulus/audwhat_stim/pitch_box.png,stimulus/audwhat_stim/pitch_yes.png,stimulus/audwhat_stim/pitch_no.png,None,Pitch,None,Category,2,0.0,0,5.125,0,5.125,0,5.125,0,0.0,0.625,0,0,0,0,0,0,0,0,0,0.0,0,0.0,1,0.5,1,2.125,0,,,,,0,49,49,49,,,,,,,,,445.9933933340001,445.9933933340001,445.9933933340001,445.9933933340001,445.9933933340001,445.9933933340001,445.9933933340001,445.9933933340001,445.90943683366675,445.9933933340001,445.9933933340001,445.9933933340001,445.90943683366675,445.9933933340001,445.9933933340001,445.9933933340001,448.06624595900007,452.1215742500001,445.9933933340001,445.9933933340001,451.1733082090002,445.9933933340001,445.9933933340001,445.9933933340001,445.9933933340001,446.460481375,447.4952900420001,446.42459575066687,,448.06624595900007,449.10645554200005,448.0308065416666,,445.9933933340001,451.1733082090002,445.9933933340001,451.1733082090002,451.2191274590002,451.8985446250001,445.9933933340001,1,0,1.9881332909997127,reldom2_s010,001,2025-02-11_15h49.53.697,Aud-A-Scan_AC,2022.2.5,None,
38,First_Order,7.0,audwhat,stimulus/audwhat_stim/dummy.wav,stimulus/audwhat_stim/dummy.wav,stimulus/audwhat_stim/string cello_low-pitch_D_loud.wav,stimulus/audwhat_stim/string cello_high-pitch_Ftri_loud.wav,stimulus/audwhat_stim/blank_white.png,stimulus/audwhat_stim/pitch_box.png,stimulus/audwhat_stim/pitch_yes.png,stimulus/audwhat_stim/pitch_no.png,None,Pitch,None,Category,2,0.0,0,5.125,0,5.125,0,5.125,0,0.0,0.625,0,0,0,0,0,0,0,0,0,0.0,0,0.0,1,0.5,1,2.125,0,,,,,0,50,50,50,,,,,,,,,452.1215742500001,452.1215742500001,452.1215742500001,452.1215742500001,452.1215742500001,452.1215742500001,452.1215742500001,452.1215742500001,452.03187795833344,452.1215742500001,452.1215742500001,452.1215742500001,452.03187795833344,452.1215742500001,452.1215742500001,452.1215742500001,454.19813445900013,458.25543166700004,452.1215742500001,452.1215742500001,457.2997223750001,452.1215742500001,452.1215742500001,452.1215742500001,452.1215742500001,452.58668220899995,453.6291643340003,452.55145583366675,,454.19813445900013,455.23605491700005,454.1628247086669,,452.1215742500001,457.2997223750001,452.1215742500001,457.2997223750001,457.3458417090003,458.02903775000027,452.1215742500001,2,1,1.5092666660000305,reldom2_s010,001,2025-02-11_15h49.53.697,Aud-A-Scan_AC,2022.2.5,None,
39,First_Order,7.0,audwhat,stimulus/audwhat_stim/dummy.wav,stimulus/audwhat_stim/dummy.wav,stimulus/audwhat_stim/percussion xylophone_high-pitch_Dtri_loud.wav,stimulus/audwhat_stim/string cello_high-pitch_Dtri_loud.wav,stimulus/audwhat_stim/blank_white.png,stimulus/audwhat_stim/pitch_box.png,stimulus/audwhat_stim/pitch_yes.png,stimulus/audwhat_stim/pitch_no.png,None,Pitch,None,Pitch,1,0.0,0,5.125,0,5.125,0,5.125,0,0.0,0.625,0,0,0,0,0,0,0,0,0,0.0,0,0.0,1,0.5,1,2.125,0,,,,,0,51,51,51,,,,,,,,,458.25543166700004,458.25543166700004,458.25543166700004,458.25543166700004,458.25543166700004,458.25543166700004,458.25543166700004,458.25543166700004,458.1623710833336,458.25543166700004,458.25543166700004,458.25543166700004,458.1623710833336,458.25543166700004,458.25543166700004,458.25543166700004,460.32889483400027,464.388643,458.25543166700004,458.25543166700004,463.437193,458.25543166700004,458.25543166700004,458.25543166700004,458.25543166700004,458.7238289170002,459.7626398340001,458.68712920866665,459.7626398340001,460.32889483400027,461.36971395900014,460.2935663756666,,458.25543166700004,463.437193,458.25543166700004,463.437193,463.4838245839999,464.16616254199994,458.25543166700004,1,1,0.8706408329996975,reldom2_s010,001,2025-02-11_15h49.53.697,Aud-A-Scan_AC,2022.2.5,None,
40,First_Order,7.0,audwhat,stimulus/audwhat_stim/dummy.wav,stimulus/audwhat_stim/dummy.wav,stimulus/audwhat_stim/string cello_low-pitch_D_loud.wav,stimulus/audwhat_stim/percussion mallet_low-pitch_D_loud.wav,stimulus/audwhat_stim/blank_white.png,stimulus/audwhat_stim/pitch_box.png,stimulus/audwhat_stim/pitch_yes.png,stimulus/audwhat_stim/pitch_no.png,None,Pitch,None,Pitch,1,0.0,0,5.125,0,5.125,0,5.125,0,0.0,0.625,0,0,0,0,0,0,0,0,0,0.0,0,0.0,1,0.5,1,2.125,0,,,,,0,52,52,52,,,,,,,,,464.388643,464.388643,464.388643,464.388643,464.388643,464.388643,464.388643,464.388643,464.29949587533326,464.388643,464.388643,464.388643,464.29949587533326,464.388643,464.388643,464.388643,466.4607409590001,470.534872167,464.388643,464.388643,469.56700750000005,464.388643,464.388643,464.388643,464.388643,464.8581815,465.8935683340003,464.8222727506668,,466.4607409590001,467.4994247090001,466.4257830416668,,464.388643,469.56700750000005,464.388643,469.56700750000005,469.6124051250001,470.29140362500016,464.388643,1,1,0.9054728739999973,reldom2_s010,001,2025-02-11_15h49.53.697,Aud-A-Scan_AC,2022.2.5,None,
0,0.0,None,fixation,stimulus/audwhere_stim/blank_white.png,stimulus/audwhere_stim/blank_white.png,stimulus/audwhat_stim/blank_white.png,stimulus/audwhat_stim/blank_white.png,stimulus/audwhere_stim/blank_white.png,stimulus/audwhere_stim/blank_white.png,stimulus/audwhere_stim/blank_white.png,stimulus/audwhere_stim/blank_white.png,0.0,0.0,0.0,0.0,0,0.0,0,0.0,0,0.0,0,0.0,0,0.0,0.0,0,0,0,0,0,0,0,0,0,0.0,0,0.0,0,0.0,0,0.0,10,,,,,0,53,53,53,,,,,,,,,470.534872167,470.534872167,470.534872167,470.534872167,470.534872167,470.534872167,470.534872167,470.534872167,470.4247369583335,470.534872167,470.534872167,470.534872167,470.4247369583335,470.534872167,470.534872167,470.534872167,470.534872167,470.534872167,470.534872167,470.534872167,470.534872167,470.534872167,470.534872167,470.534872167,470.534872167,470.534872167,470.534872167,470.49140362500015,470.534872167,470.534872167,470.534872167,470.49140362500015,470.534872167,470.534872167,470.534872167,470.534872167,470.534872167,475.7561297499999,475.7561297499999,480.71723774999987,None,0,,reldom2_s010,001,2025-02-11_15h49.53.697,Aud-A-Scan_AC,2022.2.5,None,
41,Second_Order,7.0,audwhat,stimulus/audwhat_stim/percussion xylophone_high-pitch_Ftri_loud.wav,stimulus/audwhat_stim/percussion mallet_low-pitch_Dtri_loud.wav,stimulus/audwhat_stim/string viola_low-pitch_Ftri_loud.wav,stimulus/audwhat_stim/percussion mallet_low-pitch_Ftri_loud.wav,stimulus/audwhere_stim/match_blank.png,stimulus/audwhat_stim/match_box.png,stimulus/audwhere_stim/match_yes.png,stimulus/audwhere_stim/match_no.png,2.0,Match,Category,Pitch,2,5.125,0,5.125,0,5.125,0,5.125,0,0.75,0.75,0,0,0,0,0,0,0,0,1,0.5,1,2.125,1,0.5,1,2.125,0,,,,,0,54,54,54,,,,,,,,,480.71723774999987,485.8418921250002,480.71723774999987,480.71723774999987,480.71723774999987,480.71723774999987,481.1593217920001,482.1499005420003,481.1715177916667,482.1728116249999,482.7933237089999,483.78083387499987,482.8052340006666,483.8052741250001,485.8418921250002,486.68784637500016,488.7657812499999,,486.68784637500016,486.68784637500016,491.87397533399985,486.68784637500016,486.68784637500016,486.68784637500016,486.68784637500016,487.1562850840003,488.1929745,487.12104137566666,,488.7657812499999,489.8057476669999,488.7300315836669,,486.68784637500016,491.87397533399985,486.68784637500016,491.87397533399985,491.87397533399985,,486.68784637500016,1,0,1.2804298319999816,reldom2_s010,001,2025-02-11_15h49.53.697,Aud-A-Scan_AC,2022.2.5,None,
42,Second_Order,7.0,audwhat,stimulus/audwhat_stim/string cello_high-pitch_Dtri_loud.wav,stimulus/audwhat_stim/percussion mallet_high-pitch_Dtri_loud.wav,stimulus/audwhat_stim/percussion mallet_low-pitch_D_loud.wav,stimulus/audwhat_stim/string cello_low-pitch_D_loud.wav,stimulus/audwhere_stim/match_blank.png,stimulus/audwhat_stim/match_box.png,stimulus/audwhere_stim/match_yes.png,stimulus/audwhere_stim/match_no.png,1.0,Match,Pitch,Pitch,1,5.125,0,5.125,0,5.125,0,5.125,0,0.625,0.625,0,0,0,0,0,0,0,0,1,0.5,1,2.125,1,0.5,1,2.125,0,,,,,0,55,55,55,,,,,,,,,492.6840060000002,497.796015959,492.6840060000002,492.6840060000002,492.6840060000002,492.6840060000002,493.126541417,494.11405108400027,493.1383939166667,,494.75985512500006,495.75087725000026,494.77158058366695,495.7642078340002,497.796015959,498.5137096670003,500.5931577500003,,498.5137096670003,498.5137096670003,503.7073733750001,498.5137096670003,498.5137096670003,498.5137096670003,498.5137096670003,498.984436125,500.024582709,498.94822525066684,,500.5931577500003,501.6347001249999,500.5580881256669,,498.5137096670003,503.7073733750001,498.5137096670003,503.7073733750001,503.7073733750001,504.3912836669999,498.5137096670003,1,1,1.1965346660001615,reldom2_s010,001,2025-02-11_15h49.53.697,Aud-A-Scan_AC,2022.2.5,None,
0,0.0,None,fixation,stimulus/audwhere_stim/blank_white.png,stimulus/audwhere_stim/blank_white.png,stimulus/audwhat_stim/blank_white.png,stimulus/audwhat_stim/blank_white.png,stimulus/audwhere_stim/blank_white.png,stimulus/audwhere_stim/blank_white.png,stimulus/audwhere_stim/blank_white.png,stimulus/audwhere_stim/blank_white.png,0.0,0.0,0.0,0.0,0,0.0,0,0.0,0,0.0,0,0.0,0,0.0,0.0,0,0,0,0,0,0,0,0,0,0.0,0,0.0,0,0.0,0,0.0,9,,,,,0,56,56,56,,,,,,,,,504.63620812500017,504.63620812500017,504.63620812500017,504.63620812500017,504.63620812500017,504.63620812500017,504.63620812500017,504.63620812500017,504.52461700033325,504.63620812500017,504.63620812500017,504.63620812500017,504.52461700033325,504.63620812500017,504.63620812500017,504.63620812500017,504.63620812500017,504.63620812500017,504.63620812500017,504.63620812500017,504.63620812500017,504.63620812500017,504.63620812500017,504.63620812500017,504.63620812500017,504.63620812500017,504.63620812500017,504.5912836669999,504.63620812500017,504.63620812500017,504.63620812500017,504.5912836669999,504.63620812500017,504.63620812500017,504.63620812500017,504.63620812500017,504.63620812500017,509.86659962499994,509.86659962499994,513.8974042920001,None,0,,reldom2_s010,001,2025-02-11_15h49.53.697,Aud-A-Scan_AC,2022.2.5,None,
43,First_Order,8.0,audwhat,stimulus/audwhat_stim/dummy.wav,stimulus/audwhat_stim/dummy.wav,stimulus/audwhat_stim/string viola_low-pitch_F_loud.wav,stimulus/audwhat_stim/percussion mallet_low-pitch_F_loud.wav,stimulus/audwhat_stim/blank_white.png,stimulus/audwhat_stim/category_box.png,stimulus/audwhat_stim/category_yes.png,stimulus/audwhat_stim/category_no.png,None,Category,None,Pitch,2,0.0,0,5.125,0,5.125,0,5.125,0,0.0,0.625,0,0,0,0,0,0,0,0,0,0.0,0,0.0,1,0.5,1,2.125,0,,,,,0,57,57,57,,,,,,,,,513.8974042920001,513.8974042920001,513.8974042920001,513.8974042920001,513.8974042920001,513.8974042920001,513.8974042920001,513.8974042920001,513.8117608336669,513.8974042920001,513.8974042920001,513.8974042920001,513.8117608336669,513.8974042920001,513.8974042920001,513.8974042920001,515.979173042,,513.8974042920001,513.8974042920001,519.1018396249999,513.8974042920001,513.8974042920001,513.8974042920001,513.8974042920001,514.3670280839999,515.4089082920002,514.3316986256668,,515.979173042,517.0220830840001,515.9438515836669,,513.8974042920001,519.1018396249999,513.8974042920001,519.1018396249999,519.1018396249999,519.7856155000002,513.8974042920001,2,1,1.4793626660000427,reldom2_s010,001,2025-02-11_15h49.53.697,Aud-A-Scan_AC,2022.2.5,None,
44,First_Order,8.0,audwhat,stimulus/audwhat_stim/dummy.wav,stimulus/audwhat_stim/dummy.wav,stimulus/audwhat_stim/percussion mallet_low-pitch_Dtri_loud.wav,stimulus/audwhat_stim/percussion xylophone_high-pitch_F_loud.wav,stimulus/audwhat_stim/blank_white.png,stimulus/audwhat_stim/category_box.png,stimulus/audwhat_stim/category_yes.png,stimulus/audwhat_stim/category_no.png,None,Category,None,Category,1,0.0,0,5.125,0,5.125,0,5.125,0,0.0,0.625,0,0,0,0,0,0,0,0,0,0.0,0,0.0,1,0.5,1,2.125,0,,,,,0,58,58,58,,,,,,,,,520.00978225,520.00978225,520.00978225,520.00978225,520.00978225,520.00978225,520.00978225,520.00978225,519.9189488333335,520.00978225,520.00978225,520.00978225,519.9189488333335,520.00978225,520.00978225,520.00978225,522.086033625,,520.00978225,520.00978225,525.1656914170001,520.00978225,520.00978225,520.00978225,520.00978225,520.4761782500002,521.5164883750001,520.4411376666667,,522.086033625,523.1415919590002,522.0507490416667,523.1415919590002,520.00978225,525.1656914170001,520.00978225,525.1656914170001,525.209987292,525.891974334,520.00978225,1,1,0.7907842490001258,reldom2_s010,001,2025-02-11_15h49.53.697,Aud-A-Scan_AC,2022.2.5,None,
45,First_Order,8.0,audwhat,stimulus/audwhat_stim/dummy.wav,stimulus/audwhat_stim/dummy.wav,stimulus/audwhat_stim/string cello_high-pitch_Dtri_loud.wav,stimulus/audwhat_stim/percussion xylophone_high-pitch_Dtri_loud.wav,stimulus/audwhat_stim/blank_white.png,stimulus/audwhat_stim/category_box.png,stimulus/audwhat_stim/category_yes.png,stimulus/audwhat_stim/category_no.png,None,Category,None,Pitch,2,0.0,0,5.125,0,5.125,0,5.125,0,0.0,0.625,0,0,0,0,0,0,0,0,0,0.0,0,0.0,1,0.5,1,2.125,0,,,,,0,59,59,59,,,,,,,,,526.116625417,526.116625417,526.116625417,526.116625417,526.116625417,526.116625417,526.116625417,526.116625417,526.041974334,526.116625417,526.116625417,526.116625417,526.041974334,526.116625417,526.116625417,526.116625417,528.2009875000001,,526.116625417,526.116625417,531.2705095419999,526.116625417,526.116625417,526.116625417,526.116625417,526.585013875,527.628657209,526.5496079586669,,528.2009875000001,529.2507882500001,528.1649406666666,529.2507882500001,526.116625417,531.2705095419999,526.116625417,531.2705095419999,531.316734542,531.9991466670001,526.116625417,2,1,1.1298562489998858,reldom2_s010,001,2025-02-11_15h49.53.697,Aud-A-Scan_AC,2022.2.5,None,
46,First_Order,8.0,audwhat,stimulus/audwhat_stim/dummy.wav,stimulus/audwhat_stim/dummy.wav,stimulus/audwhat_stim/percussion mallet_low-pitch_Ftri_loud.wav,stimulus/audwhat_stim/percussion mallet_high-pitch_F_loud.wav,stimulus/audwhat_stim/blank_white.png,stimulus/audwhat_stim/category_box.png,stimulus/audwhat_stim/category_yes.png,stimulus/audwhat_stim/category_no.png,None,Category,None,Category,1,0.0,0,5.125,0,5.125,0,5.125,0,0.0,0.625,0,0,0,0,0,0,0,0,0,0.0,0,0.0,1,0.5,1,2.125,0,,,,,0,60,60,60,,,,,,,,,532.2222764999999,532.2222764999999,532.2222764999999,532.2222764999999,532.2222764999999,532.2222764999999,532.2222764999999,532.2222764999999,532.1324800003334,532.2222764999999,532.2222764999999,532.2222764999999,532.1324800003334,532.2222764999999,532.2222764999999,532.2222764999999,534.3057942500002,,532.2222764999999,532.2222764999999,537.422433084,532.2222764999999,532.2222764999999,532.2222764999999,532.2222764999999,532.6912795840001,533.7337741670001,532.6551141256668,,534.3057942500002,535.3502612499999,534.2704165006667,,532.2222764999999,537.422433084,532.2222764999999,537.422433084,537.422433084,538.106552042,532.2222764999999,1,1,0.9364858739997999,reldom2_s010,001,2025-02-11_15h49.53.697,Aud-A-Scan_AC,2022.2.5,None,
0,0.0,None,fixation,stimulus/audwhere_stim/blank_white.png,stimulus/audwhere_stim/blank_white.png,stimulus/audwhat_stim/blank_white.png,stimulus/audwhat_stim/blank_white.png,stimulus/audwhere_stim/blank_white.png,stimulus/audwhere_stim/blank_white.png,stimulus/audwhere_stim/blank_white.png,stimulus/audwhere_stim/blank_white.png,0.0,0.0,0.0,0.0,0,0.0,0,0.0,0,0.0,0,0.0,0,0.0,0.0,0,0,0,0,0,0,0,0,0,0.0,0,0.0,0,0.0,0,0.0,8,,,,,0,61,61,61,,,,,,,,,538.351364542,538.351364542,538.351364542,538.351364542,538.351364542,538.351364542,538.351364542,538.351364542,538.2398853753333,538.351364542,538.351364542,538.351364542,538.2398853753333,538.351364542,538.351364542,538.351364542,538.351364542,538.351364542,538.351364542,538.351364542,538.351364542,538.351364542,538.351364542,538.351364542,538.351364542,538.351364542,538.351364542,538.3065520419999,538.351364542,538.351364542,538.351364542,538.3065520419999,538.351364542,538.351364542,538.351364542,538.351364542,538.351364542,543.5822658750001,543.5822658750001,546.5165100420002,None,0,,reldom2_s010,001,2025-02-11_15h49.53.697,Aud-A-Scan_AC,2022.2.5,None,
47,Second_Order,8.0,audwhat,stimulus/audwhat_stim/string cello_high-pitch_F_loud.wav,stimulus/audwhat_stim/string viola_low-pitch_D_loud.wav,stimulus/audwhat_stim/percussion mallet_low-pitch_Ftri_loud.wav,stimulus/audwhat_stim/percussion xylophone_high-pitch_F_loud.wav,stimulus/audwhere_stim/match_blank.png,stimulus/audwhat_stim/match_box.png,stimulus/audwhere_stim/match_yes.png,stimulus/audwhere_stim/match_no.png,1.0,Match,Category,Category,1,5.125,0,5.125,0,5.125,0,5.125,0,0.75,0.75,0,0,0,0,0,0,0,0,1,0.5,1,2.125,1,0.5,1,2.125,0,,,,,0,62,62,62,,,,,,,,,546.5165100420002,551.6378992920002,546.5165100420002,546.5165100420002,546.5165100420002,546.5165100420002,546.9715449170001,547.9624997090002,546.9831584166668,,548.5878499590001,549.5870978340001,548.5999370416666,,551.6378992920002,552.4705446670002,554.5529617089999,,552.4705446670002,552.4705446670002,557.6641337920003,552.4705446670002,552.4705446670002,552.4705446670002,552.4705446670002,552.941531792,553.9837478750003,552.9055572916668,,554.5529617089999,555.5971657500002,554.5175400006669,555.5971657500002,552.4705446670002,557.6641337920003,552.4705446670002,557.6641337920003,557.6641337920003,,552.4705446670002,1,1,0.6674357490003331,reldom2_s010,001,2025-02-11_15h49.53.697,Aud-A-Scan_AC,2022.2.5,None,
48,Second_Order,8.0,audwhat,stimulus/audwhat_stim/percussion mallet_high-pitch_Ftri_loud.wav,stimulus/audwhat_stim/percussion mallet_low-pitch_D_loud.wav,stimulus/audwhat_stim/string cello_high-pitch_Ftri_loud.wav,stimulus/audwhat_stim/percussion xylophone_high-pitch_Ftri_loud.wav,stimulus/audwhere_stim/match_blank.png,stimulus/audwhat_stim/match_box.png,stimulus/audwhere_stim/match_yes.png,stimulus/audwhere_stim/match_no.png,2.0,Match,Category,Pitch,2,5.125,0,5.125,0,5.125,0,5.125,0,0.625,0.625,0,0,0,0,0,0,0,0,1,0.5,1,2.125,1,0.5,1,2.125,0,,,,,0,63,63,63,,,,,,,,,558.4733679170001,563.5875717920001,558.4733679170001,558.4733679170001,558.4733679170001,558.4733679170001,558.9178681670003,559.9162547920002,558.9289287916667,559.9243035420002,560.5425830840002,561.5291761250003,560.5544771256668,561.5574720840002,563.5875717920001,564.2930105420003,566.369524125,,564.2930105420003,564.2930105420003,569.4880955840001,564.2930105420003,564.2930105420003,564.2930105420003,564.2930105420003,564.7631760000002,565.8009087090002,564.7274897086668,,566.369524125,567.415931792,566.3340268336669,567.415931792,564.2930105420003,569.4880955840001,564.2930105420003,569.4880955840001,569.4880955840001,570.1709067919999,564.2930105420003,2,1,0.6562221239998962,reldom2_s010,001,2025-02-11_15h49.53.697,Aud-A-Scan_AC,2022.2.5,None,
0,0.0,None,fixation,stimulus/audwhere_stim/blank_white.png,stimulus/audwhere_stim/blank_white.png,stimulus/audwhat_stim/blank_white.png,stimulus/audwhat_stim/blank_white.png,stimulus/audwhere_stim/blank_white.png,stimulus/audwhere_stim/blank_white.png,stimulus/audwhere_stim/blank_white.png,stimulus/audwhere_stim/blank_white.png,0.0,0.0,0.0,0.0,0,0.0,0,0.0,0,0.0,0,0.0,0,0.0,0.0,0,0,0,0,0,0,0,0,0,0.0,0,0.0,0,0.0,0,0.0,16,,,,,0,64,64,64,,,,,,,,,570.4151277920002,570.4151277920002,570.4151277920002,570.4151277920002,570.4151277920002,570.4151277920002,570.4151277920002,570.4151277920002,570.3042401253332,570.4151277920002,570.4151277920002,570.4151277920002,570.3042401253332,570.4151277920002,570.4151277920002,570.4151277920002,570.4151277920002,570.4151277920002,570.4151277920002,570.4151277920002,570.4151277920002,570.4151277920002,570.4151277920002,570.4151277920002,570.4151277920002,570.4151277920002,570.4151277920002,570.3709067919998,570.4151277920002,570.4151277920002,570.4151277920002,570.3709067919998,570.4151277920002,570.4151277920002,570.4151277920002,570.4151277920002,570.4151277920002,575.6392463340001,575.6392463340001,586.5850513749999,None,0,,reldom2_s010,001,2025-02-11_15h49.53.697,Aud-A-Scan_AC,2022.2.5,None,
