Trial,Order,Block,Type,Stimuli_File1,Stimuli_File2,Stimuli_File3,Stimuli_File4,Cue_File1,Cue_File2,Response_File_Yes,Response_File_No,Match,Cue_Dimension,Pair1_Dimension,Pair2_Dimension,Key,Cue1_Duration,Cue1_Onset,Cue2_Duration,Cue2_Onset,ResponseYes_Duration,ResponseYes_Onset,ResponseNo_Duration,ResponseNo_Onset,ITI_Within,ITI_Between,Image1_Duration,Image1_Onset,Image2_Duration,Image2_Onset,Image3_Duration,Image3_Onset,Image4_Duration,Image4_Onset,Sound1_Duration,Sound1_Onset,Sound2_Duration,Sound2_Onset,Sound3_Duration,Sound3_Onset,Sound4_Duration,Sound4_Onset,Fixation_Duration,trials_2.thisRepN,trials_2.thisTrialN,trials_2.thisN,trials_2.thisIndex,trials.thisRepN,trials.thisTrialN,trials.thisN,trials.thisIndex,text_start.started,key_resp_start.started,key_resp_start.keys,key_resp_start.rt,text2.started,key_resp_2.started,key_resp_2.keys,key_resp_2.rt,cue_file1.started,cue_file1.stopped,image_1.started,image_1.stopped,image_2.started,image_2.stopped,sound_icon1.started,sound_icon1.stopped,sound_1.started,sound_1.stopped,sound_icon2.started,sound_icon2.stopped,sound_2.started,sound_2.stopped,image_blank_1.started,image_blank_1.stopped,key_press.started,key_press.stopped,fixation_text.started,cue_file2.started,cue_file2.stopped,image_3.started,image_3.stopped,image_4.started,image_4.stopped,sound_icon3.started,sound_icon3.stopped,sound_3.started,sound_3.stopped,sound_icon4.started,sound_icon4.stopped,sound_4.started,sound_4.stopped,response_yes.started,response_yes.stopped,response_no.started,response_no.stopped,iti_blank.started,iti_blank.stopped,fixation_text.stopped,key_press.keys,key_press.corr,key_press.rt,participant,session,date,expName,psychopyVersion,frameRate,
,,,,,,,,,,,,,,,,,,,,,,,,,,,,,,,,,,,,,,,,,,,,,,,,,,,,6.906563957999879,6.906563957999879,2,1.1915958330000649,,,,,,,,,,,,,,,,,,,,,,,,,,,,,,,,,,,,,,,,,,,,,,,,reldom2_s010,001,2025-02-11_16h23.19.546,Where-A-Scan_AC,2022.2.5,None,
,,,,,,,,,,,,,,,,,,,,,,,,,,,,,,,,,,,,,,,,,,,,0,0,0,0,,,,,,,,,8.121348375000252,8.121348375000252,5,14.259812416999921,,,,,,,,,,,,,,,,,,,,,,,,,,,,,,,,,,,,,,,,,,,,reldom2_s010,001,2025-02-11_16h23.19.546,Where-A-Scan_AC,2022.2.5,None,
,,,,,,,,,,,,,,,,,,,,,,,,,,,,,,,,,,,,,,,,,,,,1,0,1,0,,,,,,,,,22.388171041000078,22.388171041000078,5,1.9926778750000267,,,,,,,,,,,,,,,,,,,,,,,,,,,,,,,,,,,,,,,,,,,,reldom2_s010,001,2025-02-11_16h23.19.546,Where-A-Scan_AC,2022.2.5,None,
,,,,,,,,,,,,,,,,,,,,,,,,,,,,,,,,,,,,,,,,,,,,2,0,2,0,,,,,,,,,24.399650875000134,24.399650875000134,5,1.9811726660000204,,,,,,,,,,,,,,,,,,,,,,,,,,,,,,,,,,,,,,,,,,,,reldom2_s010,001,2025-02-11_16h23.19.546,Where-A-Scan_AC,2022.2.5,None,
,,,,,,,,,,,,,,,,,,,,,,,,,,,,,,,,,,,,,,,,,,,,3,0,3,0,,,,,,,,,26.38948775000017,26.38948775000017,5,1.9913943749997998,,,,,,,,,,,,,,,,,,,,,,,,,,,,,,,,,,,,,,,,,,,,reldom2_s010,001,2025-02-11_16h23.19.546,Where-A-Scan_AC,2022.2.5,None,
0,0.0,None,fixation,stimulus/viswhere_stim/blank_white.png,stimulus/viswhere_stim/blank_white.png,stimulus/audwhere_stim/blank_white.png,stimulus/audwhere_stim/blank_white.png,stimulus/viswhere_stim/blank_white.png,stimulus/viswhere_stim/blank_white.png,stimulus/viswhere_stim/blank_white.png,stimulus/viswhere_stim/blank_white.png,0.0,0.0,0.0,0.0,0,0.0,0,0.0,0,0.0,0,0.0,0,0.0,0.0,0,0.0,0,0.0,0,0.0,0,0.0,0,0.0,0,0.0,0,0.0,0,0.0,16,,,,,0,0,0,0,,,,,,,,,28.592390625000007,28.592390625000007,28.592390625000007,28.592390625000007,28.592390625000007,28.592390625000007,28.592390625000007,28.592390625000007,28.483172916000147,28.592390625000007,28.592390625000007,28.592390625000007,28.483172916000147,28.592390625000007,28.592390625000007,28.592390625000007,28.592390625000007,28.592390625000007,28.592390625000007,28.592390625000007,28.592390625000007,28.592390625000007,28.592390625000007,28.592390625000007,28.592390625000007,28.592390625000007,28.592390625000007,28.549839582666813,28.592390625000007,28.592390625000007,28.592390625000007,28.549839582666813,28.592390625000007,28.592390625000007,28.592390625000007,28.592390625000007,28.592390625000007,33.81019749999996,33.81019749999996,44.774790791000214,None,0,,reldom2_s010,001,2025-02-11_16h23.19.546,Where-A-Scan_AC,2022.2.5,None,
1,First_Order,1.0,viswhere,stimulus/viswhere_stim/blank_white.png,stimulus/viswhere_stim/blank_white.png,stimulus/viswhere_stim/60-deg_dot-left_peru.png,stimulus/viswhere_stim/60-deg_dot-right_turquoise.png,stimulus/viswhere_stim/blank_white.png,stimulus/viswhere_stim/dot_box.png,stimulus/viswhere_stim/dot_yes.png,stimulus/viswhere_stim/dot_no.png,None,Dot,None,Line,2,0.0,0,5.125,0,5.125,0,5.125,0,0.0,0.625,0,0.0,0,0.0,1,0.5,1,2.125,0,0.0,0,0.0,0,0.0,0,0.0,0,,,,,0,1,1,1,,,,,,,,,44.774790791000214,44.774790791000214,44.774790791000214,44.774790791000214,44.774790791000214,44.774790791000214,44.774790791000214,44.774790791000214,44.738608291000126,44.774790791000214,44.774790791000214,44.774790791000214,44.738608291000126,44.774790791000214,44.774790791000214,44.774790791000214,46.8725987910002,50.843326457999865,44.774790791000214,44.774790791000214,49.918923624999934,45.25218708300008,46.27754904099993,46.8725987910002,47.879945083000166,44.774790791000214,44.774790791000214,44.75527495766679,44.774790791000214,44.774790791000214,44.774790791000214,44.75527495766679,44.774790791000214,44.774790791000214,49.918923624999934,44.774790791000214,49.918923624999934,50.004532916000244,50.62978387500016,44.774790791000214,2,1,1.0224905830000353,reldom2_s010,001,2025-02-11_16h23.19.546,Where-A-Scan_AC,2022.2.5,None,
2,First_Order,1.0,viswhere,stimulus/viswhere_stim/blank_white.png,stimulus/viswhere_stim/blank_white.png,stimulus/viswhere_stim/60-deg_dot-right_turquoise.png,stimulus/viswhere_stim/60-deg_dot-left_turquoise.png,stimulus/viswhere_stim/blank_white.png,stimulus/viswhere_stim/line_box.png,stimulus/viswhere_stim/line_yes.png,stimulus/viswhere_stim/line_no.png,None,Line,None,Line,1,0.0,0,5.125,0,5.125,0,5.125,0,0.0,0.625,0,0.0,0,0.0,1,0.5,1,2.125,0,0.0,0,0.0,0,0.0,0,0.0,0,,,,,0,2,2,2,,,,,,,,,50.843326457999865,50.843326457999865,50.843326457999865,50.843326457999865,50.843326457999865,50.843326457999865,50.843326457999865,50.843326457999865,50.815425916333275,50.843326457999865,50.843326457999865,50.843326457999865,50.815425916333275,50.843326457999865,50.843326457999865,50.843326457999865,52.945881375000226,56.917895832999875,50.843326457999865,50.843326457999865,55.97289249999994,51.31910291600025,52.348190582999905,52.945881375000226,53.95522266600028,50.843326457999865,50.843326457999865,50.83209258299994,50.843326457999865,50.843326457999865,50.843326457999865,50.83209258299994,50.843326457999865,50.843326457999865,55.97289249999994,50.843326457999865,55.97289249999994,56.0744211250003,56.703149833000225,50.843326457999865,1,1,0.7212127920001876,reldom2_s010,001,2025-02-11_16h23.19.546,Where-A-Scan_AC,2022.2.5,None,
3,First_Order,1.0,viswhere,stimulus/viswhere_stim/blank_white.png,stimulus/viswhere_stim/blank_white.png,stimulus/viswhere_stim/30-deg_dot-left_salmon.png,stimulus/viswhere_stim/120-deg_dot-left_royalblue.png,stimulus/viswhere_stim/blank_white.png,stimulus/viswhere_stim/line_box.png,stimulus/viswhere_stim/line_yes.png,stimulus/viswhere_stim/line_no.png,None,Line,None,Dot,2,0.0,0,5.125,0,5.125,0,5.125,0,0.0,0.625,0,0.0,0,0.0,1,0.5,1,2.125,0,0.0,0,0.0,0,0.0,0,0.0,0,,,,,0,3,3,3,,,,,,,,,56.917895832999875,56.917895832999875,56.917895832999875,56.917895832999875,56.917895832999875,56.917895832999875,56.917895832999875,56.917895832999875,56.88853649933329,56.917895832999875,56.917895832999875,56.917895832999875,56.88853649933329,56.917895832999875,56.917895832999875,56.917895832999875,59.01864787500017,62.98294508300023,56.917895832999875,56.917895832999875,62.051394583000274,57.39302154100005,58.42463208300023,59.01864787500017,60.0286961249999,56.917895832999875,56.917895832999875,56.90520316599996,56.917895832999875,56.917895832999875,56.917895832999875,56.90520316599996,56.917895832999875,56.917895832999875,62.051394583000274,56.917895832999875,62.051394583000274,62.13621091599998,62.7676754160002,56.917895832999875,2,1,0.6944682080002167,reldom2_s010,001,2025-02-11_16h23.19.546,Where-A-Scan_AC,2022.2.5,None,
4,First_Order,1.0,viswhere,stimulus/viswhere_stim/blank_white.png,stimulus/viswhere_stim/blank_white.png,stimulus/viswhere_stim/150-deg_dot-right_salmon.png,stimulus/viswhere_stim/90-deg_dot-right_goldenrod.png,stimulus/viswhere_stim/blank_white.png,stimulus/viswhere_stim/line_box.png,stimulus/viswhere_stim/line_yes.png,stimulus/viswhere_stim/line_no.png,None,Line,None,Dot,2,0.0,0,5.125,0,5.125,0,5.125,0,0.0,0.625,0,0.0,0,0.0,1,0.5,1,2.125,0,0.0,0,0.0,0,0.0,0,0.0,0,,,,,0,4,4,4,,,,,,,,,62.98294508300023,62.98294508300023,62.98294508300023,62.98294508300023,62.98294508300023,62.98294508300023,62.98294508300023,62.98294508300023,62.95283824933343,62.98294508300023,62.98294508300023,62.98294508300023,62.95283824933343,62.98294508300023,62.98294508300023,62.98294508300023,65.09623808300012,69.1242676249999,62.98294508300023,62.98294508300023,68.10915854099994,63.46267370800024,64.47499716599987,65.09623808300012,66.11340500000006,62.98294508300023,62.98294508300023,62.9695049160001,62.98294508300023,62.98294508300023,62.98294508300023,62.9695049160001,62.98294508300023,62.98294508300023,68.10915854099994,62.98294508300023,68.10915854099994,68.21202562500002,68.8455059580001,62.98294508300023,2,1,0.9544499999997242,reldom2_s010,001,2025-02-11_16h23.19.546,Where-A-Scan_AC,2022.2.5,None,
0,0.0,None,fixation,stimulus/viswhere_stim/blank_white.png,stimulus/viswhere_stim/blank_white.png,stimulus/audwhere_stim/blank_white.png,stimulus/audwhere_stim/blank_white.png,stimulus/viswhere_stim/blank_white.png,stimulus/viswhere_stim/blank_white.png,stimulus/viswhere_stim/blank_white.png,stimulus/viswhere_stim/blank_white.png,0.0,0.0,0.0,0.0,0,0.0,0,0.0,0,0.0,0,0.0,0,0.0,0.0,0,0.0,0,0.0,0,0.0,0,0.0,0,0.0,0,0.0,0,0.0,0,0.0,9,,,,,0,5,5,5,,,,,,,,,69.1242676249999,69.1242676249999,69.1242676249999,69.1242676249999,69.1242676249999,69.1242676249999,69.1242676249999,69.1242676249999,69.01439395833343,69.1242676249999,69.1242676249999,69.1242676249999,69.01439395833343,69.1242676249999,69.1242676249999,69.1242676249999,69.1242676249999,69.1242676249999,69.1242676249999,69.1242676249999,69.1242676249999,69.1242676249999,69.1242676249999,69.1242676249999,69.1242676249999,69.1242676249999,69.1242676249999,69.06439395833343,69.1242676249999,69.1242676249999,69.1242676249999,69.06439395833343,69.1242676249999,69.1242676249999,69.1242676249999,69.1242676249999,69.1242676249999,74.31478266600016,74.31478266600016,78.2697827080001,None,0,,reldom2_s010,001,2025-02-11_16h23.19.546,Where-A-Scan_AC,2022.2.5,None,
5,Second_Order,1.0,viswhere,stimulus/viswhere_stim/90-deg_dot-right_mediumslateblue.png,stimulus/viswhere_stim/90-deg_dot-left_peru.png,stimulus/viswhere_stim/150-deg_dot-left_seagreen.png,stimulus/viswhere_stim/120-deg_dot-left_mediumslateblue.png,stimulus/viswhere_stim/match_blank.png,stimulus/viswhere_stim/match_box.png,stimulus/viswhere_stim/match_yes.png,stimulus/viswhere_stim/match_no.png,2.0,Match,Line,Dot,2,5.125,0,5.125,0,5.125,0,5.125,0,0.75,0.75,1,0.5,1,2.125,1,0.5,1,2.125,0,0.0,0,0.0,0,0.0,0,0.0,0,,,,,0,6,6,6,,,,,,,,,78.2697827080001,83.39471862500022,78.74957566600006,79.7363101660003,80.37111854100021,81.35911433299998,78.2697827080001,78.2697827080001,78.2760892493335,78.2697827080001,78.2697827080001,78.2697827080001,78.2760892493335,78.2697827080001,83.39471862500022,84.1786072079999,86.27490695799997,90.16938708299995,84.1786072079999,84.1786072079999,89.31738575000008,84.63866670800007,85.65263479100031,86.27490695799997,87.2966509580001,84.1786072079999,84.1786072079999,84.16244337433321,84.1786072079999,84.1786072079999,84.1786072079999,84.16244337433321,84.1786072079999,84.1786072079999,89.31738575000008,84.1786072079999,89.31738575000008,89.38677537500007,90.16938708299995,84.1786072079999,1,0,1.6406952500001353,reldom2_s010,001,2025-02-11_16h23.19.546,Where-A-Scan_AC,2022.2.5,None,
6,Second_Order,1.0,viswhere,stimulus/viswhere_stim/60-deg_dot-right_salmon.png,stimulus/viswhere_stim/150-deg_dot-right_cyan.png,stimulus/viswhere_stim/120-deg_dot-left_lightsseagreen.png,stimulus/viswhere_stim/90-deg_dot-left_goldenrod.png,stimulus/viswhere_stim/match_blank.png,stimulus/viswhere_stim/match_box.png,stimulus/viswhere_stim/match_yes.png,stimulus/viswhere_stim/match_no.png,1.0,Match,Dot,Dot,1,5.125,0,5.125,0,5.125,0,5.125,0,0.625,0.625,1,0.5,1,2.125,1,0.5,1,2.125,0,0.0,0,0.0,0,0.0,0,0.0,0,,,,,0,7,7,7,,,,,,,,,90.16938708299995,95.29481820799992,90.64262295800017,91.64102008300006,92.270126291,93.25858329099992,90.16938708299995,90.16938708299995,90.17588758299989,90.16938708299995,90.16938708299995,90.16938708299995,90.17588758299989,90.16938708299995,95.29481820799992,95.95521287500014,98.05508695800017,102.09718258300018,95.95521287500014,95.95521287500014,101.10331104099987,96.43921050000017,97.45345641599988,98.05508695800017,99.0746529160001,95.95521287500014,95.95521287500014,95.94087191633346,95.95521287500014,95.95521287500014,95.95521287500014,95.94087191633346,95.95521287500014,95.95521287500014,101.10331104099987,95.95521287500014,101.10331104099987,101.17180550000012,101.8015716660002,95.95521287500014,1,1,0.7339278750000631,reldom2_s010,001,2025-02-11_16h23.19.546,Where-A-Scan_AC,2022.2.5,None,
0,0.0,None,fixation,stimulus/viswhere_stim/blank_white.png,stimulus/viswhere_stim/blank_white.png,stimulus/audwhere_stim/blank_white.png,stimulus/audwhere_stim/blank_white.png,stimulus/viswhere_stim/blank_white.png,stimulus/viswhere_stim/blank_white.png,stimulus/viswhere_stim/blank_white.png,stimulus/viswhere_stim/blank_white.png,0.0,0.0,0.0,0.0,0,0.0,0,0.0,0,0.0,0,0.0,0,0.0,0.0,0,0.0,0,0.0,0,0.0,0,0.0,0,0.0,0,0.0,0,0.0,0,0.0,8,,,,,0,8,8,8,,,,,,,,,102.09718258300018,102.09718258300018,102.09718258300018,102.09718258300018,102.09718258300018,102.09718258300018,102.09718258300018,102.09718258300018,101.98797608333355,102.09718258300018,102.09718258300018,102.09718258300018,101.98797608333355,102.09718258300018,102.09718258300018,102.09718258300018,102.09718258300018,102.09718258300018,102.09718258300018,102.09718258300018,102.09718258300018,102.09718258300018,102.09718258300018,102.09718258300018,102.09718258300018,102.09718258300018,102.09718258300018,102.05464275000023,102.09718258300018,102.09718258300018,102.09718258300018,102.05464275000023,102.09718258300018,102.09718258300018,102.09718258300018,102.09718258300018,102.09718258300018,107.2817822500001,107.2817822500001,110.27756212500026,None,0,,reldom2_s010,001,2025-02-11_16h23.19.546,Where-A-Scan_AC,2022.2.5,None,
7,First_Order,2.0,viswhere,stimulus/viswhere_stim/blank_white.png,stimulus/viswhere_stim/blank_white.png,stimulus/viswhere_stim/30-deg_dot-right_cyan.png,stimulus/viswhere_stim/30-deg_dot-left_cyan.png,stimulus/viswhere_stim/blank_white.png,stimulus/viswhere_stim/line_box.png,stimulus/viswhere_stim/line_yes.png,stimulus/viswhere_stim/line_no.png,None,Line,None,Line,1,0.0,0,5.125,0,5.125,0,5.125,0,0.0,0.625,0,0.0,0,0.0,1,0.5,1,2.125,0,0.0,0,0.0,0,0.0,0,0.0,0,,,,,0,9,9,9,,,,,,,,,110.27756212500026,110.27756212500026,110.27756212500026,110.27756212500026,110.27756212500026,110.27756212500026,110.27756212500026,110.27756212500026,110.24627229166678,110.27756212500026,110.27756212500026,110.27756212500026,110.24627229166678,110.27756212500026,110.27756212500026,110.27756212500026,112.3843959159999,116.34781629100007,110.27756212500026,110.27756212500026,115.40307949999988,110.75749933299994,111.76369812500025,112.3843959159999,113.40447666599994,110.27756212500026,110.27756212500026,110.26293895833345,110.27756212500026,110.27756212500026,110.27756212500026,110.26293895833345,110.27756212500026,110.27756212500026,115.40307949999988,110.27756212500026,115.40307949999988,115.50534599999992,116.13359337500015,110.27756212500026,1,1,0.8962561250000363,reldom2_s010,001,2025-02-11_16h23.19.546,Where-A-Scan_AC,2022.2.5,None,
8,First_Order,2.0,viswhere,stimulus/viswhere_stim/blank_white.png,stimulus/viswhere_stim/blank_white.png,stimulus/viswhere_stim/60-deg_dot-right_slateblue.png,stimulus/viswhere_stim/60-deg_dot-left_goldenrod.png,stimulus/viswhere_stim/blank_white.png,stimulus/viswhere_stim/dot_box.png,stimulus/viswhere_stim/dot_yes.png,stimulus/viswhere_stim/dot_no.png,None,Dot,None,Line,2,0.0,0,5.125,0,5.125,0,5.125,0,0.0,0.625,0,0.0,0,0.0,1,0.5,1,2.125,0,0.0,0,0.0,0,0.0,0,0.0,0,,,,,0,10,10,10,,,,,,,,,116.34781629100007,116.34781629100007,116.34781629100007,116.34781629100007,116.34781629100007,116.34781629100007,116.34781629100007,116.34781629100007,116.31870883333325,116.34781629100007,116.34781629100007,116.34781629100007,116.31870883333325,116.34781629100007,116.34781629100007,116.34781629100007,118.4587945000003,122.41878204100021,116.34781629100007,116.34781629100007,121.48676158299986,116.82937750000019,117.83721920800008,118.4587945000003,119.4681007500003,116.34781629100007,116.34781629100007,116.33537549999991,116.34781629100007,116.34781629100007,116.34781629100007,116.33537549999991,116.34781629100007,116.34781629100007,121.48676158299986,116.34781629100007,121.48676158299986,121.57280462500012,122.20398162499987,116.34781629100007,2,1,0.832320417000119,reldom2_s010,001,2025-02-11_16h23.19.546,Where-A-Scan_AC,2022.2.5,None,
9,First_Order,2.0,viswhere,stimulus/viswhere_stim/blank_white.png,stimulus/viswhere_stim/blank_white.png,stimulus/viswhere_stim/90-deg_dot-right_cyan.png,stimulus/viswhere_stim/60-deg_dot-right_slateblue.png,stimulus/viswhere_stim/blank_white.png,stimulus/viswhere_stim/dot_box.png,stimulus/viswhere_stim/dot_yes.png,stimulus/viswhere_stim/dot_no.png,None,Dot,None,Dot,1,0.0,0,5.125,0,5.125,0,5.125,0,0.0,0.625,0,0.0,0,0.0,1,0.5,1,2.125,0,0.0,0,0.0,0,0.0,0,0.0,0,,,,,0,11,11,11,,,,,,,,,122.41878204100021,122.41878204100021,122.41878204100021,122.41878204100021,122.41878204100021,122.41878204100021,122.41878204100021,122.41878204100021,122.38877874933344,122.41878204100021,122.41878204100021,122.41878204100021,122.38877874933344,122.41878204100021,122.41878204100021,122.41878204100021,124.52360187500017,128.4952316250001,122.41878204100021,122.41878204100021,127.56243762500026,122.89848058300004,123.92782716600004,124.52360187500017,125.53303212499986,122.41878204100021,122.41878204100021,122.4054454160001,122.41878204100021,122.41878204100021,122.41878204100021,122.4054454160001,122.41878204100021,122.41878204100021,127.56243762500026,122.41878204100021,127.56243762500026,127.64884337500007,128.2789713330003,122.41878204100021,1,1,1.1677581670001018,reldom2_s010,001,2025-02-11_16h23.19.546,Where-A-Scan_AC,2022.2.5,None,
10,First_Order,2.0,viswhere,stimulus/viswhere_stim/blank_white.png,stimulus/viswhere_stim/blank_white.png,stimulus/viswhere_stim/60-deg_dot-left_mediumslateblue.png,stimulus/viswhere_stim/150-deg_dot-left_peru.png,stimulus/viswhere_stim/blank_white.png,stimulus/viswhere_stim/dot_box.png,stimulus/viswhere_stim/dot_yes.png,stimulus/viswhere_stim/dot_no.png,None,Dot,None,Dot,1,0.0,0,5.125,0,5.125,0,5.125,0,0.0,0.625,0,0.0,0,0.0,1,0.5,1,2.125,0,0.0,0,0.0,0,0.0,0,0.0,0,,,,,0,12,12,12,,,,,,,,,128.4952316250001,128.4952316250001,128.4952316250001,128.4952316250001,128.4952316250001,128.4952316250001,128.4952316250001,128.4952316250001,128.46406108333335,128.4952316250001,128.4952316250001,128.4952316250001,128.46406108333335,128.4952316250001,128.4952316250001,128.4952316250001,130.60178320800014,134.64220083300006,128.4952316250001,128.4952316250001,133.62989349999998,128.97383720800008,129.98155837500008,130.60178320800014,131.61393150000004,128.4952316250001,128.4952316250001,128.48072775000003,128.4952316250001,128.4952316250001,128.4952316250001,128.48072775000003,128.4952316250001,128.4952316250001,133.62989349999998,128.4952316250001,133.62989349999998,133.71552691600027,134.34500508300016,128.4952316250001,1,1,1.1843917500000316,reldom2_s010,001,2025-02-11_16h23.19.546,Where-A-Scan_AC,2022.2.5,None,
0,0.0,None,fixation,stimulus/viswhere_stim/blank_white.png,stimulus/viswhere_stim/blank_white.png,stimulus/audwhere_stim/blank_white.png,stimulus/audwhere_stim/blank_white.png,stimulus/viswhere_stim/blank_white.png,stimulus/viswhere_stim/blank_white.png,stimulus/viswhere_stim/blank_white.png,stimulus/viswhere_stim/blank_white.png,0.0,0.0,0.0,0.0,0,0.0,0,0.0,0,0.0,0,0.0,0,0.0,0.0,0,0.0,0,0.0,0,0.0,0,0.0,0,0.0,0,0.0,0,0.0,0,0.0,10,,,,,0,13,13,13,,,,,,,,,134.64220083300006,134.64220083300006,134.64220083300006,134.64220083300006,134.64220083300006,134.64220083300006,134.64220083300006,134.64220083300006,134.53313858333362,134.64220083300006,134.64220083300006,134.64220083300006,134.53313858333362,134.64220083300006,134.64220083300006,134.64220083300006,134.64220083300006,134.64220083300006,134.64220083300006,134.64220083300006,134.64220083300006,134.64220083300006,134.64220083300006,134.64220083300006,134.64220083300006,134.64220083300006,134.64220083300006,134.58313858333364,134.64220083300006,134.64220083300006,134.64220083300006,134.58313858333364,134.64220083300006,134.64220083300006,134.64220083300006,134.64220083300006,134.64220083300006,139.83533350000016,139.83533350000016,144.80976470799988,None,0,,reldom2_s010,001,2025-02-11_16h23.19.546,Where-A-Scan_AC,2022.2.5,None,
11,Second_Order,2.0,viswhere,stimulus/viswhere_stim/120-deg_dot-right_turquoise.png,stimulus/viswhere_stim/120-deg_dot-left_goldenrod.png,stimulus/viswhere_stim/60-deg_dot-left_turquoise.png,stimulus/viswhere_stim/150-deg_dot-left_seagreen.png,stimulus/viswhere_stim/match_blank.png,stimulus/viswhere_stim/match_box.png,stimulus/viswhere_stim/match_yes.png,stimulus/viswhere_stim/match_no.png,2.0,Match,Line,Dot,2,5.125,0,5.125,0,5.125,0,5.125,0,0.75,0.75,1,0.5,1,2.125,1,0.5,1,2.125,0,0.0,0,0.0,0,0.0,0,0.0,0,,,,,0,14,14,14,,,,,,,,,144.80976470799988,149.9320915000003,145.27969062500006,146.27767841600007,146.90784858300003,147.90746008299993,144.80976470799988,144.80976470799988,144.81570633333345,144.80976470799988,144.80976470799988,144.80976470799988,144.81570633333345,144.80976470799988,149.9320915000003,150.71936487499988,152.80477466599996,156.70209087500007,150.71936487499988,150.71936487499988,155.84711841600028,151.17813875000002,152.19800133299987,152.80477466599996,153.82513154100025,150.71936487499988,150.71936487499988,150.70027399933366,150.71936487499988,150.71936487499988,150.71936487499988,150.70027399933366,150.71936487499988,150.71936487499988,155.84711841600028,150.71936487499988,155.84711841600028,155.93358641600025,,150.71936487499988,2,1,1.038431791000221,reldom2_s010,001,2025-02-11_16h23.19.546,Where-A-Scan_AC,2022.2.5,None,
12,Second_Order,2.0,viswhere,stimulus/viswhere_stim/30-deg_dot-right_mediumslateblue.png,stimulus/viswhere_stim/30-deg_dot-left_seagreen.png,stimulus/viswhere_stim/120-deg_dot-right_goldenrod.png,stimulus/viswhere_stim/120-deg_dot-left_salmon.png,stimulus/viswhere_stim/match_blank.png,stimulus/viswhere_stim/match_box.png,stimulus/viswhere_stim/match_yes.png,stimulus/viswhere_stim/match_no.png,1.0,Match,Line,Line,1,5.125,0,5.125,0,5.125,0,5.125,0,0.625,0.625,1,0.5,1,2.125,1,0.5,1,2.125,0,0.0,0,0.0,0,0.0,0,0.0,0,,,,,0,15,15,15,,,,,,,,,156.70209087500007,161.8189775410001,157.17859212500025,158.17441608299987,158.80705212500015,159.80280329100015,156.70209087500007,156.70209087500007,156.70941341600002,156.70209087500007,156.70209087500007,156.70209087500007,156.70941341600002,156.70209087500007,161.8189775410001,162.48318691600025,164.57660137499988,168.62414824999996,162.48318691600025,162.48318691600025,167.6249898330002,162.9658958330001,163.97616904100005,164.57660137499988,165.59115387500015,162.48318691600025,162.48318691600025,162.47373616633337,162.48318691600025,162.48318691600025,162.48318691600025,162.47373616633337,162.48318691600025,162.48318691600025,167.6249898330002,162.48318691600025,167.6249898330002,167.695203666,168.32625162500017,162.48318691600025,1,1,0.955401332999827,reldom2_s010,001,2025-02-11_16h23.19.546,Where-A-Scan_AC,2022.2.5,None,
0,0.0,None,fixation,stimulus/viswhere_stim/blank_white.png,stimulus/viswhere_stim/blank_white.png,stimulus/audwhere_stim/blank_white.png,stimulus/audwhere_stim/blank_white.png,stimulus/viswhere_stim/blank_white.png,stimulus/viswhere_stim/blank_white.png,stimulus/viswhere_stim/blank_white.png,stimulus/viswhere_stim/blank_white.png,0.0,0.0,0.0,0.0,0,0.0,0,0.0,0,0.0,0,0.0,0,0.0,0.0,0,0.0,0,0.0,0,0.0,0,0.0,0,0.0,0,0.0,0,0.0,0,0.0,8,,,,,0,16,16,16,,,,,,,,,168.62414824999996,168.62414824999996,168.62414824999996,168.62414824999996,168.62414824999996,168.62414824999996,168.62414824999996,168.62414824999996,168.51382820833336,168.62414824999996,168.62414824999996,168.62414824999996,168.51382820833336,168.62414824999996,168.62414824999996,168.62414824999996,168.62414824999996,168.62414824999996,168.62414824999996,168.62414824999996,168.62414824999996,168.62414824999996,168.62414824999996,168.62414824999996,168.62414824999996,168.62414824999996,168.62414824999996,168.58049487500003,168.62414824999996,168.62414824999996,168.62414824999996,168.58049487500003,168.62414824999996,168.62414824999996,168.62414824999996,168.62414824999996,168.62414824999996,173.81174425000017,173.81174425000017,176.91676675000008,None,0,,reldom2_s010,001,2025-02-11_16h23.19.546,Where-A-Scan_AC,2022.2.5,None,
13,First_Order,3.0,audwhere,stimulus/audwhere_stim/dummy.wav,stimulus/audwhere_stim/dummy.wav,stimulus/audwhere_stim/right_away_290h.wav,stimulus/audwhere_stim/right_toward_280h.wav,stimulus/audwhere_stim/blank_white.png,stimulus/audwhere_stim/side_box.png,stimulus/audwhere_stim/side_yes.png,stimulus/audwhere_stim/side_no.png,None,Side,None,Side,1,0.0,0,5.125,0,5.125,0,5.125,0,0.0,0.625,0,0.0,0,0.0,0,0.0,0,0.0,0,0.0,0,0.0,1,0.5,1,2.125,0,,,,,0,17,17,17,,,,,,,,,176.91676675000008,176.91676675000008,176.91676675000008,176.91676675000008,176.91676675000008,176.91676675000008,176.91676675000008,176.91676675000008,176.8290722076669,176.91676675000008,176.91676675000008,176.91676675000008,176.8290722076669,176.91676675000008,176.91676675000008,176.91676675000008,179.00013512500027,,176.91676675000008,176.91676675000008,182.1188954160002,176.91676675000008,176.91676675000008,176.91676675000008,176.91676675000008,177.38446404100023,178.43049387500014,177.34918229166695,,179.00013512500027,180.04101850000006,178.9643960416668,,176.91676675000008,182.1188954160002,176.91676675000008,182.1188954160002,182.1188954160002,182.80558387500014,176.91676675000008,1,1,1.1253055830002268,reldom2_s010,001,2025-02-11_16h23.19.546,Where-A-Scan_AC,2022.2.5,None,
14,First_Order,3.0,audwhere,stimulus/audwhere_stim/dummy.wav,stimulus/audwhere_stim/dummy.wav,stimulus/audwhere_stim/right_away_300h.wav,stimulus/audwhere_stim/left_away_300h.wav,stimulus/audwhere_stim/blank_white.png,stimulus/audwhere_stim/side_box.png,stimulus/audwhere_stim/side_yes.png,stimulus/audwhere_stim/side_no.png,None,Side,None,Direction,2,0.0,0,5.125,0,5.125,0,5.125,0,0.0,0.625,0,0.0,0,0.0,0,0.0,0,0.0,0,0.0,0,0.0,1,0.5,1,2.125,0,,,,,0,18,18,18,,,,,,,,,183.02767770800028,183.02767770800028,183.02767770800028,183.02767770800028,183.02767770800028,183.02767770800028,183.02767770800028,183.02767770800028,182.9389172083335,183.02767770800028,183.02767770800028,183.02767770800028,182.9389172083335,183.02767770800028,183.02767770800028,183.02767770800028,185.10632208300012,,183.02767770800028,183.02767770800028,188.22533754100004,183.02767770800028,183.02767770800028,183.02767770800028,183.02767770800028,183.49538320800002,184.53609908299995,183.45998304166667,,185.10632208300012,186.14885916599997,185.0708118326668,,183.02767770800028,188.22533754100004,183.02767770800028,188.22533754100004,188.22533754100004,188.9094956660001,183.02767770800028,2,1,1.0257392919997983,reldom2_s010,001,2025-02-11_16h23.19.546,Where-A-Scan_AC,2022.2.5,None,
15,First_Order,3.0,audwhere,stimulus/audwhere_stim/dummy.wav,stimulus/audwhere_stim/dummy.wav,stimulus/audwhere_stim/left_away_290h.wav,stimulus/audwhere_stim/right_away_280h.wav,stimulus/audwhere_stim/blank_white.png,stimulus/audwhere_stim/direction_box.png,stimulus/audwhere_stim/direction_yes.png,stimulus/audwhere_stim/direction_no.png,None,Direction,None,Direction,1,0.0,0,5.125,0,5.125,0,5.125,0,0.0,0.625,0,0.0,0,0.0,0,0.0,0,0.0,0,0.0,0,0.0,1,0.5,1,2.125,0,,,,,0,19,19,19,,,,,,,,,189.13277137500017,189.13277137500017,189.13277137500017,189.13277137500017,189.13277137500017,189.13277137500017,189.13277137500017,189.13277137500017,189.04282899933347,189.13277137500017,189.13277137500017,189.13277137500017,189.04282899933347,189.13277137500017,189.13277137500017,189.13277137500017,191.22048095800028,195.26609533300007,189.13277137500017,189.13277137500017,194.3120694160002,189.13277137500017,189.13277137500017,189.13277137500017,189.13277137500017,189.60175979099995,190.64813966600013,189.56606058266678,,191.22048095800028,192.26956116600013,191.18474174966676,,189.13277137500017,194.3120694160002,189.13277137500017,194.3120694160002,194.35768458300026,195.04337583300003,189.13277137500017,1,1,1.9803988339999705,reldom2_s010,001,2025-02-11_16h23.19.546,Where-A-Scan_AC,2022.2.5,None,
16,First_Order,3.0,audwhere,stimulus/audwhere_stim/dummy.wav,stimulus/audwhere_stim/dummy.wav,stimulus/audwhere_stim/right_toward_270h.wav,stimulus/audwhere_stim/right_away_300h.wav,stimulus/audwhere_stim/blank_white.png,stimulus/audwhere_stim/direction_box.png,stimulus/audwhere_stim/direction_yes.png,stimulus/audwhere_stim/direction_no.png,None,Direction,None,Side,2,0.0,0,5.125,0,5.125,0,5.125,0,0.0,0.625,0,0.0,0,0.0,0,0.0,0,0.0,0,0.0,0,0.0,1,0.5,1,2.125,0,,,,,0,20,20,20,,,,,,,,,195.26609533300007,195.26609533300007,195.26609533300007,195.26609533300007,195.26609533300007,195.26609533300007,195.26609533300007,195.26609533300007,195.17670916633338,195.26609533300007,195.26609533300007,195.26609533300007,195.17670916633338,195.26609533300007,195.26609533300007,195.26609533300007,197.35909200000015,201.42241754099996,195.26609533300007,195.26609533300007,200.44750287500028,195.26609533300007,195.26609533300007,195.26609533300007,195.26609533300007,195.73474320800005,196.78402270800007,195.69924591666657,,197.35909200000015,198.41567920800026,197.3228261246666,198.36206129099992,195.26609533300007,200.44750287500028,195.26609533300007,200.44750287500028,200.49348916600002,201.1786295830002,195.26609533300007,2,1,1.401963374999923,reldom2_s010,001,2025-02-11_16h23.19.546,Where-A-Scan_AC,2022.2.5,None,
0,0.0,None,fixation,stimulus/viswhere_stim/blank_white.png,stimulus/viswhere_stim/blank_white.png,stimulus/audwhere_stim/blank_white.png,stimulus/audwhere_stim/blank_white.png,stimulus/viswhere_stim/blank_white.png,stimulus/viswhere_stim/blank_white.png,stimulus/viswhere_stim/blank_white.png,stimulus/viswhere_stim/blank_white.png,0.0,0.0,0.0,0.0,0,0.0,0,0.0,0,0.0,0,0.0,0,0.0,0.0,0,0.0,0,0.0,0,0.0,0,0.0,0,0.0,0,0.0,0,0.0,0,0.0,9,,,,,0,21,21,21,,,,,,,,,201.42241754099996,201.42241754099996,201.42241754099996,201.42241754099996,201.42241754099996,201.42241754099996,201.42241754099996,201.42241754099996,201.31196291633356,201.42241754099996,201.42241754099996,201.42241754099996,201.31196291633356,201.42241754099996,201.42241754099996,201.42241754099996,201.42241754099996,201.42241754099996,201.42241754099996,201.42241754099996,201.42241754099996,201.42241754099996,201.42241754099996,201.42241754099996,201.42241754099996,201.42241754099996,201.42241754099996,201.37862958300022,201.42241754099996,201.42241754099996,201.42241754099996,201.37862958300022,201.42241754099996,201.42241754099996,201.42241754099996,201.42241754099996,201.42241754099996,206.61709220800003,206.61709220800003,210.56340716600016,None,0,,reldom2_s010,001,2025-02-11_16h23.19.546,Where-A-Scan_AC,2022.2.5,None,
17,Second_Order,3.0,audwhere,stimulus/audwhere_stim/right_away_270h.wav,stimulus/audwhere_stim/left_away_270h.wav,stimulus/audwhere_stim/right_toward_280h.wav,stimulus/audwhere_stim/left_toward_280h.wav,stimulus/viswhere_stim/match_blank.png,stimulus/audwhere_stim/match_box.png,stimulus/viswhere_stim/match_yes.png,stimulus/viswhere_stim/match_no.png,1.0,Match,Direction,Direction,1,5.125,0,5.125,0,5.125,0,5.125,0,0.75,0.75,0,0.0,0,0.0,0,0.0,0,0.0,1,0.5,1,2.125,1,0.5,1,2.125,0,,,,,0,22,22,22,,,,,,,,,210.56340716600016,215.6780587080002,210.56340716600016,210.56340716600016,210.56340716600016,210.56340716600016,211.019414375,212.00627316600003,211.02228916666698,212.01419579100002,212.63410950000025,213.63131550000026,212.64531424966688,213.64037774999997,215.6780587080002,216.5183091250001,218.6121149999999,222.54634129099986,216.5183091250001,216.5183091250001,221.68517058299994,216.5183091250001,216.5183091250001,216.5183091250001,216.5183091250001,216.99106024999992,218.03818850000016,216.95514562466659,,218.6121149999999,219.656749666,218.57661229166686,,216.5183091250001,221.68517058299994,216.5183091250001,221.68517058299994,221.73058545799995,,216.5183091250001,1,1,1.117128834000141,reldom2_s010,001,2025-02-11_16h23.19.546,Where-A-Scan_AC,2022.2.5,None,
18,Second_Order,3.0,audwhere,stimulus/audwhere_stim/left_away_300h.wav,stimulus/audwhere_stim/right_away_290h.wav,stimulus/audwhere_stim/left_toward_300h.wav,stimulus/audwhere_stim/left_away_290h.wav,stimulus/viswhere_stim/match_blank.png,stimulus/audwhere_stim/match_box.png,stimulus/viswhere_stim/match_yes.png,stimulus/viswhere_stim/match_no.png,2.0,Match,Direction,Side,2,5.125,0,5.125,0,5.125,0,5.125,0,0.625,0.625,0,0.0,0,0.0,0,0.0,0,0.0,1,0.5,1,2.125,1,0.5,1,2.125,0,,,,,0,23,23,23,,,,,,,,,222.54634129099986,227.6648372499999,222.54634129099986,222.54634129099986,222.54634129099986,222.54634129099986,222.99922887499997,223.9900594579999,223.01079533266673,224.01108483300004,224.61486937500013,225.60283954099987,224.62718474966667,225.6283050830002,227.6648372499999,228.38559183300003,230.48422250000021,234.5189243330001,228.38559183300003,228.38559183300003,233.58667129100013,228.38559183300003,228.38559183300003,228.38559183300003,228.38559183300003,228.86198116600008,229.9089334160003,228.82632658266655,,230.48422250000021,231.54073312499986,230.44791245766672,231.4872909579999,228.38559183300003,233.58667129100013,228.38559183300003,233.58667129100013,233.58667129100013,234.2720733330002,228.38559183300003,2,1,0.902729249999993,reldom2_s010,001,2025-02-11_16h23.19.546,Where-A-Scan_AC,2022.2.5,None,
0,0.0,None,fixation,stimulus/viswhere_stim/blank_white.png,stimulus/viswhere_stim/blank_white.png,stimulus/audwhere_stim/blank_white.png,stimulus/audwhere_stim/blank_white.png,stimulus/viswhere_stim/blank_white.png,stimulus/viswhere_stim/blank_white.png,stimulus/viswhere_stim/blank_white.png,stimulus/viswhere_stim/blank_white.png,0.0,0.0,0.0,0.0,0,0.0,0,0.0,0,0.0,0,0.0,0,0.0,0.0,0,0.0,0,0.0,0,0.0,0,0.0,0,0.0,0,0.0,0,0.0,0,0.0,9,,,,,0,24,24,24,,,,,,,,,234.5189243330001,234.5189243330001,234.5189243330001,234.5189243330001,234.5189243330001,234.5189243330001,234.5189243330001,234.5189243330001,234.4220733330002,234.5189243330001,234.5189243330001,234.5189243330001,234.4220733330002,234.5189243330001,234.5189243330001,234.5189243330001,234.5189243330001,234.5189243330001,234.5189243330001,234.5189243330001,234.5189243330001,234.5189243330001,234.5189243330001,234.5189243330001,234.5189243330001,234.5189243330001,234.5189243330001,234.47207333300022,234.5189243330001,234.5189243330001,234.5189243330001,234.47207333300022,234.5189243330001,234.5189243330001,234.5189243330001,234.5189243330001,234.5189243330001,239.72420104100001,239.72420104100001,243.77672945799986,None,0,,reldom2_s010,001,2025-02-11_16h23.19.546,Where-A-Scan_AC,2022.2.5,None,
19,First_Order,4.0,audwhere,stimulus/audwhere_stim/dummy.wav,stimulus/audwhere_stim/dummy.wav,stimulus/audwhere_stim/right_away_300h.wav,stimulus/audwhere_stim/left_away_280h.wav,stimulus/audwhere_stim/blank_white.png,stimulus/audwhere_stim/direction_box.png,stimulus/audwhere_stim/direction_yes.png,stimulus/audwhere_stim/direction_no.png,None,Direction,None,Direction,1,0.0,0,5.125,0,5.125,0,5.125,0,0.0,0.625,0,0.0,0,0.0,0,0.0,0,0.0,0,0.0,0,0.0,1,0.5,1,2.125,0,,,,,0,25,25,25,,,,,,,,,243.77672945799986,243.77672945799986,243.77672945799986,243.77672945799986,243.77672945799986,243.77672945799986,243.77672945799986,243.77672945799986,243.69341045766686,243.77672945799986,243.77672945799986,243.77672945799986,243.69341045766686,243.77672945799986,243.77672945799986,243.77672945799986,245.86892304100002,249.91304541599993,243.77672945799986,243.77672945799986,248.95760637500007,243.77672945799986,243.77672945799986,243.77672945799986,243.77672945799986,244.24709225000015,245.29613333299994,244.21143266666675,,245.86892304100002,246.92027458300026,245.83329541666697,,243.77672945799986,248.95760637500007,243.77672945799986,248.95760637500007,249.00357841599998,249.68984745800026,243.77672945799986,1,1,1.667508375000125,reldom2_s010,001,2025-02-11_16h23.19.546,Where-A-Scan_AC,2022.2.5,None,
20,First_Order,4.0,audwhere,stimulus/audwhere_stim/dummy.wav,stimulus/audwhere_stim/dummy.wav,stimulus/audwhere_stim/right_toward_270h.wav,stimulus/audwhere_stim/right_away_280h.wav,stimulus/audwhere_stim/blank_white.png,stimulus/audwhere_stim/direction_box.png,stimulus/audwhere_stim/direction_yes.png,stimulus/audwhere_stim/direction_no.png,None,Direction,None,Side,2,0.0,0,5.125,0,5.125,0,5.125,0,0.0,0.625,0,0.0,0,0.0,0,0.0,0,0.0,0,0.0,0,0.0,1,0.5,1,2.125,0,,,,,0,26,26,26,,,,,,,,,249.91304541599993,249.91304541599993,249.91304541599993,249.91304541599993,249.91304541599993,249.91304541599993,249.91304541599993,249.91304541599993,249.8231807913336,249.91304541599993,249.91304541599993,249.91304541599993,249.8231807913336,249.91304541599993,249.91304541599993,249.91304541599993,252.00911150000002,,249.91304541599993,249.91304541599993,255.10651791600003,249.91304541599993,249.91304541599993,249.91304541599993,249.91304541599993,250.38443862500026,251.43232816599993,250.34782879166667,,252.00911150000002,253.06781733300022,251.97338116666677,253.0152821659999,249.91304541599993,255.10651791600003,249.91304541599993,255.10651791600003,255.10651791600003,255.7899783329999,249.91304541599993,2,1,1.2019443750000391,reldom2_s010,001,2025-02-11_16h23.19.546,Where-A-Scan_AC,2022.2.5,None,
21,First_Order,4.0,audwhere,stimulus/audwhere_stim/dummy.wav,stimulus/audwhere_stim/dummy.wav,stimulus/audwhere_stim/left_toward_300h.wav,stimulus/audwhere_stim/left_away_300h.wav,stimulus/audwhere_stim/blank_white.png,stimulus/audwhere_stim/side_box.png,stimulus/audwhere_stim/side_yes.png,stimulus/audwhere_stim/side_no.png,None,Side,None,Side,1,0.0,0,5.125,0,5.125,0,5.125,0,0.0,0.625,0,0.0,0,0.0,0,0.0,0,0.0,0,0.0,0,0.0,1,0.5,1,2.125,0,,,,,0,27,27,27,,,,,,,,,256.0148262910002,256.0148262910002,256.0148262910002,256.0148262910002,256.0148262910002,256.0148262910002,256.0148262910002,256.0148262910002,255.9399783329999,256.0148262910002,256.0148262910002,256.0148262910002,255.9399783329999,256.0148262910002,256.0148262910002,256.0148262910002,258.1046302499999,,256.0148262910002,256.0148262910002,261.1750703749999,256.0148262910002,256.0148262910002,256.0148262910002,256.0148262910002,256.48727775,257.5300872910002,256.45165104166676,,258.1046302499999,259.1542534160003,258.06896666666694,,256.0148262910002,261.1750703749999,256.0148262910002,261.1750703749999,261.2208766250001,261.90709158300024,256.0148262910002,1,1,0.8010119169998688,reldom2_s010,001,2025-02-11_16h23.19.546,Where-A-Scan_AC,2022.2.5,None,
22,First_Order,4.0,audwhere,stimulus/audwhere_stim/dummy.wav,stimulus/audwhere_stim/dummy.wav,stimulus/audwhere_stim/right_away_270h.wav,stimulus/audwhere_stim/left_away_300h.wav,stimulus/audwhere_stim/blank_white.png,stimulus/audwhere_stim/side_box.png,stimulus/audwhere_stim/side_yes.png,stimulus/audwhere_stim/side_no.png,None,Side,None,Direction,2,0.0,0,5.125,0,5.125,0,5.125,0,0.0,0.625,0,0.0,0,0.0,0,0.0,0,0.0,0,0.0,0,0.0,1,0.5,1,2.125,0,,,,,0,28,28,28,,,,,,,,,262.1321240410002,262.1321240410002,262.1321240410002,262.1321240410002,262.1321240410002,262.1321240410002,262.1321240410002,262.1321240410002,262.0570915830002,262.1321240410002,262.1321240410002,262.1321240410002,262.0570915830002,262.1321240410002,262.1321240410002,262.1321240410002,264.21908862500004,,262.1321240410002,262.1321240410002,267.285899125,262.1321240410002,262.1321240410002,262.1321240410002,262.1321240410002,262.6032340410002,263.64746620799997,262.56712341666685,,264.21908862500004,265.2615245830002,264.1833354996668,,262.1321240410002,267.285899125,262.1321240410002,267.285899125,267.33218487500017,268.016543791,262.1321240410002,2,1,1.9880729579999752,reldom2_s010,001,2025-02-11_16h23.19.546,Where-A-Scan_AC,2022.2.5,None,
0,0.0,None,fixation,stimulus/viswhere_stim/blank_white.png,stimulus/viswhere_stim/blank_white.png,stimulus/audwhere_stim/blank_white.png,stimulus/audwhere_stim/blank_white.png,stimulus/viswhere_stim/blank_white.png,stimulus/viswhere_stim/blank_white.png,stimulus/viswhere_stim/blank_white.png,stimulus/viswhere_stim/blank_white.png,0.0,0.0,0.0,0.0,0,0.0,0,0.0,0,0.0,0,0.0,0,0.0,0.0,0,0.0,0,0.0,0,0.0,0,0.0,0,0.0,0,0.0,0,0.0,0,0.0,9,,,,,0,29,29,29,,,,,,,,,268.2628804159999,268.2628804159999,268.2628804159999,268.2628804159999,268.2628804159999,268.2628804159999,268.2628804159999,268.2628804159999,268.166543791,268.2628804159999,268.2628804159999,268.2628804159999,268.166543791,268.2628804159999,268.2628804159999,268.2628804159999,268.2628804159999,268.2628804159999,268.2628804159999,268.2628804159999,268.2628804159999,268.2628804159999,268.2628804159999,268.2628804159999,268.2628804159999,268.2628804159999,268.2628804159999,268.216543791,268.2628804159999,268.2628804159999,268.2628804159999,268.216543791,268.2628804159999,268.2628804159999,268.2628804159999,268.2628804159999,268.2628804159999,273.4541330830002,273.4541330830002,277.3971474160003,None,0,,reldom2_s010,001,2025-02-11_16h23.19.546,Where-A-Scan_AC,2022.2.5,None,
23,Second_Order,4.0,audwhere,stimulus/audwhere_stim/left_away_270h.wav,stimulus/audwhere_stim/left_toward_290h.wav,stimulus/audwhere_stim/left_toward_300h.wav,stimulus/audwhere_stim/right_toward_280h.wav,stimulus/viswhere_stim/match_blank.png,stimulus/audwhere_stim/match_box.png,stimulus/viswhere_stim/match_yes.png,stimulus/viswhere_stim/match_no.png,2.0,Match,Side,Direction,2,5.125,0,5.125,0,5.125,0,5.125,0,0.75,0.75,0,0.0,0,0.0,0,0.0,0,0.0,1,0.5,1,2.125,1,0.5,1,2.125,0,,,,,0,30,30,30,,,,,,,,,277.3971474160003,282.51440941600003,277.3971474160003,277.3971474160003,277.3971474160003,277.3971474160003,277.851989625,278.83946783300007,277.8536136246669,278.8479694580001,279.46496350000007,280.45417675,279.47691541666677,280.4782837500002,282.51440941600003,283.35311708300014,285.44545908300006,,283.35311708300014,283.35311708300014,288.53090791600016,283.35311708300014,283.35311708300014,283.35311708300014,283.35311708300014,283.82464574999995,284.87198579100004,283.7891196246667,,285.44545908300006,286.49212816599993,285.40979249966654,,283.35311708300014,288.53090791600016,283.35311708300014,288.53090791600016,288.53090791600016,,283.35311708300014,2,1,2.5146500840000954,reldom2_s010,001,2025-02-11_16h23.19.546,Where-A-Scan_AC,2022.2.5,None,
24,Second_Order,4.0,audwhere,stimulus/audwhere_stim/right_toward_290h.wav,stimulus/audwhere_stim/right_away_290h.wav,stimulus/audwhere_stim/left_away_300h.wav,stimulus/audwhere_stim/left_toward_270h.wav,stimulus/viswhere_stim/match_blank.png,stimulus/audwhere_stim/match_box.png,stimulus/viswhere_stim/match_yes.png,stimulus/viswhere_stim/match_no.png,1.0,Match,Side,Side,1,5.125,0,5.125,0,5.125,0,5.125,0,0.625,0.625,0,0.0,0,0.0,0,0.0,0,0.0,1,0.5,1,2.125,1,0.5,1,2.125,0,,,,,0,31,31,31,,,,,,,,,289.34169491600005,294.4639083330003,289.34169491600005,289.34169491600005,289.34169491600005,289.34169491600005,289.78671562499994,290.77317804099994,289.7979933746667,290.8022970830002,291.41505720800023,292.41931783300015,291.4266659166667,292.41931783300015,294.4639083330003,295.1674699580003,297.2654353749999,,295.1674699580003,295.1674699580003,300.3540347080002,295.1674699580003,295.1674699580003,295.1674699580003,295.1674699580003,295.6390329999999,296.68714679100003,295.60361562466665,,297.2654353749999,298.32354191600007,297.2292783326668,298.27110495800025,295.1674699580003,300.3540347080002,295.1674699580003,300.3540347080002,300.3540347080002,301.043093625,295.1674699580003,1,1,0.6263881660001971,reldom2_s010,001,2025-02-11_16h23.19.546,Where-A-Scan_AC,2022.2.5,None,
0,0.0,None,fixation,stimulus/viswhere_stim/blank_white.png,stimulus/viswhere_stim/blank_white.png,stimulus/audwhere_stim/blank_white.png,stimulus/audwhere_stim/blank_white.png,stimulus/viswhere_stim/blank_white.png,stimulus/viswhere_stim/blank_white.png,stimulus/viswhere_stim/blank_white.png,stimulus/viswhere_stim/blank_white.png,0.0,0.0,0.0,0.0,0,0.0,0,0.0,0,0.0,0,0.0,0,0.0,0.0,0,0.0,0,0.0,0,0.0,0,0.0,0,0.0,0,0.0,0,0.0,0,0.0,10,,,,,0,32,32,32,,,,,,,,,301.2890684160002,301.2890684160002,301.2890684160002,301.2890684160002,301.2890684160002,301.2890684160002,301.2890684160002,301.2890684160002,301.19309362499996,301.2890684160002,301.2890684160002,301.2890684160002,301.19309362499996,301.2890684160002,301.2890684160002,301.2890684160002,301.2890684160002,301.2890684160002,301.2890684160002,301.2890684160002,301.2890684160002,301.2890684160002,301.2890684160002,301.2890684160002,301.2890684160002,301.2890684160002,301.2890684160002,301.243093625,301.2890684160002,301.2890684160002,301.2890684160002,301.243093625,301.2890684160002,301.2890684160002,301.2890684160002,301.2890684160002,301.2890684160002,306.4888544579999,306.4888544579999,311.47418341599996,None,0,,reldom2_s010,001,2025-02-11_16h23.19.546,Where-A-Scan_AC,2022.2.5,None,
25,First_Order,5.0,viswhere,stimulus/viswhere_stim/blank_white.png,stimulus/viswhere_stim/blank_white.png,stimulus/viswhere_stim/120-deg_dot-right_goldenrod.png,stimulus/viswhere_stim/150-deg_dot-right_turquoise.png,stimulus/viswhere_stim/blank_white.png,stimulus/viswhere_stim/dot_box.png,stimulus/viswhere_stim/dot_yes.png,stimulus/viswhere_stim/dot_no.png,None,Dot,None,Dot,1,0.0,0,5.125,0,5.125,0,5.125,0,0.0,0.625,0,0.0,0,0.0,1,0.5,1,2.125,0,0.0,0,0.0,0,0.0,0,0.0,0,,,,,0,33,33,33,,,,,,,,,311.47418341599996,311.47418341599996,311.47418341599996,311.47418341599996,311.47418341599996,311.47418341599996,311.47418341599996,311.47418341599996,311.44389416666684,311.47418341599996,311.47418341599996,311.47418341599996,311.44389416666684,311.47418341599996,311.47418341599996,311.47418341599996,313.56984483299993,317.53486054099994,311.47418341599996,311.47418341599996,316.6184257079999,311.95695775000013,312.9722216250002,313.56984483299993,314.58551079100016,311.47418341599996,311.47418341599996,311.46056083333355,311.47418341599996,311.47418341599996,311.47418341599996,311.46056083333355,311.47418341599996,311.47418341599996,316.6184257079999,311.47418341599996,316.6184257079999,316.68740325,317.3194074160001,311.47418341599996,1,1,1.0756666669999504,reldom2_s010,001,2025-02-11_16h23.19.546,Where-A-Scan_AC,2022.2.5,None,
26,First_Order,5.0,viswhere,stimulus/viswhere_stim/blank_white.png,stimulus/viswhere_stim/blank_white.png,stimulus/viswhere_stim/90-deg_dot-right_royalblue.png,stimulus/viswhere_stim/120-deg_dot-right_seagreen.png,stimulus/viswhere_stim/blank_white.png,stimulus/viswhere_stim/line_box.png,stimulus/viswhere_stim/line_yes.png,stimulus/viswhere_stim/line_no.png,None,Line,None,Dot,2,0.0,0,5.125,0,5.125,0,5.125,0,0.0,0.625,0,0.0,0,0.0,1,0.5,1,2.125,0,0.0,0,0.0,0,0.0,0,0.0,0,,,,,0,34,34,34,,,,,,,,,317.53486054099994,317.53486054099994,317.53486054099994,317.53486054099994,317.53486054099994,317.53486054099994,317.53486054099994,317.53486054099994,317.5050719163335,317.53486054099994,317.53486054099994,317.53486054099994,317.5050719163335,317.53486054099994,317.53486054099994,317.53486054099994,319.6476825,323.5961904579999,317.53486054099994,317.53486054099994,322.66546179099987,318.01773108299994,319.028644083,319.6476825,320.6596152500001,317.53486054099994,317.53486054099994,317.5217385830002,317.53486054099994,317.53486054099994,317.53486054099994,317.5217385830002,317.53486054099994,317.53486054099994,322.66546179099987,317.53486054099994,322.66546179099987,322.7522542500001,323.3812752910003,317.53486054099994,2,1,1.512930167000377,reldom2_s010,001,2025-02-11_16h23.19.546,Where-A-Scan_AC,2022.2.5,None,
27,First_Order,5.0,viswhere,stimulus/viswhere_stim/blank_white.png,stimulus/viswhere_stim/blank_white.png,stimulus/viswhere_stim/60-deg_dot-left_lightsseagreen.png,stimulus/viswhere_stim/60-deg_dot-right_slateblue.png,stimulus/viswhere_stim/blank_white.png,stimulus/viswhere_stim/line_box.png,stimulus/viswhere_stim/line_yes.png,stimulus/viswhere_stim/line_no.png,None,Line,None,Line,1,0.0,0,5.125,0,5.125,0,5.125,0,0.0,0.625,0,0.0,0,0.0,1,0.5,1,2.125,0,0.0,0,0.0,0,0.0,0,0.0,0,,,,,0,35,35,35,,,,,,,,,323.5961904579999,323.5961904579999,323.5961904579999,323.5961904579999,323.5961904579999,323.5961904579999,323.5961904579999,323.5961904579999,323.5672682083335,323.5961904579999,323.5961904579999,323.5961904579999,323.5672682083335,323.5961904579999,323.5961904579999,323.5961904579999,325.6953423750001,329.6620089160001,323.5961904579999,323.5961904579999,328.73705795800015,324.072179625,325.07923125000025,325.6953423750001,326.7052390409999,323.5961904579999,323.5961904579999,323.5839348750001,323.5961904579999,323.5961904579999,323.5961904579999,323.5839348750001,323.5961904579999,323.5961904579999,328.73705795800015,323.5961904579999,328.73705795800015,328.8227091660001,329.4475620000003,323.5961904579999,1,1,0.9879827080003452,reldom2_s010,001,2025-02-11_16h23.19.546,Where-A-Scan_AC,2022.2.5,None,
28,First_Order,5.0,viswhere,stimulus/viswhere_stim/blank_white.png,stimulus/viswhere_stim/blank_white.png,stimulus/viswhere_stim/120-deg_dot-right_slateblue.png,stimulus/viswhere_stim/90-deg_dot-right_cyan.png,stimulus/viswhere_stim/blank_white.png,stimulus/viswhere_stim/dot_box.png,stimulus/viswhere_stim/dot_yes.png,stimulus/viswhere_stim/dot_no.png,None,Dot,None,Dot,1,0.0,0,5.125,0,5.125,0,5.125,0,0.0,0.625,0,0.0,0,0.0,1,0.5,1,2.125,0,0.0,0,0.0,0,0.0,0,0.0,0,,,,,0,36,36,36,,,,,,,,,329.6620089160001,329.6620089160001,329.6620089160001,329.6620089160001,329.6620089160001,329.6620089160001,329.6620089160001,329.6620089160001,329.6325244163334,329.6620089160001,329.6620089160001,329.6620089160001,329.6325244163334,329.6620089160001,329.6620089160001,329.6620089160001,331.76745337500006,335.802393166,329.6620089160001,329.6620089160001,334.7961345409999,330.13980425,331.14885937500003,331.76745337500006,332.78800283300006,329.6620089160001,329.6620089160001,329.64919108300006,329.6620089160001,329.6620089160001,329.6620089160001,329.64919108300006,329.6620089160001,329.6620089160001,334.7961345409999,329.6620089160001,334.7961345409999,334.88176875,335.5087681250002,329.6620089160001,1,1,0.7523370829999294,reldom2_s010,001,2025-02-11_16h23.19.546,Where-A-Scan_AC,2022.2.5,None,
0,0.0,None,fixation,stimulus/viswhere_stim/blank_white.png,stimulus/viswhere_stim/blank_white.png,stimulus/audwhere_stim/blank_white.png,stimulus/audwhere_stim/blank_white.png,stimulus/viswhere_stim/blank_white.png,stimulus/viswhere_stim/blank_white.png,stimulus/viswhere_stim/blank_white.png,stimulus/viswhere_stim/blank_white.png,0.0,0.0,0.0,0.0,0,0.0,0,0.0,0,0.0,0,0.0,0,0.0,0.0,0,0.0,0,0.0,0,0.0,0,0.0,0,0.0,0,0.0,0,0.0,0,0.0,9,,,,,0,37,37,37,,,,,,,,,335.802393166,335.802393166,335.802393166,335.802393166,335.802393166,335.802393166,335.802393166,335.802393166,335.69389716633333,335.802393166,335.802393166,335.802393166,335.69389716633333,335.802393166,335.802393166,335.802393166,335.802393166,335.802393166,335.802393166,335.802393166,335.802393166,335.802393166,335.802393166,335.802393166,335.802393166,335.802393166,335.802393166,335.74389716633334,335.802393166,335.802393166,335.802393166,335.74389716633334,335.802393166,335.802393166,335.802393166,335.802393166,335.802393166,340.98457162500017,340.98457162500017,344.95550408300005,None,0,,reldom2_s010,001,2025-02-11_16h23.19.546,Where-A-Scan_AC,2022.2.5,None,
29,Second_Order,5.0,viswhere,stimulus/viswhere_stim/150-deg_dot-right_cyan.png,stimulus/viswhere_stim/150-deg_dot-left_peru.png,stimulus/viswhere_stim/90-deg_dot-left_goldenrod.png,stimulus/viswhere_stim/90-deg_dot-right_mediumslateblue.png,stimulus/viswhere_stim/match_blank.png,stimulus/viswhere_stim/match_box.png,stimulus/viswhere_stim/match_yes.png,stimulus/viswhere_stim/match_no.png,1.0,Match,Line,Line,1,5.125,0,5.125,0,5.125,0,5.125,0,0.75,0.75,1,0.5,1,2.125,1,0.5,1,2.125,0,0.0,0,0.0,0,0.0,0,0.0,0,,,,,0,38,38,38,,,,,,,,,344.95550408300005,350.07170641599987,345.4220259580002,346.41415054100025,347.059749,348.055693541,344.95550408300005,344.95550408300005,344.96172704133335,344.95550408300005,344.95550408300005,344.95550408300005,344.96172704133335,344.95550408300005,350.07170641599987,350.85624429100017,352.9608597910001,356.81011483300017,350.85624429100017,350.85624429100017,355.995994333,351.337734875,352.3549022080001,352.9608597910001,353.98058416599997,350.85624429100017,350.85624429100017,350.8409919163332,350.85624429100017,350.85624429100017,350.85624429100017,350.8409919163332,350.85624429100017,350.85624429100017,355.995994333,350.85624429100017,355.995994333,356.06490620800014,356.85297475000016,350.85624429100017,1,1,0.3902797499999906,reldom2_s010,001,2025-02-11_16h23.19.546,Where-A-Scan_AC,2022.2.5,None,
30,Second_Order,5.0,viswhere,stimulus/viswhere_stim/90-deg_dot-right_royalblue.png,stimulus/viswhere_stim/60-deg_dot-right_peru.png,stimulus/viswhere_stim/30-deg_dot-left_slateblue.png,stimulus/viswhere_stim/90-deg_dot-left_seagreen.png,stimulus/viswhere_stim/match_blank.png,stimulus/viswhere_stim/match_box.png,stimulus/viswhere_stim/match_yes.png,stimulus/viswhere_stim/match_no.png,1.0,Match,Dot,Dot,1,5.125,0,5.125,0,5.125,0,5.125,0,0.625,0.625,1,0.5,1,2.125,1,0.5,1,2.125,0,0.0,0,0.0,0,0.0,0,0.0,0,,,,,0,39,39,39,,,,,,,,,356.85297475000016,361.9763055829999,357.3342090000001,358.33028950000016,358.9529308750002,359.947790875,356.85297475000016,356.85297475000016,356.8601148330002,356.85297475000016,356.85297475000016,356.85297475000016,356.8601148330002,356.85297475000016,361.9763055829999,362.6351680830003,364.73490816599997,368.7840140829999,362.6351680830003,362.6351680830003,367.7780133750002,363.09627520799995,364.11031037500015,364.73490816599997,365.75654433299997,362.6351680830003,362.6351680830003,362.62147899933325,362.6351680830003,362.6351680830003,362.6351680830003,362.62147899933325,362.6351680830003,362.6351680830003,367.7780133750002,362.6351680830003,367.7780133750002,367.8474423749999,368.48271270800024,362.6351680830003,1,1,0.5610780830002113,reldom2_s010,001,2025-02-11_16h23.19.546,Where-A-Scan_AC,2022.2.5,None,
0,0.0,None,fixation,stimulus/viswhere_stim/blank_white.png,stimulus/viswhere_stim/blank_white.png,stimulus/audwhere_stim/blank_white.png,stimulus/audwhere_stim/blank_white.png,stimulus/viswhere_stim/blank_white.png,stimulus/viswhere_stim/blank_white.png,stimulus/viswhere_stim/blank_white.png,stimulus/viswhere_stim/blank_white.png,0.0,0.0,0.0,0.0,0,0.0,0,0.0,0,0.0,0,0.0,0,0.0,0.0,0,0.0,0,0.0,0,0.0,0,0.0,0,0.0,0,0.0,0,0.0,0,0.0,8,,,,,0,40,40,40,,,,,,,,,368.7840140829999,368.7840140829999,368.7840140829999,368.7840140829999,368.7840140829999,368.7840140829999,368.7840140829999,368.7840140829999,368.66889987433325,368.7840140829999,368.7840140829999,368.7840140829999,368.66889987433325,368.7840140829999,368.7840140829999,368.7840140829999,368.7840140829999,368.7840140829999,368.7840140829999,368.7840140829999,368.7840140829999,368.7840140829999,368.7840140829999,368.7840140829999,368.7840140829999,368.7840140829999,368.7840140829999,368.7355665409999,368.7840140829999,368.7840140829999,368.7840140829999,368.7355665409999,368.7840140829999,368.7840140829999,368.7840140829999,368.7840140829999,368.7840140829999,373.9747009160001,373.9747009160001,376.9775755830001,None,0,,reldom2_s010,001,2025-02-11_16h23.19.546,Where-A-Scan_AC,2022.2.5,None,
31,First_Order,6.0,viswhere,stimulus/viswhere_stim/blank_white.png,stimulus/viswhere_stim/blank_white.png,stimulus/viswhere_stim/90-deg_dot-right_lightsseagreen.png,stimulus/viswhere_stim/90-deg_dot-left_turquoise.png,stimulus/viswhere_stim/blank_white.png,stimulus/viswhere_stim/line_box.png,stimulus/viswhere_stim/line_yes.png,stimulus/viswhere_stim/line_no.png,None,Line,None,Line,1,0.0,0,5.125,0,5.125,0,5.125,0,0.0,0.625,0,0.0,0,0.0,1,0.5,1,2.125,0,0.0,0,0.0,0,0.0,0,0.0,0,,,,,0,41,41,41,,,,,,,,,376.9775755830001,376.9775755830001,376.9775755830001,376.9775755830001,376.9775755830001,376.9775755830001,376.9775755830001,376.9775755830001,376.9431541246669,376.9775755830001,376.9775755830001,376.9775755830001,376.9431541246669,376.9775755830001,376.9775755830001,376.9775755830001,379.09448283300026,383.03633820799996,376.9775755830001,376.9775755830001,382.11376308299987,377.45781375000024,378.4727572500001,379.09448283300026,380.10700220800027,376.9775755830001,376.9775755830001,376.9598207913336,376.9775755830001,376.9775755830001,376.9775755830001,376.9598207913336,376.9775755830001,376.9775755830001,382.11376308299987,376.9775755830001,382.11376308299987,382.2008167500003,382.83764262500017,376.9775755830001,1,1,1.020560041000408,reldom2_s010,001,2025-02-11_16h23.19.546,Where-A-Scan_AC,2022.2.5,None,
32,First_Order,6.0,viswhere,stimulus/viswhere_stim/blank_white.png,stimulus/viswhere_stim/blank_white.png,stimulus/viswhere_stim/30-deg_dot-right_goldenrod.png,stimulus/viswhere_stim/30-deg_dot-left_seagreen.png,stimulus/viswhere_stim/blank_white.png,stimulus/viswhere_stim/dot_box.png,stimulus/viswhere_stim/dot_yes.png,stimulus/viswhere_stim/dot_no.png,None,Dot,None,Line,2,0.0,0,5.125,0,5.125,0,5.125,0,0.0,0.625,0,0.0,0,0.0,1,0.5,1,2.125,0,0.0,0,0.0,0,0.0,0,0.0,0,,,,,0,42,42,42,,,,,,,,,383.03633820799996,383.03633820799996,383.03633820799996,383.03633820799996,383.03633820799996,383.03633820799996,383.03633820799996,383.03633820799996,383.0065139993333,383.03633820799996,383.03633820799996,383.03633820799996,383.0065139993333,383.03633820799996,383.03633820799996,383.03633820799996,385.14015195799993,389.11479583300024,383.03633820799996,383.03633820799996,388.1809523330003,383.51396212500003,384.5219268330002,385.14015195799993,386.1503173330002,383.03633820799996,383.03633820799996,383.023180666,383.03633820799996,383.03633820799996,383.03633820799996,383.023180666,383.03633820799996,383.03633820799996,388.1809523330003,383.03633820799996,388.1809523330003,388.26643508300003,388.8973956250002,383.03633820799996,2,1,0.972023000000263,reldom2_s010,001,2025-02-11_16h23.19.546,Where-A-Scan_AC,2022.2.5,None,
33,First_Order,6.0,viswhere,stimulus/viswhere_stim/blank_white.png,stimulus/viswhere_stim/blank_white.png,stimulus/viswhere_stim/150-deg_dot-left_lightsseagreen.png,stimulus/viswhere_stim/150-deg_dot-right_royalblue.png,stimulus/viswhere_stim/blank_white.png,stimulus/viswhere_stim/dot_box.png,stimulus/viswhere_stim/dot_yes.png,stimulus/viswhere_stim/dot_no.png,None,Dot,None,Line,2,0.0,0,5.125,0,5.125,0,5.125,0,0.0,0.625,0,0.0,0,0.0,1,0.5,1,2.125,0,0.0,0,0.0,0,0.0,0,0.0,0,,,,,0,43,43,43,,,,,,,,,389.11479583300024,389.11479583300024,389.11479583300024,389.11479583300024,389.11479583300024,389.11479583300024,389.11479583300024,389.11479583300024,389.0823688743333,389.11479583300024,389.11479583300024,389.11479583300024,389.0823688743333,389.11479583300024,389.11479583300024,389.11479583300024,391.2084696249999,395.174572291,389.11479583300024,389.11479583300024,394.25276562499994,389.5951784160002,390.60895970799993,391.2084696249999,392.22740141600025,389.11479583300024,389.11479583300024,389.099035541,389.11479583300024,389.11479583300024,389.11479583300024,389.099035541,389.11479583300024,389.11479583300024,394.25276562499994,389.11479583300024,394.25276562499994,394.33981600000016,394.97518341600016,389.11479583300024,2,1,1.2143629160000273,reldom2_s010,001,2025-02-11_16h23.19.546,Where-A-Scan_AC,2022.2.5,None,
34,First_Order,6.0,viswhere,stimulus/viswhere_stim/blank_white.png,stimulus/viswhere_stim/blank_white.png,stimulus/viswhere_stim/120-deg_dot-left_peru.png,stimulus/viswhere_stim/90-deg_dot-left_royalblue.png,stimulus/viswhere_stim/blank_white.png,stimulus/viswhere_stim/line_box.png,stimulus/viswhere_stim/line_yes.png,stimulus/viswhere_stim/line_no.png,None,Line,None,Dot,2,0.0,0,5.125,0,5.125,0,5.125,0,0.0,0.625,0,0.0,0,0.0,1,0.5,1,2.125,0,0.0,0,0.0,0,0.0,0,0.0,0,,,,,0,44,44,44,,,,,,,,,395.174572291,395.174572291,395.174572291,395.174572291,395.174572291,395.174572291,395.174572291,395.174572291,395.14515966633354,395.174572291,395.174572291,395.174572291,395.14515966633354,395.174572291,395.174572291,395.174572291,397.285134708,401.31386279100025,395.174572291,395.174572291,400.3028249160002,395.6524533750003,396.6624149580002,397.285134708,398.30209783300006,395.174572291,395.174572291,395.1618263330002,395.174572291,395.174572291,395.174572291,395.1618263330002,395.174572291,395.174572291,400.3028249160002,395.174572291,400.3028249160002,400.4066836249999,401.0368652080001,395.174572291,2,1,0.9980236250003145,reldom2_s010,001,2025-02-11_16h23.19.546,Where-A-Scan_AC,2022.2.5,None,
0,0.0,None,fixation,stimulus/viswhere_stim/blank_white.png,stimulus/viswhere_stim/blank_white.png,stimulus/audwhere_stim/blank_white.png,stimulus/audwhere_stim/blank_white.png,stimulus/viswhere_stim/blank_white.png,stimulus/viswhere_stim/blank_white.png,stimulus/viswhere_stim/blank_white.png,stimulus/viswhere_stim/blank_white.png,0.0,0.0,0.0,0.0,0,0.0,0,0.0,0,0.0,0,0.0,0,0.0,0.0,0,0.0,0,0.0,0,0.0,0,0.0,0,0.0,0,0.0,0,0.0,0,0.0,10,,,,,0,45,45,45,,,,,,,,,401.31386279100025,401.31386279100025,401.31386279100025,401.31386279100025,401.31386279100025,401.31386279100025,401.31386279100025,401.31386279100025,401.2054975833333,401.31386279100025,401.31386279100025,401.31386279100025,401.2054975833333,401.31386279100025,401.31386279100025,401.31386279100025,401.31386279100025,401.31386279100025,401.31386279100025,401.31386279100025,401.31386279100025,401.31386279100025,401.31386279100025,401.31386279100025,401.31386279100025,401.31386279100025,401.31386279100025,401.2554975833333,401.31386279100025,401.31386279100025,401.31386279100025,401.2554975833333,401.31386279100025,401.31386279100025,401.31386279100025,401.31386279100025,401.31386279100025,406.5010238750001,406.5010238750001,411.47208116599995,None,0,,reldom2_s010,001,2025-02-11_16h23.19.546,Where-A-Scan_AC,2022.2.5,None,
35,Second_Order,6.0,viswhere,stimulus/viswhere_stim/60-deg_dot-right_mediumslateblue.png,stimulus/viswhere_stim/150-deg_dot-right_turquoise.png,stimulus/viswhere_stim/90-deg_dot-right_slateblue.png,stimulus/viswhere_stim/90-deg_dot-left_seagreen.png,stimulus/viswhere_stim/match_blank.png,stimulus/viswhere_stim/match_box.png,stimulus/viswhere_stim/match_yes.png,stimulus/viswhere_stim/match_no.png,2.0,Match,Dot,Line,2,5.125,0,5.125,0,5.125,0,5.125,0,0.75,0.75,1,0.5,1,2.125,1,0.5,1,2.125,0,0.0,0,0.0,0,0.0,0,0.0,0,,,,,0,46,46,46,,,,,,,,,411.47208116599995,416.58508891600013,411.9442786660002,412.93488241600016,413.5761163330003,414.56421287500007,411.47208116599995,411.47208116599995,411.4777298743335,411.47208116599995,411.47208116599995,411.47208116599995,411.4777298743335,411.47208116599995,416.58508891600013,417.3648807079999,419.46464291600023,423.3586467910004,417.3648807079999,417.3648807079999,422.5055749580001,417.82590712499996,418.84207212499996,419.46464291600023,420.48520925,417.3648807079999,417.3648807079999,417.35087474933334,417.3648807079999,417.3648807079999,417.3648807079999,417.35087474933334,417.3648807079999,417.3648807079999,422.5055749580001,417.3648807079999,422.5055749580001,422.5747110409998,423.3586467910004,417.3648807079999,2,1,0.6843185840002661,reldom2_s010,001,2025-02-11_16h23.19.546,Where-A-Scan_AC,2022.2.5,None,
36,Second_Order,6.0,viswhere,stimulus/viswhere_stim/120-deg_dot-left_royalblue.png,stimulus/viswhere_stim/120-deg_dot-right_cyan.png,stimulus/viswhere_stim/90-deg_dot-left_slateblue.png,stimulus/viswhere_stim/90-deg_dot-right_turquoise.png,stimulus/viswhere_stim/match_blank.png,stimulus/viswhere_stim/match_box.png,stimulus/viswhere_stim/match_yes.png,stimulus/viswhere_stim/match_no.png,1.0,Match,Line,Line,1,5.125,0,5.125,0,5.125,0,5.125,0,0.625,0.625,1,0.5,1,2.125,1,0.5,1,2.125,0,0.0,0,0.0,0,0.0,0,0.0,0,,,,,0,47,47,47,,,,,,,,,423.3586467910004,428.47623633299963,423.8389798330004,424.8266443329999,425.463722125,426.45103320800035,423.3586467910004,423.3586467910004,423.3661803750004,423.3586467910004,423.3586467910004,423.3586467910004,423.3661803750004,423.3586467910004,428.47623633299963,429.1302661659997,431.2317476660005,435.26345320799965,429.1302661659997,429.1302661659997,434.27537987500045,429.61444387500023,430.6332802080001,431.2317476660005,432.25398300000006,429.1302661659997,429.1302661659997,429.11723579133377,429.1302661659997,429.1302661659997,429.1302661659997,429.11723579133377,429.1302661659997,429.1302661659997,434.27537987500045,429.1302661659997,434.27537987500045,434.34472854099977,434.98236320800015,429.1302661659997,1,1,0.36295283300023584,reldom2_s010,001,2025-02-11_16h23.19.546,Where-A-Scan_AC,2022.2.5,None,
0,0.0,None,fixation,stimulus/viswhere_stim/blank_white.png,stimulus/viswhere_stim/blank_white.png,stimulus/audwhere_stim/blank_white.png,stimulus/audwhere_stim/blank_white.png,stimulus/viswhere_stim/blank_white.png,stimulus/viswhere_stim/blank_white.png,stimulus/viswhere_stim/blank_white.png,stimulus/viswhere_stim/blank_white.png,0.0,0.0,0.0,0.0,0,0.0,0,0.0,0,0.0,0,0.0,0,0.0,0.0,0,0.0,0,0.0,0,0.0,0,0.0,0,0.0,0,0.0,0,0.0,0,0.0,9,,,,,0,48,48,48,,,,,,,,,435.26345320799965,435.26345320799965,435.26345320799965,435.26345320799965,435.26345320799965,435.26345320799965,435.26345320799965,435.26345320799965,435.15160699933296,435.26345320799965,435.26345320799965,435.26345320799965,435.15160699933296,435.26345320799965,435.26345320799965,435.26345320799965,435.26345320799965,435.26345320799965,435.26345320799965,435.26345320799965,435.26345320799965,435.26345320799965,435.26345320799965,435.26345320799965,435.26345320799965,435.26345320799965,435.26345320799965,435.2182736659996,435.26345320799965,435.26345320799965,435.26345320799965,435.2182736659996,435.26345320799965,435.26345320799965,435.26345320799965,435.26345320799965,435.26345320799965,440.45829449999974,440.45829449999974,444.50885120799967,None,0,,reldom2_s010,001,2025-02-11_16h23.19.546,Where-A-Scan_AC,2022.2.5,None,
37,First_Order,7.0,audwhere,stimulus/audwhere_stim/dummy.wav,stimulus/audwhere_stim/dummy.wav,stimulus/audwhere_stim/left_toward_280h.wav,stimulus/audwhere_stim/left_away_290h.wav,stimulus/audwhere_stim/blank_white.png,stimulus/audwhere_stim/direction_box.png,stimulus/audwhere_stim/direction_yes.png,stimulus/audwhere_stim/direction_no.png,None,Direction,None,Side,2,0.0,0,5.125,0,5.125,0,5.125,0,0.0,0.625,0,0.0,0,0.0,0,0.0,0,0.0,0,0.0,0,0.0,1,0.5,1,2.125,0,,,,,0,49,49,49,,,,,,,,,444.50885120799967,444.50885120799967,444.50885120799967,444.50885120799967,444.50885120799967,444.50885120799967,444.50885120799967,444.50885120799967,444.42088145766695,444.50885120799967,444.50885120799967,444.50885120799967,444.42088145766695,444.50885120799967,444.50885120799967,444.50885120799967,446.5979512910003,450.6418296249999,444.50885120799967,444.50885120799967,449.6838874580003,444.50885120799967,444.50885120799967,444.50885120799967,444.50885120799967,444.9803972499999,446.0239383330004,444.94487129166714,,446.5979512910003,447.64401091599984,446.5621797496667,,444.50885120799967,449.6838874580003,444.50885120799967,449.6838874580003,449.7298858750005,450.4186505829998,444.50885120799967,2,1,1.1035879170003682,reldom2_s010,001,2025-02-11_16h23.19.546,Where-A-Scan_AC,2022.2.5,None,
38,First_Order,7.0,audwhere,stimulus/audwhere_stim/dummy.wav,stimulus/audwhere_stim/dummy.wav,stimulus/audwhere_stim/left_away_300h.wav,stimulus/audwhere_stim/right_away_280h.wav,stimulus/audwhere_stim/blank_white.png,stimulus/audwhere_stim/side_box.png,stimulus/audwhere_stim/side_yes.png,stimulus/audwhere_stim/side_no.png,None,Side,None,Direction,2,0.0,0,5.125,0,5.125,0,5.125,0,0.0,0.625,0,0.0,0,0.0,0,0.0,0,0.0,0,0.0,0,0.0,1,0.5,1,2.125,0,,,,,0,50,50,50,,,,,,,,,450.6418296249999,450.6418296249999,450.6418296249999,450.6418296249999,450.6418296249999,450.6418296249999,450.6418296249999,450.6418296249999,450.55198391633314,450.6418296249999,450.6418296249999,450.6418296249999,450.55198391633314,450.6418296249999,450.6418296249999,450.6418296249999,452.72359387500046,,450.6418296249999,450.6418296249999,455.83968937500003,450.6418296249999,450.6418296249999,450.6418296249999,450.6418296249999,451.10961633299985,452.1497017080005,451.07414399966706,,452.72359387500046,453.7644915830001,452.68765054166647,,450.6418296249999,455.83968937500003,450.6418296249999,455.83968937500003,455.83968937500003,456.52474050000046,450.6418296249999,2,1,2.258708041999853,reldom2_s010,001,2025-02-11_16h23.19.546,Where-A-Scan_AC,2022.2.5,None,
39,First_Order,7.0,audwhere,stimulus/audwhere_stim/dummy.wav,stimulus/audwhere_stim/dummy.wav,stimulus/audwhere_stim/right_toward_280h.wav,stimulus/audwhere_stim/right_away_300h.wav,stimulus/audwhere_stim/blank_white.png,stimulus/audwhere_stim/side_box.png,stimulus/audwhere_stim/side_yes.png,stimulus/audwhere_stim/side_no.png,None,Side,None,Side,1,0.0,0,5.125,0,5.125,0,5.125,0,0.0,0.625,0,0.0,0,0.0,0,0.0,0,0.0,0,0.0,0,0.0,1,0.5,1,2.125,0,,,,,0,51,51,51,,,,,,,,,456.74813975000006,456.74813975000006,456.74813975000006,456.74813975000006,456.74813975000006,456.74813975000006,456.74813975000006,456.74813975000006,456.6580738333338,456.74813975000006,456.74813975000006,456.74813975000006,456.6580738333338,456.74813975000006,456.74813975000006,456.74813975000006,458.8293651660001,,456.74813975000006,456.74813975000006,461.94952975000024,456.74813975000006,456.74813975000006,456.74813975000006,456.74813975000006,457.2176563329999,458.2587266659998,457.18204912466695,,458.8293651660001,459.87229100000013,458.794175249667,,456.74813975000006,461.94952975000024,456.74813975000006,461.94952975000024,461.94952975000024,462.6342561659999,456.74813975000006,1,1,0.7611394169998675,reldom2_s010,001,2025-02-11_16h23.19.546,Where-A-Scan_AC,2022.2.5,None,
40,First_Order,7.0,audwhere,stimulus/audwhere_stim/dummy.wav,stimulus/audwhere_stim/dummy.wav,stimulus/audwhere_stim/left_away_280h.wav,stimulus/audwhere_stim/left_toward_300h.wav,stimulus/audwhere_stim/blank_white.png,stimulus/audwhere_stim/side_box.png,stimulus/audwhere_stim/side_yes.png,stimulus/audwhere_stim/side_no.png,None,Side,None,Side,1,0.0,0,5.125,0,5.125,0,5.125,0,0.0,0.625,0,0.0,0,0.0,0,0.0,0,0.0,0,0.0,0,0.0,1,0.5,1,2.125,0,,,,,0,52,52,52,,,,,,,,,462.85889758300027,462.85889758300027,462.85889758300027,462.85889758300027,462.85889758300027,462.85889758300027,462.85889758300027,462.85889758300027,462.78425616599986,462.85889758300027,462.85889758300027,462.85889758300027,462.78425616599986,462.85889758300027,462.85889758300027,462.85889758300027,464.94127187500044,,462.85889758300027,462.85889758300027,468.05764541600047,462.85889758300027,462.85889758300027,462.85889758300027,462.85889758300027,463.32735900000034,464.367585083,463.2914319576664,,464.94127187500044,465.9824525830004,464.9060432916665,,462.85889758300027,468.05764541600047,462.85889758300027,468.05764541600047,468.05764541600047,468.7422073749999,462.85889758300027,1,1,1.8777430410000306,reldom2_s010,001,2025-02-11_16h23.19.546,Where-A-Scan_AC,2022.2.5,None,
0,0.0,None,fixation,stimulus/viswhere_stim/blank_white.png,stimulus/viswhere_stim/blank_white.png,stimulus/audwhere_stim/blank_white.png,stimulus/audwhere_stim/blank_white.png,stimulus/viswhere_stim/blank_white.png,stimulus/viswhere_stim/blank_white.png,stimulus/viswhere_stim/blank_white.png,stimulus/viswhere_stim/blank_white.png,0.0,0.0,0.0,0.0,0,0.0,0,0.0,0,0.0,0,0.0,0,0.0,0.0,0,0.0,0,0.0,0,0.0,0,0.0,0,0.0,0,0.0,0,0.0,0,0.0,8,,,,,0,53,53,53,,,,,,,,,468.9878304580002,468.9878304580002,468.9878304580002,468.9878304580002,468.9878304580002,468.9878304580002,468.9878304580002,468.9878304580002,468.8922073749999,468.9878304580002,468.9878304580002,468.9878304580002,468.8922073749999,468.9878304580002,468.9878304580002,468.9878304580002,468.9878304580002,468.9878304580002,468.9878304580002,468.9878304580002,468.9878304580002,468.9878304580002,468.9878304580002,468.9878304580002,468.9878304580002,468.9878304580002,468.9878304580002,468.9422073749999,468.9878304580002,468.9878304580002,468.9878304580002,468.9422073749999,468.9878304580002,468.9878304580002,468.9878304580002,468.9878304580002,468.9878304580002,474.1723417500002,474.1723417500002,477.1237573330004,None,0,,reldom2_s010,001,2025-02-11_16h23.19.546,Where-A-Scan_AC,2022.2.5,None,
41,Second_Order,7.0,audwhere,stimulus/audwhere_stim/left_away_300h.wav,stimulus/audwhere_stim/left_toward_300h.wav,stimulus/audwhere_stim/right_away_290h.wav,stimulus/audwhere_stim/right_toward_290h.wav,stimulus/viswhere_stim/match_blank.png,stimulus/audwhere_stim/match_box.png,stimulus/viswhere_stim/match_yes.png,stimulus/viswhere_stim/match_no.png,1.0,Match,Side,Side,1,5.125,0,5.125,0,5.125,0,5.125,0,0.75,0.75,0,0.0,0,0.0,0,0.0,0,0.0,1,0.5,1,2.125,1,0.5,1,2.125,0,,,,,0,54,54,54,,,,,,,,,477.1237573330004,482.2380715000004,477.1237573330004,477.1237573330004,477.1237573330004,477.1237573330004,477.57565662499974,478.56350062499996,477.58786249966647,478.5876739999999,479.1940113750002,480.19781833299976,479.2052095826664,480.19781833299976,482.2380715000004,483.07313020799984,485.1576086660002,489.08923241599996,483.07313020799984,483.07313020799984,488.22999379099974,483.07313020799984,483.07313020799984,483.07313020799984,483.07313020799984,483.54211024999995,484.5864553329998,483.50586120766707,,485.1576086660002,486.200822583,485.121702582667,,483.07313020799984,488.22999379099974,483.07313020799984,488.22999379099974,488.2756439159998,,483.07313020799984,1,1,0.5942798749993017,reldom2_s010,001,2025-02-11_16h23.19.546,Where-A-Scan_AC,2022.2.5,None,
42,Second_Order,7.0,audwhere,stimulus/audwhere_stim/left_away_280h.wav,stimulus/audwhere_stim/right_away_270h.wav,stimulus/audwhere_stim/right_toward_270h.wav,stimulus/audwhere_stim/left_toward_280h.wav,stimulus/viswhere_stim/match_blank.png,stimulus/audwhere_stim/match_box.png,stimulus/viswhere_stim/match_yes.png,stimulus/viswhere_stim/match_no.png,1.0,Match,Direction,Direction,1,5.125,0,5.125,0,5.125,0,5.125,0,0.625,0.625,0,0.0,0,0.0,0,0.0,0,0.0,1,0.5,1,2.125,1,0.5,1,2.125,0,,,,,0,55,55,55,,,,,,,,,489.08923241599996,494.21306074999984,489.08923241599996,489.08923241599996,489.08923241599996,489.08923241599996,489.5426982080003,490.53417829100044,489.55470312466673,490.54730479100044,491.15922962500053,492.14985258299976,491.170861082667,492.1725295000001,494.21306074999984,494.92198487500036,497.0068613750004,501.05914329100005,494.92198487500036,494.92198487500036,500.0815378330003,494.92198487500036,494.92198487500036,494.92198487500036,494.92198487500036,495.3905294580004,496.4345847079999,495.35514133266656,,497.0068613750004,498.0542930830002,496.9713101666664,,494.92198487500036,500.0815378330003,494.92198487500036,500.0815378330003,500.12620712499984,500.81412979100014,494.92198487500036,1,1,0.7148149160002504,reldom2_s010,001,2025-02-11_16h23.19.546,Where-A-Scan_AC,2022.2.5,None,
0,0.0,None,fixation,stimulus/viswhere_stim/blank_white.png,stimulus/viswhere_stim/blank_white.png,stimulus/audwhere_stim/blank_white.png,stimulus/audwhere_stim/blank_white.png,stimulus/viswhere_stim/blank_white.png,stimulus/viswhere_stim/blank_white.png,stimulus/viswhere_stim/blank_white.png,stimulus/viswhere_stim/blank_white.png,0.0,0.0,0.0,0.0,0,0.0,0,0.0,0,0.0,0,0.0,0,0.0,0.0,0,0.0,0,0.0,0,0.0,0,0.0,0,0.0,0,0.0,0,0.0,0,0.0,10,,,,,0,56,56,56,,,,,,,,,501.05914329100005,501.05914329100005,501.05914329100005,501.05914329100005,501.05914329100005,501.05914329100005,501.05914329100005,501.05914329100005,500.9641297910001,501.05914329100005,501.05914329100005,501.05914329100005,500.9641297910001,501.05914329100005,501.05914329100005,501.05914329100005,501.05914329100005,501.05914329100005,501.05914329100005,501.05914329100005,501.05914329100005,501.05914329100005,501.05914329100005,501.05914329100005,501.05914329100005,501.05914329100005,501.05914329100005,501.01412979100013,501.05914329100005,501.05914329100005,501.05914329100005,501.01412979100013,501.05914329100005,501.05914329100005,501.05914329100005,501.05914329100005,501.05914329100005,506.24878324999963,506.24878324999963,511.3416086250004,None,0,,reldom2_s010,001,2025-02-11_16h23.19.546,Where-A-Scan_AC,2022.2.5,None,
43,First_Order,8.0,audwhere,stimulus/audwhere_stim/dummy.wav,stimulus/audwhere_stim/dummy.wav,stimulus/audwhere_stim/left_away_270h.wav,stimulus/audwhere_stim/right_away_300h.wav,stimulus/audwhere_stim/blank_white.png,stimulus/audwhere_stim/direction_box.png,stimulus/audwhere_stim/direction_yes.png,stimulus/audwhere_stim/direction_no.png,None,Direction,None,Direction,1,0.0,0,5.125,0,5.125,0,5.125,0,0.0,0.625,0,0.0,0,0.0,0,0.0,0,0.0,0,0.0,0,0.0,1,0.5,1,2.125,0,,,,,0,57,57,57,,,,,,,,,511.3416086250004,511.3416086250004,511.3416086250004,511.3416086250004,511.3416086250004,511.3416086250004,511.3416086250004,511.3416086250004,511.2572116666671,511.3416086250004,511.3416086250004,511.3416086250004,511.2572116666671,511.3416086250004,511.3416086250004,511.3416086250004,513.4355742909997,517.4749932910004,511.3416086250004,511.3416086250004,516.5127749580001,511.3416086250004,511.3416086250004,511.3416086250004,511.3416086250004,511.8122431249999,512.8612665830001,511.7755289166669,,513.4355742909997,514.4837039580002,513.3990912076667,,511.3416086250004,516.5127749580001,511.3416086250004,516.5127749580001,516.5588660830003,517.2516692499998,511.3416086250004,1,1,3.218372165999426,reldom2_s010,001,2025-02-11_16h23.19.546,Where-A-Scan_AC,2022.2.5,None,
44,First_Order,8.0,audwhere,stimulus/audwhere_stim/dummy.wav,stimulus/audwhere_stim/dummy.wav,stimulus/audwhere_stim/left_toward_300h.wav,stimulus/audwhere_stim/left_away_280h.wav,stimulus/audwhere_stim/blank_white.png,stimulus/audwhere_stim/direction_box.png,stimulus/audwhere_stim/direction_yes.png,stimulus/audwhere_stim/direction_no.png,None,Direction,None,Side,2,0.0,0,5.125,0,5.125,0,5.125,0,0.0,0.625,0,0.0,0,0.0,0,0.0,0,0.0,0,0.0,0,0.0,1,0.5,1,2.125,0,,,,,0,58,58,58,,,,,,,,,517.4749932910004,517.4749932910004,517.4749932910004,517.4749932910004,517.4749932910004,517.4749932910004,517.4749932910004,517.4749932910004,517.3850025833332,517.4749932910004,517.4749932910004,517.4749932910004,517.3850025833332,517.4749932910004,517.4749932910004,517.4749932910004,519.5650270410001,523.6120157500004,517.4749932910004,517.4749932910004,522.6519736249998,517.4749932910004,517.4749932910004,517.4749932910004,517.4749932910004,517.9458592080005,518.9920743329999,517.9100964996667,,519.5650270410001,520.6150904159999,519.5294107496663,,517.4749932910004,522.6519736249998,517.4749932910004,522.6519736249998,522.6989903750004,523.385226291,517.4749932910004,2,1,0.7278215840005942,reldom2_s010,001,2025-02-11_16h23.19.546,Where-A-Scan_AC,2022.2.5,None,
45,First_Order,8.0,audwhere,stimulus/audwhere_stim/dummy.wav,stimulus/audwhere_stim/dummy.wav,stimulus/audwhere_stim/right_away_290h.wav,stimulus/audwhere_stim/left_away_280h.wav,stimulus/audwhere_stim/blank_white.png,stimulus/audwhere_stim/side_box.png,stimulus/audwhere_stim/side_yes.png,stimulus/audwhere_stim/side_no.png,None,Side,None,Direction,2,0.0,0,5.125,0,5.125,0,5.125,0,0.0,0.625,0,0.0,0,0.0,0,0.0,0,0.0,0,0.0,0,0.0,1,0.5,1,2.125,0,,,,,0,59,59,59,,,,,,,,,523.6120157500004,523.6120157500004,523.6120157500004,523.6120157500004,523.6120157500004,523.6120157500004,523.6120157500004,523.6120157500004,523.5185596243333,523.6120157500004,523.6120157500004,523.6120157500004,523.5185596243333,523.6120157500004,523.6120157500004,523.6120157500004,525.6918353329997,,523.6120157500004,523.6120157500004,528.8142829579997,523.6120157500004,523.6120157500004,523.6120157500004,523.6120157500004,524.0813868749997,525.119816291,524.0451906246669,,525.6918353329997,526.7352436659999,525.656257082667,,523.6120157500004,528.8142829579997,523.6120157500004,528.8142829579997,528.8142829579997,529.4958568750003,523.6120157500004,2,1,1.1879529580000963,reldom2_s010,001,2025-02-11_16h23.19.546,Where-A-Scan_AC,2022.2.5,None,
46,First_Order,8.0,audwhere,stimulus/audwhere_stim/dummy.wav,stimulus/audwhere_stim/dummy.wav,stimulus/audwhere_stim/left_away_270h.wav,stimulus/audwhere_stim/right_away_290h.wav,stimulus/audwhere_stim/blank_white.png,stimulus/audwhere_stim/direction_box.png,stimulus/audwhere_stim/direction_yes.png,stimulus/audwhere_stim/direction_no.png,None,Direction,None,Direction,1,0.0,0,5.125,0,5.125,0,5.125,0,0.0,0.625,0,0.0,0,0.0,0,0.0,0,0.0,0,0.0,0,0.0,1,0.5,1,2.125,0,,,,,0,60,60,60,,,,,,,,,529.7185387080003,529.7185387080003,529.7185387080003,529.7185387080003,529.7185387080003,529.7185387080003,529.7185387080003,529.7185387080003,529.6291902083336,529.7185387080003,529.7185387080003,529.7185387080003,529.6291902083336,529.7185387080003,529.7185387080003,529.7185387080003,531.8075368750001,535.8723790409999,529.7185387080003,529.7185387080003,534.8974795830004,529.7185387080003,529.7185387080003,529.7185387080003,529.7185387080003,530.1882807500001,531.2343182910004,530.1525263326664,,531.8075368750001,532.8632229580003,531.7711924576668,532.8112752909997,529.7185387080003,534.8974795830004,529.7185387080003,534.8974795830004,534.9434237910004,535.6284027910001,529.7185387080003,1,1,1.135151333000067,reldom2_s010,001,2025-02-11_16h23.19.546,Where-A-Scan_AC,2022.2.5,None,
0,0.0,None,fixation,stimulus/viswhere_stim/blank_white.png,stimulus/viswhere_stim/blank_white.png,stimulus/audwhere_stim/blank_white.png,stimulus/audwhere_stim/blank_white.png,stimulus/viswhere_stim/blank_white.png,stimulus/viswhere_stim/blank_white.png,stimulus/viswhere_stim/blank_white.png,stimulus/viswhere_stim/blank_white.png,0.0,0.0,0.0,0.0,0,0.0,0,0.0,0,0.0,0,0.0,0,0.0,0.0,0,0.0,0,0.0,0,0.0,0,0.0,0,0.0,0,0.0,0,0.0,0,0.0,9,,,,,0,61,61,61,,,,,,,,,535.8723790409999,535.8723790409999,535.8723790409999,535.8723790409999,535.8723790409999,535.8723790409999,535.8723790409999,535.8723790409999,535.7617361243334,535.8723790409999,535.8723790409999,535.8723790409999,535.7617361243334,535.8723790409999,535.8723790409999,535.8723790409999,535.8723790409999,535.8723790409999,535.8723790409999,535.8723790409999,535.8723790409999,535.8723790409999,535.8723790409999,535.8723790409999,535.8723790409999,535.8723790409999,535.8723790409999,535.828402791,535.8723790409999,535.8723790409999,535.8723790409999,535.828402791,535.8723790409999,535.8723790409999,535.8723790409999,535.8723790409999,535.8723790409999,541.0693051250005,541.0693051250005,545.0248712910002,None,0,,reldom2_s010,001,2025-02-11_16h23.19.546,Where-A-Scan_AC,2022.2.5,None,
47,Second_Order,8.0,audwhere,stimulus/audwhere_stim/right_away_280h.wav,stimulus/audwhere_stim/left_away_290h.wav,stimulus/audwhere_stim/right_toward_300h.wav,stimulus/audwhere_stim/right_away_300h.wav,stimulus/viswhere_stim/match_blank.png,stimulus/audwhere_stim/match_box.png,stimulus/viswhere_stim/match_yes.png,stimulus/viswhere_stim/match_no.png,2.0,Match,Direction,Side,2,5.125,0,5.125,0,5.125,0,5.125,0,0.75,0.75,0,0.0,0,0.0,0,0.0,0,0.0,1,0.5,1,2.125,1,0.5,1,2.125,0,,,,,0,62,62,62,,,,,,,,,545.0248712910002,550.1374007079999,545.0248712910002,545.0248712910002,545.0248712910002,545.0248712910002,545.4761279580002,546.4638222079998,545.4877869576665,546.4885758329997,547.0913249159998,548.0832835830001,547.103785957667,548.1064601660005,550.1374007079999,550.9785792500002,553.0669285409999,556.9927243329998,550.9785792500002,550.9785792500002,556.1328174160003,550.9785792500002,550.9785792500002,550.9785792500002,550.9785792500002,551.4468482079997,552.4921515829997,551.4114708326667,,553.0669285409999,554.1076807080003,553.0313337916666,,550.9785792500002,556.1328174160003,550.9785792500002,556.1328174160003,556.1788108329997,,550.9785792500002,1,0,2.520158334000371,reldom2_s010,001,2025-02-11_16h23.19.546,Where-A-Scan_AC,2022.2.5,None,
48,Second_Order,8.0,audwhere,stimulus/audwhere_stim/left_away_280h.wav,stimulus/audwhere_stim/right_away_290h.wav,stimulus/audwhere_stim/left_toward_280h.wav,stimulus/audwhere_stim/right_toward_300h.wav,stimulus/viswhere_stim/match_blank.png,stimulus/audwhere_stim/match_box.png,stimulus/viswhere_stim/match_yes.png,stimulus/viswhere_stim/match_no.png,1.0,Match,Direction,Direction,1,5.125,0,5.125,0,5.125,0,5.125,0,0.625,0.625,0,0.0,0,0.0,0,0.0,0,0.0,1,0.5,1,2.125,1,0.5,1,2.125,0,,,,,0,63,63,63,,,,,,,,,556.9927243329998,562.1082202499997,556.9927243329998,556.9927243329998,556.9927243329998,556.9927243329998,557.4433007080002,558.446099583,557.4543023746671,558.446099583,559.0749309580001,560.0667147079998,559.0869195416669,560.0875134579996,562.1082202499997,562.8163674580005,564.8970772500002,568.9471400830002,562.8163674580005,562.8163674580005,567.9720837500004,562.8163674580005,562.8163674580005,562.8163674580005,562.8163674580005,563.2841628749998,564.3240635830002,563.2485072916668,,564.8970772500002,565.9417763750002,564.8618604576666,,562.8163674580005,567.9720837500004,562.8163674580005,567.9720837500004,568.0177719580001,568.7029787910001,562.8163674580005,1,1,0.7161541670002407,reldom2_s010,001,2025-02-11_16h23.19.546,Where-A-Scan_AC,2022.2.5,None,
0,0.0,None,fixation,stimulus/viswhere_stim/blank_white.png,stimulus/viswhere_stim/blank_white.png,stimulus/audwhere_stim/blank_white.png,stimulus/audwhere_stim/blank_white.png,stimulus/viswhere_stim/blank_white.png,stimulus/viswhere_stim/blank_white.png,stimulus/viswhere_stim/blank_white.png,stimulus/viswhere_stim/blank_white.png,0.0,0.0,0.0,0.0,0,0.0,0,0.0,0,0.0,0,0.0,0,0.0,0.0,0,0.0,0,0.0,0,0.0,0,0.0,0,0.0,0,0.0,0,0.0,0,0.0,16,,,,,0,64,64,64,,,,,,,,,568.9471400830002,568.9471400830002,568.9471400830002,568.9471400830002,568.9471400830002,568.9471400830002,568.9471400830002,568.9471400830002,568.8363121243334,568.9471400830002,568.9471400830002,568.9471400830002,568.8363121243334,568.9471400830002,568.9471400830002,568.9471400830002,568.9471400830002,568.9471400830002,568.9471400830002,568.9471400830002,568.9471400830002,568.9471400830002,568.9471400830002,568.9471400830002,568.9471400830002,568.9471400830002,568.9471400830002,568.902978791,568.9471400830002,568.9471400830002,568.9471400830002,568.902978791,568.9471400830002,568.9471400830002,568.9471400830002,568.9471400830002,568.9471400830002,574.142420916,574.142420916,585.0791881660002,None,0,,reldom2_s010,001,2025-02-11_16h23.19.546,Where-A-Scan_AC,2022.2.5,None,
