Trial,Order,Block,Type,Stimuli_File1,Stimuli_File2,Stimuli_File3,Stimuli_File4,Cue_File1,Cue_File2,Response_File_Yes,Response_File_No,Match,Cue_Dimension,Pair1_Dimension,Pair2_Dimension,Key,Cue1_Duration,Cue1_Onset,Cue2_Duration,Cue2_Onset,ResponseYes_Duration,ResponseYes_Onset,ResponseNo_Duration,ResponseNo_Onset,ITI_Within,ITI_Between,Image1_Duration,Image1_Onset,Image2_Duration,Image2_Onset,Image3_Duration,Image3_Onset,Image4_Duration,Image4_Onset,Sound1_Duration,Sound1_Onset,Sound2_Duration,Sound2_Onset,Sound3_Duration,Sound3_Onset,Sound4_Duration,Sound4_Onset,Fixation_Duration,trials_2.thisRepN,trials_2.thisTrialN,trials_2.thisN,trials_2.thisIndex,trials.thisRepN,trials.thisTrialN,trials.thisN,trials.thisIndex,text_start.started,key_resp_start.started,key_resp_start.keys,key_resp_start.rt,text2.started,key_resp_2.started,key_resp_2.keys,key_resp_2.rt,cue_file1.started,cue_file1.stopped,image_1.started,image_1.stopped,image_2.started,image_2.stopped,sound_icon1.started,sound_icon1.stopped,sound_1.started,sound_1.stopped,sound_icon2.started,sound_icon2.stopped,sound_2.started,sound_2.stopped,image_blank_1.started,image_blank_1.stopped,key_press.started,key_press.stopped,fixation_text.started,cue_file2.started,cue_file2.stopped,image_3.started,image_3.stopped,image_4.started,image_4.stopped,sound_icon3.started,sound_icon3.stopped,sound_3.started,sound_3.stopped,sound_icon4.started,sound_icon4.stopped,sound_4.started,sound_4.stopped,response_yes.started,response_yes.stopped,response_no.started,response_no.stopped,iti_blank.started,iti_blank.stopped,fixation_text.stopped,key_press.keys,key_press.corr,key_press.rt,participant,session,date,expName,psychopyVersion,frameRate,
,,,,,,,,,,,,,,,,,,,,,,,,,,,,,,,,,,,,,,,,,,,,,,,,,,,,7.277798208000149,7.277798208000149,2,1.642091624999921,,,,,,,,,,,,,,,,,,,,,,,,,,,,,,,,,,,,,,,,,,,,,,,,reldom2_s010,001,2025-02-11_16h00.54.497,Vis-A-Scan_AC,2022.2.5,None,
,,,,,,,,,,,,,,,,,,,,,,,,,,,,,,,,,,,,,,,,,,,,0,0,0,0,,,,,,,,,8.952831999999944,8.952831999999944,5,14.592722166000385,,,,,,,,,,,,,,,,,,,,,,,,,,,,,,,,,,,,,,,,,,,,reldom2_s010,001,2025-02-11_16h00.54.497,Vis-A-Scan_AC,2022.2.5,None,
,,,,,,,,,,,,,,,,,,,,,,,,,,,,,,,,,,,,,,,,,,,,1,0,1,0,,,,,,,,,23.552559540999937,23.552559540999937,5,1.994507958000213,,,,,,,,,,,,,,,,,,,,,,,,,,,,,,,,,,,,,,,,,,,,reldom2_s010,001,2025-02-11_16h00.54.497,Vis-A-Scan_AC,2022.2.5,None,
,,,,,,,,,,,,,,,,,,,,,,,,,,,,,,,,,,,,,,,,,,,,2,0,2,0,,,,,,,,,25.56757616599998,25.56757616599998,5,1.9785661249998157,,,,,,,,,,,,,,,,,,,,,,,,,,,,,,,,,,,,,,,,,,,,reldom2_s010,001,2025-02-11_16h00.54.497,Vis-A-Scan_AC,2022.2.5,None,
,,,,,,,,,,,,,,,,,,,,,,,,,,,,,,,,,,,,,,,,,,,,3,0,3,0,,,,,,,,,27.557388457999878,27.557388457999878,5,1.9878380420000212,,,,,,,,,,,,,,,,,,,,,,,,,,,,,,,,,,,,,,,,,,,,reldom2_s010,001,2025-02-11_16h00.54.497,Vis-A-Scan_AC,2022.2.5,None,
0,0.0,None,fixation,stimulus/viswhat_stim/blank_white.png,stimulus/viswhat_stim/blank_white.png,stimulus/viswhere_stim/blank_white.png,stimulus/viswhere_stim/blank_white.png,stimulus/viswhat_stim/blank_white.png,stimulus/viswhat_stim/blank_white.png,stimulus/viswhat_stim/blank_white.png,stimulus/viswhat_stim/blank_white.png,0.0,0.0,0.0,0.0,0,0.0,0,0.0,0,0.0,0,0.0,0,0.0,0.0,0,0.0,0,0.0,0,0.0,0,0.0,0,0,0,0,0,0,0,0,16,,,,,0,0,0,0,,,,,,,,,29.761578957999973,29.761578957999973,29.761578957999973,29.761578957999973,29.761578957999973,29.761578957999973,29.761578957999973,29.761578957999973,29.659660165999956,29.761578957999973,29.761578957999973,29.761578957999973,29.659660165999956,29.761578957999973,29.761578957999973,29.761578957999973,29.761578957999973,29.761578957999973,29.761578957999973,29.761578957999973,29.761578957999973,29.761578957999973,29.761578957999973,29.761578957999973,29.761578957999973,29.761578957999973,29.761578957999973,29.709660165999956,29.761578957999973,29.761578957999973,29.761578957999973,29.709660165999956,29.761578957999973,29.761578957999973,29.761578957999973,29.761578957999973,29.761578957999973,34.946723999999904,34.946723999999904,46.05615070800013,None,0,,reldom2_s010,001,2025-02-11_16h00.54.497,Vis-A-Scan_AC,2022.2.5,None,
1,First_Order,1.0,viswhat,stimulus/viswhat_stim/blank_white.png,stimulus/viswhat_stim/blank_white.png,stimulus/viswhat_stim/land_animal-moose.png,stimulus/viswhat_stim/water_animal-seaturtle.png,stimulus/viswhat_stim/blank_white.png,stimulus/viswhat_stim/type_box.png,stimulus/viswhat_stim/type_yes.png,stimulus/viswhat_stim/type_no.png,None,Type,None,Type,1,0.0,0,5.125,0,5.125,0,5.125,0,0.0,0.625,0,0.0,0,0.0,1,0.5,1,2.125,0,0,0,0,0,0,0,0,0,,,,,0,1,1,1,,,,,,,,,46.05615070800013,46.05615070800013,46.05615070800013,46.05615070800013,46.05615070800013,46.05615070800013,46.05615070800013,46.05615070800013,45.93988916600019,46.05615070800013,46.05615070800013,46.05615070800013,45.93988916600019,46.05615070800013,46.05615070800013,46.05615070800013,48.116925791000085,,46.05615070800013,46.05615070800013,51.26677066599996,46.507063458000175,47.60429633300009,48.116925791000085,49.215120458,46.05615070800013,46.05615070800013,46.00655583266686,46.05615070800013,46.05615070800013,46.05615070800013,46.00655583266686,46.05615070800013,46.05615070800013,51.26677066599996,46.05615070800013,51.26677066599996,51.26677066599996,52.11475012500023,46.05615070800013,1,1,0.8248382499996296,reldom2_s010,001,2025-02-11_16h00.54.497,Vis-A-Scan_AC,2022.2.5,None,
2,First_Order,1.0,viswhat,stimulus/viswhat_stim/blank_white.png,stimulus/viswhat_stim/blank_white.png,stimulus/viswhat_stim/water_vehicle-submarine.png,stimulus/viswhat_stim/land_vehicle-firetruck.png,stimulus/viswhat_stim/blank_white.png,stimulus/viswhat_stim/type_box.png,stimulus/viswhat_stim/type_yes.png,stimulus/viswhat_stim/type_no.png,None,Type,None,Type,1,0.0,0,5.125,0,5.125,0,5.125,0,0.0,0.625,0,0.0,0,0.0,1,0.5,1,2.125,0,0,0,0,0,0,0,0,0,,,,,0,2,2,2,,,,,,,,,52.11475012500023,52.11475012500023,52.11475012500023,52.11475012500023,52.11475012500023,52.11475012500023,52.11475012500023,52.11475012500023,52.073510082666566,52.11475012500023,52.11475012500023,52.11475012500023,52.073510082666566,52.11475012500023,52.11475012500023,52.11475012500023,54.20184787500011,58.21634787499988,52.11475012500023,52.11475012500023,57.255882375000056,52.60270508299982,53.625500915999964,54.20184787500011,55.21728691599992,52.11475012500023,52.11475012500023,52.09017674933323,52.11475012500023,52.11475012500023,52.11475012500023,52.09017674933323,52.11475012500023,52.11475012500023,57.255882375000056,52.11475012500023,57.255882375000056,57.32770720799999,57.981193500000245,52.11475012500023,1,1,0.50572666700009,reldom2_s010,001,2025-02-11_16h00.54.497,Vis-A-Scan_AC,2022.2.5,None,
3,First_Order,1.0,viswhat,stimulus/viswhat_stim/blank_white.png,stimulus/viswhat_stim/blank_white.png,stimulus/viswhat_stim/water_vehicle-kayak.png,stimulus/viswhat_stim/land_vehicle-vespa.png,stimulus/viswhat_stim/blank_white.png,stimulus/viswhat_stim/location_box.png,stimulus/viswhat_stim/location_yes.png,stimulus/viswhat_stim/location_no.png,None,Location,None,Type,2,0.0,0,5.125,0,5.125,0,5.125,0,0.0,0.625,0,0.0,0,0.0,1,0.5,1,2.125,0,0,0,0,0,0,0,0,0,,,,,0,3,3,3,,,,,,,,,58.21634787499988,58.21634787499988,58.21634787499988,58.21634787499988,58.21634787499988,58.21634787499988,58.21634787499988,58.21634787499988,58.15240624999988,58.21634787499988,58.21634787499988,58.21634787499988,58.15240624999988,58.21634787499988,58.21634787499988,58.21634787499988,60.30493358300009,64.32193479099988,58.21634787499988,58.21634787499988,63.362007665999954,58.67508170800011,59.7217901250001,60.30493358300009,61.35761591600021,58.21634787499988,58.21634787499988,58.18573958333321,58.21634787499988,58.21634787499988,58.21634787499988,58.18573958333321,58.21634787499988,58.21634787499988,63.362007665999954,58.21634787499988,63.362007665999954,63.43256279100024,64.10797124999999,58.21634787499988,2,1,0.6098303329999908,reldom2_s010,001,2025-02-11_16h00.54.497,Vis-A-Scan_AC,2022.2.5,None,
4,First_Order,1.0,viswhat,stimulus/viswhat_stim/blank_white.png,stimulus/viswhat_stim/blank_white.png,stimulus/viswhat_stim/water_vehicle-pirateship.png,stimulus/viswhat_stim/land_vehicle-buldozer.png,stimulus/viswhat_stim/blank_white.png,stimulus/viswhat_stim/location_box.png,stimulus/viswhat_stim/location_yes.png,stimulus/viswhat_stim/location_no.png,None,Location,None,Type,2,0.0,0,5.125,0,5.125,0,5.125,0,0.0,0.625,0,0.0,0,0.0,1,0.5,1,2.125,0,0,0,0,0,0,0,0,0,,,,,0,4,4,4,,,,,,,,,64.32193479099988,64.32193479099988,64.32193479099988,64.32193479099988,64.32193479099988,64.32193479099988,64.32193479099988,64.32193479099988,64.25940062466667,64.32193479099988,64.32193479099988,64.32193479099988,64.25940062466667,64.32193479099988,64.32193479099988,64.32193479099988,66.40317349999987,,64.32193479099988,64.32193479099988,69.47710850000021,64.79165595799986,65.81596679099994,66.40317349999987,67.43654591599989,64.32193479099988,64.32193479099988,64.29273395800001,64.32193479099988,64.32193479099988,64.32193479099988,64.29273395800001,64.32193479099988,64.32193479099988,69.47710850000021,64.32193479099988,69.47710850000021,69.54190987499987,70.19854812499989,64.32193479099988,2,1,0.8150283340000897,reldom2_s010,001,2025-02-11_16h00.54.497,Vis-A-Scan_AC,2022.2.5,None,
0,0.0,None,fixation,stimulus/viswhat_stim/blank_white.png,stimulus/viswhat_stim/blank_white.png,stimulus/viswhere_stim/blank_white.png,stimulus/viswhere_stim/blank_white.png,stimulus/viswhat_stim/blank_white.png,stimulus/viswhat_stim/blank_white.png,stimulus/viswhat_stim/blank_white.png,stimulus/viswhat_stim/blank_white.png,0.0,0.0,0.0,0.0,0,0.0,0,0.0,0,0.0,0,0.0,0,0.0,0.0,0,0.0,0,0.0,0,0.0,0,0.0,0,0,0,0,0,0,0,0,9,,,,,0,5,5,5,,,,,,,,,70.45061137499988,70.45061137499988,70.45061137499988,70.45061137499988,70.45061137499988,70.45061137499988,70.45061137499988,70.45061137499988,70.34754741666653,70.45061137499988,70.45061137499988,70.45061137499988,70.34754741666653,70.45061137499988,70.45061137499988,70.45061137499988,70.45061137499988,70.45061137499988,70.45061137499988,70.45061137499988,70.45061137499988,70.45061137499988,70.45061137499988,70.45061137499988,70.45061137499988,70.45061137499988,70.45061137499988,70.39754741666654,70.45061137499988,70.45061137499988,70.45061137499988,70.39754741666654,70.45061137499988,70.45061137499988,70.45061137499988,70.45061137499988,70.45061137499988,75.66886541600024,75.66886541600024,79.64236687499988,None,0,,reldom2_s010,001,2025-02-11_16h00.54.497,Vis-A-Scan_AC,2022.2.5,None,
5,Second_Order,1.0,viswhat,stimulus/viswhat_stim/water_vehicle-cruiser.png,stimulus/viswhat_stim/land_vehicle-pickuptruck.png,stimulus/viswhat_stim/land_animal-snake.png,stimulus/viswhat_stim/land_vehicle-trolley.png,stimulus/viswhat_stim/match_blank.png,stimulus/viswhat_stim/match_box.png,stimulus/viswhat_stim/match_yes.png,stimulus/viswhat_stim/match_no.png,2.0,Match,Type,Location,2,5.125,0,5.125,0,5.125,0,5.125,0,0.75,0.75,1,0.5,1,2.125,1,0.5,1,2.125,0,0,0,0,0,0,0,0,0,,,,,0,6,6,6,,,,,,,,,79.64236687499988,84.76298195800018,80.07139279100011,81.05896345800011,81.68465479099996,82.67252074999988,79.64236687499988,79.64236687499988,79.64242120833336,79.64236687499988,79.64236687499988,79.64236687499988,79.64242120833336,79.64236687499988,84.76298195800018,85.55104520800023,87.63849654100022,91.55614412500017,85.55104520800023,85.55104520800023,90.68392337500018,86.01818379099996,87.034554458,87.63849654100022,88.66201437500013,85.55104520800023,85.55104520800023,85.52924279133325,85.55104520800023,85.55104520800023,85.55104520800023,85.52924279133325,85.55104520800023,85.55104520800023,90.68392337500018,85.55104520800023,90.68392337500018,90.76603174999991,,85.55104520800023,2,1,0.9335369999998875,reldom2_s010,001,2025-02-11_16h00.54.497,Vis-A-Scan_AC,2022.2.5,None,
6,Second_Order,1.0,viswhat,stimulus/viswhat_stim/land_vehicle-firetruck.png,stimulus/viswhat_stim/land_animal-dog.png,stimulus/viswhat_stim/water_animal-seaturtle.png,stimulus/viswhat_stim/water_vehicle-sailboat.png,stimulus/viswhat_stim/match_blank.png,stimulus/viswhat_stim/match_box.png,stimulus/viswhat_stim/match_yes.png,stimulus/viswhat_stim/match_no.png,1.0,Match,Location,Location,1,5.125,0,5.125,0,5.125,0,5.125,0,0.625,0.625,1,0.5,1,2.125,1,0.5,1,2.125,0,0,0,0,0,0,0,0,0,,,,,0,7,7,7,,,,,,,,,91.55614412500017,96.67173679100006,92.0170977910002,93.00914554100018,93.64994691599986,94.63909312499982,91.55614412500017,91.55614412500017,91.54490204099993,91.55614412500017,91.55614412500017,91.55614412500017,91.54490204099993,91.55614412500017,96.67173679100006,97.40493766600002,99.51004224999997,,97.40493766600002,97.40493766600002,102.59334208300015,97.87600599999996,98.92467191600008,99.51004224999997,100.5608944999999,97.40493766600002,97.40493766600002,97.35565629166655,97.40493766600002,97.40493766600002,97.40493766600002,97.35565629166655,97.40493766600002,97.40493766600002,102.59334208300015,97.40493766600002,102.59334208300015,102.59334208300015,103.27100508300009,97.40493766600002,1,1,1.1870490419996713,reldom2_s010,001,2025-02-11_16h00.54.497,Vis-A-Scan_AC,2022.2.5,None,
0,0.0,None,fixation,stimulus/viswhat_stim/blank_white.png,stimulus/viswhat_stim/blank_white.png,stimulus/viswhere_stim/blank_white.png,stimulus/viswhere_stim/blank_white.png,stimulus/viswhat_stim/blank_white.png,stimulus/viswhat_stim/blank_white.png,stimulus/viswhat_stim/blank_white.png,stimulus/viswhat_stim/blank_white.png,0.0,0.0,0.0,0.0,0,0.0,0,0.0,0,0.0,0,0.0,0,0.0,0.0,0,0.0,0,0.0,0,0.0,0,0.0,0,0,0,0,0,0,0,0,9,,,,,0,8,8,8,,,,,,,,,103.53266720800002,103.53266720800002,103.53266720800002,103.53266720800002,103.53266720800002,103.53266720800002,103.53266720800002,103.53266720800002,103.4210050830001,103.53266720800002,103.53266720800002,103.53266720800002,103.4210050830001,103.53266720800002,103.53266720800002,103.53266720800002,103.53266720800002,103.53266720800002,103.53266720800002,103.53266720800002,103.53266720800002,103.53266720800002,103.53266720800002,103.53266720800002,103.53266720800002,103.53266720800002,103.53266720800002,103.48767174966676,103.53266720800002,103.53266720800002,103.53266720800002,103.48767174966676,103.53266720800002,103.53266720800002,103.53266720800002,103.53266720800002,103.53266720800002,108.74409375000005,108.74409375000005,112.82976516600002,None,0,,reldom2_s010,001,2025-02-11_16h00.54.497,Vis-A-Scan_AC,2022.2.5,None,
7,First_Order,2.0,viswhat,stimulus/viswhat_stim/blank_white.png,stimulus/viswhat_stim/blank_white.png,stimulus/viswhat_stim/water_vehicle-ship.png,stimulus/viswhat_stim/water_animal-stingray.png,stimulus/viswhat_stim/blank_white.png,stimulus/viswhat_stim/type_box.png,stimulus/viswhat_stim/type_yes.png,stimulus/viswhat_stim/type_no.png,None,Type,None,Location,2,0.0,0,5.125,0,5.125,0,5.125,0,0.0,0.625,0,0.0,0,0.0,1,0.5,1,2.125,0,0,0,0,0,0,0,0,0,,,,,0,9,9,9,,,,,,,,,112.82976516600002,112.82976516600002,112.82976516600002,112.82976516600002,112.82976516600002,112.82976516600002,112.82976516600002,112.82976516600002,112.72552995766652,112.82976516600002,112.82976516600002,112.82976516600002,112.72552995766652,112.82976516600002,112.82976516600002,112.82976516600002,114.89755312499983,118.90420945799997,112.82976516600002,112.82976516600002,118.05010579100008,113.31763187500019,114.41274408300023,114.89755312499983,115.99162641600014,112.82976516600002,112.82976516600002,112.77552995766652,112.82976516600002,112.82976516600002,112.82976516600002,112.77552995766652,112.82976516600002,112.82976516600002,118.05010579100008,112.82976516600002,118.05010579100008,118.05010579100008,118.90420945799997,112.82976516600002,2,1,3.1700817500000085,reldom2_s010,001,2025-02-11_16h00.54.497,Vis-A-Scan_AC,2022.2.5,None,
8,First_Order,2.0,viswhat,stimulus/viswhat_stim/blank_white.png,stimulus/viswhat_stim/blank_white.png,stimulus/viswhat_stim/land_vehicle-train.png,stimulus/viswhat_stim/land_animal-fox.png,stimulus/viswhat_stim/blank_white.png,stimulus/viswhat_stim/type_box.png,stimulus/viswhat_stim/type_yes.png,stimulus/viswhat_stim/type_no.png,None,Type,None,Location,2,0.0,0,5.125,0,5.125,0,5.125,0,0.0,0.625,0,0.0,0,0.0,1,0.5,1,2.125,0,0,0,0,0,0,0,0,0,,,,,0,10,10,10,,,,,,,,,118.90420945799997,118.90420945799997,118.90420945799997,118.90420945799997,118.90420945799997,118.90420945799997,118.90420945799997,118.90420945799997,118.87651404166688,118.90420945799997,118.90420945799997,118.90420945799997,118.87651404166688,118.90420945799997,118.90420945799997,118.90420945799997,121.01606533299991,125.02148045800004,118.90420945799997,118.90420945799997,124.03117429099984,119.37861691599983,120.41163237499995,121.01606533299991,122.02805070800014,118.90420945799997,118.90420945799997,118.87651404166688,118.90420945799997,118.90420945799997,118.90420945799997,118.87651404166688,118.90420945799997,118.90420945799997,124.03117429099984,118.90420945799997,124.03117429099984,124.12910320799983,124.76581208300013,118.90420945799997,2,1,0.5383464590004223,reldom2_s010,001,2025-02-11_16h00.54.497,Vis-A-Scan_AC,2022.2.5,None,
9,First_Order,2.0,viswhat,stimulus/viswhat_stim/blank_white.png,stimulus/viswhat_stim/blank_white.png,stimulus/viswhat_stim/land_animal-lion.png,stimulus/viswhat_stim/land_vehicle-bus.png,stimulus/viswhat_stim/blank_white.png,stimulus/viswhat_stim/location_box.png,stimulus/viswhat_stim/location_yes.png,stimulus/viswhat_stim/location_no.png,None,Location,None,Location,1,0.0,0,5.125,0,5.125,0,5.125,0,0.0,0.625,0,0.0,0,0.0,1,0.5,1,2.125,0,0,0,0,0,0,0,0,0,,,,,0,11,11,11,,,,,,,,,125.02148045800004,125.02148045800004,125.02148045800004,125.02148045800004,125.02148045800004,125.02148045800004,125.02148045800004,125.02148045800004,124.94720754133353,125.02148045800004,125.02148045800004,125.02148045800004,124.94720754133353,125.02148045800004,125.02148045800004,125.02148045800004,127.10789083300006,131.18687150000005,125.02148045800004,125.02148045800004,130.1977704159999,125.49790708299997,126.54617979100021,127.10789083300006,128.16215416600016,125.02148045800004,125.02148045800004,124.98054087466686,125.02148045800004,125.02148045800004,125.02148045800004,124.98054087466686,125.02148045800004,125.02148045800004,130.1977704159999,125.02148045800004,130.1977704159999,130.23406404100024,130.89525249999997,125.02148045800004,1,1,0.6280782910002927,reldom2_s010,001,2025-02-11_16h00.54.497,Vis-A-Scan_AC,2022.2.5,None,
10,First_Order,2.0,viswhat,stimulus/viswhat_stim/blank_white.png,stimulus/viswhat_stim/blank_white.png,stimulus/viswhat_stim/land_animal-elephant.png,stimulus/viswhat_stim/land_vehicle-motorcycle.png,stimulus/viswhat_stim/blank_white.png,stimulus/viswhat_stim/location_box.png,stimulus/viswhat_stim/location_yes.png,stimulus/viswhat_stim/location_no.png,None,Location,None,Location,1,0.0,0,5.125,0,5.125,0,5.125,0,0.0,0.625,0,0.0,0,0.0,1,0.5,1,2.125,0,0,0,0,0,0,0,0,0,,,,,0,12,12,12,,,,,,,,,131.18687150000005,131.18687150000005,131.18687150000005,131.18687150000005,131.18687150000005,131.18687150000005,131.18687150000005,131.18687150000005,131.04827791666673,131.18687150000005,131.18687150000005,131.18687150000005,131.04827791666673,131.18687150000005,131.18687150000005,131.18687150000005,133.2935155,,131.18687150000005,131.18687150000005,136.41359525000007,131.62191250000024,132.71286816600013,133.2935155,134.38996312500012,131.18687150000005,131.18687150000005,131.1149445833334,131.18687150000005,131.18687150000005,131.18687150000005,131.1149445833334,131.18687150000005,131.18687150000005,136.41359525000007,131.18687150000005,136.41359525000007,136.41359525000007,,131.18687150000005,1,1,0.5976085000002058,reldom2_s010,001,2025-02-11_16h00.54.497,Vis-A-Scan_AC,2022.2.5,None,
0,0.0,None,fixation,stimulus/viswhat_stim/blank_white.png,stimulus/viswhat_stim/blank_white.png,stimulus/viswhere_stim/blank_white.png,stimulus/viswhere_stim/blank_white.png,stimulus/viswhat_stim/blank_white.png,stimulus/viswhat_stim/blank_white.png,stimulus/viswhat_stim/blank_white.png,stimulus/viswhat_stim/blank_white.png,0.0,0.0,0.0,0.0,0,0.0,0,0.0,0,0.0,0,0.0,0,0.0,0.0,0,0.0,0,0.0,0,0.0,0,0.0,0,0,0,0,0,0,0,0,10,,,,,0,13,13,13,,,,,,,,,137.2973824999999,137.2973824999999,137.2973824999999,137.2973824999999,137.2973824999999,137.2973824999999,137.2973824999999,137.2973824999999,137.19315724933352,137.2973824999999,137.2973824999999,137.2973824999999,137.19315724933352,137.2973824999999,137.2973824999999,137.2973824999999,137.2973824999999,137.2973824999999,137.2973824999999,137.2973824999999,137.2973824999999,137.2973824999999,137.2973824999999,137.2973824999999,137.2973824999999,137.2973824999999,137.2973824999999,137.24315724933354,137.2973824999999,137.2973824999999,137.2973824999999,137.24315724933354,137.2973824999999,137.2973824999999,137.2973824999999,137.2973824999999,137.2973824999999,142.5136439160001,142.5136439160001,147.4626388329998,None,0,,reldom2_s010,001,2025-02-11_16h00.54.497,Vis-A-Scan_AC,2022.2.5,None,
11,Second_Order,2.0,viswhat,stimulus/viswhat_stim/water_vehicle-cabincruiser.png,stimulus/viswhat_stim/land_vehicle-scooter.png,stimulus/viswhat_stim/land_animal-giraffe.png,stimulus/viswhat_stim/water_animal-squid.png,stimulus/viswhat_stim/match_blank.png,stimulus/viswhat_stim/match_box.png,stimulus/viswhat_stim/match_yes.png,stimulus/viswhat_stim/match_no.png,1.0,Match,Type,Type,1,5.125,0,5.125,0,5.125,0,5.125,0,0.75,0.75,1,0.5,1,2.125,1,0.5,1,2.125,0,0,0,0,0,0,0,0,0,,,,,0,14,14,14,,,,,,,,,147.4626388329998,152.57889591599996,147.92554495800005,148.91244499999993,149.55005879100008,150.53731212499997,147.4626388329998,147.4626388329998,147.47025966599986,147.4626388329998,147.4626388329998,147.4626388329998,147.47025966599986,147.4626388329998,152.57889591599996,153.44720400000006,155.5055372500001,,153.44720400000006,153.44720400000006,158.64073870799984,153.8729065829998,154.9624127080001,155.5055372500001,156.59784529099989,153.44720400000006,153.44720400000006,153.39178041666682,153.44720400000006,153.44720400000006,153.44720400000006,153.39178041666682,153.44720400000006,153.44720400000006,158.64073870799984,153.44720400000006,158.64073870799984,158.64073870799984,,153.44720400000006,1,1,0.4933572079999067,reldom2_s010,001,2025-02-11_16h00.54.497,Vis-A-Scan_AC,2022.2.5,None,
12,Second_Order,2.0,viswhat,stimulus/viswhat_stim/land_animal-bunny.png,stimulus/viswhat_stim/land_vehicle-shortbus.png,stimulus/viswhat_stim/water_vehicle-sailboat.png,stimulus/viswhat_stim/water_animal-whale.png,stimulus/viswhat_stim/match_blank.png,stimulus/viswhat_stim/match_box.png,stimulus/viswhat_stim/match_yes.png,stimulus/viswhat_stim/match_no.png,1.0,Match,Location,Location,1,5.125,0,5.125,0,5.125,0,5.125,0,0.625,0.625,1,0.5,1,2.125,1,0.5,1,2.125,0,0,0,0,0,0,0,0,0,,,,,0,15,15,15,,,,,,,,,159.437497291,164.5505189999999,159.88337758299986,160.87879216600004,161.49637095800017,162.4848202080002,159.437497291,159.437497291,159.43507391599988,159.437497291,159.437497291,159.437497291,159.43507391599988,159.437497291,164.5505189999999,165.27435245800007,167.35871345800024,,165.27435245800007,165.27435245800007,170.4616257910002,165.7393645000002,166.78062108299991,167.35871345800024,168.40577058300005,165.27435245800007,165.27435245800007,165.2251727916665,165.27435245800007,165.27435245800007,165.27435245800007,165.2251727916665,165.27435245800007,165.27435245800007,170.4616257910002,165.27435245800007,170.4616257910002,170.4616257910002,171.12262379100002,165.27435245800007,1,1,0.4815428750002866,reldom2_s010,001,2025-02-11_16h00.54.497,Vis-A-Scan_AC,2022.2.5,None,
0,0.0,None,fixation,stimulus/viswhat_stim/blank_white.png,stimulus/viswhat_stim/blank_white.png,stimulus/viswhere_stim/blank_white.png,stimulus/viswhere_stim/blank_white.png,stimulus/viswhat_stim/blank_white.png,stimulus/viswhat_stim/blank_white.png,stimulus/viswhat_stim/blank_white.png,stimulus/viswhat_stim/blank_white.png,0.0,0.0,0.0,0.0,0,0.0,0,0.0,0,0.0,0,0.0,0,0.0,0.0,0,0.0,0,0.0,0,0.0,0,0.0,0,0,0,0,0,0,0,0,9,,,,,0,16,16,16,,,,,,,,,171.3871684159999,171.3871684159999,171.3871684159999,171.3871684159999,171.3871684159999,171.3871684159999,171.3871684159999,171.3871684159999,171.27262379100003,171.3871684159999,171.3871684159999,171.3871684159999,171.27262379100003,171.3871684159999,171.3871684159999,171.3871684159999,171.3871684159999,171.3871684159999,171.3871684159999,171.3871684159999,171.3871684159999,171.3871684159999,171.3871684159999,171.3871684159999,171.3871684159999,171.3871684159999,171.3871684159999,171.3392904576667,171.3871684159999,171.3871684159999,171.3871684159999,171.3392904576667,171.3871684159999,171.3871684159999,171.3871684159999,171.3871684159999,171.3871684159999,176.60281970799997,176.60281970799997,180.56917275000023,None,0,,reldom2_s010,001,2025-02-11_16h00.54.497,Vis-A-Scan_AC,2022.2.5,None,
13,First_Order,3.0,viswhere,stimulus/viswhere_stim/blank_white.png,stimulus/viswhere_stim/blank_white.png,stimulus/viswhere_stim/90-deg_dot-left_slateblue.png,stimulus/viswhere_stim/120-deg_dot-left_slateblue.png,stimulus/viswhere_stim/blank_white.png,stimulus/viswhere_stim/dot_box.png,stimulus/viswhere_stim/dot_yes.png,stimulus/viswhere_stim/dot_no.png,None,Dot,None,Dot,1,0.0,0,5.125,0,5.125,0,5.125,0,0.0,0.625,0,0.0,0,0.0,1,0.5,1,2.125,0,0,0,0,0,0,0,0,0,,,,,0,17,17,17,,,,,,,,,180.56917275000023,180.56917275000023,180.56917275000023,180.56917275000023,180.56917275000023,180.56917275000023,180.56917275000023,180.56917275000023,180.53979216666693,180.56917275000023,180.56917275000023,180.56917275000023,180.53979216666693,180.56917275000023,180.56917275000023,180.56917275000023,182.68005774999983,186.63498800000025,180.56917275000023,180.56917275000023,185.71642491600005,181.04350954099982,182.06595345799997,182.68005774999983,183.6896871660001,180.56917275000023,180.56917275000023,180.55645883333358,180.56917275000023,180.56917275000023,180.56917275000023,180.55645883333358,180.56917275000023,180.56917275000023,185.71642491600005,180.56917275000023,185.71642491600005,185.78425000000016,186.42360341599988,180.56917275000023,1,1,0.7925435420002032,reldom2_s010,001,2025-02-11_16h00.54.497,Vis-A-Scan_AC,2022.2.5,None,
14,First_Order,3.0,viswhere,stimulus/viswhere_stim/blank_white.png,stimulus/viswhere_stim/blank_white.png,stimulus/viswhere_stim/30-deg_dot-left_royalblue.png,stimulus/viswhere_stim/30-deg_dot-right_peru.png,stimulus/viswhere_stim/blank_white.png,stimulus/viswhere_stim/dot_box.png,stimulus/viswhere_stim/dot_yes.png,stimulus/viswhere_stim/dot_no.png,None,Dot,None,Line,2,0.0,0,5.125,0,5.125,0,5.125,0,0.0,0.625,0,0.0,0,0.0,1,0.5,1,2.125,0,0,0,0,0,0,0,0,0,,,,,0,18,18,18,,,,,,,,,186.63498800000025,186.63498800000025,186.63498800000025,186.63498800000025,186.63498800000025,186.63498800000025,186.63498800000025,186.63498800000025,186.60793920833325,186.63498800000025,186.63498800000025,186.63498800000025,186.60793920833325,186.63498800000025,186.63498800000025,186.63498800000025,188.7461401659998,192.7018491660001,186.63498800000025,186.63498800000025,191.78007179099995,187.13006750000022,188.15705783300018,188.7461401659998,189.7747885409999,186.63498800000025,186.63498800000025,186.62460587499993,186.63498800000025,186.63498800000025,186.63498800000025,186.62460587499993,186.63498800000025,186.63498800000025,191.78007179099995,186.63498800000025,191.78007179099995,191.8652515409999,192.50575408299983,186.63498800000025,2,1,0.6937851249999767,reldom2_s010,001,2025-02-11_16h00.54.497,Vis-A-Scan_AC,2022.2.5,None,
15,First_Order,3.0,viswhere,stimulus/viswhere_stim/blank_white.png,stimulus/viswhere_stim/blank_white.png,stimulus/viswhere_stim/150-deg_dot-right_turquoise.png,stimulus/viswhere_stim/150-deg_dot-left_cyan.png,stimulus/viswhere_stim/blank_white.png,stimulus/viswhere_stim/line_box.png,stimulus/viswhere_stim/line_yes.png,stimulus/viswhere_stim/line_no.png,None,Line,None,Line,1,0.0,0,5.125,0,5.125,0,5.125,0,0.0,0.625,0,0.0,0,0.0,1,0.5,1,2.125,0,0,0,0,0,0,0,0,0,,,,,0,19,19,19,,,,,,,,,192.7018491660001,192.7018491660001,192.7018491660001,192.7018491660001,192.7018491660001,192.7018491660001,192.7018491660001,192.7018491660001,192.67315524933323,192.7018491660001,192.7018491660001,192.7018491660001,192.67315524933323,192.7018491660001,192.7018491660001,192.7018491660001,194.81320258300002,198.76927320799996,192.7018491660001,192.7018491660001,197.8351576660002,193.18242262500007,194.19378108299998,194.81320258300002,195.82649145799996,192.7018491660001,192.7018491660001,192.68982191599991,192.7018491660001,192.7018491660001,192.7018491660001,192.68982191599991,192.7018491660001,192.7018491660001,197.8351576660002,192.7018491660001,197.8351576660002,197.92154662500025,198.55587354099998,192.7018491660001,1,1,1.0936468749996493,reldom2_s010,001,2025-02-11_16h00.54.497,Vis-A-Scan_AC,2022.2.5,None,
16,First_Order,3.0,viswhere,stimulus/viswhere_stim/blank_white.png,stimulus/viswhere_stim/blank_white.png,stimulus/viswhere_stim/120-deg_dot-right_mediumslateblue.png,stimulus/viswhere_stim/150-deg_dot-right_royalblue.png,stimulus/viswhere_stim/blank_white.png,stimulus/viswhere_stim/line_box.png,stimulus/viswhere_stim/line_yes.png,stimulus/viswhere_stim/line_no.png,None,Line,None,Dot,2,0.0,0,5.125,0,5.125,0,5.125,0,0.0,0.625,0,0.0,0,0.0,1,0.5,1,2.125,0,0,0,0,0,0,0,0,0,,,,,0,20,20,20,,,,,,,,,198.76927320799996,198.76927320799996,198.76927320799996,198.76927320799996,198.76927320799996,198.76927320799996,198.76927320799996,198.76927320799996,198.7412088743334,198.76927320799996,198.76927320799996,198.76927320799996,198.7412088743334,198.76927320799996,198.76927320799996,198.76927320799996,200.8897260409999,204.91530724999984,198.76927320799996,198.76927320799996,203.89508054099997,199.24463712499983,200.25087033299997,200.8897260409999,201.9002716250002,198.76927320799996,198.76927320799996,198.7578755410001,198.76927320799996,198.76927320799996,198.76927320799996,198.7578755410001,198.76927320799996,198.76927320799996,203.89508054099997,198.76927320799996,203.89508054099997,203.99771575000022,204.62306466600012,198.76927320799996,2,1,0.7670673749998969,reldom2_s010,001,2025-02-11_16h00.54.497,Vis-A-Scan_AC,2022.2.5,None,
0,0.0,None,fixation,stimulus/viswhat_stim/blank_white.png,stimulus/viswhat_stim/blank_white.png,stimulus/viswhere_stim/blank_white.png,stimulus/viswhere_stim/blank_white.png,stimulus/viswhat_stim/blank_white.png,stimulus/viswhat_stim/blank_white.png,stimulus/viswhat_stim/blank_white.png,stimulus/viswhat_stim/blank_white.png,0.0,0.0,0.0,0.0,0,0.0,0,0.0,0,0.0,0,0.0,0,0.0,0.0,0,0.0,0,0.0,0,0.0,0,0.0,0,0,0,0,0,0,0,0,8,,,,,0,21,21,21,,,,,,,,,204.91530724999984,204.91530724999984,204.91530724999984,204.91530724999984,204.91530724999984,204.91530724999984,204.91530724999984,204.91530724999984,204.8077474993332,204.91530724999984,204.91530724999984,204.91530724999984,204.8077474993332,204.91530724999984,204.91530724999984,204.91530724999984,204.91530724999984,204.91530724999984,204.91530724999984,204.91530724999984,204.91530724999984,204.91530724999984,204.91530724999984,204.91530724999984,204.91530724999984,204.91530724999984,204.91530724999984,204.85774749933321,204.91530724999984,204.91530724999984,204.91530724999984,204.85774749933321,204.91530724999984,204.91530724999984,204.91530724999984,204.91530724999984,204.91530724999984,210.131712375,210.131712375,213.04078970799992,None,0,,reldom2_s010,001,2025-02-11_16h00.54.497,Vis-A-Scan_AC,2022.2.5,None,
17,Second_Order,3.0,viswhere,stimulus/viswhere_stim/60-deg_dot-right_seagreen.png,stimulus/viswhere_stim/150-deg_dot-right_seagreen.png,stimulus/viswhere_stim/90-deg_dot-right_salmon.png,stimulus/viswhere_stim/90-deg_dot-left_seagreen.png,stimulus/viswhat_stim/match_blank.png,stimulus/viswhat_stim/match_box.png,stimulus/viswhat_stim/match_yes.png,stimulus/viswhat_stim/match_no.png,2.0,Match,Dot,Line,2,5.125,0,5.125,0,5.125,0,5.125,0,0.75,0.75,1,0.5,1,2.125,1,0.5,1,2.125,0,0,0,0,0,0,0,0,0,,,,,0,22,22,22,,,,,,,,,213.04078970799992,218.15840341600006,213.5090606660001,214.5044137499999,215.14573929100015,216.14099108300024,213.04078970799992,213.04078970799992,213.04778095833322,213.04078970799992,213.04078970799992,213.04078970799992,213.04778095833322,213.04078970799992,218.15840341600006,218.93825724999988,221.0436369160002,224.93005333300016,218.93825724999988,218.93825724999988,224.06985987500002,219.41649675000008,220.4259735830001,221.0436369160002,222.057673583,218.93825724999988,218.93825724999988,218.9249081243334,218.93825724999988,218.93825724999988,218.93825724999988,218.9249081243334,218.93825724999988,218.93825724999988,224.06985987500002,218.93825724999988,224.06985987500002,224.1551488330001,224.93005333300016,218.93825724999988,2,1,2.5573902920000364,reldom2_s010,001,2025-02-11_16h00.54.497,Vis-A-Scan_AC,2022.2.5,None,
18,Second_Order,3.0,viswhere,stimulus/viswhere_stim/150-deg_dot-right_goldenrod.png,stimulus/viswhere_stim/150-deg_dot-left_cyan.png,stimulus/viswhere_stim/120-deg_dot-left_royalblue.png,stimulus/viswhere_stim/60-deg_dot-left_royalblue.png,stimulus/viswhat_stim/match_blank.png,stimulus/viswhat_stim/match_box.png,stimulus/viswhat_stim/match_yes.png,stimulus/viswhat_stim/match_no.png,2.0,Match,Line,Dot,2,5.125,0,5.125,0,5.125,0,5.125,0,0.625,0.625,1,0.5,1,2.125,1,0.5,1,2.125,0,0,0,0,0,0,0,0,0,,,,,0,23,23,23,,,,,,,,,224.93005333300016,230.05305558300006,225.41222000000016,226.39967504100014,227.02990408300002,228.02829974999986,224.93005333300016,224.93005333300016,224.9377312079999,224.93005333300016,224.93005333300016,224.93005333300016,224.9377312079999,224.93005333300016,230.05305558300006,230.70578858299996,232.80960908299994,236.8427741659998,230.70578858299996,230.70578858299996,235.83782395800017,231.18395770799998,232.1916582079998,232.80960908299994,233.82078762499987,230.70578858299996,230.70578858299996,230.67945220766686,230.70578858299996,230.70578858299996,230.70578858299996,230.67945220766686,230.70578858299996,230.70578858299996,235.83782395800017,230.70578858299996,235.83782395800017,235.92313212499994,236.5485927079999,230.70578858299996,2,1,2.0023069590001796,reldom2_s010,001,2025-02-11_16h00.54.497,Vis-A-Scan_AC,2022.2.5,None,
0,0.0,None,fixation,stimulus/viswhat_stim/blank_white.png,stimulus/viswhat_stim/blank_white.png,stimulus/viswhere_stim/blank_white.png,stimulus/viswhere_stim/blank_white.png,stimulus/viswhat_stim/blank_white.png,stimulus/viswhat_stim/blank_white.png,stimulus/viswhat_stim/blank_white.png,stimulus/viswhat_stim/blank_white.png,0.0,0.0,0.0,0.0,0,0.0,0,0.0,0,0.0,0,0.0,0,0.0,0.0,0,0.0,0,0.0,0,0.0,0,0.0,0,0,0,0,0,0,0,0,10,,,,,0,24,24,24,,,,,,,,,236.8427741659998,236.8427741659998,236.8427741659998,236.8427741659998,236.8427741659998,236.8427741659998,236.8427741659998,236.8427741659998,236.7335924583334,236.8427741659998,236.8427741659998,236.8427741659998,236.7335924583334,236.8427741659998,236.8427741659998,236.8427741659998,236.8427741659998,236.8427741659998,236.8427741659998,236.8427741659998,236.8427741659998,236.8427741659998,236.8427741659998,236.8427741659998,236.8427741659998,236.8427741659998,236.8427741659998,236.80025912500005,236.8427741659998,236.8427741659998,236.8427741659998,236.80025912500005,236.8427741659998,236.8427741659998,236.8427741659998,236.8427741659998,236.8427741659998,242.07242962500004,242.07242962500004,247.03037862500014,None,0,,reldom2_s010,001,2025-02-11_16h00.54.497,Vis-A-Scan_AC,2022.2.5,None,
19,First_Order,4.0,viswhere,stimulus/viswhere_stim/blank_white.png,stimulus/viswhere_stim/blank_white.png,stimulus/viswhere_stim/90-deg_dot-right_royalblue.png,stimulus/viswhere_stim/120-deg_dot-right_goldenrod.png,stimulus/viswhere_stim/blank_white.png,stimulus/viswhere_stim/dot_box.png,stimulus/viswhere_stim/dot_yes.png,stimulus/viswhere_stim/dot_no.png,None,Dot,None,Dot,1,0.0,0,5.125,0,5.125,0,5.125,0,0.0,0.625,0,0.0,0,0.0,1,0.5,1,2.125,0,0,0,0,0,0,0,0,0,,,,,0,25,25,25,,,,,,,,,247.03037862500014,247.03037862500014,247.03037862500014,247.03037862500014,247.03037862500014,247.03037862500014,247.03037862500014,247.03037862500014,246.9990329996669,247.03037862500014,247.03037862500014,247.03037862500014,246.9990329996669,247.03037862500014,247.03037862500014,247.03037862500014,249.14692487499997,253.09890995800015,247.03037862500014,247.03037862500014,252.15847758300015,247.50544958299997,248.53288779100012,249.14692487499997,250.17206741600012,247.03037862500014,247.03037862500014,247.01569966633355,247.03037862500014,247.03037862500014,247.03037862500014,247.01569966633355,247.03037862500014,247.03037862500014,252.15847758300015,247.03037862500014,252.15847758300015,252.2453525410001,252.88544600000023,247.03037862500014,1,1,1.117692833000092,reldom2_s010,001,2025-02-11_16h00.54.497,Vis-A-Scan_AC,2022.2.5,None,
20,First_Order,4.0,viswhere,stimulus/viswhere_stim/blank_white.png,stimulus/viswhere_stim/blank_white.png,stimulus/viswhere_stim/90-deg_dot-left_peru.png,stimulus/viswhere_stim/90-deg_dot-right_royalblue.png,stimulus/viswhere_stim/blank_white.png,stimulus/viswhere_stim/dot_box.png,stimulus/viswhere_stim/dot_yes.png,stimulus/viswhere_stim/dot_no.png,None,Dot,None,Line,2,0.0,0,5.125,0,5.125,0,5.125,0,0.0,0.625,0,0.0,0,0.0,1,0.5,1,2.125,0,0,0,0,0,0,0,0,0,,,,,0,26,26,26,,,,,,,,,253.09890995800015,253.09890995800015,253.09890995800015,253.09890995800015,253.09890995800015,253.09890995800015,253.09890995800015,253.09890995800015,253.0695157493336,253.09890995800015,253.09890995800015,253.09890995800015,253.0695157493336,253.09890995800015,253.09890995800015,253.09890995800015,255.21164966600008,259.1689815,253.09890995800015,253.09890995800015,258.23753208300013,253.5748560830002,254.59954445799985,255.21164966600008,256.22186329099986,253.09890995800015,253.09890995800015,253.08618241600027,253.09890995800015,253.09890995800015,253.09890995800015,253.08618241600027,253.09890995800015,253.09890995800015,258.23753208300013,253.09890995800015,258.23753208300013,258.322573166,258.9568979159999,253.09890995800015,2,1,0.616443917000197,reldom2_s010,001,2025-02-11_16h00.54.497,Vis-A-Scan_AC,2022.2.5,None,
21,First_Order,4.0,viswhere,stimulus/viswhere_stim/blank_white.png,stimulus/viswhere_stim/blank_white.png,stimulus/viswhere_stim/120-deg_dot-left_cyan.png,stimulus/viswhere_stim/150-deg_dot-left_seagreen.png,stimulus/viswhere_stim/blank_white.png,stimulus/viswhere_stim/line_box.png,stimulus/viswhere_stim/line_yes.png,stimulus/viswhere_stim/line_no.png,None,Line,None,Dot,2,0.0,0,5.125,0,5.125,0,5.125,0,0.0,0.625,0,0.0,0,0.0,1,0.5,1,2.125,0,0,0,0,0,0,0,0,0,,,,,0,27,27,27,,,,,,,,,259.1689815,259.1689815,259.1689815,259.1689815,259.1689815,259.1689815,259.1689815,259.1689815,259.14108487433333,259.1689815,259.1689815,259.1689815,259.14108487433333,259.1689815,259.1689815,259.1689815,261.2895431249999,265.23444933300016,259.1689815,259.1689815,264.3086942499999,259.6479732910002,260.6743487499998,261.2895431249999,262.3003114580001,259.1689815,259.1689815,259.157751541,259.1689815,259.1689815,259.1689815,259.157751541,259.1689815,259.1689815,264.3086942499999,259.1689815,264.3086942499999,264.39399920799997,265.02080987499994,259.1689815,2,1,1.1886198749998584,reldom2_s010,001,2025-02-11_16h00.54.497,Vis-A-Scan_AC,2022.2.5,None,
22,First_Order,4.0,viswhere,stimulus/viswhere_stim/blank_white.png,stimulus/viswhere_stim/blank_white.png,stimulus/viswhere_stim/150-deg_dot-right_seagreen.png,stimulus/viswhere_stim/150-deg_dot-left_slateblue.png,stimulus/viswhere_stim/blank_white.png,stimulus/viswhere_stim/line_box.png,stimulus/viswhere_stim/line_yes.png,stimulus/viswhere_stim/line_no.png,None,Line,None,Line,1,0.0,0,5.125,0,5.125,0,5.125,0,0.0,0.625,0,0.0,0,0.0,1,0.5,1,2.125,0,0,0,0,0,0,0,0,0,,,,,0,28,28,28,,,,,,,,,265.23444933300016,265.23444933300016,265.23444933300016,265.23444933300016,265.23444933300016,265.23444933300016,265.23444933300016,265.23444933300016,265.2061012913335,265.23444933300016,265.23444933300016,265.23444933300016,265.2061012913335,265.23444933300016,265.23444933300016,265.23444933300016,267.34241795800017,271.3748982080001,265.23444933300016,265.23444933300016,270.366626,265.7131730000001,266.720664125,267.34241795800017,268.35890874999996,265.23444933300016,265.23444933300016,265.22276795800013,265.23444933300016,265.23444933300016,265.23444933300016,265.22276795800013,265.23444933300016,265.23444933300016,270.366626,265.23444933300016,270.366626,270.45260316600024,271.0817995000002,265.23444933300016,1,1,1.0625406670001212,reldom2_s010,001,2025-02-11_16h00.54.497,Vis-A-Scan_AC,2022.2.5,None,
0,0.0,None,fixation,stimulus/viswhat_stim/blank_white.png,stimulus/viswhat_stim/blank_white.png,stimulus/viswhere_stim/blank_white.png,stimulus/viswhere_stim/blank_white.png,stimulus/viswhat_stim/blank_white.png,stimulus/viswhat_stim/blank_white.png,stimulus/viswhat_stim/blank_white.png,stimulus/viswhat_stim/blank_white.png,0.0,0.0,0.0,0.0,0,0.0,0,0.0,0,0.0,0,0.0,0,0.0,0.0,0,0.0,0,0.0,0,0.0,0,0.0,0,0,0,0,0,0,0,0,9,,,,,0,29,29,29,,,,,,,,,271.3748982080001,271.3748982080001,271.3748982080001,271.3748982080001,271.3748982080001,271.3748982080001,271.3748982080001,271.3748982080001,271.2677837083332,271.3748982080001,271.3748982080001,271.3748982080001,271.2677837083332,271.3748982080001,271.3748982080001,271.3748982080001,271.3748982080001,271.3748982080001,271.3748982080001,271.3748982080001,271.3748982080001,271.3748982080001,271.3748982080001,271.3748982080001,271.3748982080001,271.3748982080001,271.3748982080001,271.3177837083332,271.3748982080001,271.3748982080001,271.3748982080001,271.3177837083332,271.3748982080001,271.3748982080001,271.3748982080001,271.3748982080001,271.3748982080001,276.59594291600024,276.59594291600024,280.49399812499996,None,0,,reldom2_s010,001,2025-02-11_16h00.54.497,Vis-A-Scan_AC,2022.2.5,None,
23,Second_Order,4.0,viswhere,stimulus/viswhere_stim/90-deg_dot-right_salmon.png,stimulus/viswhere_stim/150-deg_dot-right_seagreen.png,stimulus/viswhere_stim/150-deg_dot-right_mediumslateblue.png,stimulus/viswhere_stim/150-deg_dot-left_lightsseagreen.png,stimulus/viswhat_stim/match_blank.png,stimulus/viswhat_stim/match_box.png,stimulus/viswhat_stim/match_yes.png,stimulus/viswhat_stim/match_no.png,2.0,Match,Dot,Line,2,5.125,0,5.125,0,5.125,0,5.125,0,0.75,0.75,1,0.5,1,2.125,1,0.5,1,2.125,0,0,0,0,0,0,0,0,0,,,,,0,30,30,30,,,,,,,,,280.49399812499996,285.60830354100017,280.9720470000002,281.969972375,282.59599337500003,283.5954691249999,280.49399812499996,280.49399812499996,280.50100816633324,280.49399812499996,280.49399812499996,280.49399812499996,280.50100816633324,280.49399812499996,285.60830354100017,286.39688187499996,288.4988001659999,292.39009424999995,286.39688187499996,286.39688187499996,291.53453379099983,286.8778882910001,287.8974458749999,288.4988001659999,289.5157165830001,286.39688187499996,286.39688187499996,286.3821903743333,286.39688187499996,286.39688187499996,286.39688187499996,286.3821903743333,286.39688187499996,286.39688187499996,291.53453379099983,286.39688187499996,291.53453379099983,291.60562500000015,292.39009424999995,286.39688187499996,2,1,1.1194364170000881,reldom2_s010,001,2025-02-11_16h00.54.497,Vis-A-Scan_AC,2022.2.5,None,
24,Second_Order,4.0,viswhere,stimulus/viswhere_stim/90-deg_dot-left_cyan.png,stimulus/viswhere_stim/60-deg_dot-left_slateblue.png,stimulus/viswhere_stim/120-deg_dot-right_goldenrod.png,stimulus/viswhere_stim/90-deg_dot-right_seagreen.png,stimulus/viswhat_stim/match_blank.png,stimulus/viswhat_stim/match_box.png,stimulus/viswhat_stim/match_yes.png,stimulus/viswhat_stim/match_no.png,1.0,Match,Dot,Dot,1,5.125,0,5.125,0,5.125,0,5.125,0,0.625,0.625,1,0.5,1,2.125,1,0.5,1,2.125,0,0,0,0,0,0,0,0,0,,,,,0,31,31,31,,,,,,,,,292.39009424999995,297.5115797909998,292.8662316250002,293.85805662500024,294.4953218750002,295.49476729100024,292.39009424999995,292.39009424999995,292.39846100000005,292.39009424999995,292.39009424999995,292.39009424999995,292.39846100000005,292.39009424999995,297.5115797909998,298.1670798750001,300.27424337499997,304.30705745800014,298.1670798750001,298.1670798750001,303.313209291,298.64702912500024,299.6561732079999,300.27424337499997,301.28462949999994,298.1670798750001,298.1670798750001,298.15267258333324,298.1670798750001,298.1670798750001,298.1670798750001,298.15267258333324,298.1670798750001,298.1670798750001,303.313209291,298.1670798750001,303.313209291,303.3820067500001,304.01145295800006,298.1670798750001,1,1,1.542220708000059,reldom2_s010,001,2025-02-11_16h00.54.497,Vis-A-Scan_AC,2022.2.5,None,
0,0.0,None,fixation,stimulus/viswhat_stim/blank_white.png,stimulus/viswhat_stim/blank_white.png,stimulus/viswhere_stim/blank_white.png,stimulus/viswhere_stim/blank_white.png,stimulus/viswhat_stim/blank_white.png,stimulus/viswhat_stim/blank_white.png,stimulus/viswhat_stim/blank_white.png,stimulus/viswhat_stim/blank_white.png,0.0,0.0,0.0,0.0,0,0.0,0,0.0,0,0.0,0,0.0,0,0.0,0.0,0,0.0,0,0.0,0,0.0,0,0.0,0,0,0,0,0,0,0,0,10,,,,,0,32,32,32,,,,,,,,,304.30705745800014,304.30705745800014,304.30705745800014,304.30705745800014,304.30705745800014,304.30705745800014,304.30705745800014,304.30705745800014,304.19704695833326,304.30705745800014,304.30705745800014,304.30705745800014,304.19704695833326,304.30705745800014,304.30705745800014,304.30705745800014,304.30705745800014,304.30705745800014,304.30705745800014,304.30705745800014,304.30705745800014,304.30705745800014,304.30705745800014,304.30705745800014,304.30705745800014,304.30705745800014,304.30705745800014,304.2637136249999,304.30705745800014,304.30705745800014,304.30705745800014,304.2637136249999,304.30705745800014,304.30705745800014,304.30705745800014,304.30705745800014,304.30705745800014,309.536709,309.536709,314.517404875,None,0,,reldom2_s010,001,2025-02-11_16h00.54.497,Vis-A-Scan_AC,2022.2.5,None,
25,First_Order,5.0,viswhat,stimulus/viswhat_stim/blank_white.png,stimulus/viswhat_stim/blank_white.png,stimulus/viswhat_stim/land_vehicle-shortbus.png,stimulus/viswhat_stim/land_animal-pig.png,stimulus/viswhat_stim/blank_white.png,stimulus/viswhat_stim/location_box.png,stimulus/viswhat_stim/location_yes.png,stimulus/viswhat_stim/location_no.png,None,Location,None,Location,1,0.0,0,5.125,0,5.125,0,5.125,0,0.0,0.625,0,0.0,0,0.0,1,0.5,1,2.125,0,0,0,0,0,0,0,0,0,,,,,0,33,33,33,,,,,,,,,314.517404875,314.517404875,314.517404875,314.517404875,314.517404875,314.517404875,314.517404875,314.517404875,314.46606233266687,314.517404875,314.517404875,314.517404875,314.46606233266687,314.517404875,314.517404875,314.517404875,316.6294889579999,,314.517404875,314.517404875,319.6712578329998,314.9931283330002,316.0192765410002,316.6294889579999,317.66217566600017,314.517404875,314.517404875,314.4827289993336,314.517404875,314.517404875,314.517404875,314.4827289993336,314.517404875,314.517404875,319.6712578329998,314.517404875,319.6712578329998,319.7261734580002,320.38570141599985,314.517404875,1,1,1.085384083000008,reldom2_s010,001,2025-02-11_16h00.54.497,Vis-A-Scan_AC,2022.2.5,None,
26,First_Order,5.0,viswhat,stimulus/viswhat_stim/blank_white.png,stimulus/viswhat_stim/blank_white.png,stimulus/viswhat_stim/land_vehicle-rv.png,stimulus/viswhat_stim/land_animal-bunny.png,stimulus/viswhat_stim/blank_white.png,stimulus/viswhat_stim/type_box.png,stimulus/viswhat_stim/type_yes.png,stimulus/viswhat_stim/type_no.png,None,Type,None,Location,2,0.0,0,5.125,0,5.125,0,5.125,0,0.0,0.625,0,0.0,0,0.0,1,0.5,1,2.125,0,0,0,0,0,0,0,0,0,,,,,0,34,34,34,,,,,,,,,320.6321795409999,320.6321795409999,320.6321795409999,320.6321795409999,320.6321795409999,320.6321795409999,320.6321795409999,320.6321795409999,320.5402165410001,320.6321795409999,320.6321795409999,320.6321795409999,320.5402165410001,320.6321795409999,320.6321795409999,320.6321795409999,322.7461926249998,,320.6321795409999,320.6321795409999,325.81496108300007,321.1072012499999,322.1657734999999,322.7461926249998,323.8127394160001,320.6321795409999,320.6321795409999,320.59021654100013,320.6321795409999,320.6321795409999,320.6321795409999,320.59021654100013,320.6321795409999,320.6321795409999,325.81496108300007,320.6321795409999,325.81496108300007,325.8615494999999,326.734791333,320.6321795409999,2,1,0.9945500419999007,reldom2_s010,001,2025-02-11_16h00.54.497,Vis-A-Scan_AC,2022.2.5,None,
27,First_Order,5.0,viswhat,stimulus/viswhat_stim/blank_white.png,stimulus/viswhat_stim/blank_white.png,stimulus/viswhat_stim/land_animal-zebra.png,stimulus/viswhat_stim/land_vehicle-oldcar.png,stimulus/viswhat_stim/blank_white.png,stimulus/viswhat_stim/location_box.png,stimulus/viswhat_stim/location_yes.png,stimulus/viswhat_stim/location_no.png,None,Location,None,Location,1,0.0,0,5.125,0,5.125,0,5.125,0,0.0,0.625,0,0.0,0,0.0,1,0.5,1,2.125,0,0,0,0,0,0,0,0,0,,,,,0,35,35,35,,,,,,,,,326.734791333,326.734791333,326.734791333,326.734791333,326.734791333,326.734791333,326.734791333,326.734791333,326.6598454580002,326.734791333,326.734791333,326.734791333,326.6598454580002,326.734791333,326.734791333,326.734791333,328.8047019159999,,326.734791333,326.734791333,331.8973497500001,327.22716683299996,328.26433420800004,328.8047019159999,329.841876166,326.734791333,326.734791333,326.69317879133354,326.734791333,326.734791333,326.734791333,326.69317879133354,326.734791333,326.734791333,331.8973497500001,326.734791333,331.8973497500001,331.9404737079999,332.6239363750001,326.734791333,1,1,0.8674532500003806,reldom2_s010,001,2025-02-11_16h00.54.497,Vis-A-Scan_AC,2022.2.5,None,
28,First_Order,5.0,viswhat,stimulus/viswhat_stim/blank_white.png,stimulus/viswhat_stim/blank_white.png,stimulus/viswhat_stim/water_vehicle-canoe.png,stimulus/viswhat_stim/land_vehicle-trolley.png,stimulus/viswhat_stim/blank_white.png,stimulus/viswhat_stim/type_box.png,stimulus/viswhat_stim/type_yes.png,stimulus/viswhat_stim/type_no.png,None,Type,None,Type,1,0.0,0,5.125,0,5.125,0,5.125,0,0.0,0.625,0,0.0,0,0.0,1,0.5,1,2.125,0,0,0,0,0,0,0,0,0,,,,,0,36,36,36,,,,,,,,,332.80125099999987,332.80125099999987,332.80125099999987,332.80125099999987,332.80125099999987,332.80125099999987,332.80125099999987,332.80125099999987,332.7572697083334,332.80125099999987,332.80125099999987,332.80125099999987,332.7572697083334,332.80125099999987,332.80125099999987,332.80125099999987,334.9178354159999,338.9495892499999,332.80125099999987,332.80125099999987,337.95443966599987,333.29307849999987,334.30781954099984,334.9178354159999,335.938616166,332.80125099999987,332.80125099999987,332.77393637500006,332.80125099999987,332.80125099999987,332.80125099999987,332.77393637500006,332.80125099999987,332.80125099999987,337.95443966599987,332.80125099999987,337.95443966599987,338.02526208300014,338.6759562080001,332.80125099999987,1,1,0.8101448749998781,reldom2_s010,001,2025-02-11_16h00.54.497,Vis-A-Scan_AC,2022.2.5,None,
0,0.0,None,fixation,stimulus/viswhat_stim/blank_white.png,stimulus/viswhat_stim/blank_white.png,stimulus/viswhere_stim/blank_white.png,stimulus/viswhere_stim/blank_white.png,stimulus/viswhat_stim/blank_white.png,stimulus/viswhat_stim/blank_white.png,stimulus/viswhat_stim/blank_white.png,stimulus/viswhat_stim/blank_white.png,0.0,0.0,0.0,0.0,0,0.0,0,0.0,0,0.0,0,0.0,0,0.0,0.0,0,0.0,0,0.0,0,0.0,0,0.0,0,0,0,0,0,0,0,0,9,,,,,0,37,37,37,,,,,,,,,338.9495892499999,338.9495892499999,338.9495892499999,338.9495892499999,338.9495892499999,338.9495892499999,338.9495892499999,338.9495892499999,338.84625541600013,338.9495892499999,338.9495892499999,338.9495892499999,338.84625541600013,338.9495892499999,338.9495892499999,338.9495892499999,338.9495892499999,338.9495892499999,338.9495892499999,338.9495892499999,338.9495892499999,338.9495892499999,338.9495892499999,338.9495892499999,338.9495892499999,338.9495892499999,338.9495892499999,338.89625541600014,338.9495892499999,338.9495892499999,338.9495892499999,338.89625541600014,338.9495892499999,338.9495892499999,338.9495892499999,338.9495892499999,338.9495892499999,344.1774874160001,344.1774874160001,348.07887270799984,None,0,,reldom2_s010,001,2025-02-11_16h00.54.497,Vis-A-Scan_AC,2022.2.5,None,
29,Second_Order,5.0,viswhat,stimulus/viswhat_stim/land_vehicle-schoolbus.png,stimulus/viswhat_stim/land_animal-snake.png,stimulus/viswhat_stim/water_vehicle-cruiser.png,stimulus/viswhat_stim/water_animal-whale.png,stimulus/viswhat_stim/match_blank.png,stimulus/viswhat_stim/match_box.png,stimulus/viswhat_stim/match_yes.png,stimulus/viswhat_stim/match_no.png,1.0,Match,Location,Location,1,5.125,0,5.125,0,5.125,0,5.125,0,0.75,0.75,1,0.5,1,2.125,1,0.5,1,2.125,0,0,0,0,0,0,0,0,0,,,,,0,38,38,38,,,,,,,,,348.07887270799984,353.1989910410002,348.5526989159998,349.5524027910001,350.1772940000001,351.1734154159999,348.07887270799984,348.07887270799984,348.07867570833344,348.07887270799984,348.07887270799984,348.07887270799984,348.07867570833344,348.07887270799984,353.1989910410002,354.097222416,356.1907566250002,360.09748420799997,354.097222416,354.097222416,359.3258689160002,354.546849458,355.67041237500007,356.1907566250002,357.31114958299986,354.097222416,354.097222416,354.0282202493334,354.097222416,354.097222416,354.097222416,354.0282202493334,354.097222416,354.097222416,359.3258689160002,354.097222416,359.3258689160002,359.25743329099987,,354.097222416,1,1,2.0993581250004354,reldom2_s010,001,2025-02-11_16h00.54.497,Vis-A-Scan_AC,2022.2.5,None,
30,Second_Order,5.0,viswhat,stimulus/viswhat_stim/land_vehicle-tank.png,stimulus/viswhat_stim/water_vehicle-cabincruiser.png,stimulus/viswhat_stim/land_animal-pig.png,stimulus/viswhat_stim/water_animal-stingray.png,stimulus/viswhat_stim/match_blank.png,stimulus/viswhat_stim/match_box.png,stimulus/viswhat_stim/match_yes.png,stimulus/viswhat_stim/match_no.png,1.0,Match,Type,Type,1,5.125,0,5.125,0,5.125,0,5.125,0,0.625,0.625,1,0.5,1,2.125,1,0.5,1,2.125,0,0,0,0,0,0,0,0,0,,,,,0,39,39,39,,,,,,,,,360.09748420799997,365.2116017500002,360.55377158300007,361.5527126249999,362.17955229100016,363.1735180410001,360.09748420799997,360.09748420799997,360.10512041666664,360.09748420799997,360.09748420799997,360.09748420799997,360.10512041666664,360.09748420799997,365.2116017500002,365.8795999580002,367.9651037499998,372.0254869999999,365.8795999580002,365.8795999580002,371.007694375,366.361215291,367.376802666,367.9651037499998,368.98898637499997,365.8795999580002,365.8795999580002,365.8611585413332,365.8795999580002,365.8795999580002,365.8795999580002,365.8611585413332,365.8795999580002,365.8795999580002,371.007694375,365.8795999580002,371.007694375,371.0869312079999,371.729533791,365.8795999580002,1,1,0.5755455409998831,reldom2_s010,001,2025-02-11_16h00.54.497,Vis-A-Scan_AC,2022.2.5,None,
0,0.0,None,fixation,stimulus/viswhat_stim/blank_white.png,stimulus/viswhat_stim/blank_white.png,stimulus/viswhere_stim/blank_white.png,stimulus/viswhere_stim/blank_white.png,stimulus/viswhat_stim/blank_white.png,stimulus/viswhat_stim/blank_white.png,stimulus/viswhat_stim/blank_white.png,stimulus/viswhat_stim/blank_white.png,0.0,0.0,0.0,0.0,0,0.0,0,0.0,0,0.0,0,0.0,0,0.0,0.0,0,0.0,0,0.0,0,0.0,0,0.0,0,0,0,0,0,0,0,0,10,,,,,0,40,40,40,,,,,,,,,372.0254869999999,372.0254869999999,372.0254869999999,372.0254869999999,372.0254869999999,372.0254869999999,372.0254869999999,372.0254869999999,371.92689916600017,372.0254869999999,372.0254869999999,372.0254869999999,371.92689916600017,372.0254869999999,372.0254869999999,372.0254869999999,372.0254869999999,372.0254869999999,372.0254869999999,372.0254869999999,372.0254869999999,372.0254869999999,372.0254869999999,372.0254869999999,372.0254869999999,372.0254869999999,372.0254869999999,371.9768991660002,372.0254869999999,372.0254869999999,372.0254869999999,371.9768991660002,372.0254869999999,372.0254869999999,372.0254869999999,372.0254869999999,372.0254869999999,377.2566113749999,377.2566113749999,382.2281870830002,None,0,,reldom2_s010,001,2025-02-11_16h00.54.497,Vis-A-Scan_AC,2022.2.5,None,
31,First_Order,6.0,viswhat,stimulus/viswhat_stim/blank_white.png,stimulus/viswhat_stim/blank_white.png,stimulus/viswhat_stim/land_vehicle-rv.png,stimulus/viswhat_stim/land_animal-ostrich.png,stimulus/viswhat_stim/blank_white.png,stimulus/viswhat_stim/type_box.png,stimulus/viswhat_stim/type_yes.png,stimulus/viswhat_stim/type_no.png,None,Type,None,Location,2,0.0,0,5.125,0,5.125,0,5.125,0,0.0,0.625,0,0.0,0,0.0,1,0.5,1,2.125,0,0,0,0,0,0,0,0,0,,,,,0,41,41,41,,,,,,,,,382.2281870830002,382.2281870830002,382.2281870830002,382.2281870830002,382.2281870830002,382.2281870830002,382.2281870830002,382.2281870830002,382.18453966666686,382.2281870830002,382.2281870830002,382.2281870830002,382.18453966666686,382.2281870830002,382.2281870830002,382.2281870830002,384.31490158299994,388.38426045799997,382.2281870830002,382.2281870830002,387.3781425000002,382.690738708,383.7093044160001,384.31490158299994,385.332612958,382.2281870830002,382.2281870830002,382.2012063333336,382.2281870830002,382.2281870830002,382.2281870830002,382.2012063333336,382.2281870830002,382.2281870830002,387.3781425000002,382.2281870830002,387.3781425000002,387.4449897499999,388.0917199999999,382.2281870830002,1,0,0.8488107090001904,reldom2_s010,001,2025-02-11_16h00.54.497,Vis-A-Scan_AC,2022.2.5,None,
32,First_Order,6.0,viswhat,stimulus/viswhat_stim/blank_white.png,stimulus/viswhat_stim/blank_white.png,stimulus/viswhat_stim/land_animal-moose.png,stimulus/viswhat_stim/water_animal-dolphin.png,stimulus/viswhat_stim/blank_white.png,stimulus/viswhat_stim/type_box.png,stimulus/viswhat_stim/type_yes.png,stimulus/viswhat_stim/type_no.png,None,Type,None,Type,1,0.0,0,5.125,0,5.125,0,5.125,0,0.0,0.625,0,0.0,0,0.0,1,0.5,1,2.125,0,0,0,0,0,0,0,0,0,,,,,0,42,42,42,,,,,,,,,388.38426045799997,388.38426045799997,388.38426045799997,388.38426045799997,388.38426045799997,388.38426045799997,388.38426045799997,388.38426045799997,388.28035366599994,388.38426045799997,388.38426045799997,388.38426045799997,388.28035366599994,388.38426045799997,388.38426045799997,388.38426045799997,390.50151666600004,394.4944632910001,388.38426045799997,388.38426045799997,393.57654354099986,388.8324191249999,389.9262141250001,390.50151666600004,391.5918432909998,388.38426045799997,388.38426045799997,388.33035366599995,388.38426045799997,388.38426045799997,388.38426045799997,388.33035366599995,388.38426045799997,388.38426045799997,393.57654354099986,388.38426045799997,393.57654354099986,393.57654354099986,394.268152958,388.38426045799997,2,0,1.0687637910000376,reldom2_s010,001,2025-02-11_16h00.54.497,Vis-A-Scan_AC,2022.2.5,None,
33,First_Order,6.0,viswhat,stimulus/viswhat_stim/blank_white.png,stimulus/viswhat_stim/blank_white.png,stimulus/viswhat_stim/land_vehicle-buldozer.png,stimulus/viswhat_stim/water_vehicle-canoe.png,stimulus/viswhat_stim/blank_white.png,stimulus/viswhat_stim/location_box.png,stimulus/viswhat_stim/location_yes.png,stimulus/viswhat_stim/location_no.png,None,Location,None,Type,2,0.0,0,5.125,0,5.125,0,5.125,0,0.0,0.625,0,0.0,0,0.0,1,0.5,1,2.125,0,0,0,0,0,0,0,0,0,,,,,0,43,43,43,,,,,,,,,394.4944632910001,394.4944632910001,394.4944632910001,394.4944632910001,394.4944632910001,394.4944632910001,394.4944632910001,394.4944632910001,394.4348196246666,394.4944632910001,394.4944632910001,394.4944632910001,394.4348196246666,394.4944632910001,394.4944632910001,394.4944632910001,396.60197574999984,,394.4944632910001,394.4944632910001,399.66554933299994,394.9485307079999,395.9854488330002,396.60197574999984,397.64494108300005,394.4944632910001,394.4944632910001,394.46815295799996,394.4944632910001,394.4944632910001,394.4944632910001,394.46815295799996,394.4944632910001,394.4944632910001,399.66554933299994,394.4944632910001,399.66554933299994,399.7009024580002,400.361348333,394.4944632910001,2,1,0.728713708000214,reldom2_s010,001,2025-02-11_16h00.54.497,Vis-A-Scan_AC,2022.2.5,None,
34,First_Order,6.0,viswhat,stimulus/viswhat_stim/blank_white.png,stimulus/viswhat_stim/blank_white.png,stimulus/viswhat_stim/land_vehicle-scooter.png,stimulus/viswhat_stim/water_vehicle-motorboatraft.png,stimulus/viswhat_stim/blank_white.png,stimulus/viswhat_stim/location_box.png,stimulus/viswhat_stim/location_yes.png,stimulus/viswhat_stim/location_no.png,None,Location,None,Type,2,0.0,0,5.125,0,5.125,0,5.125,0,0.0,0.625,0,0.0,0,0.0,1,0.5,1,2.125,0,0,0,0,0,0,0,0,0,,,,,0,44,44,44,,,,,,,,,400.5477504999999,400.5477504999999,400.5477504999999,400.5477504999999,400.5477504999999,400.5477504999999,400.5477504999999,400.5477504999999,400.5120985826669,400.5477504999999,400.5477504999999,400.5477504999999,400.5120985826669,400.5477504999999,400.5477504999999,400.5477504999999,402.64146233300016,406.6846587499999,400.5477504999999,400.5477504999999,405.68403824999996,401.032510041,402.05468191599994,402.64146233300016,403.67442925000023,400.5477504999999,400.5477504999999,400.52876524933356,400.5477504999999,400.5477504999999,400.5477504999999,400.52876524933356,400.5477504999999,400.5477504999999,405.68403824999996,400.5477504999999,405.68403824999996,405.77691379099997,406.4178905829999,400.5477504999999,2,1,1.52031233300022,reldom2_s010,001,2025-02-11_16h00.54.497,Vis-A-Scan_AC,2022.2.5,None,
0,0.0,None,fixation,stimulus/viswhat_stim/blank_white.png,stimulus/viswhat_stim/blank_white.png,stimulus/viswhere_stim/blank_white.png,stimulus/viswhere_stim/blank_white.png,stimulus/viswhat_stim/blank_white.png,stimulus/viswhat_stim/blank_white.png,stimulus/viswhat_stim/blank_white.png,stimulus/viswhat_stim/blank_white.png,0.0,0.0,0.0,0.0,0,0.0,0,0.0,0,0.0,0,0.0,0,0.0,0.0,0,0.0,0,0.0,0,0.0,0,0.0,0,0,0,0,0,0,0,0,8,,,,,0,45,45,45,,,,,,,,,406.6846587499999,406.6846587499999,406.6846587499999,406.6846587499999,406.6846587499999,406.6846587499999,406.6846587499999,406.6846587499999,406.5751677913334,406.6846587499999,406.6846587499999,406.6846587499999,406.5751677913334,406.6846587499999,406.6846587499999,406.6846587499999,406.6846587499999,406.6846587499999,406.6846587499999,406.6846587499999,406.6846587499999,406.6846587499999,406.6846587499999,406.6846587499999,406.6846587499999,406.6846587499999,406.6846587499999,406.64183445800006,406.6846587499999,406.6846587499999,406.6846587499999,406.64183445800006,406.6846587499999,406.6846587499999,406.6846587499999,406.6846587499999,406.6846587499999,411.9163439580002,411.9163439580002,414.8682327910001,None,0,,reldom2_s010,001,2025-02-11_16h00.54.497,Vis-A-Scan_AC,2022.2.5,None,
35,Second_Order,6.0,viswhat,stimulus/viswhat_stim/land_vehicle-train.png,stimulus/viswhat_stim/land_animal-moose.png,stimulus/viswhat_stim/land_vehicle-schoolbus.png,stimulus/viswhat_stim/water_vehicle-sailboat.png,stimulus/viswhat_stim/match_blank.png,stimulus/viswhat_stim/match_box.png,stimulus/viswhat_stim/match_yes.png,stimulus/viswhat_stim/match_no.png,2.0,Match,Location,Type,2,5.125,0,5.125,0,5.125,0,5.125,0,0.75,0.75,1,0.5,1,2.125,1,0.5,1,2.125,0,0,0,0,0,0,0,0,0,,,,,0,46,46,46,,,,,,,,,414.8682327910001,419.9901158749999,415.30423733299995,416.2945759580002,416.9322912910002,417.9229351250001,414.8682327910001,414.8682327910001,414.87416349966645,414.8682327910001,414.8682327910001,414.8682327910001,414.87416349966645,414.8682327910001,419.9901158749999,420.83486408299996,422.9418072080002,426.87624129100004,420.83486408299996,420.83486408299996,426.02015541599985,421.28985925000006,422.3725339580001,422.9418072080002,424.0365158750001,420.83486408299996,420.83486408299996,420.7895225826665,420.83486408299996,420.83486408299996,420.83486408299996,420.7895225826665,420.83486408299996,420.83486408299996,426.02015541599985,420.83486408299996,426.02015541599985,426.02015541599985,,420.83486408299996,2,1,0.7944343750000371,reldom2_s010,001,2025-02-11_16h00.54.497,Vis-A-Scan_AC,2022.2.5,None,
36,Second_Order,6.0,viswhat,stimulus/viswhat_stim/land_animal-moose.png,stimulus/viswhat_stim/land_vehicle-schoolbus.png,stimulus/viswhat_stim/land_vehicle-pickuptruck.png,stimulus/viswhat_stim/water_vehicle-canoe(1).png,stimulus/viswhat_stim/match_blank.png,stimulus/viswhat_stim/match_box.png,stimulus/viswhat_stim/match_yes.png,stimulus/viswhat_stim/match_no.png,2.0,Match,Location,Type,2,5.125,0,5.125,0,5.125,0,5.125,0,0.625,0.625,1,0.5,1,2.125,1,0.5,1,2.125,0,0,0,0,0,0,0,0,0,,,,,0,47,47,47,,,,,,,,,426.87624129100004,432.00161641600016,427.3153279160001,428.31030312500025,428.9325912909999,429.93160075000014,426.87624129100004,426.87624129100004,426.8768774580002,426.87624129100004,426.87624129100004,426.87624129100004,426.8768774580002,426.87624129100004,432.00161641600016,432.6673572079999,434.75049254099986,438.7993845830001,432.6673572079999,432.6673572079999,437.8078344159999,433.14402229100006,434.1747528750002,434.75049254099986,435.78300850000005,432.6673572079999,432.6673572079999,432.6490437913335,432.6673572079999,432.6673572079999,432.6673572079999,432.6490437913335,432.6673572079999,432.6673572079999,437.8078344159999,432.6673572079999,437.8078344159999,437.88600529099995,438.52191774999983,432.6673572079999,2,1,1.069146209000337,reldom2_s010,001,2025-02-11_16h00.54.497,Vis-A-Scan_AC,2022.2.5,None,
0,0.0,None,fixation,stimulus/viswhat_stim/blank_white.png,stimulus/viswhat_stim/blank_white.png,stimulus/viswhere_stim/blank_white.png,stimulus/viswhere_stim/blank_white.png,stimulus/viswhat_stim/blank_white.png,stimulus/viswhat_stim/blank_white.png,stimulus/viswhat_stim/blank_white.png,stimulus/viswhat_stim/blank_white.png,0.0,0.0,0.0,0.0,0,0.0,0,0.0,0,0.0,0,0.0,0,0.0,0.0,0,0.0,0,0.0,0,0.0,0,0.0,0,0,0,0,0,0,0,0,8,,,,,0,48,48,48,,,,,,,,,438.7993845830001,438.7993845830001,438.7993845830001,438.7993845830001,438.7993845830001,438.7993845830001,438.7993845830001,438.7993845830001,438.7001444580001,438.7993845830001,438.7993845830001,438.7993845830001,438.7001444580001,438.7993845830001,438.7993845830001,438.7993845830001,438.7993845830001,438.7993845830001,438.7993845830001,438.7993845830001,438.7993845830001,438.7993845830001,438.7993845830001,438.7993845830001,438.7993845830001,438.7993845830001,438.7993845830001,438.75014445800014,438.7993845830001,438.7993845830001,438.7993845830001,438.75014445800014,438.7993845830001,438.7993845830001,438.7993845830001,438.7993845830001,438.7993845830001,444.028648083,444.028648083,447.01130991599985,None,0,,reldom2_s010,001,2025-02-11_16h00.54.497,Vis-A-Scan_AC,2022.2.5,None,
37,First_Order,7.0,viswhere,stimulus/viswhere_stim/blank_white.png,stimulus/viswhere_stim/blank_white.png,stimulus/viswhere_stim/120-deg_dot-right_turquoise.png,stimulus/viswhere_stim/120-deg_dot-left_slateblue.png,stimulus/viswhere_stim/blank_white.png,stimulus/viswhere_stim/line_box.png,stimulus/viswhere_stim/line_yes.png,stimulus/viswhere_stim/line_no.png,None,Line,None,Line,1,0.0,0,5.125,0,5.125,0,5.125,0,0.0,0.625,0,0.0,0,0.0,1,0.5,1,2.125,0,0,0,0,0,0,0,0,0,,,,,0,49,49,49,,,,,,,,,447.01130991599985,447.01130991599985,447.01130991599985,447.01130991599985,447.01130991599985,447.01130991599985,447.01130991599985,447.01130991599985,446.9816524576664,447.01130991599985,447.01130991599985,447.01130991599985,446.9816524576664,447.01130991599985,447.01130991599985,447.01130991599985,449.10538275,453.0724422080002,447.01130991599985,447.01130991599985,452.147820875,447.4875472079998,448.5164235410002,449.10538275,450.1143696250001,447.01130991599985,447.01130991599985,446.99831912433314,447.01130991599985,447.01130991599985,447.01130991599985,446.99831912433314,447.01130991599985,447.01130991599985,452.147820875,447.01130991599985,452.147820875,452.23418029100003,452.8590292079998,447.01130991599985,1,1,0.8069906670002638,reldom2_s010,001,2025-02-11_16h00.54.497,Vis-A-Scan_AC,2022.2.5,None,
38,First_Order,7.0,viswhere,stimulus/viswhere_stim/blank_white.png,stimulus/viswhere_stim/blank_white.png,stimulus/viswhere_stim/30-deg_dot-right_royalblue.png,stimulus/viswhere_stim/30-deg_dot-left_royalblue.png,stimulus/viswhere_stim/blank_white.png,stimulus/viswhere_stim/dot_box.png,stimulus/viswhere_stim/dot_yes.png,stimulus/viswhere_stim/dot_no.png,None,Dot,None,Line,2,0.0,0,5.125,0,5.125,0,5.125,0,0.0,0.625,0,0.0,0,0.0,1,0.5,1,2.125,0,0,0,0,0,0,0,0,0,,,,,0,50,50,50,,,,,,,,,453.0724422080002,453.0724422080002,453.0724422080002,453.0724422080002,453.0724422080002,453.0724422080002,453.0724422080002,453.0724422080002,453.04345762433314,453.0724422080002,453.0724422080002,453.0724422080002,453.04345762433314,453.0724422080002,453.0724422080002,453.0724422080002,455.18930045800016,459.1338635000002,453.0724422080002,453.0724422080002,458.21303454100007,453.5494060000001,454.5751122910001,455.18930045800016,456.19779395800015,453.0724422080002,453.0724422080002,453.0601242909998,453.0724422080002,453.0724422080002,453.0724422080002,453.0601242909998,453.0724422080002,453.0724422080002,458.21303454100007,453.0724422080002,458.21303454100007,458.2983045410001,458.93790716600006,453.0724422080002,2,1,0.8577630830000089,reldom2_s010,001,2025-02-11_16h00.54.497,Vis-A-Scan_AC,2022.2.5,None,
39,First_Order,7.0,viswhere,stimulus/viswhere_stim/blank_white.png,stimulus/viswhere_stim/blank_white.png,stimulus/viswhere_stim/150-deg_dot-left_peru.png,stimulus/viswhere_stim/30-deg_dot-left_goldenrod.png,stimulus/viswhere_stim/blank_white.png,stimulus/viswhere_stim/line_box.png,stimulus/viswhere_stim/line_yes.png,stimulus/viswhere_stim/line_no.png,None,Line,None,Dot,2,0.0,0,5.125,0,5.125,0,5.125,0,0.0,0.625,0,0.0,0,0.0,1,0.5,1,2.125,0,0,0,0,0,0,0,0,0,,,,,0,51,51,51,,,,,,,,,459.1338635000002,459.1338635000002,459.1338635000002,459.1338635000002,459.1338635000002,459.1338635000002,459.1338635000002,459.1338635000002,459.10587149933355,459.1338635000002,459.1338635000002,459.1338635000002,459.10587149933355,459.1338635000002,459.1338635000002,459.1338635000002,461.23895249999987,465.20757512499995,459.1338635000002,459.1338635000002,464.26201229100025,459.61347154099985,460.6208203330002,461.23895249999987,462.2552985000002,459.1338635000002,459.1338635000002,459.1225381660002,459.1338635000002,459.1338635000002,459.1338635000002,459.1225381660002,459.1338635000002,459.1338635000002,464.26201229100025,459.1338635000002,464.26201229100025,464.36439566599984,464.993518625,459.1338635000002,2,1,1.5539813340001274,reldom2_s010,001,2025-02-11_16h00.54.497,Vis-A-Scan_AC,2022.2.5,None,
40,First_Order,7.0,viswhere,stimulus/viswhere_stim/blank_white.png,stimulus/viswhere_stim/blank_white.png,stimulus/viswhere_stim/120-deg_dot-left_royalblue.png,stimulus/viswhere_stim/120-deg_dot-right_slateblue.png,stimulus/viswhere_stim/blank_white.png,stimulus/viswhere_stim/dot_box.png,stimulus/viswhere_stim/dot_yes.png,stimulus/viswhere_stim/dot_no.png,None,Dot,None,Line,2,0.0,0,5.125,0,5.125,0,5.125,0,0.0,0.625,0,0.0,0,0.0,1,0.5,1,2.125,0,0,0,0,0,0,0,0,0,,,,,0,52,52,52,,,,,,,,,465.20757512499995,465.20757512499995,465.20757512499995,465.20757512499995,465.20757512499995,465.20757512499995,465.20757512499995,465.20757512499995,465.17894174933355,465.20757512499995,465.20757512499995,465.20757512499995,465.17894174933355,465.20757512499995,465.20757512499995,465.20757512499995,467.31783908299985,471.3551124999999,465.20757512499995,465.20757512499995,470.340124458,465.6823031250001,466.70299424999985,467.31783908299985,468.326987208,465.20757512499995,465.20757512499995,465.1956084160002,465.20757512499995,465.20757512499995,465.20757512499995,465.1956084160002,465.20757512499995,465.20757512499995,470.340124458,465.20757512499995,470.340124458,470.4250413750001,471.06408620799994,465.20757512499995,2,1,1.0697484160000386,reldom2_s010,001,2025-02-11_16h00.54.497,Vis-A-Scan_AC,2022.2.5,None,
0,0.0,None,fixation,stimulus/viswhat_stim/blank_white.png,stimulus/viswhat_stim/blank_white.png,stimulus/viswhere_stim/blank_white.png,stimulus/viswhere_stim/blank_white.png,stimulus/viswhat_stim/blank_white.png,stimulus/viswhat_stim/blank_white.png,stimulus/viswhat_stim/blank_white.png,stimulus/viswhat_stim/blank_white.png,0.0,0.0,0.0,0.0,0,0.0,0,0.0,0,0.0,0,0.0,0,0.0,0.0,0,0.0,0,0.0,0,0.0,0,0.0,0,0,0,0,0,0,0,0,9,,,,,0,53,53,53,,,,,,,,,471.3551124999999,471.3551124999999,471.3551124999999,471.3551124999999,471.3551124999999,471.3551124999999,471.3551124999999,471.3551124999999,471.2482533333335,471.3551124999999,471.3551124999999,471.3551124999999,471.2482533333335,471.3551124999999,471.3551124999999,471.3551124999999,471.3551124999999,471.3551124999999,471.3551124999999,471.3551124999999,471.3551124999999,471.3551124999999,471.3551124999999,471.3551124999999,471.3551124999999,471.3551124999999,471.3551124999999,471.2982533333335,471.3551124999999,471.3551124999999,471.3551124999999,471.2982533333335,471.3551124999999,471.3551124999999,471.3551124999999,471.3551124999999,471.3551124999999,476.5836160409999,476.5836160409999,480.4852465409999,None,0,,reldom2_s010,001,2025-02-11_16h00.54.497,Vis-A-Scan_AC,2022.2.5,None,
41,Second_Order,7.0,viswhere,stimulus/viswhere_stim/90-deg_dot-right_seagreen.png,stimulus/viswhere_stim/90-deg_dot-left_salmon.png,stimulus/viswhere_stim/60-deg_dot-left_slateblue.png,stimulus/viswhere_stim/60-deg_dot-right_lightsseagreen.png,stimulus/viswhat_stim/match_blank.png,stimulus/viswhat_stim/match_box.png,stimulus/viswhat_stim/match_yes.png,stimulus/viswhat_stim/match_no.png,1.0,Match,Line,Line,1,5.125,0,5.125,0,5.125,0,5.125,0,0.75,0.75,1,0.5,1,2.125,1,0.5,1,2.125,0,0,0,0,0,0,0,0,0,,,,,0,54,54,54,,,,,,,,,480.4852465409999,485.6096363749998,480.95640950000006,481.9440321249999,482.5900847910002,483.58112066600006,480.4852465409999,480.4852465409999,480.4937607083335,480.4852465409999,480.4852465409999,480.4852465409999,480.4937607083335,480.4852465409999,485.6096363749998,486.3974586250001,488.50495200000023,492.38179812499993,486.3974586250001,486.3974586250001,491.53548333300023,486.873653958,487.88315037500024,488.50495200000023,489.5125257909999,486.3974586250001,486.3974586250001,486.38560812433343,486.3974586250001,486.3974586250001,486.3974586250001,486.38560812433343,486.3974586250001,486.3974586250001,491.53548333300023,486.3974586250001,491.53548333300023,491.60645829099985,492.38179812499993,486.3974586250001,2,0,1.3911383330000717,reldom2_s010,001,2025-02-11_16h00.54.497,Vis-A-Scan_AC,2022.2.5,None,
42,Second_Order,7.0,viswhere,stimulus/viswhere_stim/150-deg_dot-left_cyan.png,stimulus/viswhere_stim/60-deg_dot-left_royalblue.png,stimulus/viswhere_stim/30-deg_dot-right_mediumslateblue.png,stimulus/viswhere_stim/90-deg_dot-right_peru.png,stimulus/viswhat_stim/match_blank.png,stimulus/viswhat_stim/match_box.png,stimulus/viswhat_stim/match_yes.png,stimulus/viswhat_stim/match_no.png,1.0,Match,Dot,Dot,1,5.125,0,5.125,0,5.125,0,5.125,0,0.625,0.625,1,0.5,1,2.125,1,0.5,1,2.125,0,0,0,0,0,0,0,0,0,,,,,0,55,55,55,,,,,,,,,492.38179812499993,497.50554712500025,492.86418058300023,493.86054225,494.48243062500023,495.47396679099984,492.38179812499993,492.38179812499993,492.39044095799983,492.38179812499993,492.38179812499993,492.38179812499993,492.39044095799983,492.38179812499993,497.50554712500025,498.15438233299983,500.26107654099997,504.30094800000006,498.15438233299983,498.15438233299983,503.2852145830002,498.63152308300005,499.6423624580002,500.26107654099997,501.27571154099996,498.15438233299983,498.15438233299983,498.1315046666666,498.15438233299983,498.15438233299983,498.15438233299983,498.1315046666666,498.15438233299983,498.15438233299983,503.2852145830002,498.15438233299983,503.2852145830002,503.370587333,504.00055054099994,498.15438233299983,1,1,0.8377160420000109,reldom2_s010,001,2025-02-11_16h00.54.497,Vis-A-Scan_AC,2022.2.5,None,
0,0.0,None,fixation,stimulus/viswhat_stim/blank_white.png,stimulus/viswhat_stim/blank_white.png,stimulus/viswhere_stim/blank_white.png,stimulus/viswhere_stim/blank_white.png,stimulus/viswhat_stim/blank_white.png,stimulus/viswhat_stim/blank_white.png,stimulus/viswhat_stim/blank_white.png,stimulus/viswhat_stim/blank_white.png,0.0,0.0,0.0,0.0,0,0.0,0,0.0,0,0.0,0,0.0,0,0.0,0.0,0,0.0,0,0.0,0,0.0,0,0.0,0,0,0,0,0,0,0,0,8,,,,,0,56,56,56,,,,,,,,,504.30094800000006,504.30094800000006,504.30094800000006,504.30094800000006,504.30094800000006,504.30094800000006,504.30094800000006,504.30094800000006,504.18629695833334,504.30094800000006,504.30094800000006,504.30094800000006,504.18629695833334,504.30094800000006,504.30094800000006,504.30094800000006,504.30094800000006,504.30094800000006,504.30094800000006,504.30094800000006,504.30094800000006,504.30094800000006,504.30094800000006,504.30094800000006,504.30094800000006,504.30094800000006,504.30094800000006,504.252963625,504.30094800000006,504.30094800000006,504.30094800000006,504.252963625,504.30094800000006,504.30094800000006,504.30094800000006,504.30094800000006,504.30094800000006,509.47935050000024,509.47935050000024,512.5272289579998,None,0,,reldom2_s010,001,2025-02-11_16h00.54.497,Vis-A-Scan_AC,2022.2.5,None,
43,First_Order,8.0,viswhere,stimulus/viswhere_stim/blank_white.png,stimulus/viswhere_stim/blank_white.png,stimulus/viswhere_stim/150-deg_dot-left_lightsseagreen.png,stimulus/viswhere_stim/30-deg_dot-left_salmon.png,stimulus/viswhere_stim/blank_white.png,stimulus/viswhere_stim/dot_box.png,stimulus/viswhere_stim/dot_yes.png,stimulus/viswhere_stim/dot_no.png,None,Dot,None,Dot,1,0.0,0,5.125,0,5.125,0,5.125,0,0.0,0.625,0,0.0,0,0.0,1,0.5,1,2.125,0,0,0,0,0,0,0,0,0,,,,,0,57,57,57,,,,,,,,,512.5272289579998,512.5272289579998,512.5272289579998,512.5272289579998,512.5272289579998,512.5272289579998,512.5272289579998,512.5272289579998,512.4940428326669,512.5272289579998,512.5272289579998,512.5272289579998,512.4940428326669,512.5272289579998,512.5272289579998,512.5272289579998,514.6333477080002,518.588140333,512.5272289579998,512.5272289579998,517.6568362080002,513.0046372500001,514.0180498330001,514.6333477080002,515.6403968750001,512.5272289579998,512.5272289579998,512.5107094993335,512.5272289579998,512.5272289579998,512.5272289579998,512.5107094993335,512.5272289579998,512.5272289579998,517.6568362080002,512.5272289579998,517.6568362080002,517.7425223750001,518.372857291,512.5272289579998,1,1,1.618471000000227,reldom2_s010,001,2025-02-11_16h00.54.497,Vis-A-Scan_AC,2022.2.5,None,
44,First_Order,8.0,viswhere,stimulus/viswhere_stim/blank_white.png,stimulus/viswhere_stim/blank_white.png,stimulus/viswhere_stim/150-deg_dot-right_seagreen.png,stimulus/viswhere_stim/150-deg_dot-left_goldenrod.png,stimulus/viswhere_stim/blank_white.png,stimulus/viswhere_stim/line_box.png,stimulus/viswhere_stim/line_yes.png,stimulus/viswhere_stim/line_no.png,None,Line,None,Line,1,0.0,0,5.125,0,5.125,0,5.125,0,0.0,0.625,0,0.0,0,0.0,1,0.5,1,2.125,0,0,0,0,0,0,0,0,0,,,,,0,58,58,58,,,,,,,,,518.588140333,518.588140333,518.588140333,518.588140333,518.588140333,518.588140333,518.588140333,518.588140333,518.5585295413333,518.588140333,518.588140333,518.588140333,518.5585295413333,518.588140333,518.588140333,518.588140333,520.699984333,524.6495382500002,518.588140333,518.588140333,523.7307180409998,519.068225,520.079133666,520.699984333,521.7167812500002,518.588140333,518.588140333,518.575196208,518.588140333,518.588140333,518.588140333,518.575196208,518.588140333,518.588140333,523.7307180409998,518.588140333,523.7307180409998,523.8171378329998,524.4517839579999,518.588140333,1,1,0.9930552920000082,reldom2_s010,001,2025-02-11_16h00.54.497,Vis-A-Scan_AC,2022.2.5,None,
45,First_Order,8.0,viswhere,stimulus/viswhere_stim/blank_white.png,stimulus/viswhere_stim/blank_white.png,stimulus/viswhere_stim/150-deg_dot-left_seagreen.png,stimulus/viswhere_stim/60-deg_dot-left_turquoise.png,stimulus/viswhere_stim/blank_white.png,stimulus/viswhere_stim/dot_box.png,stimulus/viswhere_stim/dot_yes.png,stimulus/viswhere_stim/dot_no.png,None,Dot,None,Dot,1,0.0,0,5.125,0,5.125,0,5.125,0,0.0,0.625,0,0.0,0,0.0,1,0.5,1,2.125,0,0,0,0,0,0,0,0,0,,,,,0,59,59,59,,,,,,,,,524.6495382500002,524.6495382500002,524.6495382500002,524.6495382500002,524.6495382500002,524.6495382500002,524.6495382500002,524.6495382500002,524.6200756243333,524.6495382500002,524.6495382500002,524.6495382500002,524.6200756243333,524.6495382500002,524.6495382500002,524.6495382500002,526.7464978749999,530.7124132499998,524.6495382500002,524.6495382500002,529.7875207500001,525.1254855410002,526.153935625,526.7464978749999,527.761867916,524.6495382500002,524.6495382500002,524.6367422909999,524.6495382500002,524.6495382500002,524.6495382500002,524.6367422909999,524.6495382500002,524.6495382500002,529.7875207500001,524.6495382500002,529.7875207500001,529.8732743330002,530.498757416,524.6495382500002,1,1,0.6749824170001375,reldom2_s010,001,2025-02-11_16h00.54.497,Vis-A-Scan_AC,2022.2.5,None,
46,First_Order,8.0,viswhere,stimulus/viswhere_stim/blank_white.png,stimulus/viswhere_stim/blank_white.png,stimulus/viswhere_stim/150-deg_dot-left_lightsseagreen.png,stimulus/viswhere_stim/60-deg_dot-left_royalblue.png,stimulus/viswhere_stim/blank_white.png,stimulus/viswhere_stim/line_box.png,stimulus/viswhere_stim/line_yes.png,stimulus/viswhere_stim/line_no.png,None,Line,None,Dot,2,0.0,0,5.125,0,5.125,0,5.125,0,0.0,0.625,0,0.0,0,0.0,1,0.5,1,2.125,0,0,0,0,0,0,0,0,0,,,,,0,60,60,60,,,,,,,,,530.7124132499998,530.7124132499998,530.7124132499998,530.7124132499998,530.7124132499998,530.7124132499998,530.7124132499998,530.7124132499998,530.6838823333336,530.7124132499998,530.7124132499998,530.7124132499998,530.6838823333336,530.7124132499998,530.7124132499998,530.7124132499998,532.8173529159999,536.8660450410002,530.7124132499998,530.7124132499998,535.855875875,531.1893884579999,532.1972663749998,532.8173529159999,533.8343144579999,530.7124132499998,530.7124132499998,530.7005490000003,530.7124132499998,530.7124132499998,530.7124132499998,530.7005490000003,530.7124132499998,530.7124132499998,535.855875875,530.7124132499998,535.855875875,535.9415839160001,536.572501958,530.7124132499998,2,1,0.792937625000377,reldom2_s010,001,2025-02-11_16h00.54.497,Vis-A-Scan_AC,2022.2.5,None,
0,0.0,None,fixation,stimulus/viswhat_stim/blank_white.png,stimulus/viswhat_stim/blank_white.png,stimulus/viswhere_stim/blank_white.png,stimulus/viswhere_stim/blank_white.png,stimulus/viswhat_stim/blank_white.png,stimulus/viswhat_stim/blank_white.png,stimulus/viswhat_stim/blank_white.png,stimulus/viswhat_stim/blank_white.png,0.0,0.0,0.0,0.0,0,0.0,0,0.0,0,0.0,0,0.0,0,0.0,0.0,0,0.0,0,0.0,0,0.0,0,0.0,0,0,0,0,0,0,0,0,9,,,,,0,61,61,61,,,,,,,,,536.8660450410002,536.8660450410002,536.8660450410002,536.8660450410002,536.8660450410002,536.8660450410002,536.8660450410002,536.8660450410002,536.7584195833332,536.8660450410002,536.8660450410002,536.8660450410002,536.7584195833332,536.8660450410002,536.8660450410002,536.8660450410002,536.8660450410002,536.8660450410002,536.8660450410002,536.8660450410002,536.8660450410002,536.8660450410002,536.8660450410002,536.8660450410002,536.8660450410002,536.8660450410002,536.8660450410002,536.8084195833331,536.8660450410002,536.8660450410002,536.8660450410002,536.8084195833331,536.8660450410002,536.8660450410002,536.8660450410002,536.8660450410002,536.8660450410002,542.093903041,542.093903041,545.9944928750001,None,0,,reldom2_s010,001,2025-02-11_16h00.54.497,Vis-A-Scan_AC,2022.2.5,None,
47,Second_Order,8.0,viswhere,stimulus/viswhere_stim/120-deg_dot-left_goldenrod.png,stimulus/viswhere_stim/120-deg_dot-right_seagreen.png,stimulus/viswhere_stim/90-deg_dot-left_peru.png,stimulus/viswhere_stim/90-deg_dot-right_turquoise.png,stimulus/viswhat_stim/match_blank.png,stimulus/viswhat_stim/match_box.png,stimulus/viswhat_stim/match_yes.png,stimulus/viswhat_stim/match_no.png,1.0,Match,Line,Line,1,5.125,0,5.125,0,5.125,0,5.125,0,0.75,0.75,1,0.5,1,2.125,1,0.5,1,2.125,0,0,0,0,0,0,0,0,0,,,,,0,62,62,62,,,,,,,,,545.9944928750001,551.1173605409999,546.4724282080001,547.4596818750001,548.090608,549.0841073749998,545.9944928750001,545.9944928750001,546.0005802493334,545.9944928750001,545.9944928750001,545.9944928750001,546.0005802493334,545.9944928750001,551.1173605409999,551.9015856659998,553.9965315,557.891486,551.9015856659998,551.9015856659998,557.0392023750001,552.3849582500002,553.3983034160001,553.9965315,555.011716041,551.9015856659998,551.9015856659998,551.8890003743331,551.9015856659998,551.9015856659998,551.9015856659998,551.8890003743331,551.9015856659998,551.9015856659998,557.0392023750001,551.9015856659998,557.0392023750001,557.1081334999999,557.891486,551.9015856659998,1,1,0.5459155000003193,reldom2_s010,001,2025-02-11_16h00.54.497,Vis-A-Scan_AC,2022.2.5,None,
48,Second_Order,8.0,viswhere,stimulus/viswhere_stim/150-deg_dot-right_salmon.png,stimulus/viswhere_stim/90-deg_dot-right_cyan.png,stimulus/viswhere_stim/60-deg_dot-left_mediumslateblue.png,stimulus/viswhere_stim/30-deg_dot-left_turquoise.png,stimulus/viswhat_stim/match_blank.png,stimulus/viswhat_stim/match_box.png,stimulus/viswhat_stim/match_yes.png,stimulus/viswhat_stim/match_no.png,1.0,Match,Dot,Dot,1,5.125,0,5.125,0,5.125,0,5.125,0,0.625,0.625,1,0.5,1,2.125,1,0.5,1,2.125,0,0,0,0,0,0,0,0,0,,,,,0,63,63,63,,,,,,,,,557.891486,563.005758541,558.3691417499999,559.3598137499998,559.9978993330001,560.993076791,557.891486,557.891486,557.8990887500001,557.891486,557.891486,557.891486,557.8990887500001,557.891486,563.005758541,563.657879291,565.7593167079999,569.7948216250002,563.657879291,563.657879291,568.7994477080001,564.1357567079999,565.1644042080002,565.7593167079999,566.77102225,563.657879291,563.657879291,563.6471762493334,563.657879291,563.657879291,563.657879291,563.6471762493334,563.657879291,563.657879291,568.7994477080001,563.657879291,568.7994477080001,568.8682529160001,569.4960082500002,563.657879291,1,1,0.47300387499990393,reldom2_s010,001,2025-02-11_16h00.54.497,Vis-A-Scan_AC,2022.2.5,None,
0,0.0,None,fixation,stimulus/viswhat_stim/blank_white.png,stimulus/viswhat_stim/blank_white.png,stimulus/viswhere_stim/blank_white.png,stimulus/viswhere_stim/blank_white.png,stimulus/viswhat_stim/blank_white.png,stimulus/viswhat_stim/blank_white.png,stimulus/viswhat_stim/blank_white.png,stimulus/viswhat_stim/blank_white.png,0.0,0.0,0.0,0.0,0,0.0,0,0.0,0,0.0,0,0.0,0,0.0,0.0,0,0.0,0,0.0,0,0.0,0,0.0,0,0,0,0,0,0,0,0,16,,,,,0,64,64,64,,,,,,,,,569.7948216250002,569.7948216250002,569.7948216250002,569.7948216250002,569.7948216250002,569.7948216250002,569.7948216250002,569.7948216250002,569.6843889163332,569.7948216250002,569.7948216250002,569.7948216250002,569.6843889163332,569.7948216250002,569.7948216250002,569.7948216250002,569.7948216250002,569.7948216250002,569.7948216250002,569.7948216250002,569.7948216250002,569.7948216250002,569.7948216250002,569.7948216250002,569.7948216250002,569.7948216250002,569.7948216250002,569.7510555829998,569.7948216250002,569.7948216250002,569.7948216250002,569.7510555829998,569.7948216250002,569.7948216250002,569.7948216250002,569.7948216250002,569.7948216250002,575.0267490410001,575.0267490410001,585.9315500829998,None,0,,reldom2_s010,001,2025-02-11_16h00.54.497,Vis-A-Scan_AC,2022.2.5,None,
