Trial,Order,Block,Type,Stimuli_File1,Stimuli_File2,Stimuli_File3,Stimuli_File4,Cue_File1,Cue_File2,Response_File_Yes,Response_File_No,Match,Cue_Dimension,Pair1_Dimension,Pair2_Dimension,Key,Cue1_Duration,Cue1_Onset,Cue2_Duration,Cue2_Onset,ResponseYes_Duration,ResponseYes_Onset,ResponseNo_Duration,ResponseNo_Onset,ITI_Within,ITI_Between,Image1_Duration,Image1_Onset,Image2_Duration,Image2_Onset,Image3_Duration,Image3_Onset,Image4_Duration,Image4_Onset,Sound1_Duration,Sound1_Onset,Sound2_Duration,Sound2_Onset,Sound3_Duration,Sound3_Onset,Sound4_Duration,Sound4_Onset,Fixation_Duration,trials_2.thisRepN,trials_2.thisTrialN,trials_2.thisN,trials_2.thisIndex,trials.thisRepN,trials.thisTrialN,trials.thisN,trials.thisIndex,text_start.started,key_resp_start.started,key_resp_start.keys,key_resp_start.rt,text2.started,key_resp_2.started,key_resp_2.keys,key_resp_2.rt,cue_file1.started,cue_file1.stopped,image_1.started,image_1.stopped,image_2.started,image_2.stopped,sound_icon1.started,sound_icon1.stopped,sound_1.started,sound_1.stopped,sound_icon2.started,sound_icon2.stopped,sound_2.started,sound_2.stopped,image_blank_1.started,image_blank_1.stopped,key_press.started,key_press.stopped,fixation_text.started,cue_file2.started,cue_file2.stopped,image_3.started,image_3.stopped,image_4.started,image_4.stopped,sound_icon3.started,sound_icon3.stopped,sound_3.started,sound_3.stopped,sound_icon4.started,sound_icon4.stopped,sound_4.started,sound_4.stopped,response_yes.started,response_yes.stopped,response_no.started,response_no.stopped,iti_blank.started,iti_blank.stopped,fixation_text.stopped,key_press.keys,key_press.corr,key_press.rt,participant,session,date,expName,psychopyVersion,frameRate,
,,,,,,,,,,,,,,,,,,,,,,,,,,,,,,,,,,,,,,,,,,,,,,,,,,,,7.282707707999634,7.282707707999634,2,1.116606542000227,,,,,,,,,,,,,,,,,,,,,,,,,,,,,,,,,,,,,,,,,,,,,,,,reldom2_s010,001,2025-02-11_16h12.15.967,What-A-Scan_AC,2022.2.5,None,
,,,,,,,,,,,,,,,,,,,,,,,,,,,,,,,,,,,,,,,,,,,,0,0,0,0,,,,,,,,,8.42473420799979,8.42473420799979,5,17.233690625000236,,,,,,,,,,,,,,,,,,,,,,,,,,,,,,,,,,,,,,,,,,,,reldom2_s010,001,2025-02-11_16h12.15.967,What-A-Scan_AC,2022.2.5,None,
,,,,,,,,,,,,,,,,,,,,,,,,,,,,,,,,,,,,,,,,,,,,1,0,1,0,,,,,,,,,25.666135957999813,25.666135957999813,5,1.9927157920001264,,,,,,,,,,,,,,,,,,,,,,,,,,,,,,,,,,,,,,,,,,,,reldom2_s010,001,2025-02-11_16h12.15.967,What-A-Scan_AC,2022.2.5,None,
,,,,,,,,,,,,,,,,,,,,,,,,,,,,,,,,,,,,,,,,,,,,2,0,2,0,,,,,,,,,27.67149708299985,27.67149708299985,5,1.986722459000248,,,,,,,,,,,,,,,,,,,,,,,,,,,,,,,,,,,,,,,,,,,,reldom2_s010,001,2025-02-11_16h12.15.967,What-A-Scan_AC,2022.2.5,None,
,,,,,,,,,,,,,,,,,,,,,,,,,,,,,,,,,,,,,,,,,,,,3,0,3,0,,,,,,,,,29.66938583299998,29.66938583299998,5,1.9895342079998954,,,,,,,,,,,,,,,,,,,,,,,,,,,,,,,,,,,,,,,,,,,,reldom2_s010,001,2025-02-11_16h12.15.967,What-A-Scan_AC,2022.2.5,None,
0,0.0,None,fixation,stimulus/audwhat_stim/blank_white.png,stimulus/audwhat_stim/blank_white.png,stimulus/viswhat_stim/blank_white.png,stimulus/viswhat_stim/blank_white.png,stimulus/audwhat_stim/blank_white.png,stimulus/audwhat_stim/blank_white.png,stimulus/audwhat_stim/blank_white.png,stimulus/audwhat_stim/blank_white.png,0.0,0.0,0.0,0.0,0,0.0,0,0.0,0,0.0,0,0.0,0,0.0,0.0,0,0.0,0,0.0,0,0.0,0,0.0,0,0.0,0,0.0,0,0.0,0,0.0,16,,,,,0,0,0,0,,,,,,,,,31.869679624999662,31.869679624999662,31.869679624999662,31.869679624999662,31.869679624999662,31.869679624999662,31.869679624999662,31.869679624999662,31.759588957999856,31.869679624999662,31.869679624999662,31.869679624999662,31.759588957999856,31.869679624999662,31.869679624999662,31.869679624999662,31.869679624999662,31.869679624999662,31.869679624999662,31.869679624999662,31.869679624999662,31.869679624999662,31.869679624999662,31.869679624999662,31.869679624999662,31.869679624999662,31.869679624999662,31.809588957999857,31.869679624999662,31.869679624999662,31.869679624999662,31.809588957999857,31.869679624999662,31.869679624999662,31.869679624999662,31.869679624999662,31.869679624999662,37.06321524999976,37.06321524999976,48.09417808299986,None,0,,reldom2_s010,001,2025-02-11_16h12.15.967,What-A-Scan_AC,2022.2.5,None,
1,First_Order,1.0,audwhat,stimulus/audwhat_stim/dummy.wav,stimulus/audwhat_stim/dummy.wav,stimulus/audwhat_stim/percussion mallet_low-pitch_Dtri_loud.wav,stimulus/audwhat_stim/percussion xylophone_high-pitch_F_loud.wav,stimulus/audwhat_stim/blank_white.png,stimulus/audwhat_stim/pitch_box.png,stimulus/audwhat_stim/pitch_yes.png,stimulus/audwhat_stim/pitch_no.png,None,Pitch,None,Category,2,0.0,0,5.125,0,5.125,0,5.125,0,0.0,0.625,0,0.0,0,0.0,0,0.0,0,0.0,0,0.0,0,0.0,1,0.5,1,2.125,0,,,,,0,1,1,1,,,,,,,,,48.09417808299986,48.09417808299986,48.09417808299986,48.09417808299986,48.09417808299986,48.09417808299986,48.09417808299986,48.09417808299986,48.00555824999983,48.09417808299986,48.09417808299986,48.09417808299986,48.00555824999983,48.09417808299986,48.09417808299986,48.09417808299986,50.165816624999934,54.224003999999695,48.09417808299986,48.09417808299986,53.27512229099966,48.09417808299986,48.09417808299986,48.09417808299986,48.09417808299986,48.56221916599998,49.59605737499987,48.52633541666661,,50.165816624999934,51.20777537499998,50.13064249966625,51.20777537499998,48.09417808299986,53.27512229099966,48.09417808299986,53.27512229099966,53.32112841599974,54.000947749999796,48.09417808299986,1,0,0.950292833000276,reldom2_s010,001,2025-02-11_16h12.15.967,What-A-Scan_AC,2022.2.5,None,
2,First_Order,1.0,audwhat,stimulus/audwhat_stim/dummy.wav,stimulus/audwhat_stim/dummy.wav,stimulus/audwhat_stim/percussion xylophone_high-pitch_Dtri_loud.wav,stimulus/audwhat_stim/percussion mallet_low-pitch_D_loud.wav,stimulus/audwhat_stim/blank_white.png,stimulus/audwhat_stim/pitch_box.png,stimulus/audwhat_stim/pitch_yes.png,stimulus/audwhat_stim/pitch_no.png,None,Pitch,None,Category,2,0.0,0,5.125,0,5.125,0,5.125,0,0.0,0.625,0,0.0,0,0.0,0,0.0,0,0.0,0,0.0,0,0.0,1,0.5,1,2.125,0,,,,,0,2,2,2,,,,,,,,,54.224003999999695,54.224003999999695,54.224003999999695,54.224003999999695,54.224003999999695,54.224003999999695,54.224003999999695,54.224003999999695,54.13428108333313,54.224003999999695,54.224003999999695,54.224003999999695,54.13428108333313,54.224003999999695,54.224003999999695,54.224003999999695,56.301420999999664,60.3588152909997,54.224003999999695,54.224003999999695,59.4066872909998,54.224003999999695,54.224003999999695,54.224003999999695,54.224003999999695,54.6904169999998,55.731590249999954,54.65477829166663,55.731590249999954,56.301420999999664,57.34440662499992,56.26650862466637,,54.224003999999695,59.4066872909998,54.224003999999695,59.4066872909998,59.45219741599976,60.13581162499986,54.224003999999695,2,1,0.7011229590002586,reldom2_s010,001,2025-02-11_16h12.15.967,What-A-Scan_AC,2022.2.5,None,
3,First_Order,1.0,audwhat,stimulus/audwhat_stim/dummy.wav,stimulus/audwhat_stim/dummy.wav,stimulus/audwhat_stim/percussion mallet_low-pitch_F_loud.wav,stimulus/audwhat_stim/percussion xylophone_high-pitch_Ftri_loud.wav,stimulus/audwhat_stim/blank_white.png,stimulus/audwhat_stim/category_box.png,stimulus/audwhat_stim/category_yes.png,stimulus/audwhat_stim/category_no.png,None,Category,None,Category,1,0.0,0,5.125,0,5.125,0,5.125,0,0.0,0.625,0,0.0,0,0.0,0,0.0,0,0.0,0,0.0,0,0.0,1,0.5,1,2.125,0,,,,,0,3,3,3,,,,,,,,,60.3588152909997,60.3588152909997,60.3588152909997,60.3588152909997,60.3588152909997,60.3588152909997,60.3588152909997,60.3588152909997,60.26914495833319,60.3588152909997,60.3588152909997,60.3588152909997,60.26914495833319,60.3588152909997,60.3588152909997,60.3588152909997,62.44106537499965,,60.3588152909997,60.3588152909997,65.55903391599986,60.3588152909997,60.3588152909997,60.3588152909997,60.3588152909997,60.82831704099999,61.871921208,60.79265258266629,,62.44106537499965,63.48627220799972,62.40554845766634,63.48627220799972,60.3588152909997,65.55903391599986,60.3588152909997,65.55903391599986,65.55903391599986,66.24356179099959,60.3588152909997,2,0,1.1008813749999717,reldom2_s010,001,2025-02-11_16h12.15.967,What-A-Scan_AC,2022.2.5,None,
4,First_Order,1.0,audwhat,stimulus/audwhat_stim/dummy.wav,stimulus/audwhat_stim/dummy.wav,stimulus/audwhat_stim/percussion mallet_low-pitch_Dtri_loud.wav,stimulus/audwhat_stim/percussion mallet_high-pitch_F_loud.wav,stimulus/audwhat_stim/blank_white.png,stimulus/audwhat_stim/category_box.png,stimulus/audwhat_stim/category_yes.png,stimulus/audwhat_stim/category_no.png,None,Category,None,Category,1,0.0,0,5.125,0,5.125,0,5.125,0,0.0,0.625,0,0.0,0,0.0,0,0.0,0,0.0,0,0.0,0,0.0,1,0.5,1,2.125,0,,,,,0,4,4,4,,,,,,,,,66.46649358299965,66.46649358299965,66.46649358299965,66.46649358299965,66.46649358299965,66.46649358299965,66.46649358299965,66.46649358299965,66.37689512433292,66.46649358299965,66.46649358299965,66.46649358299965,66.37689512433292,66.46649358299965,66.46649358299965,66.46649358299965,68.54529741599981,,66.46649358299965,66.46649358299965,71.65965012499964,66.46649358299965,66.46649358299965,66.46649358299965,66.46649358299965,66.93437337499972,67.97432874999959,66.89908091666645,,68.54529741599981,69.58640554099975,68.50991329166642,,66.46649358299965,71.65965012499964,66.46649358299965,71.65965012499964,71.65965012499964,72.34674487499979,66.46649358299965,1,1,0.6202869160001683,reldom2_s010,001,2025-02-11_16h12.15.967,What-A-Scan_AC,2022.2.5,None,
0,0.0,None,fixation,stimulus/audwhat_stim/blank_white.png,stimulus/audwhat_stim/blank_white.png,stimulus/viswhat_stim/blank_white.png,stimulus/viswhat_stim/blank_white.png,stimulus/audwhat_stim/blank_white.png,stimulus/audwhat_stim/blank_white.png,stimulus/audwhat_stim/blank_white.png,stimulus/audwhat_stim/blank_white.png,0.0,0.0,0.0,0.0,0,0.0,0,0.0,0,0.0,0,0.0,0,0.0,0.0,0,0.0,0,0.0,0,0.0,0,0.0,0,0.0,0,0.0,0,0.0,0,0.0,10,,,,,0,5,5,5,,,,,,,,,72.58930066599987,72.58930066599987,72.58930066599987,72.58930066599987,72.58930066599987,72.58930066599987,72.58930066599987,72.58930066599987,72.48007820833311,72.58930066599987,72.58930066599987,72.58930066599987,72.48007820833311,72.58930066599987,72.58930066599987,72.58930066599987,72.58930066599987,72.58930066599987,72.58930066599987,72.58930066599987,72.58930066599987,72.58930066599987,72.58930066599987,72.58930066599987,72.58930066599987,72.58930066599987,72.58930066599987,72.54674487499979,72.58930066599987,72.58930066599987,72.58930066599987,72.54674487499979,72.58930066599987,72.58930066599987,72.58930066599987,72.58930066599987,72.58930066599987,77.8221686249999,77.8221686249999,82.74128691599981,None,0,,reldom2_s010,001,2025-02-11_16h12.15.967,What-A-Scan_AC,2022.2.5,None,
5,Second_Order,1.0,audwhat,stimulus/audwhat_stim/string cello_low-pitch_D_loud.wav,stimulus/audwhat_stim/string viola_high-pitch_Dtri_loud.wav,stimulus/audwhat_stim/percussion mallet_low-pitch_D_loud.wav,stimulus/audwhat_stim/string viola_low-pitch_D_loud.wav,stimulus/audwhat_stim/match_blank.png,stimulus/audwhat_stim/match_box.png,stimulus/audwhat_stim/match_yes.png,stimulus/audwhat_stim/match_no.png,2.0,Match,Category,Pitch,2,5.125,0,5.125,0,5.125,0,5.125,0,0.75,0.75,0,0.0,0,0.0,0,0.0,0,0.0,1,0.5,1,2.125,1,0.5,1,2.125,0,,,,,0,6,6,6,,,,,,,,,82.74128691599981,87.86313066599996,82.74128691599981,82.74128691599981,82.74128691599981,82.74128691599981,83.18914812499997,84.18790887499972,83.20120249966637,,84.81488354099974,85.80559479099975,84.82643554166658,,87.86313066599996,88.70616945799975,90.78128037499982,,88.70616945799975,88.70616945799975,93.89732454099976,88.70616945799975,88.70616945799975,88.70616945799975,88.70616945799975,89.17315533299961,90.21194795799966,89.1379603746666,,90.78128037499982,91.82846308299986,90.74548316666666,,88.70616945799975,93.89732454099976,88.70616945799975,93.89732454099976,93.89732454099976,,88.70616945799975,1,0,2.680727625000145,reldom2_s010,001,2025-02-11_16h12.15.967,What-A-Scan_AC,2022.2.5,None,
6,Second_Order,1.0,audwhat,stimulus/audwhat_stim/string cello_high-pitch_Dtri_loud.wav,stimulus/audwhat_stim/percussion mallet_high-pitch_Dtri_loud.wav,stimulus/audwhat_stim/percussion mallet_low-pitch_Ftri_loud.wav,stimulus/audwhat_stim/string cello_low-pitch_Ftri_loud.wav,stimulus/audwhat_stim/match_blank.png,stimulus/audwhat_stim/match_box.png,stimulus/audwhat_stim/match_yes.png,stimulus/audwhat_stim/match_no.png,1.0,Match,Pitch,Pitch,1,5.125,0,5.125,0,5.125,0,5.125,0,0.625,0.625,0,0.0,0,0.0,0,0.0,0,0.0,1,0.5,1,2.125,1,0.5,1,2.125,0,,,,,0,7,7,7,,,,,,,,,94.70694624999987,99.82207908299961,94.70694624999987,94.70694624999987,94.70694624999987,94.70694624999987,95.15945016599971,96.15582841599962,95.1609026666663,,96.784034625,97.78429862499979,96.78787283266662,,99.82207908299961,100.53269124999997,102.61639533299967,,100.53269124999997,100.53269124999997,105.72664295799996,100.53269124999997,100.53269124999997,100.53269124999997,100.53269124999997,101.00378045799971,102.0462424579996,100.96833129166659,,102.61639533299967,103.65771599999971,102.58096591666641,,100.53269124999997,105.72664295799996,100.53269124999997,105.72664295799996,105.72664295799996,106.41067254099971,100.53269124999997,1,1,0.8756334590002552,reldom2_s010,001,2025-02-11_16h12.15.967,What-A-Scan_AC,2022.2.5,None,
0,0.0,None,fixation,stimulus/audwhat_stim/blank_white.png,stimulus/audwhat_stim/blank_white.png,stimulus/viswhat_stim/blank_white.png,stimulus/viswhat_stim/blank_white.png,stimulus/audwhat_stim/blank_white.png,stimulus/audwhat_stim/blank_white.png,stimulus/audwhat_stim/blank_white.png,stimulus/audwhat_stim/blank_white.png,0.0,0.0,0.0,0.0,0,0.0,0,0.0,0,0.0,0,0.0,0,0.0,0.0,0,0.0,0,0.0,0,0.0,0,0.0,0,0.0,0,0.0,0,0.0,0,0.0,9,,,,,0,8,8,8,,,,,,,,,106.6555495409998,106.6555495409998,106.6555495409998,106.6555495409998,106.6555495409998,106.6555495409998,106.6555495409998,106.6555495409998,106.54400587433304,106.6555495409998,106.6555495409998,106.6555495409998,106.54400587433304,106.6555495409998,106.6555495409998,106.6555495409998,106.6555495409998,106.6555495409998,106.6555495409998,106.6555495409998,106.6555495409998,106.6555495409998,106.6555495409998,106.6555495409998,106.6555495409998,106.6555495409998,106.6555495409998,106.61067254099972,106.6555495409998,106.6555495409998,106.6555495409998,106.61067254099972,106.6555495409998,106.6555495409998,106.6555495409998,106.6555495409998,106.6555495409998,111.88413970799957,111.88413970799957,115.91817354099976,None,0,,reldom2_s010,001,2025-02-11_16h12.15.967,What-A-Scan_AC,2022.2.5,None,
7,First_Order,2.0,audwhat,stimulus/audwhat_stim/dummy.wav,stimulus/audwhat_stim/dummy.wav,stimulus/audwhat_stim/string cello_low-pitch_F_loud.wav,stimulus/audwhat_stim/percussion mallet_low-pitch_F_loud.wav,stimulus/audwhat_stim/blank_white.png,stimulus/audwhat_stim/pitch_box.png,stimulus/audwhat_stim/pitch_yes.png,stimulus/audwhat_stim/pitch_no.png,None,Pitch,None,Pitch,1,0.0,0,5.125,0,5.125,0,5.125,0,0.0,0.625,0,0.0,0,0.0,0,0.0,0,0.0,0,0.0,0,0.0,1,0.5,1,2.125,0,,,,,0,9,9,9,,,,,,,,,115.91817354099976,115.91817354099976,115.91817354099976,115.91817354099976,115.91817354099976,115.91817354099976,115.91817354099976,115.91817354099976,115.82603512466646,115.91817354099976,115.91817354099976,115.91817354099976,115.82603512466646,115.91817354099976,115.91817354099976,115.91817354099976,117.9950886659999,122.04623812499995,115.91817354099976,115.91817354099976,121.08911495799975,115.91817354099976,115.91817354099976,115.91817354099976,115.91817354099976,116.38543408299984,117.42524129099957,116.34985016666657,,117.9950886659999,119.032215791,117.96076204166663,,115.91817354099976,121.08911495799975,115.91817354099976,121.08911495799975,121.135081291,121.82050358299966,115.91817354099976,1,1,1.4064752919998682,reldom2_s010,001,2025-02-11_16h12.15.967,What-A-Scan_AC,2022.2.5,None,
8,First_Order,2.0,audwhat,stimulus/audwhat_stim/dummy.wav,stimulus/audwhat_stim/dummy.wav,stimulus/audwhat_stim/string cello_low-pitch_Dtri_loud.wav,stimulus/audwhat_stim/percussion mallet_low-pitch_Dtri_loud.wav,stimulus/audwhat_stim/blank_white.png,stimulus/audwhat_stim/category_box.png,stimulus/audwhat_stim/category_yes.png,stimulus/audwhat_stim/category_no.png,None,Category,None,Pitch,2,0.0,0,5.125,0,5.125,0,5.125,0,0.0,0.625,0,0.0,0,0.0,0,0.0,0,0.0,0,0.0,0,0.0,1,0.5,1,2.125,0,,,,,0,10,10,10,,,,,,,,,122.04623812499995,122.04623812499995,122.04623812499995,122.04623812499995,122.04623812499995,122.04623812499995,122.04623812499995,122.04623812499995,121.95383691633299,122.04623812499995,122.04623812499995,122.04623812499995,121.95383691633299,122.04623812499995,122.04623812499995,122.04623812499995,124.12791983299985,,122.04623812499995,122.04623812499995,127.24934679099988,122.04623812499995,122.04623812499995,122.04623812499995,122.04623812499995,122.51527470799965,123.55568949999997,122.47971920766646,,124.12791983299985,125.17173174999971,124.09225654166654,,122.04623812499995,127.24934679099988,122.04623812499995,127.24934679099988,127.24934679099988,127.93636783299962,122.04623812499995,2,1,0.7844751250004265,reldom2_s010,001,2025-02-11_16h12.15.967,What-A-Scan_AC,2022.2.5,None,
9,First_Order,2.0,audwhat,stimulus/audwhat_stim/dummy.wav,stimulus/audwhat_stim/dummy.wav,stimulus/audwhat_stim/string cello_high-pitch_F_loud.wav,stimulus/audwhat_stim/percussion mallet_high-pitch_F_loud.wav,stimulus/audwhat_stim/blank_white.png,stimulus/audwhat_stim/pitch_box.png,stimulus/audwhat_stim/pitch_yes.png,stimulus/audwhat_stim/pitch_no.png,None,Pitch,None,Pitch,1,0.0,0,5.125,0,5.125,0,5.125,0,0.0,0.625,0,0.0,0,0.0,0,0.0,0,0.0,0,0.0,0,0.0,1,0.5,1,2.125,0,,,,,0,11,11,11,,,,,,,,,128.16228899999987,128.16228899999987,128.16228899999987,128.16228899999987,128.16228899999987,128.16228899999987,128.16228899999987,128.16228899999987,128.08636783299963,128.16228899999987,128.16228899999987,128.16228899999987,128.08636783299963,128.16228899999987,128.16228899999987,128.16228899999987,130.23407924999992,134.29768345799994,128.16228899999987,128.16228899999987,133.34499512499997,128.16228899999987,128.16228899999987,128.16228899999987,128.16228899999987,128.6286262079998,129.66305358299996,128.5931858746665,,130.23407924999992,131.27547108299996,130.1987607916665,,128.16228899999987,133.34499512499997,128.16228899999987,133.34499512499997,133.39063791599983,134.07351624999956,128.16228899999987,1,1,0.7735845840002185,reldom2_s010,001,2025-02-11_16h12.15.967,What-A-Scan_AC,2022.2.5,None,
10,First_Order,2.0,audwhat,stimulus/audwhat_stim/dummy.wav,stimulus/audwhat_stim/dummy.wav,stimulus/audwhat_stim/percussion xylophone_high-pitch_D_loud.wav,stimulus/audwhat_stim/string cello_high-pitch_D_loud.wav,stimulus/audwhat_stim/blank_white.png,stimulus/audwhat_stim/category_box.png,stimulus/audwhat_stim/category_yes.png,stimulus/audwhat_stim/category_no.png,None,Category,None,Pitch,2,0.0,0,5.125,0,5.125,0,5.125,0,0.0,0.625,0,0.0,0,0.0,0,0.0,0,0.0,0,0.0,0,0.0,1,0.5,1,2.125,0,,,,,0,12,12,12,,,,,,,,,134.29768345799994,134.29768345799994,134.29768345799994,134.29768345799994,134.29768345799994,134.29768345799994,134.29768345799994,134.29768345799994,134.2068495833329,134.29768345799994,134.29768345799994,134.29768345799994,134.2068495833329,134.29768345799994,134.29768345799994,134.29768345799994,136.3830872499998,,134.29768345799994,134.29768345799994,139.45348666599966,134.29768345799994,134.29768345799994,134.29768345799994,134.29768345799994,134.76605545799976,135.8128644579997,134.7297636666665,135.8128644579997,136.3830872499998,137.42850062499974,136.3474773326664,,134.29768345799994,139.45348666599966,134.29768345799994,139.45348666599966,139.4993809159996,140.18601870799966,134.29768345799994,2,1,2.183562417000303,reldom2_s010,001,2025-02-11_16h12.15.967,What-A-Scan_AC,2022.2.5,None,
0,0.0,None,fixation,stimulus/audwhat_stim/blank_white.png,stimulus/audwhat_stim/blank_white.png,stimulus/viswhat_stim/blank_white.png,stimulus/viswhat_stim/blank_white.png,stimulus/audwhat_stim/blank_white.png,stimulus/audwhat_stim/blank_white.png,stimulus/audwhat_stim/blank_white.png,stimulus/audwhat_stim/blank_white.png,0.0,0.0,0.0,0.0,0,0.0,0,0.0,0,0.0,0,0.0,0,0.0,0.0,0,0.0,0,0.0,0,0.0,0,0.0,0,0.0,0,0.0,0,0.0,0,0.0,10,,,,,0,13,13,13,,,,,,,,,140.4302859999998,140.4302859999998,140.4302859999998,140.4302859999998,140.4302859999998,140.4302859999998,140.4302859999998,140.4302859999998,140.31935204133302,140.4302859999998,140.4302859999998,140.4302859999998,140.31935204133302,140.4302859999998,140.4302859999998,140.4302859999998,140.4302859999998,140.4302859999998,140.4302859999998,140.4302859999998,140.4302859999998,140.4302859999998,140.4302859999998,140.4302859999998,140.4302859999998,140.4302859999998,140.4302859999998,140.38601870799968,140.4302859999998,140.4302859999998,140.4302859999998,140.38601870799968,140.4302859999998,140.4302859999998,140.4302859999998,140.4302859999998,140.4302859999998,145.6651614579996,145.6651614579996,150.59446891599964,None,0,,reldom2_s010,001,2025-02-11_16h12.15.967,What-A-Scan_AC,2022.2.5,None,
11,Second_Order,2.0,audwhat,stimulus/audwhat_stim/string viola_high-pitch_D_loud.wav,stimulus/audwhat_stim/percussion xylophone_high-pitch_D_loud.wav,stimulus/audwhat_stim/percussion mallet_low-pitch_F_loud.wav,stimulus/audwhat_stim/string viola_low-pitch_F_loud.wav,stimulus/audwhat_stim/match_blank.png,stimulus/audwhat_stim/match_box.png,stimulus/audwhat_stim/match_yes.png,stimulus/audwhat_stim/match_no.png,1.0,Match,Pitch,Pitch,1,5.125,0,5.125,0,5.125,0,5.125,0,0.75,0.75,0,0.0,0,0.0,0,0.0,0,0.0,1,0.5,1,2.125,1,0.5,1,2.125,0,,,,,0,14,14,14,,,,,,,,,150.59446891599964,155.71722258299997,150.59446891599964,150.59446891599964,150.59446891599964,150.59446891599964,151.03864466599998,152.03464741599964,151.05045416666624,,152.6650126659997,153.65455212499955,152.67630266666654,153.6777904999999,155.71722258299997,156.55196845799992,158.63284429099986,162.56198320799967,156.55196845799992,156.55196845799992,161.7506465409997,156.55196845799992,156.55196845799992,156.55196845799992,156.55196845799992,157.02113949999966,158.0628032909999,156.98585312466665,,158.63284429099986,159.67402358299978,158.5976270826666,,156.55196845799992,161.7506465409997,156.55196845799992,161.7506465409997,161.7506465409997,,156.55196845799992,1,1,1.1796852919997036,reldom2_s010,001,2025-02-11_16h12.15.967,What-A-Scan_AC,2022.2.5,None,
12,Second_Order,2.0,audwhat,stimulus/audwhat_stim/percussion mallet_high-pitch_Dtri_loud.wav,stimulus/audwhat_stim/string viola_high-pitch_Dtri_loud.wav,stimulus/audwhat_stim/string viola_low-pitch_Dtri_loud.wav,stimulus/audwhat_stim/percussion mallet_low-pitch_Dtri_loud.wav,stimulus/audwhat_stim/match_blank.png,stimulus/audwhat_stim/match_box.png,stimulus/audwhat_stim/match_yes.png,stimulus/audwhat_stim/match_no.png,1.0,Match,Pitch,Pitch,1,5.125,0,5.125,0,5.125,0,5.125,0,0.625,0.625,0,0.0,0,0.0,0,0.0,0,0.0,1,0.5,1,2.125,1,0.5,1,2.125,0,,,,,0,15,15,15,,,,,,,,,162.56198320799967,167.68806608299974,162.56198320799967,162.56198320799967,162.56198320799967,162.56198320799967,163.00623712499964,164.00106695799968,163.0179277496666,164.01347712499955,164.63428962499984,165.6260313749999,164.64634033266637,,167.68806608299974,168.39759012499962,170.4718463749996,,168.39759012499962,168.39759012499962,173.5900433329998,168.39759012499962,168.39759012499962,168.39759012499962,168.39759012499962,168.86499520799998,169.90253245799977,168.82931429166663,,170.4718463749996,171.5144114159998,170.4363617076663,,168.39759012499962,173.5900433329998,168.39759012499962,173.5900433329998,173.5900433329998,174.27634099999977,168.39759012499962,1,1,2.1886465419997876,reldom2_s010,001,2025-02-11_16h12.15.967,What-A-Scan_AC,2022.2.5,None,
0,0.0,None,fixation,stimulus/audwhat_stim/blank_white.png,stimulus/audwhat_stim/blank_white.png,stimulus/viswhat_stim/blank_white.png,stimulus/viswhat_stim/blank_white.png,stimulus/audwhat_stim/blank_white.png,stimulus/audwhat_stim/blank_white.png,stimulus/audwhat_stim/blank_white.png,stimulus/audwhat_stim/blank_white.png,0.0,0.0,0.0,0.0,0,0.0,0,0.0,0,0.0,0,0.0,0,0.0,0.0,0,0.0,0,0.0,0,0.0,0,0.0,0,0.0,0,0.0,0,0.0,0,0.0,8,,,,,0,16,16,16,,,,,,,,,174.52071020799985,174.52071020799985,174.52071020799985,174.52071020799985,174.52071020799985,174.52071020799985,174.52071020799985,174.52071020799985,174.40967433333313,174.52071020799985,174.52071020799985,174.52071020799985,174.40967433333313,174.52071020799985,174.52071020799985,174.52071020799985,174.52071020799985,174.52071020799985,174.52071020799985,174.52071020799985,174.52071020799985,174.52071020799985,174.52071020799985,174.52071020799985,174.52071020799985,174.52071020799985,174.52071020799985,174.4763409999998,174.52071020799985,174.52071020799985,174.52071020799985,174.4763409999998,174.52071020799985,174.52071020799985,174.52071020799985,174.52071020799985,174.52071020799985,179.7598459159999,179.7598459159999,182.93523149999965,None,0,,reldom2_s010,001,2025-02-11_16h12.15.967,What-A-Scan_AC,2022.2.5,None,
13,First_Order,3.0,viswhat,stimulus/viswhat_stim/blank_white.png,stimulus/viswhat_stim/blank_white.png,stimulus/viswhat_stim/water_vehicle-cruiseship.png,stimulus/viswhat_stim/land_vehicle-pickuptruck.png,stimulus/viswhat_stim/blank_white.png,stimulus/viswhat_stim/type_box.png,stimulus/viswhat_stim/type_yes.png,stimulus/viswhat_stim/type_no.png,None,Type,None,Type,1,0.0,0,5.125,0,5.125,0,5.125,0,0.0,0.625,0,0.0,0,0.0,1,0.5,1,2.125,0,0.0,0,0.0,0,0.0,0,0.0,0,,,,,0,17,17,17,,,,,,,,,182.93523149999965,182.93523149999965,182.93523149999965,182.93523149999965,182.93523149999965,182.93523149999965,182.93523149999965,182.93523149999965,182.7229362916666,182.93523149999965,182.93523149999965,182.93523149999965,182.7229362916666,182.93523149999965,182.93523149999965,182.93523149999965,184.99056966599983,,182.93523149999965,182.93523149999965,188.17890420799995,183.34855570799982,184.47792449999997,184.99056966599983,186.12522724999963,182.93523149999965,182.93523149999965,182.83960295833327,182.93523149999965,182.93523149999965,182.93523149999965,182.83960295833327,182.93523149999965,182.93523149999965,188.17890420799995,182.93523149999965,188.17890420799995,188.08235766599955,,182.93523149999965,None,0,,reldom2_s010,001,2025-02-11_16h12.15.967,What-A-Scan_AC,2022.2.5,None,
14,First_Order,3.0,viswhat,stimulus/viswhat_stim/blank_white.png,stimulus/viswhat_stim/blank_white.png,stimulus/viswhat_stim/water_animal-lobster.png,stimulus/viswhat_stim/water_vehicle-cruiseship.png,stimulus/viswhat_stim/blank_white.png,stimulus/viswhat_stim/location_box.png,stimulus/viswhat_stim/location_yes.png,stimulus/viswhat_stim/location_no.png,None,Location,None,Location,1,0.0,0,5.125,0,5.125,0,5.125,0,0.0,0.625,0,0.0,0,0.0,1,0.5,1,2.125,0,0.0,0,0.0,0,0.0,0,0.0,0,,,,,0,18,18,18,,,,,,,,,189.35748324999986,189.35748324999986,189.35748324999986,189.35748324999986,189.35748324999986,189.35748324999986,189.35748324999986,189.35748324999986,188.91159062499992,189.35748324999986,189.35748324999986,189.35748324999986,188.91159062499992,189.35748324999986,189.35748324999986,189.35748324999986,191.42089879099967,,189.35748324999986,189.35748324999986,194.86009858299985,189.81623645799982,191.18870466599992,191.42089879099967,192.80244537499993,189.35748324999986,189.35748324999986,189.12825729166659,189.35748324999986,189.35748324999986,189.35748324999986,189.12825729166659,189.35748324999986,189.35748324999986,194.86009858299985,189.35748324999986,194.86009858299985,194.40902337499983,,189.35748324999986,1,1,0.7972858749999432,reldom2_s010,001,2025-02-11_16h12.15.967,What-A-Scan_AC,2022.2.5,None,
15,First_Order,3.0,viswhat,stimulus/viswhat_stim/blank_white.png,stimulus/viswhat_stim/blank_white.png,stimulus/viswhat_stim/water_vehicle-cruiseship.png,stimulus/viswhat_stim/land_vehicle-bus.png,stimulus/viswhat_stim/blank_white.png,stimulus/viswhat_stim/location_box.png,stimulus/viswhat_stim/location_yes.png,stimulus/viswhat_stim/location_no.png,None,Location,None,Type,2,0.0,0,5.125,0,5.125,0,5.125,0,0.0,0.625,0,0.0,0,0.0,1,0.5,1,2.125,0,0.0,0,0.0,0,0.0,0,0.0,0,,,,,0,19,19,19,,,,,,,,,195.5555320829999,195.5555320829999,195.5555320829999,195.5555320829999,195.5555320829999,195.5555320829999,195.5555320829999,195.5555320829999,195.36009858299985,195.5555320829999,195.5555320829999,195.5555320829999,195.36009858299985,195.5555320829999,195.5555320829999,195.5555320829999,197.60736508299988,,195.5555320829999,195.5555320829999,200.8232576659998,195.992192875,197.17914920799967,197.60736508299988,198.79119591599965,195.5555320829999,195.5555320829999,195.46009858299988,195.5555320829999,195.5555320829999,195.5555320829999,195.46009858299988,195.5555320829999,195.5555320829999,200.8232576659998,195.5555320829999,200.8232576659998,200.72210604099973,,195.5555320829999,2,1,1.1198063330002697,reldom2_s010,001,2025-02-11_16h12.15.967,What-A-Scan_AC,2022.2.5,None,
16,First_Order,3.0,viswhat,stimulus/viswhat_stim/blank_white.png,stimulus/viswhat_stim/blank_white.png,stimulus/viswhat_stim/land_vehicle-oldcar.png,stimulus/viswhat_stim/water_vehicle-pirateship.png,stimulus/viswhat_stim/blank_white.png,stimulus/viswhat_stim/type_box.png,stimulus/viswhat_stim/type_yes.png,stimulus/viswhat_stim/type_no.png,None,Type,None,Type,1,0.0,0,5.125,0,5.125,0,5.125,0,0.0,0.625,0,0.0,0,0.0,1,0.5,1,2.125,0,0.0,0,0.0,0,0.0,0,0.0,0,,,,,0,20,20,20,,,,,,,,,201.65702620799993,201.65702620799993,201.65702620799993,201.65702620799993,201.65702620799993,201.65702620799993,201.65702620799993,201.65702620799993,201.57686054099986,201.65702620799993,201.65702620799993,201.65702620799993,201.57686054099986,201.65702620799993,201.65702620799993,201.65702620799993,203.73883899999964,,201.65702620799993,201.65702620799993,206.83145212499994,202.14099824999994,203.208195875,203.73883899999964,204.8049834999997,201.65702620799993,201.65702620799993,201.61019387433322,201.65702620799993,201.65702620799993,201.65702620799993,201.61019387433322,201.65702620799993,201.65702620799993,206.83145212499994,201.65702620799993,206.83145212499994,206.87355416599985,207.54484699999966,201.65702620799993,1,1,1.0176028750001933,reldom2_s010,001,2025-02-11_16h12.15.967,What-A-Scan_AC,2022.2.5,None,
0,0.0,None,fixation,stimulus/audwhat_stim/blank_white.png,stimulus/audwhat_stim/blank_white.png,stimulus/viswhat_stim/blank_white.png,stimulus/viswhat_stim/blank_white.png,stimulus/audwhat_stim/blank_white.png,stimulus/audwhat_stim/blank_white.png,stimulus/audwhat_stim/blank_white.png,stimulus/audwhat_stim/blank_white.png,0.0,0.0,0.0,0.0,0,0.0,0,0.0,0,0.0,0,0.0,0,0.0,0.0,0,0.0,0,0.0,0,0.0,0,0.0,0,0.0,0,0.0,0,0.0,0,0.0,9,,,,,0,21,21,21,,,,,,,,,207.78896854099958,207.78896854099958,207.78896854099958,207.78896854099958,207.78896854099958,207.78896854099958,207.78896854099958,207.78896854099958,207.67818033333302,207.78896854099958,207.78896854099958,207.78896854099958,207.67818033333302,207.78896854099958,207.78896854099958,207.78896854099958,207.78896854099958,207.78896854099958,207.78896854099958,207.78896854099958,207.78896854099958,207.78896854099958,207.78896854099958,207.78896854099958,207.78896854099958,207.78896854099958,207.78896854099958,207.728180333333,207.78896854099958,207.78896854099958,207.78896854099958,207.728180333333,207.78896854099958,207.78896854099958,207.78896854099958,207.78896854099958,207.78896854099958,212.961435833,212.961435833,216.94689445799986,None,0,,reldom2_s010,001,2025-02-11_16h12.15.967,What-A-Scan_AC,2022.2.5,None,
17,Second_Order,3.0,viswhat,stimulus/viswhat_stim/water_animal-shark.png,stimulus/viswhat_stim/water_vehicle-pirateship.png,stimulus/viswhat_stim/water_animal-squid.png,stimulus/viswhat_stim/land_animal-elephant.png,stimulus/audwhat_stim/match_blank.png,stimulus/audwhat_stim/match_box.png,stimulus/audwhat_stim/match_yes.png,stimulus/audwhat_stim/match_no.png,2.0,Match,Location,Type,2,5.125,0,5.125,0,5.125,0,5.125,0,0.75,0.75,1,0.5,1,2.125,1,0.5,1,2.125,0,0.0,0,0.0,0,0.0,0,0.0,0,,,,,0,22,22,22,,,,,,,,,216.94689445799986,222.05782591599973,217.39732741599983,218.39143929099964,219.02874737499997,220.01606674999994,216.94689445799986,216.94689445799986,216.94978387499978,216.94689445799986,216.94689445799986,216.94689445799986,216.94978387499978,216.94689445799986,222.05782591599973,222.94615795799973,225.05417895799974,,222.94615795799973,222.94615795799973,228.18774858299957,223.38322224999956,224.4730822499996,225.05417895799974,226.15225741599988,222.94615795799973,222.94615795799973,222.88722987433297,222.94615795799973,222.94615795799973,222.94615795799973,222.88722987433297,222.94615795799973,222.94615795799973,228.18774858299957,222.94615795799973,228.18774858299957,228.12117016599996,,222.94615795799973,2,1,0.7343491669998912,reldom2_s010,001,2025-02-11_16h12.15.967,What-A-Scan_AC,2022.2.5,None,
18,Second_Order,3.0,viswhat,stimulus/viswhat_stim/land_vehicle-pickuptruck.png,stimulus/viswhat_stim/water_vehicle-pirateship.png,stimulus/viswhat_stim/water_animal-jellyfish.png,stimulus/viswhat_stim/land_animal-snake.png,stimulus/audwhat_stim/match_blank.png,stimulus/audwhat_stim/match_box.png,stimulus/audwhat_stim/match_yes.png,stimulus/audwhat_stim/match_no.png,1.0,Match,Type,Type,1,5.125,0,5.125,0,5.125,0,5.125,0,0.625,0.625,1,0.5,1,2.125,1,0.5,1,2.125,0,0.0,0,0.0,0,0.0,0,0.0,0,,,,,0,23,23,23,,,,,,,,,228.9302424579996,234.04205045799972,229.39756708299956,230.39537358299958,231.02264999999989,232.01699362499994,228.9302424579996,228.9302424579996,228.93413274999958,228.9302424579996,228.9302424579996,228.9302424579996,228.93413274999958,228.9302424579996,234.04205045799972,234.71770345799996,236.80763529099977,240.86565641599964,234.71770345799996,234.71770345799996,239.8713765829998,235.17359937499987,236.190550541,236.80763529099977,237.8260766659996,234.71770345799996,234.71770345799996,234.68815454133306,234.71770345799996,234.71770345799996,234.71770345799996,234.68815454133306,234.71770345799996,234.71770345799996,239.8713765829998,234.71770345799996,239.8713765829998,239.92322654099962,240.57619324999996,234.71770345799996,1,1,0.4002888750001148,reldom2_s010,001,2025-02-11_16h12.15.967,What-A-Scan_AC,2022.2.5,None,
0,0.0,None,fixation,stimulus/audwhat_stim/blank_white.png,stimulus/audwhat_stim/blank_white.png,stimulus/viswhat_stim/blank_white.png,stimulus/viswhat_stim/blank_white.png,stimulus/audwhat_stim/blank_white.png,stimulus/audwhat_stim/blank_white.png,stimulus/audwhat_stim/blank_white.png,stimulus/audwhat_stim/blank_white.png,0.0,0.0,0.0,0.0,0,0.0,0,0.0,0,0.0,0,0.0,0,0.0,0.0,0,0.0,0,0.0,0,0.0,0,0.0,0,0.0,0,0.0,0,0.0,0,0.0,8,,,,,0,24,24,24,,,,,,,,,240.86565641599964,240.86565641599964,240.86565641599964,240.86565641599964,240.86565641599964,240.86565641599964,240.86565641599964,240.86565641599964,240.753552583,240.86565641599964,240.86565641599964,240.86565641599964,240.753552583,240.86565641599964,240.86565641599964,240.86565641599964,240.86565641599964,240.86565641599964,240.86565641599964,240.86565641599964,240.86565641599964,240.86565641599964,240.86565641599964,240.86565641599964,240.86565641599964,240.86565641599964,240.86565641599964,240.82021924966665,240.86565641599964,240.86565641599964,240.86565641599964,240.82021924966665,240.86565641599964,240.86565641599964,240.86565641599964,240.86565641599964,240.86565641599964,246.05129291599997,246.05129291599997,249.07054516599965,None,0,,reldom2_s010,001,2025-02-11_16h12.15.967,What-A-Scan_AC,2022.2.5,None,
19,First_Order,4.0,viswhat,stimulus/viswhat_stim/blank_white.png,stimulus/viswhat_stim/blank_white.png,stimulus/viswhat_stim/land_animal-wolf.png,stimulus/viswhat_stim/water_animal-squid.png,stimulus/viswhat_stim/blank_white.png,stimulus/viswhat_stim/location_box.png,stimulus/viswhat_stim/location_yes.png,stimulus/viswhat_stim/location_no.png,None,Location,None,Type,2,0.0,0,5.125,0,5.125,0,5.125,0,0.0,0.625,0,0.0,0,0.0,1,0.5,1,2.125,0,0.0,0,0.0,0,0.0,0,0.0,0,,,,,0,25,25,25,,,,,,,,,249.07054516599965,249.07054516599965,249.07054516599965,249.07054516599965,249.07054516599965,249.07054516599965,249.07054516599965,249.07054516599965,249.0164205826665,249.07054516599965,249.07054516599965,249.07054516599965,249.0164205826665,249.07054516599965,249.07054516599965,249.07054516599965,251.1729067909996,,249.07054516599965,249.07054516599965,254.23573016599994,249.5340662499998,250.5692201249999,251.1729067909996,252.2132486659998,249.07054516599965,249.07054516599965,249.04975391599984,249.07054516599965,249.07054516599965,249.07054516599965,249.04975391599984,249.07054516599965,249.07054516599965,254.23573016599994,249.07054516599965,254.23573016599994,254.29311845799975,254.93043441599957,249.07054516599965,2,1,1.2514040410001144,reldom2_s010,001,2025-02-11_16h12.15.967,What-A-Scan_AC,2022.2.5,None,
20,First_Order,4.0,viswhat,stimulus/viswhat_stim/blank_white.png,stimulus/viswhat_stim/blank_white.png,stimulus/viswhat_stim/water_animal-jellyfish.png,stimulus/viswhat_stim/water_vehicle-motorboatraft.png,stimulus/viswhat_stim/blank_white.png,stimulus/viswhat_stim/location_box.png,stimulus/viswhat_stim/location_yes.png,stimulus/viswhat_stim/location_no.png,None,Location,None,Location,1,0.0,0,5.125,0,5.125,0,5.125,0,0.0,0.625,0,0.0,0,0.0,1,0.5,1,2.125,0,0.0,0,0.0,0,0.0,0,0.0,0,,,,,0,26,26,26,,,,,,,,,255.14127254099958,255.14127254099958,255.14127254099958,255.14127254099958,255.14127254099958,255.14127254099958,255.14127254099958,255.14127254099958,255.10420633266665,255.14127254099958,255.14127254099958,255.14127254099958,255.10420633266665,255.14127254099958,255.14127254099958,255.14127254099958,257.246386583,261.3070397079996,255.14127254099958,255.14127254099958,260.27772208299984,255.62417508299995,256.6667155409996,257.246386583,258.2865607079998,255.14127254099958,255.14127254099958,255.12087299933333,255.14127254099958,255.14127254099958,255.14127254099958,255.12087299933333,255.14127254099958,255.14127254099958,260.27772208299984,255.14127254099958,260.27772208299984,260.35450654099986,260.9986703749996,255.14127254099958,1,1,0.8202555840002788,reldom2_s010,001,2025-02-11_16h12.15.967,What-A-Scan_AC,2022.2.5,None,
21,First_Order,4.0,viswhat,stimulus/viswhat_stim/blank_white.png,stimulus/viswhat_stim/blank_white.png,stimulus/viswhat_stim/land_animal-elephant.png,stimulus/viswhat_stim/land_vehicle-buldozer.png,stimulus/viswhat_stim/blank_white.png,stimulus/viswhat_stim/type_box.png,stimulus/viswhat_stim/type_yes.png,stimulus/viswhat_stim/type_no.png,None,Type,None,Location,2,0.0,0,5.125,0,5.125,0,5.125,0,0.0,0.625,0,0.0,0,0.0,1,0.5,1,2.125,0,0.0,0,0.0,0,0.0,0,0.0,0,,,,,0,27,27,27,,,,,,,,,261.3070397079996,261.3070397079996,261.3070397079996,261.3070397079996,261.3070397079996,261.3070397079996,261.3070397079996,261.3070397079996,261.17475212499954,261.3070397079996,261.3070397079996,261.3070397079996,261.17475212499954,261.3070397079996,261.3070397079996,261.3070397079996,263.35206466599993,,261.3070397079996,261.3070397079996,266.52220866599964,261.7658024159996,262.82669074999967,263.35206466599993,264.4123768329996,261.3070397079996,261.3070397079996,261.2414187916662,261.3070397079996,261.3070397079996,261.3070397079996,261.2414187916662,261.3070397079996,261.3070397079996,266.52220866599964,261.3070397079996,266.52220866599964,266.52220866599964,267.4225427909996,261.3070397079996,2,1,0.5643584580002425,reldom2_s010,001,2025-02-11_16h12.15.967,What-A-Scan_AC,2022.2.5,None,
22,First_Order,4.0,viswhat,stimulus/viswhat_stim/blank_white.png,stimulus/viswhat_stim/blank_white.png,stimulus/viswhat_stim/water_animal-shark.png,stimulus/viswhat_stim/water_vehicle-cabincruiser.png,stimulus/viswhat_stim/blank_white.png,stimulus/viswhat_stim/type_box.png,stimulus/viswhat_stim/type_yes.png,stimulus/viswhat_stim/type_no.png,None,Type,None,Location,2,0.0,0,5.125,0,5.125,0,5.125,0,0.0,0.625,0,0.0,0,0.0,1,0.5,1,2.125,0,0.0,0,0.0,0,0.0,0,0.0,0,,,,,0,28,28,28,,,,,,,,,267.4225427909996,267.4225427909996,267.4225427909996,267.4225427909996,267.4225427909996,267.4225427909996,267.4225427909996,267.4225427909996,267.32918574933313,267.4225427909996,267.4225427909996,267.4225427909996,267.32918574933313,267.4225427909996,267.4225427909996,267.4225427909996,269.4895567499998,273.57678024999996,267.4225427909996,267.4225427909996,272.62568533299964,267.89970349999976,268.96163758299963,269.4895567499998,270.5556704579999,267.4225427909996,267.4225427909996,267.3791857493331,267.4225427909996,267.4225427909996,267.4225427909996,267.3791857493331,267.4225427909996,267.4225427909996,272.62568533299964,267.4225427909996,272.62568533299964,272.62568533299964,273.2802772499999,267.4225427909996,2,1,0.7205475410000872,reldom2_s010,001,2025-02-11_16h12.15.967,What-A-Scan_AC,2022.2.5,None,
0,0.0,None,fixation,stimulus/audwhat_stim/blank_white.png,stimulus/audwhat_stim/blank_white.png,stimulus/viswhat_stim/blank_white.png,stimulus/viswhat_stim/blank_white.png,stimulus/audwhat_stim/blank_white.png,stimulus/audwhat_stim/blank_white.png,stimulus/audwhat_stim/blank_white.png,stimulus/audwhat_stim/blank_white.png,0.0,0.0,0.0,0.0,0,0.0,0,0.0,0,0.0,0,0.0,0,0.0,0.0,0,0.0,0,0.0,0,0.0,0,0.0,0,0.0,0,0.0,0,0.0,0,0.0,9,,,,,0,29,29,29,,,,,,,,,273.57678024999996,273.57678024999996,273.57678024999996,273.57678024999996,273.57678024999996,273.57678024999996,273.57678024999996,273.57678024999996,273.47653583299996,273.57678024999996,273.57678024999996,273.57678024999996,273.47653583299996,273.57678024999996,273.57678024999996,273.57678024999996,273.57678024999996,273.57678024999996,273.57678024999996,273.57678024999996,273.57678024999996,273.57678024999996,273.57678024999996,273.57678024999996,273.57678024999996,273.57678024999996,273.57678024999996,273.52653583299997,273.57678024999996,273.57678024999996,273.57678024999996,273.52653583299997,273.57678024999996,273.57678024999996,273.57678024999996,273.57678024999996,273.57678024999996,278.7595732909999,278.7595732909999,282.7401539159996,None,0,,reldom2_s010,001,2025-02-11_16h12.15.967,What-A-Scan_AC,2022.2.5,None,
23,Second_Order,4.0,viswhat,stimulus/viswhat_stim/water_vehicle-canoe(1).png,stimulus/viswhat_stim/land_vehicle-vespa.png,stimulus/viswhat_stim/land_animal-dog.png,stimulus/viswhat_stim/water_animal-jellyfish.png,stimulus/audwhat_stim/match_blank.png,stimulus/audwhat_stim/match_box.png,stimulus/audwhat_stim/match_yes.png,stimulus/audwhat_stim/match_no.png,1.0,Match,Type,Type,1,5.125,0,5.125,0,5.125,0,5.125,0,0.75,0.75,1,0.5,1,2.125,1,0.5,1,2.125,0,0.0,0,0.0,0,0.0,0,0.0,0,,,,,0,30,30,30,,,,,,,,,282.7401539159996,287.85746983299987,283.1971288329996,284.1959234159999,284.82552312499956,285.81638074999955,282.7401539159996,282.7401539159996,282.74967849999973,282.7401539159996,282.7401539159996,282.7401539159996,282.74967849999973,282.7401539159996,287.85746983299987,288.65945024999974,290.7405639999997,294.64660479099985,288.65945024999974,288.65945024999974,293.824862125,289.1287424579996,290.17217712499996,290.7405639999997,291.7883378749998,288.65945024999974,288.65945024999974,288.6250517493331,288.65945024999974,288.65945024999974,288.65945024999974,288.6250517493331,288.65945024999974,288.65945024999974,293.824862125,288.65945024999974,293.824862125,293.8522187909998,,288.65945024999974,1,1,0.44135241599997244,reldom2_s010,001,2025-02-11_16h12.15.967,What-A-Scan_AC,2022.2.5,None,
24,Second_Order,4.0,viswhat,stimulus/viswhat_stim/land_vehicle-tank.png,stimulus/viswhat_stim/water_vehicle-canoe(1).png,stimulus/viswhat_stim/water_animal-orka.png,stimulus/viswhat_stim/water_vehicle-cabincruiser.png,stimulus/audwhat_stim/match_blank.png,stimulus/audwhat_stim/match_box.png,stimulus/audwhat_stim/match_yes.png,stimulus/audwhat_stim/match_no.png,2.0,Match,Type,Location,2,5.125,0,5.125,0,5.125,0,5.125,0,0.625,0.625,1,0.5,1,2.125,1,0.5,1,2.125,0,0.0,0,0.0,0,0.0,0,0.0,0,,,,,0,31,31,31,,,,,,,,,294.64660479099985,299.762332583,295.1168631249998,296.11232145799977,296.7502535829999,297.7418803329997,294.64660479099985,294.64660479099985,294.64959458266645,294.64660479099985,294.64660479099985,294.64660479099985,294.64959458266645,294.64660479099985,299.762332583,300.54564570799994,302.572023833,,300.54564570799994,300.54564570799994,305.768816583,300.9678020829997,302.0674870409998,302.572023833,303.66965816599986,300.54564570799994,300.54564570799994,300.4631370413329,300.54564570799994,300.54564570799994,300.54564570799994,300.4631370413329,300.54564570799994,300.54564570799994,305.768816583,300.54564570799994,305.768816583,305.768816583,,300.54564570799994,2,1,1.3766091669999696,reldom2_s010,001,2025-02-11_16h12.15.967,What-A-Scan_AC,2022.2.5,None,
0,0.0,None,fixation,stimulus/audwhat_stim/blank_white.png,stimulus/audwhat_stim/blank_white.png,stimulus/viswhat_stim/blank_white.png,stimulus/viswhat_stim/blank_white.png,stimulus/audwhat_stim/blank_white.png,stimulus/audwhat_stim/blank_white.png,stimulus/audwhat_stim/blank_white.png,stimulus/audwhat_stim/blank_white.png,0.0,0.0,0.0,0.0,0,0.0,0,0.0,0,0.0,0,0.0,0,0.0,0.0,0,0.0,0,0.0,0,0.0,0,0.0,0,0.0,0,0.0,0,0.0,0,0.0,9,,,,,0,32,32,32,,,,,,,,,306.6257577499996,306.6257577499996,306.6257577499996,306.6257577499996,306.6257577499996,306.6257577499996,306.6257577499996,306.6257577499996,306.51082320799986,306.6257577499996,306.6257577499996,306.6257577499996,306.51082320799986,306.6257577499996,306.6257577499996,306.6257577499996,306.6257577499996,306.6257577499996,306.6257577499996,306.6257577499996,306.6257577499996,306.6257577499996,306.6257577499996,306.6257577499996,306.6257577499996,306.6257577499996,306.6257577499996,306.5774898746665,306.6257577499996,306.6257577499996,306.6257577499996,306.5774898746665,306.6257577499996,306.6257577499996,306.6257577499996,306.6257577499996,306.6257577499996,311.82167599999957,311.82167599999957,315.918108375,None,0,,reldom2_s010,001,2025-02-11_16h12.15.967,What-A-Scan_AC,2022.2.5,None,
25,First_Order,5.0,audwhat,stimulus/audwhat_stim/dummy.wav,stimulus/audwhat_stim/dummy.wav,stimulus/audwhat_stim/string cello_low-pitch_Dtri_loud.wav,stimulus/audwhat_stim/percussion mallet_low-pitch_Dtri_loud.wav,stimulus/audwhat_stim/blank_white.png,stimulus/audwhat_stim/pitch_box.png,stimulus/audwhat_stim/pitch_yes.png,stimulus/audwhat_stim/pitch_no.png,None,Pitch,None,Pitch,1,0.0,0,5.125,0,5.125,0,5.125,0,0.0,0.625,0,0.0,0,0.0,0,0.0,0,0.0,0,0.0,0,0.0,1,0.5,1,2.125,0,,,,,0,33,33,33,,,,,,,,,315.918108375,315.918108375,315.918108375,315.918108375,315.918108375,315.918108375,315.918108375,315.918108375,315.8270596246663,315.918108375,315.918108375,315.918108375,315.8270596246663,315.918108375,315.918108375,315.918108375,317.99492999999984,,315.918108375,315.918108375,321.1071805829997,315.918108375,315.918108375,315.918108375,315.918108375,316.3859531659996,317.42411245799985,316.35058974966637,,317.99492999999984,319.03310087499995,317.9595221666666,,315.918108375,321.1071805829997,315.918108375,321.1071805829997,321.1071805829997,321.7938836249996,315.918108375,1,1,1.4317983750001986,reldom2_s010,001,2025-02-11_16h12.15.967,What-A-Scan_AC,2022.2.5,None,
26,First_Order,5.0,audwhat,stimulus/audwhat_stim/dummy.wav,stimulus/audwhat_stim/dummy.wav,stimulus/audwhat_stim/string cello_low-pitch_F_loud.wav,stimulus/audwhat_stim/percussion mallet_low-pitch_F_loud.wav,stimulus/audwhat_stim/blank_white.png,stimulus/audwhat_stim/pitch_box.png,stimulus/audwhat_stim/pitch_yes.png,stimulus/audwhat_stim/pitch_no.png,None,Pitch,None,Pitch,1,0.0,0,5.125,0,5.125,0,5.125,0,0.0,0.625,0,0.0,0,0.0,0,0.0,0,0.0,0,0.0,0,0.0,1,0.5,1,2.125,0,,,,,0,34,34,34,,,,,,,,,322.0200136659996,322.0200136659996,322.0200136659996,322.0200136659996,322.0200136659996,322.0200136659996,322.0200136659996,322.0200136659996,321.94388362499956,322.0200136659996,322.0200136659996,322.0200136659996,321.94388362499956,322.0200136659996,322.0200136659996,322.0200136659996,324.0964939999999,,322.0200136659996,322.0200136659996,327.2089489159998,322.0200136659996,322.0200136659996,322.0200136659996,322.0200136659996,322.4872506659999,323.52510245799976,322.4516209996666,,324.0964939999999,325.13694291599995,324.0610709996665,,322.0200136659996,327.2089489159998,322.0200136659996,327.2089489159998,327.2089489159998,327.89262404099964,322.0200136659996,1,1,1.9281229590001203,reldom2_s010,001,2025-02-11_16h12.15.967,What-A-Scan_AC,2022.2.5,None,
27,First_Order,5.0,audwhat,stimulus/audwhat_stim/dummy.wav,stimulus/audwhat_stim/dummy.wav,stimulus/audwhat_stim/string cello_high-pitch_D_loud.wav,stimulus/audwhat_stim/percussion mallet_high-pitch_D_loud.wav,stimulus/audwhat_stim/blank_white.png,stimulus/audwhat_stim/category_box.png,stimulus/audwhat_stim/category_yes.png,stimulus/audwhat_stim/category_no.png,None,Category,None,Pitch,2,0.0,0,5.125,0,5.125,0,5.125,0,0.0,0.625,0,0.0,0,0.0,0,0.0,0,0.0,0,0.0,0,0.0,1,0.5,1,2.125,0,,,,,0,35,35,35,,,,,,,,,328.12043774999984,328.12043774999984,328.12043774999984,328.12043774999984,328.12043774999984,328.12043774999984,328.12043774999984,328.12043774999984,328.02595737433296,328.12043774999984,328.12043774999984,328.12043774999984,328.02595737433296,328.12043774999984,328.12043774999984,328.12043774999984,330.2063539579999,334.2425885409998,328.12043774999984,328.12043774999984,333.2838791659997,328.12043774999984,328.12043774999984,328.12043774999984,328.12043774999984,328.59029162499974,329.6329344579999,328.5541575826662,,330.2063539579999,331.2511639579998,330.1704079576664,,328.12043774999984,333.2838791659997,328.12043774999984,333.2838791659997,333.3296377079996,334.0152674159999,328.12043774999984,2,1,1.706442374999824,reldom2_s010,001,2025-02-11_16h12.15.967,What-A-Scan_AC,2022.2.5,None,
28,First_Order,5.0,audwhat,stimulus/audwhat_stim/dummy.wav,stimulus/audwhat_stim/dummy.wav,stimulus/audwhat_stim/percussion mallet_low-pitch_Ftri_loud.wav,stimulus/audwhat_stim/percussion mallet_high-pitch_F_loud.wav,stimulus/audwhat_stim/blank_white.png,stimulus/audwhat_stim/category_box.png,stimulus/audwhat_stim/category_yes.png,stimulus/audwhat_stim/category_no.png,None,Category,None,Category,1,0.0,0,5.125,0,5.125,0,5.125,0,0.0,0.625,0,0.0,0,0.0,0,0.0,0,0.0,0,0.0,0,0.0,1,0.5,1,2.125,0,,,,,0,36,36,36,,,,,,,,,334.2425885409998,334.2425885409998,334.2425885409998,334.2425885409998,334.2425885409998,334.2425885409998,334.2425885409998,334.2425885409998,334.14860074933324,334.2425885409998,334.2425885409998,334.2425885409998,334.14860074933324,334.2425885409998,334.2425885409998,334.2425885409998,336.32898391599974,340.38295845799985,334.2425885409998,334.2425885409998,339.40552383299973,334.2425885409998,334.2425885409998,334.2425885409998,334.2425885409998,334.71032724999986,335.75572162499975,334.67493362466644,,336.32898391599974,337.37901645799957,336.29371399966635,,334.2425885409998,339.40552383299973,334.2425885409998,339.40552383299973,339.4514907499997,340.13827995799966,334.2425885409998,1,1,0.6246920000003229,reldom2_s010,001,2025-02-11_16h12.15.967,What-A-Scan_AC,2022.2.5,None,
0,0.0,None,fixation,stimulus/audwhat_stim/blank_white.png,stimulus/audwhat_stim/blank_white.png,stimulus/viswhat_stim/blank_white.png,stimulus/viswhat_stim/blank_white.png,stimulus/audwhat_stim/blank_white.png,stimulus/audwhat_stim/blank_white.png,stimulus/audwhat_stim/blank_white.png,stimulus/audwhat_stim/blank_white.png,0.0,0.0,0.0,0.0,0,0.0,0,0.0,0,0.0,0,0.0,0,0.0,0.0,0,0.0,0,0.0,0,0.0,0,0.0,0,0.0,0,0.0,0,0.0,0,0.0,8,,,,,0,37,37,37,,,,,,,,,340.38295845799985,340.38295845799985,340.38295845799985,340.38295845799985,340.38295845799985,340.38295845799985,340.38295845799985,340.38295845799985,340.28827995799963,340.38295845799985,340.38295845799985,340.38295845799985,340.28827995799963,340.38295845799985,340.38295845799985,340.38295845799985,340.38295845799985,340.38295845799985,340.38295845799985,340.38295845799985,340.38295845799985,340.38295845799985,340.38295845799985,340.38295845799985,340.38295845799985,340.38295845799985,340.38295845799985,340.33827995799965,340.38295845799985,340.38295845799985,340.38295845799985,340.33827995799965,340.38295845799985,340.38295845799985,340.38295845799985,340.38295845799985,340.38295845799985,345.58038399999987,345.58038399999987,348.5348709159998,None,0,,reldom2_s010,001,2025-02-11_16h12.15.967,What-A-Scan_AC,2022.2.5,None,
29,Second_Order,5.0,audwhat,stimulus/audwhat_stim/percussion xylophone_high-pitch_Dtri_loud.wav,stimulus/audwhat_stim/percussion mallet_low-pitch_Ftri_loud.wav,stimulus/audwhat_stim/string viola_high-pitch_Ftri_loud.wav,stimulus/audwhat_stim/string viola_low-pitch_Dtri_loud.wav,stimulus/audwhat_stim/match_blank.png,stimulus/audwhat_stim/match_box.png,stimulus/audwhat_stim/match_yes.png,stimulus/audwhat_stim/match_no.png,1.0,Match,Category,Category,1,5.125,0,5.125,0,5.125,0,5.125,0,0.75,0.75,0,0.0,0,0.0,0,0.0,0,0.0,1,0.5,1,2.125,1,0.5,1,2.125,0,,,,,0,38,38,38,,,,,,,,,348.5348709159998,353.6531192079997,348.5348709159998,348.5348709159998,348.5348709159998,348.5348709159998,348.9870072909998,349.982689125,348.9988694166666,349.99139858299986,350.60411837499987,351.598855708,350.6161732496664,351.6073634999998,353.6531192079997,354.49280566599964,356.57475474999956,360.5084029159998,354.49280566599964,354.49280566599964,359.6963358329999,354.49280566599964,354.49280566599964,354.49280566599964,354.49280566599964,354.96182633299986,356.0045861659996,354.9263778326665,,356.57475474999956,357.6178611659998,356.53918883266647,,354.49280566599964,359.6963358329999,354.49280566599964,359.6963358329999,359.6963358329999,,354.49280566599964,1,1,1.8267848750001576,reldom2_s010,001,2025-02-11_16h12.15.967,What-A-Scan_AC,2022.2.5,None,
30,Second_Order,5.0,audwhat,stimulus/audwhat_stim/percussion mallet_low-pitch_F_loud.wav,stimulus/audwhat_stim/percussion mallet_high-pitch_Ftri_loud.wav,stimulus/audwhat_stim/string viola_low-pitch_F_loud.wav,stimulus/audwhat_stim/string viola_high-pitch_Ftri_loud.wav,stimulus/audwhat_stim/match_blank.png,stimulus/audwhat_stim/match_box.png,stimulus/audwhat_stim/match_yes.png,stimulus/audwhat_stim/match_no.png,1.0,Match,Category,Category,1,5.125,0,5.125,0,5.125,0,5.125,0,0.625,0.625,0,0.0,0,0.0,0,0.0,0,0.0,1,0.5,1,2.125,1,0.5,1,2.125,0,,,,,0,39,39,39,,,,,,,,,360.5084029159998,365.63230833299986,360.5084029159998,360.5084029159998,360.5084029159998,360.5084029159998,360.95463308299986,361.953425875,360.9665363746665,361.9627325829997,362.58305870799995,363.5866084999998,362.5951076246663,363.5962999159997,365.63230833299986,366.33941445799974,368.42310937499997,372.4724133329996,366.33941445799974,366.33941445799974,371.5420025829999,366.33941445799974,366.33941445799974,366.33941445799974,366.33941445799974,366.8105341249998,367.8527154579997,366.77474620766657,,368.42310937499997,369.46515891599984,368.38743812466623,,366.33941445799974,371.5420025829999,366.33941445799974,371.5420025829999,371.5420025829999,372.2282904579997,366.33941445799974,1,1,1.497450999999728,reldom2_s010,001,2025-02-11_16h12.15.967,What-A-Scan_AC,2022.2.5,None,
0,0.0,None,fixation,stimulus/audwhat_stim/blank_white.png,stimulus/audwhat_stim/blank_white.png,stimulus/viswhat_stim/blank_white.png,stimulus/viswhat_stim/blank_white.png,stimulus/audwhat_stim/blank_white.png,stimulus/audwhat_stim/blank_white.png,stimulus/audwhat_stim/blank_white.png,stimulus/audwhat_stim/blank_white.png,0.0,0.0,0.0,0.0,0,0.0,0,0.0,0,0.0,0,0.0,0,0.0,0.0,0,0.0,0,0.0,0,0.0,0,0.0,0,0.0,0,0.0,0,0.0,0,0.0,9,,,,,0,40,40,40,,,,,,,,,372.4724133329996,372.4724133329996,372.4724133329996,372.4724133329996,372.4724133329996,372.4724133329996,372.4724133329996,372.4724133329996,372.36162379133305,372.4724133329996,372.4724133329996,372.4724133329996,372.36162379133305,372.4724133329996,372.4724133329996,372.4724133329996,372.4724133329996,372.4724133329996,372.4724133329996,372.4724133329996,372.4724133329996,372.4724133329996,372.4724133329996,372.4724133329996,372.4724133329996,372.4724133329996,372.4724133329996,372.4282904579997,372.4724133329996,372.4724133329996,372.4724133329996,372.4282904579997,372.4724133329996,372.4724133329996,372.4724133329996,372.4724133329996,372.4724133329996,377.6549272909997,377.6549272909997,381.753855208,None,0,,reldom2_s010,001,2025-02-11_16h12.15.967,What-A-Scan_AC,2022.2.5,None,
31,First_Order,6.0,audwhat,stimulus/audwhat_stim/dummy.wav,stimulus/audwhat_stim/dummy.wav,stimulus/audwhat_stim/string viola_high-pitch_F_loud.wav,stimulus/audwhat_stim/percussion xylophone_high-pitch_F_loud.wav,stimulus/audwhat_stim/blank_white.png,stimulus/audwhat_stim/category_box.png,stimulus/audwhat_stim/category_yes.png,stimulus/audwhat_stim/category_no.png,None,Category,None,Pitch,2,0.0,0,5.125,0,5.125,0,5.125,0,0.0,0.625,0,0.0,0,0.0,0,0.0,0,0.0,0,0.0,0,0.0,1,0.5,1,2.125,0,,,,,0,41,41,41,,,,,,,,,381.753855208,381.753855208,381.753855208,381.753855208,381.753855208,381.753855208,381.753855208,381.753855208,381.66366999966624,381.753855208,381.753855208,381.753855208,381.66366999966624,381.753855208,381.753855208,381.753855208,383.8434996249998,387.88171937499965,381.753855208,381.753855208,386.92200824999964,381.753855208,381.753855208,381.753855208,381.753855208,382.22608524999987,383.27093366599956,382.19036795766647,,383.8434996249998,384.8913083749999,383.80816316666665,384.8913083749999,381.753855208,386.92200824999964,381.753855208,386.92200824999964,386.9685287499997,387.6559226659997,381.753855208,2,1,1.0739244999999755,reldom2_s010,001,2025-02-11_16h12.15.967,What-A-Scan_AC,2022.2.5,None,
32,First_Order,6.0,audwhat,stimulus/audwhat_stim/dummy.wav,stimulus/audwhat_stim/dummy.wav,stimulus/audwhat_stim/percussion mallet_high-pitch_F_loud.wav,stimulus/audwhat_stim/percussion mallet_low-pitch_D_loud.wav,stimulus/audwhat_stim/blank_white.png,stimulus/audwhat_stim/pitch_box.png,stimulus/audwhat_stim/pitch_yes.png,stimulus/audwhat_stim/pitch_no.png,None,Pitch,None,Category,2,0.0,0,5.125,0,5.125,0,5.125,0,0.0,0.625,0,0.0,0,0.0,0,0.0,0,0.0,0,0.0,0,0.0,1,0.5,1,2.125,0,,,,,0,42,42,42,,,,,,,,,387.88171937499965,387.88171937499965,387.88171937499965,387.88171937499965,387.88171937499965,387.88171937499965,387.88171937499965,387.88171937499965,387.789255999333,387.88171937499965,387.88171937499965,387.88171937499965,387.789255999333,387.88171937499965,387.88171937499965,387.88171937499965,389.96002174999967,,387.88171937499965,387.88171937499965,393.0760557079998,387.88171937499965,387.88171937499965,387.88171937499965,387.88171937499965,388.34960970799966,389.389234708,388.3142526246663,,389.96002174999967,391.0015992499998,389.92479129166645,,387.88171937499965,393.0760557079998,387.88171937499965,393.0760557079998,393.0760557079998,393.76104020799994,387.88171937499965,2,1,0.9611540000000787,reldom2_s010,001,2025-02-11_16h12.15.967,What-A-Scan_AC,2022.2.5,None,
33,First_Order,6.0,audwhat,stimulus/audwhat_stim/dummy.wav,stimulus/audwhat_stim/dummy.wav,stimulus/audwhat_stim/string cello_high-pitch_D_loud.wav,stimulus/audwhat_stim/string cello_low-pitch_Dtri_loud.wav,stimulus/audwhat_stim/blank_white.png,stimulus/audwhat_stim/category_box.png,stimulus/audwhat_stim/category_yes.png,stimulus/audwhat_stim/category_no.png,None,Category,None,Category,1,0.0,0,5.125,0,5.125,0,5.125,0,0.0,0.625,0,0.0,0,0.0,0,0.0,0,0.0,0,0.0,0,0.0,1,0.5,1,2.125,0,,,,,0,43,43,43,,,,,,,,,393.984650333,393.984650333,393.984650333,393.984650333,393.984650333,393.984650333,393.984650333,393.984650333,393.89437354133327,393.984650333,393.984650333,393.984650333,393.89437354133327,393.984650333,393.984650333,393.984650333,396.07241591599995,400.1060092079997,393.984650333,393.984650333,399.14757837499974,393.984650333,393.984650333,393.984650333,393.984650333,394.4547398329996,395.4965971659999,394.4191719166663,,396.07241591599995,397.1217459579998,396.0367213326665,,393.984650333,399.14757837499974,393.984650333,399.14757837499974,399.193653458,399.8802183329999,393.984650333,1,1,0.7254577920002703,reldom2_s010,001,2025-02-11_16h12.15.967,What-A-Scan_AC,2022.2.5,None,
34,First_Order,6.0,audwhat,stimulus/audwhat_stim/dummy.wav,stimulus/audwhat_stim/dummy.wav,stimulus/audwhat_stim/string cello_high-pitch_F_loud.wav,stimulus/audwhat_stim/string viola_low-pitch_Ftri_loud.wav,stimulus/audwhat_stim/blank_white.png,stimulus/audwhat_stim/pitch_box.png,stimulus/audwhat_stim/pitch_yes.png,stimulus/audwhat_stim/pitch_no.png,None,Pitch,None,Category,2,0.0,0,5.125,0,5.125,0,5.125,0,0.0,0.625,0,0.0,0,0.0,0,0.0,0,0.0,0,0.0,0,0.0,1,0.5,1,2.125,0,,,,,0,44,44,44,,,,,,,,,400.1060092079997,400.1060092079997,400.1060092079997,400.1060092079997,400.1060092079997,400.1060092079997,400.1060092079997,400.1060092079997,400.0302183329999,400.1060092079997,400.1060092079997,400.1060092079997,400.0302183329999,400.1060092079997,400.1060092079997,400.1060092079997,402.1913193329997,,400.1060092079997,400.1060092079997,405.3021227909999,400.1060092079997,400.1060092079997,400.1060092079997,400.1060092079997,400.5745577499997,401.61634212499985,400.53890329166666,,402.1913193329997,403.2306914999999,402.1565190826666,,400.1060092079997,405.3021227909999,400.1060092079997,405.3021227909999,405.3021227909999,405.9875280409997,400.1060092079997,2,1,1.78459683400024,reldom2_s010,001,2025-02-11_16h12.15.967,What-A-Scan_AC,2022.2.5,None,
0,0.0,None,fixation,stimulus/audwhat_stim/blank_white.png,stimulus/audwhat_stim/blank_white.png,stimulus/viswhat_stim/blank_white.png,stimulus/viswhat_stim/blank_white.png,stimulus/audwhat_stim/blank_white.png,stimulus/audwhat_stim/blank_white.png,stimulus/audwhat_stim/blank_white.png,stimulus/audwhat_stim/blank_white.png,0.0,0.0,0.0,0.0,0,0.0,0,0.0,0,0.0,0,0.0,0,0.0,0.0,0,0.0,0,0.0,0,0.0,0,0.0,0,0.0,0,0.0,0,0.0,0,0.0,10,,,,,0,45,45,45,,,,,,,,,406.23238825,406.23238825,406.23238825,406.23238825,406.23238825,406.23238825,406.23238825,406.23238825,406.13752804099965,406.23238825,406.23238825,406.23238825,406.13752804099965,406.23238825,406.23238825,406.23238825,406.23238825,406.23238825,406.23238825,406.23238825,406.23238825,406.23238825,406.23238825,406.23238825,406.23238825,406.23238825,406.23238825,406.18752804099967,406.23238825,406.23238825,406.23238825,406.18752804099967,406.23238825,406.23238825,406.23238825,406.23238825,406.23238825,411.4150019159997,411.4150019159997,416.3979153749997,None,0,,reldom2_s010,001,2025-02-11_16h12.15.967,What-A-Scan_AC,2022.2.5,None,
35,Second_Order,6.0,audwhat,stimulus/audwhat_stim/percussion xylophone_high-pitch_D_loud.wav,stimulus/audwhat_stim/string viola_high-pitch_D_loud.wav,stimulus/audwhat_stim/percussion mallet_high-pitch_Dtri_loud.wav,stimulus/audwhat_stim/percussion mallet_low-pitch_D_loud.wav,stimulus/audwhat_stim/match_blank.png,stimulus/audwhat_stim/match_box.png,stimulus/audwhat_stim/match_yes.png,stimulus/audwhat_stim/match_no.png,2.0,Match,Pitch,Category,2,5.125,0,5.125,0,5.125,0,5.125,0,0.75,0.75,0,0.0,0,0.0,0,0.0,0,0.0,1,0.5,1,2.125,1,0.5,1,2.125,0,,,,,0,46,46,46,,,,,,,,,416.3979153749997,421.5225907079998,416.3979153749997,416.3979153749997,416.3979153749997,416.3979153749997,416.84099662499966,417.83629833299983,416.8525742076665,417.8459399159997,418.46651616599956,419.45385333299964,418.4780655416664,,421.5225907079998,422.35817766599985,424.43977504099985,428.3716517499997,422.35817766599985,422.35817766599985,427.5600767909996,422.35817766599985,422.35817766599985,422.35817766599985,422.35817766599985,422.82677904099955,423.86841416599964,422.7914857076664,,424.43977504099985,425.47942908299956,424.4043972076663,,422.35817766599985,427.5600767909996,422.35817766599985,427.5600767909996,427.5600767909996,,422.35817766599985,2,1,1.0556662909998522,reldom2_s010,001,2025-02-11_16h12.15.967,What-A-Scan_AC,2022.2.5,None,
36,Second_Order,6.0,audwhat,stimulus/audwhat_stim/percussion mallet_high-pitch_Dtri_loud.wav,stimulus/audwhat_stim/string viola_high-pitch_Dtri_loud.wav,stimulus/audwhat_stim/string cello_high-pitch_Dtri_loud.wav,stimulus/audwhat_stim/string viola_low-pitch_F_loud.wav,stimulus/audwhat_stim/match_blank.png,stimulus/audwhat_stim/match_box.png,stimulus/audwhat_stim/match_yes.png,stimulus/audwhat_stim/match_no.png,2.0,Match,Pitch,Category,2,5.125,0,5.125,0,5.125,0,5.125,0,0.625,0.625,0,0.0,0,0.0,0,0.0,0,0.0,1,0.5,1,2.125,1,0.5,1,2.125,0,,,,,0,47,47,47,,,,,,,,,428.3716517499997,433.49034345799964,428.3716517499997,428.3716517499997,428.3716517499997,428.3716517499997,428.8278399159999,429.82884770799956,428.8289867076662,429.82884770799956,430.4424469159999,431.44055087499964,430.4535315416663,,433.49034345799964,434.1982262909996,436.2839452909998,440.3310444579997,434.1982262909996,434.1982262909996,439.3544804999997,434.1982262909996,434.1982262909996,434.1982262909996,434.1982262909996,434.66817245799984,435.7101279999997,434.6324980826664,,436.2839452909998,437.32860058299957,436.2484339166665,,434.1982262909996,439.3544804999997,434.1982262909996,439.3544804999997,439.4002590409996,440.0850251249999,434.1982262909996,2,1,1.3393596659998366,reldom2_s010,001,2025-02-11_16h12.15.967,What-A-Scan_AC,2022.2.5,None,
0,0.0,None,fixation,stimulus/audwhat_stim/blank_white.png,stimulus/audwhat_stim/blank_white.png,stimulus/viswhat_stim/blank_white.png,stimulus/viswhat_stim/blank_white.png,stimulus/audwhat_stim/blank_white.png,stimulus/audwhat_stim/blank_white.png,stimulus/audwhat_stim/blank_white.png,stimulus/audwhat_stim/blank_white.png,0.0,0.0,0.0,0.0,0,0.0,0,0.0,0,0.0,0,0.0,0,0.0,0.0,0,0.0,0,0.0,0,0.0,0,0.0,0,0.0,0,0.0,0,0.0,0,0.0,8,,,,,0,48,48,48,,,,,,,,,440.3310444579997,440.3310444579997,440.3310444579997,440.3310444579997,440.3310444579997,440.3310444579997,440.3310444579997,440.3310444579997,440.2350251249999,440.3310444579997,440.3310444579997,440.3310444579997,440.2350251249999,440.3310444579997,440.3310444579997,440.3310444579997,440.3310444579997,440.3310444579997,440.3310444579997,440.3310444579997,440.3310444579997,440.3310444579997,440.3310444579997,440.3310444579997,440.3310444579997,440.3310444579997,440.3310444579997,440.2850251249999,440.3310444579997,440.3310444579997,440.3310444579997,440.2850251249999,440.3310444579997,440.3310444579997,440.3310444579997,440.3310444579997,440.3310444579997,445.5200826659998,445.5200826659998,448.5423066249996,None,0,,reldom2_s010,001,2025-02-11_16h12.15.967,What-A-Scan_AC,2022.2.5,None,
37,First_Order,7.0,viswhat,stimulus/viswhat_stim/blank_white.png,stimulus/viswhat_stim/blank_white.png,stimulus/viswhat_stim/land_animal-zebra.png,stimulus/viswhat_stim/water_animal-squid.png,stimulus/viswhat_stim/blank_white.png,stimulus/viswhat_stim/type_box.png,stimulus/viswhat_stim/type_yes.png,stimulus/viswhat_stim/type_no.png,None,Type,None,Type,1,0.0,0,5.125,0,5.125,0,5.125,0,0.0,0.625,0,0.0,0,0.0,1,0.5,1,2.125,0,0.0,0,0.0,0,0.0,0,0.0,0,,,,,0,49,49,49,,,,,,,,,448.5423066249996,448.5423066249996,448.5423066249996,448.5423066249996,448.5423066249996,448.5423066249996,448.5423066249996,448.5423066249996,448.4857189996666,448.5423066249996,448.5423066249996,448.5423066249996,448.4857189996666,448.5423066249996,448.5423066249996,448.5423066249996,450.6369397909998,454.8898143329998,448.5423066249996,448.5423066249996,453.7064211249999,449.02878974999976,450.07876366599976,450.6369397909998,451.691430416,448.5423066249996,448.5423066249996,448.51905233299993,448.5423066249996,448.5423066249996,448.5423066249996,448.51905233299993,448.5423066249996,448.5423066249996,453.7064211249999,448.5423066249996,453.7064211249999,453.7683721249996,454.4177508329999,448.5423066249996,1,1,1.5227037079998809,reldom2_s010,001,2025-02-11_16h12.15.967,What-A-Scan_AC,2022.2.5,None,
38,First_Order,7.0,viswhat,stimulus/viswhat_stim/blank_white.png,stimulus/viswhat_stim/blank_white.png,stimulus/viswhat_stim/water_vehicle-submarine.png,stimulus/viswhat_stim/water_animal-lobster.png,stimulus/viswhat_stim/blank_white.png,stimulus/viswhat_stim/location_box.png,stimulus/viswhat_stim/location_yes.png,stimulus/viswhat_stim/location_no.png,None,Location,None,Location,1,0.0,0,5.125,0,5.125,0,5.125,0,0.0,0.625,0,0.0,0,0.0,1,0.5,1,2.125,0,0.0,0,0.0,0,0.0,0,0.0,0,,,,,0,50,50,50,,,,,,,,,454.8898143329998,454.8898143329998,454.8898143329998,454.8898143329998,454.8898143329998,454.8898143329998,454.8898143329998,454.8898143329998,454.5952827916666,454.8898143329998,454.8898143329998,454.8898143329998,454.5952827916666,454.8898143329998,454.8898143329998,454.8898143329998,456.9444932499996,461.00799445799976,454.8898143329998,454.8898143329998,460.2691663749997,455.36413049999965,456.62866637499974,456.9444932499996,458.21738070799984,454.8898143329998,454.8898143329998,454.74528279166657,454.8898143329998,454.8898143329998,454.8898143329998,454.74528279166657,454.8898143329998,454.8898143329998,460.2691663749997,454.8898143329998,460.2691663749997,460.11803841599976,,454.8898143329998,1,1,1.0814842499999031,reldom2_s010,001,2025-02-11_16h12.15.967,What-A-Scan_AC,2022.2.5,None,
39,First_Order,7.0,viswhat,stimulus/viswhat_stim/blank_white.png,stimulus/viswhat_stim/blank_white.png,stimulus/viswhat_stim/land_vehicle-vespa.png,stimulus/viswhat_stim/water_vehicle-yacht.png,stimulus/viswhat_stim/blank_white.png,stimulus/viswhat_stim/location_box.png,stimulus/viswhat_stim/location_yes.png,stimulus/viswhat_stim/location_no.png,None,Location,None,Type,2,0.0,0,5.125,0,5.125,0,5.125,0,0.0,0.625,0,0.0,0,0.0,1,0.5,1,2.125,0,0.0,0,0.0,0,0.0,0,0.0,0,,,,,0,51,51,51,,,,,,,,,461.00799445799976,461.00799445799976,461.00799445799976,461.00799445799976,461.00799445799976,461.00799445799976,461.00799445799976,461.00799445799976,460.92335979099977,461.00799445799976,461.00799445799976,461.00799445799976,460.92335979099977,461.00799445799976,461.00799445799976,461.00799445799976,463.09193849999974,,461.00799445799976,461.00799445799976,466.16786054099975,461.4819326659999,462.5280487499999,463.09193849999974,464.1392489579998,461.00799445799976,461.00799445799976,460.9733597909998,461.00799445799976,461.00799445799976,461.00799445799976,460.9733597909998,461.00799445799976,461.00799445799976,466.16786054099975,461.00799445799976,466.16786054099975,466.2085573329996,466.8607724579997,461.00799445799976,2,1,0.712045792000481,reldom2_s010,001,2025-02-11_16h12.15.967,What-A-Scan_AC,2022.2.5,None,
40,First_Order,7.0,viswhat,stimulus/viswhat_stim/blank_white.png,stimulus/viswhat_stim/blank_white.png,stimulus/viswhat_stim/water_vehicle-canoe.png,stimulus/viswhat_stim/water_animal-whale (1).png,stimulus/viswhat_stim/blank_white.png,stimulus/viswhat_stim/location_box.png,stimulus/viswhat_stim/location_yes.png,stimulus/viswhat_stim/location_no.png,None,Location,None,Location,1,0.0,0,5.125,0,5.125,0,5.125,0,0.0,0.625,0,0.0,0,0.0,1,0.5,1,2.125,0,0.0,0,0.0,0,0.0,0,0.0,0,,,,,0,52,52,52,,,,,,,,,467.0830834159997,467.0830834159997,467.0830834159997,467.0830834159997,467.0830834159997,467.0830834159997,467.0830834159997,467.0830834159997,467.034386499333,467.0830834159997,467.0830834159997,467.0830834159997,467.034386499333,467.0830834159997,467.0830834159997,467.0830834159997,469.1803417909996,473.2352772909999,467.0830834159997,467.0830834159997,472.2450551249999,467.56228091599996,468.5938783329998,469.1803417909996,470.2215339579998,467.0830834159997,467.0830834159997,467.05105316599963,467.0830834159997,467.0830834159997,467.0830834159997,467.05105316599963,467.0830834159997,467.0830834159997,472.2450551249999,467.0830834159997,472.2450551249999,472.300552833,472.93665562499973,467.0830834159997,1,1,0.7304890410000553,reldom2_s010,001,2025-02-11_16h12.15.967,What-A-Scan_AC,2022.2.5,None,
0,0.0,None,fixation,stimulus/audwhat_stim/blank_white.png,stimulus/audwhat_stim/blank_white.png,stimulus/viswhat_stim/blank_white.png,stimulus/viswhat_stim/blank_white.png,stimulus/audwhat_stim/blank_white.png,stimulus/audwhat_stim/blank_white.png,stimulus/audwhat_stim/blank_white.png,stimulus/audwhat_stim/blank_white.png,0.0,0.0,0.0,0.0,0,0.0,0,0.0,0,0.0,0,0.0,0,0.0,0.0,0,0.0,0,0.0,0,0.0,0,0.0,0,0.0,0,0.0,0,0.0,0,0.0,10,,,,,0,53,53,53,,,,,,,,,473.2352772909999,473.2352772909999,473.2352772909999,473.2352772909999,473.2352772909999,473.2352772909999,473.2352772909999,473.2352772909999,473.1190720829996,473.2352772909999,473.2352772909999,473.2352772909999,473.1190720829996,473.2352772909999,473.2352772909999,473.2352772909999,473.2352772909999,473.2352772909999,473.2352772909999,473.2352772909999,473.2352772909999,473.2352772909999,473.2352772909999,473.2352772909999,473.2352772909999,473.2352772909999,473.2352772909999,473.18573874966626,473.2352772909999,473.2352772909999,473.2352772909999,473.18573874966626,473.2352772909999,473.2352772909999,473.2352772909999,473.2352772909999,473.2352772909999,478.42918008299966,478.42918008299966,483.4439290829996,None,0,,reldom2_s010,001,2025-02-11_16h12.15.967,What-A-Scan_AC,2022.2.5,None,
41,Second_Order,7.0,viswhat,stimulus/viswhat_stim/water_vehicle-cruiser.png,stimulus/viswhat_stim/land_vehicle-bus.png,stimulus/viswhat_stim/land_animal-fox.png,stimulus/viswhat_stim/water_animal-dolphin.png,stimulus/audwhat_stim/match_blank.png,stimulus/audwhat_stim/match_box.png,stimulus/audwhat_stim/match_yes.png,stimulus/audwhat_stim/match_no.png,1.0,Match,Type,Type,1,5.125,0,5.125,0,5.125,0,5.125,0,0.75,0.75,1,0.5,1,2.125,1,0.5,1,2.125,0,0.0,0,0.0,0,0.0,0,0.0,0,,,,,0,54,54,54,,,,,,,,,483.4439290829996,488.56028854099986,483.87364095799967,484.868569666,485.48629308299996,486.4740825829999,483.4439290829996,483.4439290829996,483.44711774933324,483.4439290829996,483.4439290829996,483.4439290829996,483.44711774933324,483.4439290829996,488.56028854099986,489.3583682499998,491.46015975,495.365779666,489.3583682499998,489.3583682499998,494.50247433299955,489.82906691599965,490.86662954099984,491.46015975,492.505324708,489.3583682499998,489.3583682499998,489.3326957493332,489.3583682499998,489.3583682499998,489.3583682499998,489.3326957493332,489.3583682499998,489.3583682499998,494.50247433299955,489.3583682499998,494.50247433299955,494.5756598329999,,489.3583682499998,1,1,0.43859887500002515,reldom2_s010,001,2025-02-11_16h12.15.967,What-A-Scan_AC,2022.2.5,None,
42,Second_Order,7.0,viswhat,stimulus/viswhat_stim/water_animal-whale.png,stimulus/viswhat_stim/water_vehicle-ferryboat.png,stimulus/viswhat_stim/land_vehicle-tank.png,stimulus/viswhat_stim/land_animal-wolf.png,stimulus/audwhat_stim/match_blank.png,stimulus/audwhat_stim/match_box.png,stimulus/audwhat_stim/match_yes.png,stimulus/audwhat_stim/match_no.png,1.0,Match,Location,Location,1,5.125,0,5.125,0,5.125,0,5.125,0,0.625,0.625,1,0.5,1,2.125,1,0.5,1,2.125,0,0.0,0,0.0,0,0.0,0,0.0,0,,,,,0,55,55,55,,,,,,,,,495.365779666,500.48625279099997,495.8281838329999,496.8184568749998,497.4562004579998,498.443339166,495.365779666,495.365779666,495.3738627083333,495.365779666,495.365779666,495.365779666,495.3738627083333,495.365779666,500.48625279099997,501.14649245799956,503.23395704099994,507.2957689159998,501.14649245799956,501.14649245799956,506.2831108329997,501.61672066599976,502.6387598749998,503.23395704099994,504.25942583299957,501.14649245799956,501.14649245799956,501.131709999333,501.14649245799956,501.14649245799956,501.14649245799956,501.131709999333,501.14649245799956,501.14649245799956,506.2831108329997,501.14649245799956,506.2831108329997,506.3595382909998,507.00106108299997,501.14649245799956,1,1,0.701902415999939,reldom2_s010,001,2025-02-11_16h12.15.967,What-A-Scan_AC,2022.2.5,None,
0,0.0,None,fixation,stimulus/audwhat_stim/blank_white.png,stimulus/audwhat_stim/blank_white.png,stimulus/viswhat_stim/blank_white.png,stimulus/viswhat_stim/blank_white.png,stimulus/audwhat_stim/blank_white.png,stimulus/audwhat_stim/blank_white.png,stimulus/audwhat_stim/blank_white.png,stimulus/audwhat_stim/blank_white.png,0.0,0.0,0.0,0.0,0,0.0,0,0.0,0,0.0,0,0.0,0,0.0,0.0,0,0.0,0,0.0,0,0.0,0,0.0,0,0.0,0,0.0,0,0.0,0,0.0,9,,,,,0,56,56,56,,,,,,,,,507.2957689159998,507.2957689159998,507.2957689159998,507.2957689159998,507.2957689159998,507.2957689159998,507.2957689159998,507.2957689159998,507.1963853329999,507.2957689159998,507.2957689159998,507.2957689159998,507.1963853329999,507.2957689159998,507.2957689159998,507.2957689159998,507.2957689159998,507.2957689159998,507.2957689159998,507.2957689159998,507.2957689159998,507.2957689159998,507.2957689159998,507.2957689159998,507.2957689159998,507.2957689159998,507.2957689159998,507.2463853329999,507.2957689159998,507.2957689159998,507.2957689159998,507.2463853329999,507.2957689159998,507.2957689159998,507.2957689159998,507.2957689159998,507.2957689159998,512.4820072499997,512.4820072499997,516.5516830409997,None,0,,reldom2_s010,001,2025-02-11_16h12.15.967,What-A-Scan_AC,2022.2.5,None,
43,First_Order,8.0,viswhat,stimulus/viswhat_stim/blank_white.png,stimulus/viswhat_stim/blank_white.png,stimulus/viswhat_stim/water_vehicle-canoe.png,stimulus/viswhat_stim/water_animal-octopus.png,stimulus/viswhat_stim/blank_white.png,stimulus/viswhat_stim/type_box.png,stimulus/viswhat_stim/type_yes.png,stimulus/viswhat_stim/type_no.png,None,Type,None,Location,2,0.0,0,5.125,0,5.125,0,5.125,0,0.0,0.625,0,0.0,0,0.0,1,0.5,1,2.125,0,0.0,0,0.0,0,0.0,0,0.0,0,,,,,0,57,57,57,,,,,,,,,516.5516830409997,516.5516830409997,516.5516830409997,516.5516830409997,516.5516830409997,516.5516830409997,516.5516830409997,516.5516830409997,516.4878049576665,516.5516830409997,516.5516830409997,516.5516830409997,516.4878049576665,516.5516830409997,516.5516830409997,516.5516830409997,518.6370044159999,522.6325609999999,516.5516830409997,516.5516830409997,521.7107409579999,517.0240773749997,518.0498826659996,518.6370044159999,519.6632588749999,516.5516830409997,516.5516830409997,516.5211382909998,516.5516830409997,516.5516830409997,516.5516830409997,516.5211382909998,516.5516830409997,516.5516830409997,521.7107409579999,516.5516830409997,521.7107409579999,521.7761269579996,522.4322975,516.5516830409997,2,1,1.1744632079999064,reldom2_s010,001,2025-02-11_16h12.15.967,What-A-Scan_AC,2022.2.5,None,
44,First_Order,8.0,viswhat,stimulus/viswhat_stim/blank_white.png,stimulus/viswhat_stim/blank_white.png,stimulus/viswhat_stim/water_animal-octopus.png,stimulus/viswhat_stim/land_animal-snake.png,stimulus/viswhat_stim/blank_white.png,stimulus/viswhat_stim/type_box.png,stimulus/viswhat_stim/type_yes.png,stimulus/viswhat_stim/type_no.png,None,Type,None,Type,1,0.0,0,5.125,0,5.125,0,5.125,0,0.0,0.625,0,0.0,0,0.0,1,0.5,1,2.125,0,0.0,0,0.0,0,0.0,0,0.0,0,,,,,0,58,58,58,,,,,,,,,522.6325609999999,522.6325609999999,522.6325609999999,522.6325609999999,522.6325609999999,522.6325609999999,522.6325609999999,522.6325609999999,522.5814713746666,522.6325609999999,522.6325609999999,522.6325609999999,522.5814713746666,522.6325609999999,522.6325609999999,522.6325609999999,524.7369494999998,528.71551675,522.6325609999999,522.6325609999999,527.7914769579997,523.1037548329996,524.1231149999999,524.7369494999998,525.7599022499999,522.6325609999999,522.6325609999999,522.5981380413333,522.6325609999999,522.6325609999999,522.6325609999999,522.5981380413333,522.6325609999999,522.6325609999999,527.7914769579997,522.6325609999999,527.7914769579997,527.851027833,528.5047609999997,522.6325609999999,1,1,0.9390046670005177,reldom2_s010,001,2025-02-11_16h12.15.967,What-A-Scan_AC,2022.2.5,None,
45,First_Order,8.0,viswhat,stimulus/viswhat_stim/blank_white.png,stimulus/viswhat_stim/blank_white.png,stimulus/viswhat_stim/land_vehicle-schoolbus.png,stimulus/viswhat_stim/land_animal-pig.png,stimulus/viswhat_stim/blank_white.png,stimulus/viswhat_stim/type_box.png,stimulus/viswhat_stim/type_yes.png,stimulus/viswhat_stim/type_no.png,None,Type,None,Location,2,0.0,0,5.125,0,5.125,0,5.125,0,0.0,0.625,0,0.0,0,0.0,1,0.5,1,2.125,0,0.0,0,0.0,0,0.0,0,0.0,0,,,,,0,59,59,59,,,,,,,,,528.71551675,528.71551675,528.71551675,528.71551675,528.71551675,528.71551675,528.71551675,528.71551675,528.6797962076665,528.71551675,528.71551675,528.71551675,528.6797962076665,528.71551675,528.71551675,528.71551675,530.8217142079998,534.8382995409997,528.71551675,528.71551675,533.8746139999998,529.1862886659997,530.2254322909998,530.8217142079998,531.836391416,528.71551675,528.71551675,528.6964628743332,528.71551675,528.71551675,528.71551675,528.6964628743332,528.71551675,528.71551675,533.8746139999998,528.71551675,533.8746139999998,533.9233862909996,534.5659070829997,528.71551675,2,1,1.1018708750002588,reldom2_s010,001,2025-02-11_16h12.15.967,What-A-Scan_AC,2022.2.5,None,
46,First_Order,8.0,viswhat,stimulus/viswhat_stim/blank_white.png,stimulus/viswhat_stim/blank_white.png,stimulus/viswhat_stim/land_vehicle-oldcar.png,stimulus/viswhat_stim/water_vehicle-powercruiser.png,stimulus/viswhat_stim/blank_white.png,stimulus/viswhat_stim/location_box.png,stimulus/viswhat_stim/location_yes.png,stimulus/viswhat_stim/location_no.png,None,Location,None,Type,2,0.0,0,5.125,0,5.125,0,5.125,0,0.0,0.625,0,0.0,0,0.0,1,0.5,1,2.125,0,0.0,0,0.0,0,0.0,0,0.0,0,,,,,0,60,60,60,,,,,,,,,534.8382995409997,534.8382995409997,534.8382995409997,534.8382995409997,534.8382995409997,534.8382995409997,534.8382995409997,534.8382995409997,534.7630915829997,534.8382995409997,534.8382995409997,534.8382995409997,534.7630915829997,534.8382995409997,534.8382995409997,534.8382995409997,536.9373442499996,,534.8382995409997,534.8382995409997,540.0131218749998,535.3019154579997,536.3305209999999,536.9373442499996,537.9713453329996,534.8382995409997,534.8382995409997,534.796424916333,534.8382995409997,534.8382995409997,534.8382995409997,534.796424916333,534.8382995409997,534.8382995409997,540.0131218749998,534.8382995409997,540.0131218749998,540.0534038749997,540.7346652079996,534.8382995409997,2,1,0.8181194999997388,reldom2_s010,001,2025-02-11_16h12.15.967,What-A-Scan_AC,2022.2.5,None,
0,0.0,None,fixation,stimulus/audwhat_stim/blank_white.png,stimulus/audwhat_stim/blank_white.png,stimulus/viswhat_stim/blank_white.png,stimulus/viswhat_stim/blank_white.png,stimulus/audwhat_stim/blank_white.png,stimulus/audwhat_stim/blank_white.png,stimulus/audwhat_stim/blank_white.png,stimulus/audwhat_stim/blank_white.png,0.0,0.0,0.0,0.0,0,0.0,0,0.0,0,0.0,0,0.0,0,0.0,0.0,0,0.0,0,0.0,0,0.0,0,0.0,0,0.0,0,0.0,0,0.0,0,0.0,9,,,,,0,61,61,61,,,,,,,,,540.9716860409999,540.9716860409999,540.9716860409999,540.9716860409999,540.9716860409999,540.9716860409999,540.9716860409999,540.9716860409999,540.8679985413329,540.9716860409999,540.9716860409999,540.9716860409999,540.8679985413329,540.9716860409999,540.9716860409999,540.9716860409999,540.9716860409999,540.9716860409999,540.9716860409999,540.9716860409999,540.9716860409999,540.9716860409999,540.9716860409999,540.9716860409999,540.9716860409999,540.9716860409999,540.9716860409999,540.9179985413328,540.9716860409999,540.9716860409999,540.9716860409999,540.9179985413328,540.9716860409999,540.9716860409999,540.9716860409999,540.9716860409999,540.9716860409999,546.1749184159999,546.1749184159999,550.1795714159998,None,0,,reldom2_s010,001,2025-02-11_16h12.15.967,What-A-Scan_AC,2022.2.5,None,
47,Second_Order,8.0,viswhat,stimulus/viswhat_stim/water_animal-dolphin.png,stimulus/viswhat_stim/water_vehicle-cruiseship.png,stimulus/viswhat_stim/land_vehicle-oldcar.png,stimulus/viswhat_stim/land_animal-giraffe.png,stimulus/audwhat_stim/match_blank.png,stimulus/audwhat_stim/match_box.png,stimulus/audwhat_stim/match_yes.png,stimulus/audwhat_stim/match_no.png,1.0,Match,Location,Location,1,5.125,0,5.125,0,5.125,0,5.125,0,0.75,0.75,1,0.5,1,2.125,1,0.5,1,2.125,0,0.0,0,0.0,0,0.0,0,0.0,0,,,,,0,62,62,62,,,,,,,,,550.1795714159998,555.3021896659998,550.5669417499998,551.5569975829999,552.190714375,553.1820954999998,550.1795714159998,550.1795714159998,550.1848455416666,550.1795714159998,550.1795714159998,550.1795714159998,550.1848455416666,550.1795714159998,555.3021896659998,556.1846927079996,558.2872159159997,,556.1846927079996,556.1846927079996,561.3994266249997,556.6196131249999,557.7082636659998,558.2872159159997,559.3777194999998,556.1846927079996,556.1846927079996,556.1238537083331,556.1846927079996,556.1846927079996,556.1846927079996,556.1238537083331,556.1846927079996,556.1846927079996,561.3994266249997,556.1846927079996,561.3994266249997,561.3994266249997,,556.1846927079996,1,1,0.39913129099977596,reldom2_s010,001,2025-02-11_16h12.15.967,What-A-Scan_AC,2022.2.5,None,
48,Second_Order,8.0,viswhat,stimulus/viswhat_stim/land_animal-ostrich.png,stimulus/viswhat_stim/water_animal-shark.png,stimulus/viswhat_stim/water_animal-whale.png,stimulus/viswhat_stim/water_vehicle-cargoboat.png,stimulus/audwhat_stim/match_blank.png,stimulus/audwhat_stim/match_box.png,stimulus/audwhat_stim/match_yes.png,stimulus/audwhat_stim/match_no.png,2.0,Match,Type,Location,2,5.125,0,5.125,0,5.125,0,5.125,0,0.625,0.625,1,0.5,1,2.125,1,0.5,1,2.125,0,0.0,0,0.0,0,0.0,0,0.0,0,,,,,0,63,63,63,,,,,,,,,562.155605125,567.2798369579996,562.6150461249999,563.6139359159997,564.2431079579997,565.2308940409998,562.155605125,562.155605125,562.1608883326663,562.155605125,562.155605125,562.155605125,562.1608883326663,562.155605125,567.2798369579996,567.9659584579999,570.0675576659996,574.0964860409999,567.9659584579999,567.9659584579999,573.1262640829996,568.443686958,569.463971791,570.0675576659996,571.0921095829999,567.9659584579999,567.9659584579999,567.9343709583331,567.9659584579999,567.9659584579999,567.9659584579999,567.9343709583331,567.9659584579999,567.9659584579999,573.1262640829996,567.9659584579999,573.1262640829996,573.1768747499996,573.809685833,567.9659584579999,2,1,0.45094620800000484,reldom2_s010,001,2025-02-11_16h12.15.967,What-A-Scan_AC,2022.2.5,None,
0,0.0,None,fixation,stimulus/audwhat_stim/blank_white.png,stimulus/audwhat_stim/blank_white.png,stimulus/viswhat_stim/blank_white.png,stimulus/viswhat_stim/blank_white.png,stimulus/audwhat_stim/blank_white.png,stimulus/audwhat_stim/blank_white.png,stimulus/audwhat_stim/blank_white.png,stimulus/audwhat_stim/blank_white.png,0.0,0.0,0.0,0.0,0,0.0,0,0.0,0,0.0,0,0.0,0,0.0,0.0,0,0.0,0,0.0,0,0.0,0,0.0,0,0.0,0,0.0,0,0.0,0,0.0,16,,,,,0,64,64,64,,,,,,,,,574.0964860409999,574.0964860409999,574.0964860409999,574.0964860409999,574.0964860409999,574.0964860409999,574.0964860409999,574.0964860409999,573.9842809159996,574.0964860409999,574.0964860409999,574.0964860409999,573.9842809159996,574.0964860409999,574.0964860409999,574.0964860409999,574.0964860409999,574.0964860409999,574.0964860409999,574.0964860409999,574.0964860409999,574.0964860409999,574.0964860409999,574.0964860409999,574.0964860409999,574.0964860409999,574.0964860409999,574.0509475826663,574.0964860409999,574.0964860409999,574.0964860409999,574.0509475826663,574.0964860409999,574.0964860409999,574.0964860409999,574.0964860409999,574.0964860409999,579.2828882499998,579.2828882499998,590.2818714999999,None,0,,reldom2_s010,001,2025-02-11_16h12.15.967,What-A-Scan_AC,2022.2.5,None,
