Trial,Order,Block,Type,Stimuli_File1,Stimuli_File2,Stimuli_File3,Stimuli_File4,Cue_File1,Cue_File2,Response_File_Yes,Response_File_No,Match,Cue_Dimension,Pair1_Dimension,Pair2_Dimension,Key,Cue1_Duration,Cue1_Onset,Cue2_Duration,Cue2_Onset,ResponseYes_Duration,ResponseYes_Onset,ResponseNo_Duration,ResponseNo_Onset,ITI_Within,ITI_Between,Image1_Duration,Image1_Onset,Image2_Duration,Image2_Onset,Image3_Duration,Image3_Onset,Image4_Duration,Image4_Onset,Sound1_Duration,Sound1_Onset,Sound2_Duration,Sound2_Onset,Sound3_Duration,Sound3_Onset,Sound4_Duration,Sound4_Onset,Fixation_Duration,trials_2.thisRepN,trials_2.thisTrialN,trials_2.thisN,trials_2.thisIndex,trials.thisRepN,trials.thisTrialN,trials.thisN,trials.thisIndex,text_start.started,key_resp_start.started,key_resp_start.keys,key_resp_start.rt,text2.started,key_resp_2.started,key_resp_2.keys,key_resp_2.rt,cue_file1.started,cue_file1.stopped,image_1.started,image_1.stopped,image_2.started,image_2.stopped,sound_icon1.started,sound_icon1.stopped,sound_1.started,sound_1.stopped,sound_icon2.started,sound_icon2.stopped,sound_2.started,sound_2.stopped,image_blank_1.started,image_blank_1.stopped,key_press.started,key_press.stopped,fixation_text.started,cue_file2.started,cue_file2.stopped,image_3.started,image_3.stopped,image_4.started,image_4.stopped,sound_icon3.started,sound_icon3.stopped,sound_3.started,sound_3.stopped,sound_icon4.started,sound_icon4.stopped,sound_4.started,sound_4.stopped,response_yes.started,response_yes.stopped,response_no.started,response_no.stopped,iti_blank.started,iti_blank.stopped,fixation_text.stopped,key_press.keys,key_press.corr,key_press.rt,participant,session,date,expName,psychopyVersion,frameRate,
,,,,,,,,,,,,,,,,,,,,,,,,,,,,,,,,,,,,,,,,,,,,,,,,,,,,7.342125084000145,7.342125084000145,2,0.8642627909998737,,,,,,,,,,,,,,,,,,,,,,,,,,,,,,,,,,,,,,,,,,,,,,,,reldom2_s014,001,2025-02-13_16h08.32.927,Where-A-Scan_AC,2022.2.5,None,
,,,,,,,,,,,,,,,,,,,,,,,,,,,,,,,,,,,,,,,,,,,,0,0,0,0,,,,,,,,,8.245535666999785,8.245535666999785,5,17.08745658299995,,,,,,,,,,,,,,,,,,,,,,,,,,,,,,,,,,,,,,,,,,,,reldom2_s014,001,2025-02-13_16h08.32.927,Where-A-Scan_AC,2022.2.5,None,
,,,,,,,,,,,,,,,,,,,,,,,,,,,,,,,,,,,,,,,,,,,,1,0,1,0,,,,,,,,,25.34713279200014,25.34713279200014,5,1.9861571249998633,,,,,,,,,,,,,,,,,,,,,,,,,,,,,,,,,,,,,,,,,,,,reldom2_s014,001,2025-02-13_16h08.32.927,Where-A-Scan_AC,2022.2.5,None,
,,,,,,,,,,,,,,,,,,,,,,,,,,,,,,,,,,,,,,,,,,,,2,0,2,0,,,,,,,,,27.358515500000067,27.358515500000067,5,1.975625207000121,,,,,,,,,,,,,,,,,,,,,,,,,,,,,,,,,,,,,,,,,,,,reldom2_s014,001,2025-02-13_16h08.32.927,Where-A-Scan_AC,2022.2.5,None,
,,,,,,,,,,,,,,,,,,,,,,,,,,,,,,,,,,,,,,,,,,,,3,0,3,0,,,,,,,,,29.347063084000183,29.347063084000183,5,1.9853136249998897,,,,,,,,,,,,,,,,,,,,,,,,,,,,,,,,,,,,,,,,,,,,reldom2_s014,001,2025-02-13_16h08.32.927,Where-A-Scan_AC,2022.2.5,None,
0,0.0,None,fixation,stimulus/viswhere_stim/blank_white.png,stimulus/viswhere_stim/blank_white.png,stimulus/audwhere_stim/blank_white.png,stimulus/audwhere_stim/blank_white.png,stimulus/viswhere_stim/blank_white.png,stimulus/viswhere_stim/blank_white.png,stimulus/viswhere_stim/blank_white.png,stimulus/viswhere_stim/blank_white.png,0.0,0.0,0.0,0.0,0,0.0,0,0.0,0,0.0,0,0.0,0,0.0,0.0,0,0.0,0,0.0,0,0.0,0,0.0,0,0.0,0,0.0,0,0.0,0,0.0,16,,,,,0,0,0,0,,,,,,,,,31.54951070900006,31.54951070900006,31.54951070900006,31.54951070900006,31.54951070900006,31.54951070900006,31.54951070900006,31.54951070900006,31.45171375066672,31.54951070900006,31.54951070900006,31.54951070900006,31.45171375066672,31.54951070900006,31.54951070900006,31.54951070900006,31.54951070900006,31.54951070900006,31.54951070900006,31.54951070900006,31.54951070900006,31.54951070900006,31.54951070900006,31.54951070900006,31.54951070900006,31.54951070900006,31.54951070900006,31.501713750666717,31.54951070900006,31.54951070900006,31.54951070900006,31.501713750666717,31.54951070900006,31.54951070900006,31.54951070900006,31.54951070900006,31.54951070900006,36.74279283399983,36.74279283399983,47.70213395900009,None,0,,reldom2_s014,001,2025-02-13_16h08.32.927,Where-A-Scan_AC,2022.2.5,None,
1,First_Order,1.0,viswhere,stimulus/viswhere_stim/blank_white.png,stimulus/viswhere_stim/blank_white.png,stimulus/viswhere_stim/60-deg_dot-left_peru.png,stimulus/viswhere_stim/60-deg_dot-right_turquoise.png,stimulus/viswhere_stim/blank_white.png,stimulus/viswhere_stim/dot_box.png,stimulus/viswhere_stim/dot_yes.png,stimulus/viswhere_stim/dot_no.png,None,Dot,None,Line,2,0.0,0,5.125,0,5.125,0,5.125,0,0.0,0.625,0,0.0,0,0.0,1,0.5,1,2.125,0,0.0,0,0.0,0,0.0,0,0.0,0,,,,,0,1,1,1,,,,,,,,,47.70213395900009,47.70213395900009,47.70213395900009,47.70213395900009,47.70213395900009,47.70213395900009,47.70213395900009,47.70213395900009,47.683135666999895,47.70213395900009,47.70213395900009,47.70213395900009,47.683135666999895,47.70213395900009,47.70213395900009,47.70213395900009,49.81353783399982,53.760001167000155,47.70213395900009,47.70213395900009,52.834004709000055,48.192562834,49.21014908400002,49.81353783399982,50.81630170900007,47.70213395900009,47.70213395900009,47.69980233366656,47.70213395900009,47.70213395900009,47.70213395900009,47.69980233366656,47.70213395900009,47.70213395900009,52.834004709000055,47.70213395900009,52.834004709000055,52.92773166699999,53.5519784170001,47.70213395900009,2,1,1.2781733739998344,reldom2_s014,001,2025-02-13_16h08.32.927,Where-A-Scan_AC,2022.2.5,None,
2,First_Order,1.0,viswhere,stimulus/viswhere_stim/blank_white.png,stimulus/viswhere_stim/blank_white.png,stimulus/viswhere_stim/60-deg_dot-right_turquoise.png,stimulus/viswhere_stim/60-deg_dot-left_turquoise.png,stimulus/viswhere_stim/blank_white.png,stimulus/viswhere_stim/line_box.png,stimulus/viswhere_stim/line_yes.png,stimulus/viswhere_stim/line_no.png,None,Line,None,Line,1,0.0,0,5.125,0,5.125,0,5.125,0,0.0,0.625,0,0.0,0,0.0,1,0.5,1,2.125,0,0.0,0,0.0,0,0.0,0,0.0,0,,,,,0,2,2,2,,,,,,,,,53.760001167000155,53.760001167000155,53.760001167000155,53.760001167000155,53.760001167000155,53.760001167000155,53.760001167000155,53.760001167000155,53.74167433333317,53.760001167000155,53.760001167000155,53.760001167000155,53.74167433333317,53.760001167000155,53.760001167000155,53.760001167000155,55.86000266700012,59.8253575839999,53.760001167000155,53.760001167000155,58.89798183399989,54.23392516700005,55.25353499999983,55.86000266700012,56.869669666999926,53.760001167000155,53.760001167000155,53.74167433333317,53.760001167000155,53.760001167000155,53.760001167000155,53.74167433333317,53.760001167000155,53.760001167000155,58.89798183399989,53.760001167000155,58.89798183399989,58.99852366699997,59.62294129200018,53.760001167000155,1,1,0.5195652910001627,reldom2_s014,001,2025-02-13_16h08.32.927,Where-A-Scan_AC,2022.2.5,None,
3,First_Order,1.0,viswhere,stimulus/viswhere_stim/blank_white.png,stimulus/viswhere_stim/blank_white.png,stimulus/viswhere_stim/30-deg_dot-left_salmon.png,stimulus/viswhere_stim/120-deg_dot-left_royalblue.png,stimulus/viswhere_stim/blank_white.png,stimulus/viswhere_stim/line_box.png,stimulus/viswhere_stim/line_yes.png,stimulus/viswhere_stim/line_no.png,None,Line,None,Dot,2,0.0,0,5.125,0,5.125,0,5.125,0,0.0,0.625,0,0.0,0,0.0,1,0.5,1,2.125,0,0.0,0,0.0,0,0.0,0,0.0,0,,,,,0,3,3,3,,,,,,,,,59.8253575839999,59.8253575839999,59.8253575839999,59.8253575839999,59.8253575839999,59.8253575839999,59.8253575839999,59.8253575839999,59.80683837533328,59.8253575839999,59.8253575839999,59.8253575839999,59.80683837533328,59.8253575839999,59.8253575839999,59.8253575839999,61.929103834000216,65.89341541700014,59.8253575839999,59.8253575839999,64.96441800000002,60.298967333999826,61.302518916999816,61.929103834000216,62.936420375000125,59.8253575839999,59.8253575839999,59.80683837533328,59.8253575839999,59.8253575839999,59.8253575839999,59.80683837533328,59.8253575839999,59.8253575839999,64.96441800000002,59.8253575839999,64.96441800000002,65.0453474169999,65.66953012500016,59.8253575839999,2,1,1.2793281239996759,reldom2_s014,001,2025-02-13_16h08.32.927,Where-A-Scan_AC,2022.2.5,None,
4,First_Order,1.0,viswhere,stimulus/viswhere_stim/blank_white.png,stimulus/viswhere_stim/blank_white.png,stimulus/viswhere_stim/150-deg_dot-right_salmon.png,stimulus/viswhere_stim/90-deg_dot-right_goldenrod.png,stimulus/viswhere_stim/blank_white.png,stimulus/viswhere_stim/line_box.png,stimulus/viswhere_stim/line_yes.png,stimulus/viswhere_stim/line_no.png,None,Line,None,Dot,2,0.0,0,5.125,0,5.125,0,5.125,0,0.0,0.625,0,0.0,0,0.0,1,0.5,1,2.125,0,0.0,0,0.0,0,0.0,0,0.0,0,,,,,0,4,4,4,,,,,,,,,65.89341541700014,65.89341541700014,65.89341541700014,65.89341541700014,65.89341541700014,65.89341541700014,65.89341541700014,65.89341541700014,65.87364679233345,65.89341541700014,65.89341541700014,65.89341541700014,65.87364679233345,65.89341541700014,65.89341541700014,65.89341541700014,67.9924379590002,72.03478150000001,65.89341541700014,65.89341541700014,71.0178958749998,66.370393917,67.38332245899983,67.9924379590002,69.00732275000018,65.89341541700014,65.89341541700014,65.87364679233345,65.89341541700014,65.89341541700014,65.89341541700014,65.87364679233345,65.89341541700014,65.89341541700014,71.0178958749998,65.89341541700014,71.0178958749998,71.1139485839999,71.74094762499999,65.89341541700014,2,1,1.6490387079998072,reldom2_s014,001,2025-02-13_16h08.32.927,Where-A-Scan_AC,2022.2.5,None,
0,0.0,None,fixation,stimulus/viswhere_stim/blank_white.png,stimulus/viswhere_stim/blank_white.png,stimulus/audwhere_stim/blank_white.png,stimulus/audwhere_stim/blank_white.png,stimulus/viswhere_stim/blank_white.png,stimulus/viswhere_stim/blank_white.png,stimulus/viswhere_stim/blank_white.png,stimulus/viswhere_stim/blank_white.png,0.0,0.0,0.0,0.0,0,0.0,0,0.0,0,0.0,0,0.0,0,0.0,0.0,0,0.0,0,0.0,0,0.0,0,0.0,0,0.0,0,0.0,0,0.0,0,0.0,9,,,,,0,5,5,5,,,,,,,,,72.03478150000001,72.03478150000001,72.03478150000001,72.03478150000001,72.03478150000001,72.03478150000001,72.03478150000001,72.03478150000001,71.93840887533345,72.03478150000001,72.03478150000001,72.03478150000001,71.93840887533345,72.03478150000001,72.03478150000001,72.03478150000001,72.03478150000001,72.03478150000001,72.03478150000001,72.03478150000001,72.03478150000001,72.03478150000001,72.03478150000001,72.03478150000001,72.03478150000001,72.03478150000001,72.03478150000001,71.98840887533345,72.03478150000001,72.03478150000001,72.03478150000001,71.98840887533345,72.03478150000001,72.03478150000001,72.03478150000001,72.03478150000001,72.03478150000001,77.24940141700017,77.24940141700017,81.14593816700017,None,0,,reldom2_s014,001,2025-02-13_16h08.32.927,Where-A-Scan_AC,2022.2.5,None,
5,Second_Order,1.0,viswhere,stimulus/viswhere_stim/90-deg_dot-right_mediumslateblue.png,stimulus/viswhere_stim/90-deg_dot-left_peru.png,stimulus/viswhere_stim/150-deg_dot-left_seagreen.png,stimulus/viswhere_stim/120-deg_dot-left_mediumslateblue.png,stimulus/viswhere_stim/match_blank.png,stimulus/viswhere_stim/match_box.png,stimulus/viswhere_stim/match_yes.png,stimulus/viswhere_stim/match_no.png,2.0,Match,Line,Dot,2,5.125,0,5.125,0,5.125,0,5.125,0,0.75,0.75,1,0.5,1,2.125,1,0.5,1,2.125,0,0.0,0,0.0,0,0.0,0,0.0,0,,,,,0,6,6,6,,,,,,,,,81.14593816700017,86.2671745839998,81.62125695900022,82.62012737499981,83.25480174999984,84.24438983400023,81.14593816700017,81.14593816700017,81.16030870833322,81.14593816700017,81.14593816700017,81.14593816700017,81.16030870833322,81.14593816700017,86.2671745839998,87.06243325000014,89.13054250000005,93.03219079200016,87.06243325000014,87.06243325000014,92.20057725000015,87.50738029200011,88.51980025000012,89.13054250000005,90.15073770900017,87.06243325000014,87.06243325000014,87.05112337500013,87.06243325000014,87.06243325000014,87.06243325000014,87.05112337500013,87.06243325000014,87.06243325000014,92.20057725000015,87.06243325000014,92.20057725000015,92.25530983399995,93.03219079200016,87.06243325000014,2,1,1.2541675830002532,reldom2_s014,001,2025-02-13_16h08.32.927,Where-A-Scan_AC,2022.2.5,None,
6,Second_Order,1.0,viswhere,stimulus/viswhere_stim/60-deg_dot-right_salmon.png,stimulus/viswhere_stim/150-deg_dot-right_cyan.png,stimulus/viswhere_stim/120-deg_dot-left_lightsseagreen.png,stimulus/viswhere_stim/90-deg_dot-left_goldenrod.png,stimulus/viswhere_stim/match_blank.png,stimulus/viswhere_stim/match_box.png,stimulus/viswhere_stim/match_yes.png,stimulus/viswhere_stim/match_no.png,1.0,Match,Dot,Dot,1,5.125,0,5.125,0,5.125,0,5.125,0,0.625,0.625,1,0.5,1,2.125,1,0.5,1,2.125,0,0.0,0,0.0,0,0.0,0,0.0,0,,,,,0,7,7,7,,,,,,,,,93.03219079200016,98.15611075000015,93.51558758400006,94.51474929200003,95.13700999999992,96.1511802089999,93.03219079200016,93.03219079200016,93.04563929199985,93.03219079200016,93.03219079200016,93.03219079200016,93.04563929199985,93.03219079200016,98.15611075000015,98.82940929200004,100.90671500000008,104.94270108399996,98.82940929200004,98.82940929200004,103.96880929200006,99.2904426670002,100.30081516700011,100.90671500000008,101.92541854199999,98.82940929200004,98.82940929200004,98.80729966733318,98.82940929200004,98.82940929200004,98.82940929200004,98.80729966733318,98.82940929200004,98.82940929200004,103.96880929200006,98.82940929200004,103.96880929200006,104.02238850000003,104.64687300000014,98.82940929200004,1,1,0.5689926660002129,reldom2_s014,001,2025-02-13_16h08.32.927,Where-A-Scan_AC,2022.2.5,None,
0,0.0,None,fixation,stimulus/viswhere_stim/blank_white.png,stimulus/viswhere_stim/blank_white.png,stimulus/audwhere_stim/blank_white.png,stimulus/audwhere_stim/blank_white.png,stimulus/viswhere_stim/blank_white.png,stimulus/viswhere_stim/blank_white.png,stimulus/viswhere_stim/blank_white.png,stimulus/viswhere_stim/blank_white.png,0.0,0.0,0.0,0.0,0,0.0,0,0.0,0,0.0,0,0.0,0,0.0,0.0,0,0.0,0,0.0,0,0.0,0,0.0,0,0.0,0,0.0,0,0.0,0,0.0,8,,,,,0,8,8,8,,,,,,,,,104.94270108399996,104.94270108399996,104.94270108399996,104.94270108399996,104.94270108399996,104.94270108399996,104.94270108399996,104.94270108399996,104.84350987533328,104.94270108399996,104.94270108399996,104.94270108399996,104.84350987533328,104.94270108399996,104.94270108399996,104.94270108399996,104.94270108399996,104.94270108399996,104.94270108399996,104.94270108399996,104.94270108399996,104.94270108399996,104.94270108399996,104.94270108399996,104.94270108399996,104.94270108399996,104.94270108399996,104.89350987533328,104.94270108399996,104.94270108399996,104.94270108399996,104.89350987533328,104.94270108399996,104.94270108399996,104.94270108399996,104.94270108399996,104.94270108399996,110.16845854199983,110.16845854199983,113.15589816700003,None,0,,reldom2_s014,001,2025-02-13_16h08.32.927,Where-A-Scan_AC,2022.2.5,None,
7,First_Order,2.0,viswhere,stimulus/viswhere_stim/blank_white.png,stimulus/viswhere_stim/blank_white.png,stimulus/viswhere_stim/30-deg_dot-right_cyan.png,stimulus/viswhere_stim/30-deg_dot-left_cyan.png,stimulus/viswhere_stim/blank_white.png,stimulus/viswhere_stim/line_box.png,stimulus/viswhere_stim/line_yes.png,stimulus/viswhere_stim/line_no.png,None,Line,None,Line,1,0.0,0,5.125,0,5.125,0,5.125,0,0.0,0.625,0,0.0,0,0.0,1,0.5,1,2.125,0,0.0,0,0.0,0,0.0,0,0.0,0,,,,,0,9,9,9,,,,,,,,,113.15589816700003,113.15589816700003,113.15589816700003,113.15589816700003,113.15589816700003,113.15589816700003,113.15589816700003,113.15589816700003,113.13572204166682,113.15589816700003,113.15589816700003,113.15589816700003,113.13572204166682,113.15589816700003,113.15589816700003,113.15589816700003,115.26845808400003,119.21531245899996,113.15589816700003,113.15589816700003,118.27861824999991,113.63415687499992,114.6428972499998,115.26845808400003,116.28397841700007,113.15589816700003,113.15589816700003,113.15238870833349,113.15589816700003,113.15589816700003,113.15589816700003,113.15238870833349,113.15589816700003,113.15589816700003,118.27861824999991,113.15589816700003,118.27861824999991,118.37596258399981,119.0004617919999,113.15589816700003,1,1,0.6871270409997123,reldom2_s014,001,2025-02-13_16h08.32.927,Where-A-Scan_AC,2022.2.5,None,
8,First_Order,2.0,viswhere,stimulus/viswhere_stim/blank_white.png,stimulus/viswhere_stim/blank_white.png,stimulus/viswhere_stim/60-deg_dot-right_slateblue.png,stimulus/viswhere_stim/60-deg_dot-left_goldenrod.png,stimulus/viswhere_stim/blank_white.png,stimulus/viswhere_stim/dot_box.png,stimulus/viswhere_stim/dot_yes.png,stimulus/viswhere_stim/dot_no.png,None,Dot,None,Line,2,0.0,0,5.125,0,5.125,0,5.125,0,0.0,0.625,0,0.0,0,0.0,1,0.5,1,2.125,0,0.0,0,0.0,0,0.0,0,0.0,0,,,,,0,10,10,10,,,,,,,,,119.21531245899996,119.21531245899996,119.21531245899996,119.21531245899996,119.21531245899996,119.21531245899996,119.21531245899996,119.21531245899996,119.19413154233355,119.21531245899996,119.21531245899996,119.21531245899996,119.19413154233355,119.21531245899996,119.21531245899996,119.21531245899996,121.31776212500017,125.27688379199981,119.21531245899996,119.21531245899996,124.3409001670002,119.69157683399999,120.69532558399987,121.31776212500017,122.33158504199992,119.21531245899996,119.21531245899996,119.21079820900022,119.21531245899996,119.21531245899996,119.21531245899996,119.21079820900022,119.21531245899996,119.21531245899996,124.3409001670002,119.21531245899996,124.3409001670002,124.43652900000006,125.06108674999996,119.21531245899996,2,1,0.5791849580000417,reldom2_s014,001,2025-02-13_16h08.32.927,Where-A-Scan_AC,2022.2.5,None,
9,First_Order,2.0,viswhere,stimulus/viswhere_stim/blank_white.png,stimulus/viswhere_stim/blank_white.png,stimulus/viswhere_stim/90-deg_dot-right_cyan.png,stimulus/viswhere_stim/60-deg_dot-right_slateblue.png,stimulus/viswhere_stim/blank_white.png,stimulus/viswhere_stim/dot_box.png,stimulus/viswhere_stim/dot_yes.png,stimulus/viswhere_stim/dot_no.png,None,Dot,None,Dot,1,0.0,0,5.125,0,5.125,0,5.125,0,0.0,0.625,0,0.0,0,0.0,1,0.5,1,2.125,0,0.0,0,0.0,0,0.0,0,0.0,0,,,,,0,11,11,11,,,,,,,,,125.27688379199981,125.27688379199981,125.27688379199981,125.27688379199981,125.27688379199981,125.27688379199981,125.27688379199981,125.27688379199981,125.25772516733316,125.27688379199981,125.27688379199981,125.27688379199981,125.25772516733316,125.27688379199981,125.27688379199981,125.27688379199981,127.38591341700021,131.3399209590002,125.27688379199981,125.27688379199981,130.4154560420002,125.7527070000001,126.75935495900012,127.38591341700021,128.39888445899987,125.27688379199981,125.27688379199981,125.25772516733316,125.27688379199981,125.27688379199981,125.27688379199981,125.25772516733316,125.27688379199981,125.27688379199981,130.4154560420002,125.27688379199981,130.4154560420002,130.4993407500001,131.12142645899985,125.27688379199981,1,1,0.5573303319997649,reldom2_s014,001,2025-02-13_16h08.32.927,Where-A-Scan_AC,2022.2.5,None,
10,First_Order,2.0,viswhere,stimulus/viswhere_stim/blank_white.png,stimulus/viswhere_stim/blank_white.png,stimulus/viswhere_stim/60-deg_dot-left_mediumslateblue.png,stimulus/viswhere_stim/150-deg_dot-left_peru.png,stimulus/viswhere_stim/blank_white.png,stimulus/viswhere_stim/dot_box.png,stimulus/viswhere_stim/dot_yes.png,stimulus/viswhere_stim/dot_no.png,None,Dot,None,Dot,1,0.0,0,5.125,0,5.125,0,5.125,0,0.0,0.625,0,0.0,0,0.0,1,0.5,1,2.125,0,0.0,0,0.0,0,0.0,0,0.0,0,,,,,0,12,12,12,,,,,,,,,131.3399209590002,131.3399209590002,131.3399209590002,131.3399209590002,131.3399209590002,131.3399209590002,131.3399209590002,131.3399209590002,131.31849520833325,131.3399209590002,131.3399209590002,131.3399209590002,131.31849520833325,131.3399209590002,131.3399209590002,131.3399209590002,133.45545112499985,137.47835087500016,131.3399209590002,131.3399209590002,136.4736698749998,131.81694199999993,132.8249847090001,133.45545112499985,134.47122916699982,131.3399209590002,131.3399209590002,131.33516187499993,131.3399209590002,131.3399209590002,131.3399209590002,131.33516187499993,131.3399209590002,131.3399209590002,136.4736698749998,131.3399209590002,136.4736698749998,136.55760150000015,137.18272370900013,131.3399209590002,1,1,0.8485442079995664,reldom2_s014,001,2025-02-13_16h08.32.927,Where-A-Scan_AC,2022.2.5,None,
0,0.0,None,fixation,stimulus/viswhere_stim/blank_white.png,stimulus/viswhere_stim/blank_white.png,stimulus/audwhere_stim/blank_white.png,stimulus/audwhere_stim/blank_white.png,stimulus/viswhere_stim/blank_white.png,stimulus/viswhere_stim/blank_white.png,stimulus/viswhere_stim/blank_white.png,stimulus/viswhere_stim/blank_white.png,0.0,0.0,0.0,0.0,0,0.0,0,0.0,0,0.0,0,0.0,0,0.0,0.0,0,0.0,0,0.0,0,0.0,0,0.0,0,0.0,0,0.0,0,0.0,0,0.0,10,,,,,0,13,13,13,,,,,,,,,137.47835087500016,137.47835087500016,137.47835087500016,137.47835087500016,137.47835087500016,137.47835087500016,137.47835087500016,137.47835087500016,137.37904337533323,137.47835087500016,137.47835087500016,137.47835087500016,137.37904337533323,137.47835087500016,137.47835087500016,137.47835087500016,137.47835087500016,137.47835087500016,137.47835087500016,137.47835087500016,137.47835087500016,137.47835087500016,137.47835087500016,137.47835087500016,137.47835087500016,137.47835087500016,137.47835087500016,137.42904337533324,137.47835087500016,137.47835087500016,137.47835087500016,137.42904337533324,137.47835087500016,137.47835087500016,137.47835087500016,137.47835087500016,137.47835087500016,142.65825099999984,142.65825099999984,147.58380587500005,None,0,,reldom2_s014,001,2025-02-13_16h08.32.927,Where-A-Scan_AC,2022.2.5,None,
11,Second_Order,2.0,viswhere,stimulus/viswhere_stim/120-deg_dot-right_turquoise.png,stimulus/viswhere_stim/120-deg_dot-left_goldenrod.png,stimulus/viswhere_stim/60-deg_dot-left_turquoise.png,stimulus/viswhere_stim/150-deg_dot-left_seagreen.png,stimulus/viswhere_stim/match_blank.png,stimulus/viswhere_stim/match_box.png,stimulus/viswhere_stim/match_yes.png,stimulus/viswhere_stim/match_no.png,2.0,Match,Line,Dot,2,5.125,0,5.125,0,5.125,0,5.125,0,0.75,0.75,1,0.5,1,2.125,1,0.5,1,2.125,0,0.0,0,0.0,0,0.0,0,0.0,0,,,,,0,14,14,14,,,,,,,,,147.58380587500005,152.70417058400017,148.05842820899989,149.0570554589999,149.69149887499998,150.68099966699992,147.58380587500005,147.58380587500005,147.59815587533345,147.58380587500005,147.58380587500005,147.58380587500005,147.59815587533345,147.58380587500005,152.70417058400017,153.49647541700006,155.57057720900002,159.46942437500002,153.49647541700006,153.49647541700006,158.64508733399998,153.94152979199998,154.95729958399988,155.57057720900002,156.59149483400006,153.49647541700006,153.49647541700006,153.47049075033334,153.49647541700006,153.49647541700006,153.49647541700006,153.47049075033334,153.49647541700006,153.49647541700006,158.64508733399998,153.49647541700006,158.64508733399998,158.68916512499982,159.46942437500002,153.49647541700006,2,1,1.199665332999757,reldom2_s014,001,2025-02-13_16h08.32.927,Where-A-Scan_AC,2022.2.5,None,
12,Second_Order,2.0,viswhere,stimulus/viswhere_stim/30-deg_dot-right_mediumslateblue.png,stimulus/viswhere_stim/30-deg_dot-left_seagreen.png,stimulus/viswhere_stim/120-deg_dot-right_goldenrod.png,stimulus/viswhere_stim/120-deg_dot-left_salmon.png,stimulus/viswhere_stim/match_blank.png,stimulus/viswhere_stim/match_box.png,stimulus/viswhere_stim/match_yes.png,stimulus/viswhere_stim/match_no.png,1.0,Match,Line,Line,1,5.125,0,5.125,0,5.125,0,5.125,0,0.625,0.625,1,0.5,1,2.125,1,0.5,1,2.125,0,0.0,0,0.0,0,0.0,0,0.0,0,,,,,0,15,15,15,,,,,,,,,159.46942437500002,164.59317112500003,159.9526575,160.95082245899994,161.57404450000013,162.5716511669998,159.46942437500002,159.46942437500002,159.48263291699988,159.46942437500002,159.46942437500002,159.46942437500002,159.48263291699988,159.46942437500002,164.59317112500003,165.26894833400002,167.344007875,171.40706441700013,165.26894833400002,165.26894833400002,170.40560783399997,165.72917958400012,166.73690100000022,167.344007875,168.35757858399984,165.26894833400002,165.26894833400002,165.24463433333318,165.26894833400002,165.26894833400002,165.26894833400002,165.24463433333318,165.26894833400002,165.26894833400002,170.40560783399997,165.26894833400002,170.40560783399997,170.45954816699987,171.08064720899984,165.26894833400002,1,1,0.7554816659999233,reldom2_s014,001,2025-02-13_16h08.32.927,Where-A-Scan_AC,2022.2.5,None,
0,0.0,None,fixation,stimulus/viswhere_stim/blank_white.png,stimulus/viswhere_stim/blank_white.png,stimulus/audwhere_stim/blank_white.png,stimulus/audwhere_stim/blank_white.png,stimulus/viswhere_stim/blank_white.png,stimulus/viswhere_stim/blank_white.png,stimulus/viswhere_stim/blank_white.png,stimulus/viswhere_stim/blank_white.png,0.0,0.0,0.0,0.0,0,0.0,0,0.0,0,0.0,0,0.0,0,0.0,0.0,0,0.0,0,0.0,0,0.0,0,0.0,0,0.0,0,0.0,0,0.0,0,0.0,8,,,,,0,16,16,16,,,,,,,,,171.40706441700013,171.40706441700013,171.40706441700013,171.40706441700013,171.40706441700013,171.40706441700013,171.40706441700013,171.40706441700013,171.30751079233355,171.40706441700013,171.40706441700013,171.40706441700013,171.30751079233355,171.40706441700013,171.40706441700013,171.40706441700013,171.40706441700013,171.40706441700013,171.40706441700013,171.40706441700013,171.40706441700013,171.40706441700013,171.40706441700013,171.40706441700013,171.40706441700013,171.40706441700013,171.40706441700013,171.35751079233356,171.40706441700013,171.40706441700013,171.40706441700013,171.35751079233356,171.40706441700013,171.40706441700013,171.40706441700013,171.40706441700013,171.40706441700013,176.61452491699993,176.61452491699993,179.6703675419999,None,0,,reldom2_s014,001,2025-02-13_16h08.32.927,Where-A-Scan_AC,2022.2.5,None,
13,First_Order,3.0,audwhere,stimulus/audwhere_stim/dummy.wav,stimulus/audwhere_stim/dummy.wav,stimulus/audwhere_stim/right_away_290h.wav,stimulus/audwhere_stim/right_toward_280h.wav,stimulus/audwhere_stim/blank_white.png,stimulus/audwhere_stim/side_box.png,stimulus/audwhere_stim/side_yes.png,stimulus/audwhere_stim/side_no.png,None,Side,None,Side,1,0.0,0,5.125,0,5.125,0,5.125,0,0.0,0.625,0,0.0,0,0.0,0,0.0,0,0.0,0,0.0,0,0.0,1,0.5,1,2.125,0,,,,,0,17,17,17,,,,,,,,,179.6703675419999,179.6703675419999,179.6703675419999,179.6703675419999,179.6703675419999,179.6703675419999,179.6703675419999,179.6703675419999,179.59949379166682,179.6703675419999,179.6703675419999,179.6703675419999,179.59949379166682,179.6703675419999,179.6703675419999,179.6703675419999,181.74958724999988,185.7876934589999,179.6703675419999,179.6703675419999,184.84207749999996,179.6703675419999,179.6703675419999,179.6703675419999,179.6703675419999,180.13242958399996,181.1950499999998,180.1028600836669,,181.74958724999988,182.8133089590001,181.71994479166668,,179.6703675419999,184.84207749999996,179.6703675419999,184.84207749999996,184.88310437500013,185.53542183399986,179.6703675419999,1,1,1.4063863739997942,reldom2_s014,001,2025-02-13_16h08.32.927,Where-A-Scan_AC,2022.2.5,None,
14,First_Order,3.0,audwhere,stimulus/audwhere_stim/dummy.wav,stimulus/audwhere_stim/dummy.wav,stimulus/audwhere_stim/right_away_300h.wav,stimulus/audwhere_stim/left_away_300h.wav,stimulus/audwhere_stim/blank_white.png,stimulus/audwhere_stim/side_box.png,stimulus/audwhere_stim/side_yes.png,stimulus/audwhere_stim/side_no.png,None,Side,None,Direction,2,0.0,0,5.125,0,5.125,0,5.125,0,0.0,0.625,0,0.0,0,0.0,0,0.0,0,0.0,0,0.0,0,0.0,1,0.5,1,2.125,0,,,,,0,18,18,18,,,,,,,,,185.7876934589999,185.7876934589999,185.7876934589999,185.7876934589999,185.7876934589999,185.7876934589999,185.7876934589999,185.7876934589999,185.7094325423333,185.7876934589999,185.7876934589999,185.7876934589999,185.7094325423333,185.7876934589999,185.7876934589999,185.7876934589999,187.86624229200015,191.9053614999998,185.7876934589999,185.7876934589999,190.96117037500017,185.7876934589999,185.7876934589999,185.7876934589999,185.7876934589999,186.25090308400013,187.31245141699992,186.22112333366684,,187.86624229200015,188.9298202089999,187.83644858366668,,185.7876934589999,190.96117037500017,185.7876934589999,190.96117037500017,191.0023349170001,191.65275141700022,185.7876934589999,2,1,1.9045301660003133,reldom2_s014,001,2025-02-13_16h08.32.927,Where-A-Scan_AC,2022.2.5,None,
15,First_Order,3.0,audwhere,stimulus/audwhere_stim/dummy.wav,stimulus/audwhere_stim/dummy.wav,stimulus/audwhere_stim/left_away_290h.wav,stimulus/audwhere_stim/right_away_280h.wav,stimulus/audwhere_stim/blank_white.png,stimulus/audwhere_stim/direction_box.png,stimulus/audwhere_stim/direction_yes.png,stimulus/audwhere_stim/direction_no.png,None,Direction,None,Direction,1,0.0,0,5.125,0,5.125,0,5.125,0,0.0,0.625,0,0.0,0,0.0,0,0.0,0,0.0,0,0.0,0,0.0,1,0.5,1,2.125,0,,,,,0,19,19,19,,,,,,,,,191.9053614999998,191.9053614999998,191.9053614999998,191.9053614999998,191.9053614999998,191.9053614999998,191.9053614999998,191.9053614999998,191.82652554233314,191.9053614999998,191.9053614999998,191.9053614999998,191.82652554233314,191.9053614999998,191.9053614999998,191.9053614999998,194.00163841699987,198.0261745419998,191.9053614999998,191.9053614999998,197.0731672500001,191.9053614999998,191.9053614999998,191.9053614999998,191.9053614999998,192.37140633399986,193.4437038340002,192.3410528336665,,194.00163841699987,195.07392958399987,193.97193087566646,,191.9053614999998,197.0731672500001,191.9053614999998,197.0731672500001,197.1143888749998,197.77220670899987,191.9053614999998,1,1,1.5630295000000842,reldom2_s014,001,2025-02-13_16h08.32.927,Where-A-Scan_AC,2022.2.5,None,
16,First_Order,3.0,audwhere,stimulus/audwhere_stim/dummy.wav,stimulus/audwhere_stim/dummy.wav,stimulus/audwhere_stim/right_toward_270h.wav,stimulus/audwhere_stim/right_away_300h.wav,stimulus/audwhere_stim/blank_white.png,stimulus/audwhere_stim/direction_box.png,stimulus/audwhere_stim/direction_yes.png,stimulus/audwhere_stim/direction_no.png,None,Direction,None,Side,2,0.0,0,5.125,0,5.125,0,5.125,0,0.0,0.625,0,0.0,0,0.0,0,0.0,0,0.0,0,0.0,0,0.0,1,0.5,1,2.125,0,,,,,0,20,20,20,,,,,,,,,198.0261745419998,198.0261745419998,198.0261745419998,198.0261745419998,198.0261745419998,198.0261745419998,198.0261745419998,198.0261745419998,197.94626254233359,198.0261745419998,198.0261745419998,198.0261745419998,197.94626254233359,198.0261745419998,198.0261745419998,198.0261745419998,200.11598658399998,,198.0261745419998,198.0261745419998,203.18404866699984,198.0261745419998,198.0261745419998,198.0261745419998,198.0261745419998,198.49275058400008,199.5615825,198.4627105836669,,200.11598658399998,201.18604187500023,200.0858767506668,,198.0261745419998,203.18404866699984,198.0261745419998,203.18404866699984,203.2258457500002,203.88095758400004,198.0261745419998,2,1,2.4971724159995574,reldom2_s014,001,2025-02-13_16h08.32.927,Where-A-Scan_AC,2022.2.5,None,
0,0.0,None,fixation,stimulus/viswhere_stim/blank_white.png,stimulus/viswhere_stim/blank_white.png,stimulus/audwhere_stim/blank_white.png,stimulus/audwhere_stim/blank_white.png,stimulus/viswhere_stim/blank_white.png,stimulus/viswhere_stim/blank_white.png,stimulus/viswhere_stim/blank_white.png,stimulus/viswhere_stim/blank_white.png,0.0,0.0,0.0,0.0,0,0.0,0,0.0,0,0.0,0,0.0,0,0.0,0.0,0,0.0,0,0.0,0,0.0,0,0.0,0,0.0,0,0.0,0,0.0,0,0.0,9,,,,,0,21,21,21,,,,,,,,,204.15497570900015,204.15497570900015,204.15497570900015,204.15497570900015,204.15497570900015,204.15497570900015,204.15497570900015,204.15497570900015,204.05512833333356,204.15497570900015,204.15497570900015,204.15497570900015,204.05512833333356,204.15497570900015,204.15497570900015,204.15497570900015,204.15497570900015,204.15497570900015,204.15497570900015,204.15497570900015,204.15497570900015,204.15497570900015,204.15497570900015,204.15497570900015,204.15497570900015,204.15497570900015,204.15497570900015,204.10512833333354,204.15497570900015,204.15497570900015,204.15497570900015,204.10512833333354,204.15497570900015,204.15497570900015,204.15497570900015,204.15497570900015,204.15497570900015,209.3865890420002,209.3865890420002,213.320479084,None,0,,reldom2_s014,001,2025-02-13_16h08.32.927,Where-A-Scan_AC,2022.2.5,None,
17,Second_Order,3.0,audwhere,stimulus/audwhere_stim/right_away_270h.wav,stimulus/audwhere_stim/left_away_270h.wav,stimulus/audwhere_stim/right_toward_280h.wav,stimulus/audwhere_stim/left_toward_280h.wav,stimulus/viswhere_stim/match_blank.png,stimulus/audwhere_stim/match_box.png,stimulus/viswhere_stim/match_yes.png,stimulus/viswhere_stim/match_no.png,1.0,Match,Direction,Direction,1,5.125,0,5.125,0,5.125,0,5.125,0,0.75,0.75,0,0.0,0,0.0,0,0.0,0,0.0,1,0.5,1,2.125,1,0.5,1,2.125,0,,,,,0,22,22,22,,,,,,,,,213.320479084,218.43845575000023,213.320479084,213.320479084,213.320479084,213.320479084,213.77704912499985,214.775302,213.7897200836667,214.7794752499999,215.3978985419999,216.3958122089998,215.41035795866654,,218.43845575000023,219.28936783400013,221.36430174999987,,219.28936783400013,219.28936783400013,224.45860270899993,219.28936783400013,219.28936783400013,219.28936783400013,219.28936783400013,219.703819459,220.76401058400006,219.67409970866655,,221.36430174999987,222.42885512500015,221.3336089166667,,219.28936783400013,224.45860270899993,219.28936783400013,224.45860270899993,224.45860270899993,,219.28936783400013,1,1,1.095922832999804,reldom2_s014,001,2025-02-13_16h08.32.927,Where-A-Scan_AC,2022.2.5,None,
18,Second_Order,3.0,audwhere,stimulus/audwhere_stim/left_away_300h.wav,stimulus/audwhere_stim/right_away_290h.wav,stimulus/audwhere_stim/left_toward_300h.wav,stimulus/audwhere_stim/left_away_290h.wav,stimulus/viswhere_stim/match_blank.png,stimulus/audwhere_stim/match_box.png,stimulus/viswhere_stim/match_yes.png,stimulus/viswhere_stim/match_no.png,2.0,Match,Direction,Side,2,5.125,0,5.125,0,5.125,0,5.125,0,0.625,0.625,0,0.0,0,0.0,0,0.0,0,0.0,1,0.5,1,2.125,1,0.5,1,2.125,0,,,,,0,23,23,23,,,,,,,,,225.2637293339999,230.38265791699996,225.2637293339999,225.2637293339999,225.2637293339999,225.2637293339999,225.72096250000004,226.71947554200005,225.73372295866673,226.72291966700004,227.3452120840002,228.34019924999984,227.35444820866658,,230.38265791699996,231.1128226249998,233.1714002499998,,231.1128226249998,231.1128226249998,236.290588459,231.1128226249998,231.1128226249998,231.1128226249998,231.1128226249998,231.56952420900006,232.62150120900014,231.54042504166662,,233.1714002499998,234.2268614589998,233.14220220866653,,231.1128226249998,236.290588459,231.1128226249998,236.290588459,236.290588459,236.97466912500022,231.1128226249998,2,1,1.5028632499997912,reldom2_s014,001,2025-02-13_16h08.32.927,Where-A-Scan_AC,2022.2.5,None,
0,0.0,None,fixation,stimulus/viswhere_stim/blank_white.png,stimulus/viswhere_stim/blank_white.png,stimulus/audwhere_stim/blank_white.png,stimulus/audwhere_stim/blank_white.png,stimulus/viswhere_stim/blank_white.png,stimulus/viswhere_stim/blank_white.png,stimulus/viswhere_stim/blank_white.png,stimulus/viswhere_stim/blank_white.png,0.0,0.0,0.0,0.0,0,0.0,0,0.0,0,0.0,0,0.0,0,0.0,0.0,0,0.0,0,0.0,0,0.0,0,0.0,0,0.0,0,0.0,0,0.0,0,0.0,9,,,,,0,24,24,24,,,,,,,,,237.20685112499996,237.20685112499996,237.20685112499996,237.20685112499996,237.20685112499996,237.20685112499996,237.20685112499996,237.20685112499996,237.10800245833357,237.20685112499996,237.20685112499996,237.20685112499996,237.10800245833357,237.20685112499996,237.20685112499996,237.20685112499996,237.20685112499996,237.20685112499996,237.20685112499996,237.20685112499996,237.20685112499996,237.20685112499996,237.20685112499996,237.20685112499996,237.20685112499996,237.20685112499996,237.20685112499996,237.15800245833356,237.20685112499996,237.20685112499996,237.20685112499996,237.15800245833356,237.20685112499996,237.20685112499996,237.20685112499996,237.20685112499996,237.20685112499996,242.3971847920002,242.3971847920002,246.4606506250002,None,0,,reldom2_s014,001,2025-02-13_16h08.32.927,Where-A-Scan_AC,2022.2.5,None,
19,First_Order,4.0,audwhere,stimulus/audwhere_stim/dummy.wav,stimulus/audwhere_stim/dummy.wav,stimulus/audwhere_stim/right_away_300h.wav,stimulus/audwhere_stim/left_away_280h.wav,stimulus/audwhere_stim/blank_white.png,stimulus/audwhere_stim/direction_box.png,stimulus/audwhere_stim/direction_yes.png,stimulus/audwhere_stim/direction_no.png,None,Direction,None,Direction,1,0.0,0,5.125,0,5.125,0,5.125,0,0.0,0.625,0,0.0,0,0.0,0,0.0,0,0.0,0,0.0,0,0.0,1,0.5,1,2.125,0,,,,,0,25,25,25,,,,,,,,,246.4606506250002,246.4606506250002,246.4606506250002,246.4606506250002,246.4606506250002,246.4606506250002,246.4606506250002,246.4606506250002,246.3888760006668,246.4606506250002,246.4606506250002,246.4606506250002,246.3888760006668,246.4606506250002,246.4606506250002,246.4606506250002,248.5489130840001,,246.4606506250002,246.4606506250002,251.61407420900014,246.4606506250002,246.4606506250002,246.4606506250002,246.4606506250002,246.92493445899981,247.9924258340002,246.89487600066676,,248.5489130840001,249.61924729200018,248.51938512566656,,246.4606506250002,251.61407420900014,246.4606506250002,251.61407420900014,251.65457100000003,252.30807054200022,246.4606506250002,2,0,2.541740665999896,reldom2_s014,001,2025-02-13_16h08.32.927,Where-A-Scan_AC,2022.2.5,None,
20,First_Order,4.0,audwhere,stimulus/audwhere_stim/dummy.wav,stimulus/audwhere_stim/dummy.wav,stimulus/audwhere_stim/right_toward_270h.wav,stimulus/audwhere_stim/right_away_280h.wav,stimulus/audwhere_stim/blank_white.png,stimulus/audwhere_stim/direction_box.png,stimulus/audwhere_stim/direction_yes.png,stimulus/audwhere_stim/direction_no.png,None,Direction,None,Side,2,0.0,0,5.125,0,5.125,0,5.125,0,0.0,0.625,0,0.0,0,0.0,0,0.0,0,0.0,0,0.0,0,0.0,1,0.5,1,2.125,0,,,,,0,26,26,26,,,,,,,,,252.56095920899998,252.56095920899998,252.56095920899998,252.56095920899998,252.56095920899998,252.56095920899998,252.56095920899998,252.56095920899998,252.4819267923332,252.56095920899998,252.56095920899998,252.56095920899998,252.4819267923332,252.56095920899998,252.56095920899998,252.56095920899998,254.65144554200015,,252.56095920899998,252.56095920899998,257.7166995419998,252.56095920899998,252.56095920899998,252.56095920899998,252.56095920899998,253.02591995900002,254.09466766700007,252.9958375836666,,254.65144554200015,255.72298512499992,254.62163645866647,,252.56095920899998,257.7166995419998,252.56095920899998,257.7166995419998,257.75845325,258.4128283750001,252.56095920899998,2,1,2.6574248740002986,reldom2_s014,001,2025-02-13_16h08.32.927,Where-A-Scan_AC,2022.2.5,None,
21,First_Order,4.0,audwhere,stimulus/audwhere_stim/dummy.wav,stimulus/audwhere_stim/dummy.wav,stimulus/audwhere_stim/left_toward_300h.wav,stimulus/audwhere_stim/left_away_300h.wav,stimulus/audwhere_stim/blank_white.png,stimulus/audwhere_stim/side_box.png,stimulus/audwhere_stim/side_yes.png,stimulus/audwhere_stim/side_no.png,None,Side,None,Side,1,0.0,0,5.125,0,5.125,0,5.125,0,0.0,0.625,0,0.0,0,0.0,0,0.0,0,0.0,0,0.0,0,0.0,1,0.5,1,2.125,0,,,,,0,27,27,27,,,,,,,,,258.66632725,258.66632725,258.66632725,258.66632725,258.66632725,258.66632725,258.66632725,258.66632725,258.5870580423335,258.66632725,258.66632725,258.66632725,258.5870580423335,258.66632725,258.66632725,258.66632725,260.7448209590002,264.7909629589999,258.66632725,258.66632725,263.84610966699984,258.66632725,258.66632725,258.66632725,258.66632725,259.12786366699993,260.1917047920001,259.0983396666668,,260.7448209590002,261.8130330839999,260.7147859586669,,258.66632725,263.84610966699984,258.66632725,263.84610966699984,263.8873870000002,264.53925766700013,258.66632725,1,1,2.444843082999796,reldom2_s014,001,2025-02-13_16h08.32.927,Where-A-Scan_AC,2022.2.5,None,
22,First_Order,4.0,audwhere,stimulus/audwhere_stim/dummy.wav,stimulus/audwhere_stim/dummy.wav,stimulus/audwhere_stim/right_away_270h.wav,stimulus/audwhere_stim/left_away_300h.wav,stimulus/audwhere_stim/blank_white.png,stimulus/audwhere_stim/side_box.png,stimulus/audwhere_stim/side_yes.png,stimulus/audwhere_stim/side_no.png,None,Side,None,Direction,2,0.0,0,5.125,0,5.125,0,5.125,0,0.0,0.625,0,0.0,0,0.0,0,0.0,0,0.0,0,0.0,0,0.0,1,0.5,1,2.125,0,,,,,0,28,28,28,,,,,,,,,264.7909629589999,264.7909629589999,264.7909629589999,264.7909629589999,264.7909629589999,264.7909629589999,264.7909629589999,264.7909629589999,264.7124462503335,264.7909629589999,264.7909629589999,264.7909629589999,264.7124462503335,264.7909629589999,264.7909629589999,264.7909629589999,266.87200729200003,270.9333925840001,264.7909629589999,264.7909629589999,269.968647959,264.7909629589999,264.7909629589999,264.7909629589999,264.7909629589999,265.25342954200005,266.31838716699986,265.22360145866674,,266.87200729200003,267.93581729200014,266.8425435006668,,264.7909629589999,269.968647959,264.7909629589999,269.968647959,270.00943199999983,270.6606731249999,264.7909629589999,2,1,1.8546304159999636,reldom2_s014,001,2025-02-13_16h08.32.927,Where-A-Scan_AC,2022.2.5,None,
0,0.0,None,fixation,stimulus/viswhere_stim/blank_white.png,stimulus/viswhere_stim/blank_white.png,stimulus/audwhere_stim/blank_white.png,stimulus/audwhere_stim/blank_white.png,stimulus/viswhere_stim/blank_white.png,stimulus/viswhere_stim/blank_white.png,stimulus/viswhere_stim/blank_white.png,stimulus/viswhere_stim/blank_white.png,0.0,0.0,0.0,0.0,0,0.0,0,0.0,0,0.0,0,0.0,0,0.0,0.0,0,0.0,0,0.0,0,0.0,0,0.0,0,0.0,0,0.0,0,0.0,0,0.0,9,,,,,0,29,29,29,,,,,,,,,270.9333925840001,270.9333925840001,270.9333925840001,270.9333925840001,270.9333925840001,270.9333925840001,270.9333925840001,270.9333925840001,270.8345805833334,270.9333925840001,270.9333925840001,270.9333925840001,270.8345805833334,270.9333925840001,270.9333925840001,270.9333925840001,270.9333925840001,270.9333925840001,270.9333925840001,270.9333925840001,270.9333925840001,270.9333925840001,270.9333925840001,270.9333925840001,270.9333925840001,270.9333925840001,270.9333925840001,270.8845805833334,270.9333925840001,270.9333925840001,270.9333925840001,270.8845805833334,270.9333925840001,270.9333925840001,270.9333925840001,270.9333925840001,270.9333925840001,276.15942191700015,276.15942191700015,280.08812350000017,None,0,,reldom2_s014,001,2025-02-13_16h08.32.927,Where-A-Scan_AC,2022.2.5,None,
23,Second_Order,4.0,audwhere,stimulus/audwhere_stim/left_away_270h.wav,stimulus/audwhere_stim/left_toward_290h.wav,stimulus/audwhere_stim/left_toward_300h.wav,stimulus/audwhere_stim/right_toward_280h.wav,stimulus/viswhere_stim/match_blank.png,stimulus/audwhere_stim/match_box.png,stimulus/viswhere_stim/match_yes.png,stimulus/viswhere_stim/match_no.png,2.0,Match,Side,Direction,2,5.125,0,5.125,0,5.125,0,5.125,0,0.75,0.75,0,0.0,0,0.0,0,0.0,0,0.0,1,0.5,1,2.125,1,0.5,1,2.125,0,,,,,0,30,30,30,,,,,,,,,280.08812350000017,285.20945900000015,280.08812350000017,280.08812350000017,280.08812350000017,280.08812350000017,280.5479022919999,281.5460007500001,280.56074066666656,,282.1700935419999,283.1669981250002,282.18175783366655,,285.20945900000015,286.0594675420002,288.1328766249999,,286.0594675420002,286.0594675420002,291.22292445899984,286.0594675420002,286.0594675420002,286.0594675420002,286.0594675420002,286.51797024999996,287.5804684999998,286.4888735836669,,288.1328766249999,289.1932122500002,288.10309066666673,,286.0594675420002,291.22292445899984,286.0594675420002,291.22292445899984,291.22292445899984,,286.0594675420002,2,1,1.2233490409998922,reldom2_s014,001,2025-02-13_16h08.32.927,Where-A-Scan_AC,2022.2.5,None,
24,Second_Order,4.0,audwhere,stimulus/audwhere_stim/right_toward_290h.wav,stimulus/audwhere_stim/right_away_290h.wav,stimulus/audwhere_stim/left_away_300h.wav,stimulus/audwhere_stim/left_toward_270h.wav,stimulus/viswhere_stim/match_blank.png,stimulus/audwhere_stim/match_box.png,stimulus/viswhere_stim/match_yes.png,stimulus/viswhere_stim/match_no.png,1.0,Match,Side,Side,1,5.125,0,5.125,0,5.125,0,5.125,0,0.625,0.625,0,0.0,0,0.0,0,0.0,0,0.0,1,0.5,1,2.125,1,0.5,1,2.125,0,,,,,0,31,31,31,,,,,,,,,292.03410225000016,297.1536811249998,292.03410225000016,292.03410225000016,292.03410225000016,292.03410225000016,292.4923443339999,293.490638709,292.50471920866653,,294.1128790839998,295.111286417,294.1256156666666,,297.1536811249998,297.884190625,299.9441992090001,303.98582933399985,297.884190625,297.884190625,303.064954167,297.884190625,297.884190625,297.884190625,297.884190625,298.33907275,299.3934192500001,298.3104735006666,,299.9441992090001,300.99970170899996,299.91468508366665,,297.884190625,303.064954167,297.884190625,303.064954167,303.064954167,303.712865042,297.884190625,1,1,1.238182415999745,reldom2_s014,001,2025-02-13_16h08.32.927,Where-A-Scan_AC,2022.2.5,None,
0,0.0,None,fixation,stimulus/viswhere_stim/blank_white.png,stimulus/viswhere_stim/blank_white.png,stimulus/audwhere_stim/blank_white.png,stimulus/audwhere_stim/blank_white.png,stimulus/viswhere_stim/blank_white.png,stimulus/viswhere_stim/blank_white.png,stimulus/viswhere_stim/blank_white.png,stimulus/viswhere_stim/blank_white.png,0.0,0.0,0.0,0.0,0,0.0,0,0.0,0,0.0,0,0.0,0,0.0,0.0,0,0.0,0,0.0,0,0.0,0,0.0,0,0.0,0,0.0,0,0.0,0,0.0,10,,,,,0,32,32,32,,,,,,,,,303.98582933399985,303.98582933399985,303.98582933399985,303.98582933399985,303.98582933399985,303.98582933399985,303.98582933399985,303.98582933399985,303.88654925033336,303.98582933399985,303.98582933399985,303.98582933399985,303.88654925033336,303.98582933399985,303.98582933399985,303.98582933399985,303.98582933399985,303.98582933399985,303.98582933399985,303.98582933399985,303.98582933399985,303.98582933399985,303.98582933399985,303.98582933399985,303.98582933399985,303.98582933399985,303.98582933399985,303.93654925033337,303.98582933399985,303.98582933399985,303.98582933399985,303.93654925033337,303.98582933399985,303.98582933399985,303.98582933399985,303.98582933399985,303.98582933399985,309.182752792,309.182752792,314.2046136670001,None,0,,reldom2_s014,001,2025-02-13_16h08.32.927,Where-A-Scan_AC,2022.2.5,None,
25,First_Order,5.0,viswhere,stimulus/viswhere_stim/blank_white.png,stimulus/viswhere_stim/blank_white.png,stimulus/viswhere_stim/120-deg_dot-right_goldenrod.png,stimulus/viswhere_stim/150-deg_dot-right_turquoise.png,stimulus/viswhere_stim/blank_white.png,stimulus/viswhere_stim/dot_box.png,stimulus/viswhere_stim/dot_yes.png,stimulus/viswhere_stim/dot_no.png,None,Dot,None,Dot,1,0.0,0,5.125,0,5.125,0,5.125,0,0.0,0.625,0,0.0,0,0.0,1,0.5,1,2.125,0,0.0,0,0.0,0,0.0,0,0.0,0,,,,,0,33,33,33,,,,,,,,,314.2046136670001,314.2046136670001,314.2046136670001,314.2046136670001,314.2046136670001,314.2046136670001,314.2046136670001,314.2046136670001,314.18678870866654,314.2046136670001,314.2046136670001,314.2046136670001,314.18678870866654,314.2046136670001,314.2046136670001,314.2046136670001,316.3025899590002,320.26237112499985,314.2046136670001,314.2046136670001,319.3435824170001,314.6814348339999,315.6946815420001,316.3025899590002,317.31804216699993,314.2046136670001,314.2046136670001,314.18678870866654,314.2046136670001,314.2046136670001,314.2046136670001,314.18678870866654,314.2046136670001,314.2046136670001,319.3435824170001,314.2046136670001,319.3435824170001,319.4270933339999,320.04864529199995,314.2046136670001,1,1,1.643736791000265,reldom2_s014,001,2025-02-13_16h08.32.927,Where-A-Scan_AC,2022.2.5,None,
26,First_Order,5.0,viswhere,stimulus/viswhere_stim/blank_white.png,stimulus/viswhere_stim/blank_white.png,stimulus/viswhere_stim/90-deg_dot-right_royalblue.png,stimulus/viswhere_stim/120-deg_dot-right_seagreen.png,stimulus/viswhere_stim/blank_white.png,stimulus/viswhere_stim/line_box.png,stimulus/viswhere_stim/line_yes.png,stimulus/viswhere_stim/line_no.png,None,Line,None,Dot,2,0.0,0,5.125,0,5.125,0,5.125,0,0.0,0.625,0,0.0,0,0.0,1,0.5,1,2.125,0,0.0,0,0.0,0,0.0,0,0.0,0,,,,,0,34,34,34,,,,,,,,,320.26237112499985,320.26237112499985,320.26237112499985,320.26237112499985,320.26237112499985,320.26237112499985,320.26237112499985,320.26237112499985,320.2418760003332,320.26237112499985,320.26237112499985,320.26237112499985,320.2418760003332,320.26237112499985,320.26237112499985,320.26237112499985,322.3758929999999,326.3267025,320.26237112499985,320.26237112499985,325.3971044589998,320.739045542,321.7500137920001,322.3758929999999,323.39143749999994,320.26237112499985,320.26237112499985,320.25854266699986,320.26237112499985,320.26237112499985,320.26237112499985,320.25854266699986,320.26237112499985,320.26237112499985,325.3971044589998,320.26237112499985,325.3971044589998,325.48041220899995,326.1087603340002,320.26237112499985,2,1,1.070990916000028,reldom2_s014,001,2025-02-13_16h08.32.927,Where-A-Scan_AC,2022.2.5,None,
27,First_Order,5.0,viswhere,stimulus/viswhere_stim/blank_white.png,stimulus/viswhere_stim/blank_white.png,stimulus/viswhere_stim/60-deg_dot-left_lightsseagreen.png,stimulus/viswhere_stim/60-deg_dot-right_slateblue.png,stimulus/viswhere_stim/blank_white.png,stimulus/viswhere_stim/line_box.png,stimulus/viswhere_stim/line_yes.png,stimulus/viswhere_stim/line_no.png,None,Line,None,Line,1,0.0,0,5.125,0,5.125,0,5.125,0,0.0,0.625,0,0.0,0,0.0,1,0.5,1,2.125,0,0.0,0,0.0,0,0.0,0,0.0,0,,,,,0,35,35,35,,,,,,,,,326.3267025,326.3267025,326.3267025,326.3267025,326.3267025,326.3267025,326.3267025,326.3267025,326.30599800033343,326.3267025,326.3267025,326.3267025,326.30599800033343,326.3267025,326.3267025,326.3267025,328.4349484590002,332.39967849999994,326.3267025,326.3267025,331.4631735419998,326.80144075,327.8089355840002,328.4349484590002,329.4477628750001,326.3267025,326.3267025,326.3226646670001,326.3267025,326.3267025,326.3267025,326.3226646670001,326.3267025,326.3267025,331.4631735419998,326.3267025,331.4631735419998,331.546767542,332.1695989169998,326.3267025,1,1,0.876381040999604,reldom2_s014,001,2025-02-13_16h08.32.927,Where-A-Scan_AC,2022.2.5,None,
28,First_Order,5.0,viswhere,stimulus/viswhere_stim/blank_white.png,stimulus/viswhere_stim/blank_white.png,stimulus/viswhere_stim/120-deg_dot-right_slateblue.png,stimulus/viswhere_stim/90-deg_dot-right_cyan.png,stimulus/viswhere_stim/blank_white.png,stimulus/viswhere_stim/dot_box.png,stimulus/viswhere_stim/dot_yes.png,stimulus/viswhere_stim/dot_no.png,None,Dot,None,Dot,1,0.0,0,5.125,0,5.125,0,5.125,0,0.0,0.625,0,0.0,0,0.0,1,0.5,1,2.125,0,0.0,0,0.0,0,0.0,0,0.0,0,,,,,0,36,36,36,,,,,,,,,332.39967849999994,332.39967849999994,332.39967849999994,332.39967849999994,332.39967849999994,332.39967849999994,332.39967849999994,332.39967849999994,332.3795870003335,332.39967849999994,332.39967849999994,332.39967849999994,332.3795870003335,332.39967849999994,332.39967849999994,332.39967849999994,334.51076512500003,338.540773875,332.39967849999994,332.39967849999994,337.524994459,332.8760367089999,333.88584916699983,334.51076512500003,335.5268689999998,332.39967849999994,332.39967849999994,332.39625366700017,332.39967849999994,332.39967849999994,332.39967849999994,332.39625366700017,332.39967849999994,332.39967849999994,337.524994459,332.39967849999994,337.524994459,337.62509854200016,338.27665445899993,332.39967849999994,1,1,0.6667206659999465,reldom2_s014,001,2025-02-13_16h08.32.927,Where-A-Scan_AC,2022.2.5,None,
0,0.0,None,fixation,stimulus/viswhere_stim/blank_white.png,stimulus/viswhere_stim/blank_white.png,stimulus/audwhere_stim/blank_white.png,stimulus/audwhere_stim/blank_white.png,stimulus/viswhere_stim/blank_white.png,stimulus/viswhere_stim/blank_white.png,stimulus/viswhere_stim/blank_white.png,stimulus/viswhere_stim/blank_white.png,0.0,0.0,0.0,0.0,0,0.0,0,0.0,0,0.0,0,0.0,0,0.0,0.0,0,0.0,0,0.0,0,0.0,0,0.0,0,0.0,0,0.0,0,0.0,0,0.0,9,,,,,0,37,37,37,,,,,,,,,338.540773875,338.540773875,338.540773875,338.540773875,338.540773875,338.540773875,338.540773875,338.540773875,338.44349262533325,338.540773875,338.540773875,338.540773875,338.44349262533325,338.540773875,338.540773875,338.540773875,338.540773875,338.540773875,338.540773875,338.540773875,338.540773875,338.540773875,338.540773875,338.540773875,338.540773875,338.540773875,338.540773875,338.49349262533326,338.540773875,338.540773875,338.540773875,338.49349262533326,338.540773875,338.540773875,338.540773875,338.540773875,338.540773875,343.72469012500005,343.72469012500005,347.68779945899996,None,0,,reldom2_s014,001,2025-02-13_16h08.32.927,Where-A-Scan_AC,2022.2.5,None,
29,Second_Order,5.0,viswhere,stimulus/viswhere_stim/150-deg_dot-right_cyan.png,stimulus/viswhere_stim/150-deg_dot-left_peru.png,stimulus/viswhere_stim/90-deg_dot-left_goldenrod.png,stimulus/viswhere_stim/90-deg_dot-right_mediumslateblue.png,stimulus/viswhere_stim/match_blank.png,stimulus/viswhere_stim/match_box.png,stimulus/viswhere_stim/match_yes.png,stimulus/viswhere_stim/match_no.png,1.0,Match,Line,Line,1,5.125,0,5.125,0,5.125,0,5.125,0,0.75,0.75,1,0.5,1,2.125,1,0.5,1,2.125,0,0.0,0,0.0,0,0.0,0,0.0,0,,,,,0,38,38,38,,,,,,,,,347.68779945899996,352.81109666700013,348.170347709,349.1558757500002,349.79150875000005,350.7900091669999,347.68779945899996,347.68779945899996,347.7029948333335,347.68779945899996,347.68779945899996,347.68779945899996,347.7029948333335,347.68779945899996,352.81109666700013,353.6049325839999,355.6774765,359.5757564589999,353.6049325839999,353.6049325839999,358.7314716669998,354.04893741700016,355.0643542920002,355.6774765,356.69843475000016,353.6049325839999,353.6049325839999,353.57922891733324,353.6049325839999,353.6049325839999,353.6049325839999,353.57922891733324,353.6049325839999,353.6049325839999,358.7314716669998,353.6049325839999,358.7314716669998,358.8014357500001,359.5757564589999,353.6049325839999,1,1,0.9854777079999621,reldom2_s014,001,2025-02-13_16h08.32.927,Where-A-Scan_AC,2022.2.5,None,
30,Second_Order,5.0,viswhere,stimulus/viswhere_stim/90-deg_dot-right_royalblue.png,stimulus/viswhere_stim/60-deg_dot-right_peru.png,stimulus/viswhere_stim/30-deg_dot-left_slateblue.png,stimulus/viswhere_stim/90-deg_dot-left_seagreen.png,stimulus/viswhere_stim/match_blank.png,stimulus/viswhere_stim/match_box.png,stimulus/viswhere_stim/match_yes.png,stimulus/viswhere_stim/match_no.png,1.0,Match,Dot,Dot,1,5.125,0,5.125,0,5.125,0,5.125,0,0.625,0.625,1,0.5,1,2.125,1,0.5,1,2.125,0,0.0,0,0.0,0,0.0,0,0.0,0,,,,,0,39,39,39,,,,,,,,,359.5757564589999,364.6929715420001,360.06102354199993,361.05109112499986,361.68538887500017,362.6837915420001,359.5757564589999,359.5757564589999,359.58924158400015,359.5757564589999,359.5757564589999,359.5757564589999,359.58924158400015,359.5757564589999,364.6929715420001,365.3646295839999,367.451877084,371.4813263750002,365.3646295839999,365.3646295839999,370.497265125,365.82779704199993,366.84027562500023,367.451877084,368.4708608750002,365.3646295839999,365.3646295839999,365.34004604233314,365.3646295839999,365.3646295839999,365.3646295839999,365.34004604233314,365.3646295839999,365.3646295839999,370.497265125,365.3646295839999,370.497265125,370.58470933399985,371.2129192090001,365.3646295839999,1,1,0.7469031249997897,reldom2_s014,001,2025-02-13_16h08.32.927,Where-A-Scan_AC,2022.2.5,None,
0,0.0,None,fixation,stimulus/viswhere_stim/blank_white.png,stimulus/viswhere_stim/blank_white.png,stimulus/audwhere_stim/blank_white.png,stimulus/audwhere_stim/blank_white.png,stimulus/viswhere_stim/blank_white.png,stimulus/viswhere_stim/blank_white.png,stimulus/viswhere_stim/blank_white.png,stimulus/viswhere_stim/blank_white.png,0.0,0.0,0.0,0.0,0,0.0,0,0.0,0,0.0,0,0.0,0,0.0,0.0,0,0.0,0,0.0,0,0.0,0,0.0,0,0.0,0,0.0,0,0.0,0,0.0,8,,,,,0,40,40,40,,,,,,,,,371.4813263750002,371.4813263750002,371.4813263750002,371.4813263750002,371.4813263750002,371.4813263750002,371.4813263750002,371.4813263750002,371.37987400033336,371.4813263750002,371.4813263750002,371.4813263750002,371.37987400033336,371.4813263750002,371.4813263750002,371.4813263750002,371.4813263750002,371.4813263750002,371.4813263750002,371.4813263750002,371.4813263750002,371.4813263750002,371.4813263750002,371.4813263750002,371.4813263750002,371.4813263750002,371.4813263750002,371.42987400033337,371.4813263750002,371.4813263750002,371.4813263750002,371.42987400033337,371.4813263750002,371.4813263750002,371.4813263750002,371.4813263750002,371.4813263750002,376.69205954200015,376.69205954200015,379.6501396670001,None,0,,reldom2_s014,001,2025-02-13_16h08.32.927,Where-A-Scan_AC,2022.2.5,None,
31,First_Order,6.0,viswhere,stimulus/viswhere_stim/blank_white.png,stimulus/viswhere_stim/blank_white.png,stimulus/viswhere_stim/90-deg_dot-right_lightsseagreen.png,stimulus/viswhere_stim/90-deg_dot-left_turquoise.png,stimulus/viswhere_stim/blank_white.png,stimulus/viswhere_stim/line_box.png,stimulus/viswhere_stim/line_yes.png,stimulus/viswhere_stim/line_no.png,None,Line,None,Line,1,0.0,0,5.125,0,5.125,0,5.125,0,0.0,0.625,0,0.0,0,0.0,1,0.5,1,2.125,0,0.0,0,0.0,0,0.0,0,0.0,0,,,,,0,41,41,41,,,,,,,,,379.6501396670001,379.6501396670001,379.6501396670001,379.6501396670001,379.6501396670001,379.6501396670001,379.6501396670001,379.6501396670001,379.63101750066664,379.6501396670001,379.6501396670001,379.6501396670001,379.63101750066664,379.6501396670001,379.6501396670001,379.6501396670001,381.75144895899984,385.71435125000016,379.6501396670001,379.6501396670001,384.77308912499984,380.1290077919998,381.1411550419998,381.75144895899984,382.76889708399995,379.6501396670001,379.6501396670001,379.63101750066664,379.6501396670001,379.6501396670001,379.6501396670001,379.63101750066664,379.6501396670001,379.6501396670001,384.77308912499984,379.6501396670001,384.77308912499984,384.87006225000005,385.495782042,379.6501396670001,1,1,0.43717079099997136,reldom2_s014,001,2025-02-13_16h08.32.927,Where-A-Scan_AC,2022.2.5,None,
32,First_Order,6.0,viswhere,stimulus/viswhere_stim/blank_white.png,stimulus/viswhere_stim/blank_white.png,stimulus/viswhere_stim/30-deg_dot-right_goldenrod.png,stimulus/viswhere_stim/30-deg_dot-left_seagreen.png,stimulus/viswhere_stim/blank_white.png,stimulus/viswhere_stim/dot_box.png,stimulus/viswhere_stim/dot_yes.png,stimulus/viswhere_stim/dot_no.png,None,Dot,None,Line,2,0.0,0,5.125,0,5.125,0,5.125,0,0.0,0.625,0,0.0,0,0.0,1,0.5,1,2.125,0,0.0,0,0.0,0,0.0,0,0.0,0,,,,,0,42,42,42,,,,,,,,,385.71435125000016,385.71435125000016,385.71435125000016,385.71435125000016,385.71435125000016,385.71435125000016,385.71435125000016,385.71435125000016,385.69318908333327,385.71435125000016,385.71435125000016,385.71435125000016,385.69318908333327,385.71435125000016,385.71435125000016,385.71435125000016,387.8203665840001,391.7876971669998,385.71435125000016,385.71435125000016,390.84821391700007,386.189439667,387.19516595899995,387.8203665840001,388.8322001249999,385.71435125000016,385.71435125000016,385.7098557499999,385.71435125000016,385.71435125000016,385.71435125000016,385.7098557499999,385.71435125000016,385.71435125000016,390.84821391700007,385.71435125000016,390.84821391700007,390.94851737499994,391.582967542,385.71435125000016,2,1,1.1168038319997322,reldom2_s014,001,2025-02-13_16h08.32.927,Where-A-Scan_AC,2022.2.5,None,
33,First_Order,6.0,viswhere,stimulus/viswhere_stim/blank_white.png,stimulus/viswhere_stim/blank_white.png,stimulus/viswhere_stim/150-deg_dot-left_lightsseagreen.png,stimulus/viswhere_stim/150-deg_dot-right_royalblue.png,stimulus/viswhere_stim/blank_white.png,stimulus/viswhere_stim/dot_box.png,stimulus/viswhere_stim/dot_yes.png,stimulus/viswhere_stim/dot_no.png,None,Dot,None,Line,2,0.0,0,5.125,0,5.125,0,5.125,0,0.0,0.625,0,0.0,0,0.0,1,0.5,1,2.125,0,0.0,0,0.0,0,0.0,0,0.0,0,,,,,0,43,43,43,,,,,,,,,391.7876971669998,391.7876971669998,391.7876971669998,391.7876971669998,391.7876971669998,391.7876971669998,391.7876971669998,391.7876971669998,391.76705750033335,391.7876971669998,391.7876971669998,391.7876971669998,391.76705750033335,391.7876971669998,391.7876971669998,391.7876971669998,393.8958404169998,397.85586145900015,391.7876971669998,391.7876971669998,396.9143596250001,392.2661492090001,393.2815488750002,393.8958404169998,394.89819483400015,391.7876971669998,391.7876971669998,391.783724167,391.7876971669998,391.7876971669998,391.7876971669998,391.783724167,391.7876971669998,391.7876971669998,396.9143596250001,391.7876971669998,396.9143596250001,397.0124554590002,397.6408612089999,391.7876971669998,2,1,0.9749229580002066,reldom2_s014,001,2025-02-13_16h08.32.927,Where-A-Scan_AC,2022.2.5,None,
34,First_Order,6.0,viswhere,stimulus/viswhere_stim/blank_white.png,stimulus/viswhere_stim/blank_white.png,stimulus/viswhere_stim/120-deg_dot-left_peru.png,stimulus/viswhere_stim/90-deg_dot-left_royalblue.png,stimulus/viswhere_stim/blank_white.png,stimulus/viswhere_stim/line_box.png,stimulus/viswhere_stim/line_yes.png,stimulus/viswhere_stim/line_no.png,None,Line,None,Dot,2,0.0,0,5.125,0,5.125,0,5.125,0,0.0,0.625,0,0.0,0,0.0,1,0.5,1,2.125,0,0.0,0,0.0,0,0.0,0,0.0,0,,,,,0,44,44,44,,,,,,,,,397.85586145900015,397.85586145900015,397.85586145900015,397.85586145900015,397.85586145900015,397.85586145900015,397.85586145900015,397.85586145900015,397.8349154583332,397.85586145900015,397.85586145900015,397.85586145900015,397.8349154583332,397.85586145900015,397.85586145900015,397.85586145900015,399.9686594589998,404.00287849999995,397.85586145900015,397.85586145900015,402.9842758750001,398.33253245900005,399.34177279200003,399.9686594589998,400.98342112499995,397.85586145900015,397.85586145900015,397.8515821249999,397.85586145900015,397.85586145900015,397.85586145900015,397.8515821249999,397.85586145900015,397.85586145900015,402.9842758750001,397.85586145900015,402.9842758750001,403.08081329200013,403.7076314169999,397.85586145900015,2,1,0.6490055409999513,reldom2_s014,001,2025-02-13_16h08.32.927,Where-A-Scan_AC,2022.2.5,None,
0,0.0,None,fixation,stimulus/viswhere_stim/blank_white.png,stimulus/viswhere_stim/blank_white.png,stimulus/audwhere_stim/blank_white.png,stimulus/audwhere_stim/blank_white.png,stimulus/viswhere_stim/blank_white.png,stimulus/viswhere_stim/blank_white.png,stimulus/viswhere_stim/blank_white.png,stimulus/viswhere_stim/blank_white.png,0.0,0.0,0.0,0.0,0,0.0,0,0.0,0,0.0,0,0.0,0,0.0,0.0,0,0.0,0,0.0,0,0.0,0,0.0,0,0.0,0,0.0,0,0.0,0,0.0,10,,,,,0,45,45,45,,,,,,,,,404.00287849999995,404.00287849999995,404.00287849999995,404.00287849999995,404.00287849999995,404.00287849999995,404.00287849999995,404.00287849999995,403.90491533333335,404.00287849999995,404.00287849999995,404.00287849999995,403.90491533333335,404.00287849999995,404.00287849999995,404.00287849999995,404.00287849999995,404.00287849999995,404.00287849999995,404.00287849999995,404.00287849999995,404.00287849999995,404.00287849999995,404.00287849999995,404.00287849999995,404.00287849999995,404.00287849999995,403.95491533333336,404.00287849999995,404.00287849999995,404.00287849999995,403.95491533333336,404.00287849999995,404.00287849999995,404.00287849999995,404.00287849999995,404.00287849999995,409.1949155000002,409.1949155000002,414.1297814589998,None,0,,reldom2_s014,001,2025-02-13_16h08.32.927,Where-A-Scan_AC,2022.2.5,None,
35,Second_Order,6.0,viswhere,stimulus/viswhere_stim/60-deg_dot-right_mediumslateblue.png,stimulus/viswhere_stim/150-deg_dot-right_turquoise.png,stimulus/viswhere_stim/90-deg_dot-right_slateblue.png,stimulus/viswhere_stim/90-deg_dot-left_seagreen.png,stimulus/viswhere_stim/match_blank.png,stimulus/viswhere_stim/match_box.png,stimulus/viswhere_stim/match_yes.png,stimulus/viswhere_stim/match_no.png,2.0,Match,Dot,Line,2,5.125,0,5.125,0,5.125,0,5.125,0,0.75,0.75,1,0.5,1,2.125,1,0.5,1,2.125,0,0.0,0,0.0,0,0.0,0,0.0,0,,,,,0,46,46,46,,,,,,,,,414.1297814589998,419.25295808400006,414.60761816700006,415.60613324999986,416.22854966700015,417.2269028750002,414.1297814589998,414.1297814589998,414.1440327503334,414.1297814589998,414.1297814589998,414.1297814589998,414.1440327503334,414.1297814589998,419.25295808400006,420.04666450000013,422.1182977919998,426.01823720899984,420.04666450000013,420.04666450000013,425.177453667,420.49189687499984,421.50808774999996,422.1182977919998,423.12240629200005,420.04666450000013,420.04666450000013,420.0191995833334,420.04666450000013,420.04666450000013,420.04666450000013,420.0191995833334,420.04666450000013,420.04666450000013,425.177453667,420.04666450000013,425.177453667,425.24636362499996,426.01823720899984,420.04666450000013,2,1,0.47347445700006574,reldom2_s014,001,2025-02-13_16h08.32.927,Where-A-Scan_AC,2022.2.5,None,
36,Second_Order,6.0,viswhere,stimulus/viswhere_stim/120-deg_dot-left_royalblue.png,stimulus/viswhere_stim/120-deg_dot-right_cyan.png,stimulus/viswhere_stim/90-deg_dot-left_slateblue.png,stimulus/viswhere_stim/90-deg_dot-right_turquoise.png,stimulus/viswhere_stim/match_blank.png,stimulus/viswhere_stim/match_box.png,stimulus/viswhere_stim/match_yes.png,stimulus/viswhere_stim/match_no.png,1.0,Match,Line,Line,1,5.125,0,5.125,0,5.125,0,5.125,0,0.625,0.625,1,0.5,1,2.125,1,0.5,1,2.125,0,0.0,0,0.0,0,0.0,0,0.0,0,,,,,0,47,47,47,,,,,,,,,426.01823720899984,431.14192708400014,426.501756959,427.5001645000002,428.1226216250002,429.12037766699996,426.01823720899984,426.01823720899984,426.0316876670002,426.01823720899984,426.01823720899984,426.01823720899984,426.0316876670002,426.01823720899984,431.14192708400014,431.816310834,433.9021414590002,437.93122008399996,431.816310834,431.816310834,436.9545991250002,432.27793570899985,433.2894719169999,433.9021414590002,434.90425675000006,431.816310834,431.816310834,431.7935022083334,431.816310834,431.816310834,431.816310834,431.7935022083334,431.816310834,431.816310834,436.9545991250002,431.816310834,436.9545991250002,437.00897725000004,437.636287542,431.816310834,1,1,0.5325615409997226,reldom2_s014,001,2025-02-13_16h08.32.927,Where-A-Scan_AC,2022.2.5,None,
0,0.0,None,fixation,stimulus/viswhere_stim/blank_white.png,stimulus/viswhere_stim/blank_white.png,stimulus/audwhere_stim/blank_white.png,stimulus/audwhere_stim/blank_white.png,stimulus/viswhere_stim/blank_white.png,stimulus/viswhere_stim/blank_white.png,stimulus/viswhere_stim/blank_white.png,stimulus/viswhere_stim/blank_white.png,0.0,0.0,0.0,0.0,0,0.0,0,0.0,0,0.0,0,0.0,0,0.0,0.0,0,0.0,0,0.0,0,0.0,0,0.0,0,0.0,0,0.0,0,0.0,0,0.0,9,,,,,0,48,48,48,,,,,,,,,437.93122008399996,437.93122008399996,437.93122008399996,437.93122008399996,437.93122008399996,437.93122008399996,437.93122008399996,437.93122008399996,437.83017995833353,437.93122008399996,437.93122008399996,437.93122008399996,437.83017995833353,437.93122008399996,437.93122008399996,437.93122008399996,437.93122008399996,437.93122008399996,437.93122008399996,437.93122008399996,437.93122008399996,437.93122008399996,437.93122008399996,437.93122008399996,437.93122008399996,437.93122008399996,437.93122008399996,437.88017995833354,437.93122008399996,437.93122008399996,437.93122008399996,437.88017995833354,437.93122008399996,437.93122008399996,437.93122008399996,437.93122008399996,437.93122008399996,443.1528813340001,443.1528813340001,447.1692224170001,None,0,,reldom2_s014,001,2025-02-13_16h08.32.927,Where-A-Scan_AC,2022.2.5,None,
37,First_Order,7.0,audwhere,stimulus/audwhere_stim/dummy.wav,stimulus/audwhere_stim/dummy.wav,stimulus/audwhere_stim/left_toward_280h.wav,stimulus/audwhere_stim/left_away_290h.wav,stimulus/audwhere_stim/blank_white.png,stimulus/audwhere_stim/direction_box.png,stimulus/audwhere_stim/direction_yes.png,stimulus/audwhere_stim/direction_no.png,None,Direction,None,Side,2,0.0,0,5.125,0,5.125,0,5.125,0,0.0,0.625,0,0.0,0,0.0,0,0.0,0,0.0,0,0.0,0,0.0,1,0.5,1,2.125,0,,,,,0,49,49,49,,,,,,,,,447.1692224170001,447.1692224170001,447.1692224170001,447.1692224170001,447.1692224170001,447.1692224170001,447.1692224170001,447.1692224170001,447.0973704166664,447.1692224170001,447.1692224170001,447.1692224170001,447.0973704166664,447.1692224170001,447.1692224170001,447.1692224170001,449.2663345000001,453.29024416699986,447.1692224170001,447.1692224170001,452.3417468749999,447.1692224170001,447.1692224170001,447.1692224170001,447.1692224170001,447.6382758750001,448.7084683339999,447.6083172506667,,449.2663345000001,450.29521695899984,449.2366658336666,,447.1692224170001,452.3417468749999,447.1692224170001,452.3417468749999,452.3829223749999,453.03744912499997,447.1692224170001,2,1,2.9745672079998258,reldom2_s014,001,2025-02-13_16h08.32.927,Where-A-Scan_AC,2022.2.5,None,
38,First_Order,7.0,audwhere,stimulus/audwhere_stim/dummy.wav,stimulus/audwhere_stim/dummy.wav,stimulus/audwhere_stim/left_away_300h.wav,stimulus/audwhere_stim/right_away_280h.wav,stimulus/audwhere_stim/blank_white.png,stimulus/audwhere_stim/side_box.png,stimulus/audwhere_stim/side_yes.png,stimulus/audwhere_stim/side_no.png,None,Side,None,Direction,2,0.0,0,5.125,0,5.125,0,5.125,0,0.0,0.625,0,0.0,0,0.0,0,0.0,0,0.0,0,0.0,0,0.0,1,0.5,1,2.125,0,,,,,0,50,50,50,,,,,,,,,453.29024416699986,453.29024416699986,453.29024416699986,453.29024416699986,453.29024416699986,453.29024416699986,453.29024416699986,453.29024416699986,453.21098150033333,453.29024416699986,453.29024416699986,453.29024416699986,453.21098150033333,453.29024416699986,453.29024416699986,453.29024416699986,455.37680441700013,,453.29024416699986,453.29024416699986,458.477850667,453.29024416699986,453.29024416699986,453.29024416699986,453.29024416699986,453.7548444590002,454.8206636670002,453.72495766666657,,455.37680441700013,456.4439829170001,455.34551229166686,,453.29024416699986,458.477850667,453.29024416699986,458.477850667,458.51884900000005,459.1686995,453.29024416699986,2,1,0.7781218330001138,reldom2_s014,001,2025-02-13_16h08.32.927,Where-A-Scan_AC,2022.2.5,None,
39,First_Order,7.0,audwhere,stimulus/audwhere_stim/dummy.wav,stimulus/audwhere_stim/dummy.wav,stimulus/audwhere_stim/right_toward_280h.wav,stimulus/audwhere_stim/right_away_300h.wav,stimulus/audwhere_stim/blank_white.png,stimulus/audwhere_stim/side_box.png,stimulus/audwhere_stim/side_yes.png,stimulus/audwhere_stim/side_no.png,None,Side,None,Side,1,0.0,0,5.125,0,5.125,0,5.125,0,0.0,0.625,0,0.0,0,0.0,0,0.0,0,0.0,0,0.0,0,0.0,1,0.5,1,2.125,0,,,,,0,51,51,51,,,,,,,,,459.3827021249999,459.3827021249999,459.3827021249999,459.3827021249999,459.3827021249999,459.3827021249999,459.3827021249999,459.3827021249999,459.3020328333333,459.3827021249999,459.3827021249999,459.3827021249999,459.3020328333333,459.3827021249999,459.3827021249999,459.3827021249999,461.46762479200015,,459.3827021249999,459.3827021249999,464.5727042090002,459.3827021249999,459.3827021249999,459.3827021249999,459.3827021249999,459.846830125,460.91081004199987,459.8163252916668,,461.46762479200015,462.53768345900016,461.43781520866673,,459.3827021249999,464.5727042090002,459.3827021249999,464.5727042090002,464.5727042090002,465.22708629199997,459.3827021249999,1,1,0.4527498749998813,reldom2_s014,001,2025-02-13_16h08.32.927,Where-A-Scan_AC,2022.2.5,None,
40,First_Order,7.0,audwhere,stimulus/audwhere_stim/dummy.wav,stimulus/audwhere_stim/dummy.wav,stimulus/audwhere_stim/left_away_280h.wav,stimulus/audwhere_stim/left_toward_300h.wav,stimulus/audwhere_stim/blank_white.png,stimulus/audwhere_stim/side_box.png,stimulus/audwhere_stim/side_yes.png,stimulus/audwhere_stim/side_no.png,None,Side,None,Side,1,0.0,0,5.125,0,5.125,0,5.125,0,0.0,0.625,0,0.0,0,0.0,0,0.0,0,0.0,0,0.0,0,0.0,1,0.5,1,2.125,0,,,,,0,52,52,52,,,,,,,,,465.481817417,465.481817417,465.481817417,465.481817417,465.481817417,465.481817417,465.481817417,465.481817417,465.40113854233334,465.481817417,465.481817417,465.481817417,465.40113854233334,465.481817417,465.481817417,465.481817417,467.56671166700016,,465.481817417,465.481817417,470.6737518340001,465.481817417,465.481817417,465.481817417,465.481817417,465.945703417,467.0107344590001,465.91580320866683,,467.56671166700016,468.6340928750001,467.53706004166656,,465.481817417,470.6737518340001,465.481817417,470.6737518340001,470.6737518340001,471.32505337500015,465.481817417,1,1,1.8692095410001457,reldom2_s014,001,2025-02-13_16h08.32.927,Where-A-Scan_AC,2022.2.5,None,
0,0.0,None,fixation,stimulus/viswhere_stim/blank_white.png,stimulus/viswhere_stim/blank_white.png,stimulus/audwhere_stim/blank_white.png,stimulus/audwhere_stim/blank_white.png,stimulus/viswhere_stim/blank_white.png,stimulus/viswhere_stim/blank_white.png,stimulus/viswhere_stim/blank_white.png,stimulus/viswhere_stim/blank_white.png,0.0,0.0,0.0,0.0,0,0.0,0,0.0,0,0.0,0,0.0,0,0.0,0.0,0,0.0,0,0.0,0,0.0,0,0.0,0,0.0,0,0.0,0,0.0,0,0.0,8,,,,,0,53,53,53,,,,,,,,,471.5992191669998,471.5992191669998,471.5992191669998,471.5992191669998,471.5992191669998,471.5992191669998,471.5992191669998,471.5992191669998,471.5001947083334,471.5992191669998,471.5992191669998,471.5992191669998,471.5001947083334,471.5992191669998,471.5992191669998,471.5992191669998,471.5992191669998,471.5992191669998,471.5992191669998,471.5992191669998,471.5992191669998,471.5992191669998,471.5992191669998,471.5992191669998,471.5992191669998,471.5992191669998,471.5992191669998,471.55019470833344,471.5992191669998,471.5992191669998,471.5992191669998,471.55019470833344,471.5992191669998,471.5992191669998,471.5992191669998,471.5992191669998,471.5992191669998,476.81527691699966,476.81527691699966,479.73914695899975,None,0,,reldom2_s014,001,2025-02-13_16h08.32.927,Where-A-Scan_AC,2022.2.5,None,
41,Second_Order,7.0,audwhere,stimulus/audwhere_stim/left_away_300h.wav,stimulus/audwhere_stim/left_toward_300h.wav,stimulus/audwhere_stim/right_away_290h.wav,stimulus/audwhere_stim/right_toward_290h.wav,stimulus/viswhere_stim/match_blank.png,stimulus/audwhere_stim/match_box.png,stimulus/viswhere_stim/match_yes.png,stimulus/viswhere_stim/match_no.png,1.0,Match,Side,Side,1,5.125,0,5.125,0,5.125,0,5.125,0,0.75,0.75,0,0.0,0,0.0,0,0.0,0,0.0,1,0.5,1,2.125,1,0.5,1,2.125,0,,,,,0,54,54,54,,,,,,,,,479.73914695899975,484.8540578340003,479.73914695899975,479.73914695899975,479.73914695899975,479.73914695899975,480.19338570900027,481.1908060419996,480.2054702506664,481.19409733400016,481.81310595900004,482.81106191699973,481.82577137566636,,484.8540578340003,485.70344683400026,487.78071562499963,491.6899588749998,485.70344683400026,485.70344683400026,490.8797904999997,485.70344683400026,485.70344683400026,485.70344683400026,485.70344683400026,486.11777866700004,487.17865620899966,486.088375875667,,487.78071562499963,488.8496152089997,487.7511693756667,,485.70344683400026,490.8797904999997,485.70344683400026,490.8797904999997,490.8797904999997,,485.70344683400026,1,1,0.5646862080002393,reldom2_s014,001,2025-02-13_16h08.32.927,Where-A-Scan_AC,2022.2.5,None,
42,Second_Order,7.0,audwhere,stimulus/audwhere_stim/left_away_280h.wav,stimulus/audwhere_stim/right_away_270h.wav,stimulus/audwhere_stim/right_toward_270h.wav,stimulus/audwhere_stim/left_toward_280h.wav,stimulus/viswhere_stim/match_blank.png,stimulus/audwhere_stim/match_box.png,stimulus/viswhere_stim/match_yes.png,stimulus/viswhere_stim/match_no.png,1.0,Match,Direction,Direction,1,5.125,0,5.125,0,5.125,0,5.125,0,0.625,0.625,0,0.0,0,0.0,0,0.0,0,0.0,1,0.5,1,2.125,1,0.5,1,2.125,0,,,,,0,55,55,55,,,,,,,,,491.6899588749998,496.8146695419996,491.6899588749998,491.6899588749998,491.6899588749998,491.6899588749998,492.1494035419996,493.13885908400016,492.15270508366643,493.13885908400016,493.7745057500001,494.77238495899974,493.7867275006663,494.7769386670002,496.8146695419996,497.54643199999964,499.6124544999998,,497.54643199999964,497.54643199999964,502.70165037499964,497.54643199999964,497.54643199999964,497.54643199999964,497.54643199999964,497.9593365420001,499.0145616249997,497.92993870866644,,499.6124544999998,500.67429904200026,499.58334316666674,,497.54643199999964,502.70165037499964,497.54643199999964,502.70165037499964,502.7426850420002,503.3941747089998,497.54643199999964,1,1,1.3046278749998237,reldom2_s014,001,2025-02-13_16h08.32.927,Where-A-Scan_AC,2022.2.5,None,
0,0.0,None,fixation,stimulus/viswhere_stim/blank_white.png,stimulus/viswhere_stim/blank_white.png,stimulus/audwhere_stim/blank_white.png,stimulus/audwhere_stim/blank_white.png,stimulus/viswhere_stim/blank_white.png,stimulus/viswhere_stim/blank_white.png,stimulus/viswhere_stim/blank_white.png,stimulus/viswhere_stim/blank_white.png,0.0,0.0,0.0,0.0,0,0.0,0,0.0,0,0.0,0,0.0,0,0.0,0.0,0,0.0,0,0.0,0,0.0,0,0.0,0,0.0,0,0.0,0,0.0,0,0.0,10,,,,,0,56,56,56,,,,,,,,,503.62737224999955,503.62737224999955,503.62737224999955,503.62737224999955,503.62737224999955,503.62737224999955,503.62737224999955,503.62737224999955,503.5275080423331,503.62737224999955,503.62737224999955,503.62737224999955,503.5275080423331,503.62737224999955,503.62737224999955,503.62737224999955,503.62737224999955,503.62737224999955,503.62737224999955,503.62737224999955,503.62737224999955,503.62737224999955,503.62737224999955,503.62737224999955,503.62737224999955,503.62737224999955,503.62737224999955,503.57750804233314,503.62737224999955,503.62737224999955,503.62737224999955,503.57750804233314,503.62737224999955,503.62737224999955,503.62737224999955,503.62737224999955,503.62737224999955,508.83043987500014,508.83043987500014,513.8556062499997,None,0,,reldom2_s014,001,2025-02-13_16h08.32.927,Where-A-Scan_AC,2022.2.5,None,
43,First_Order,8.0,audwhere,stimulus/audwhere_stim/dummy.wav,stimulus/audwhere_stim/dummy.wav,stimulus/audwhere_stim/left_away_270h.wav,stimulus/audwhere_stim/right_away_300h.wav,stimulus/audwhere_stim/blank_white.png,stimulus/audwhere_stim/direction_box.png,stimulus/audwhere_stim/direction_yes.png,stimulus/audwhere_stim/direction_no.png,None,Direction,None,Direction,1,0.0,0,5.125,0,5.125,0,5.125,0,0.0,0.625,0,0.0,0,0.0,0,0.0,0,0.0,0,0.0,0,0.0,1,0.5,1,2.125,0,,,,,0,57,57,57,,,,,,,,,513.8556062499997,513.8556062499997,513.8556062499997,513.8556062499997,513.8556062499997,513.8556062499997,513.8556062499997,513.8556062499997,513.7848811666664,513.8556062499997,513.8556062499997,513.8556062499997,513.7848811666664,513.8556062499997,513.8556062499997,513.8556062499997,515.9496860419999,519.967176875,513.8556062499997,513.8556062499997,519.0163873750002,513.8556062499997,513.8556062499997,513.8556062499997,513.8556062499997,514.3211257090002,515.3915135840002,514.2910487086663,,515.9496860419999,517.0217090419997,515.9194475416668,,513.8556062499997,519.0163873750002,513.8556062499997,519.0163873750002,519.0572687500003,519.7141422919999,513.8556062499997,1,1,0.9857389989992953,reldom2_s014,001,2025-02-13_16h08.32.927,Where-A-Scan_AC,2022.2.5,None,
44,First_Order,8.0,audwhere,stimulus/audwhere_stim/dummy.wav,stimulus/audwhere_stim/dummy.wav,stimulus/audwhere_stim/left_toward_300h.wav,stimulus/audwhere_stim/left_away_280h.wav,stimulus/audwhere_stim/blank_white.png,stimulus/audwhere_stim/direction_box.png,stimulus/audwhere_stim/direction_yes.png,stimulus/audwhere_stim/direction_no.png,None,Direction,None,Side,2,0.0,0,5.125,0,5.125,0,5.125,0,0.0,0.625,0,0.0,0,0.0,0,0.0,0,0.0,0,0.0,0,0.0,1,0.5,1,2.125,0,,,,,0,58,58,58,,,,,,,,,519.967176875,519.967176875,519.967176875,519.967176875,519.967176875,519.967176875,519.967176875,519.967176875,519.8884432503334,519.967176875,519.967176875,519.967176875,519.8884432503334,519.967176875,519.967176875,519.967176875,522.061039959,526.0785593750002,519.967176875,519.967176875,525.1296442090002,519.967176875,519.967176875,519.967176875,519.967176875,520.4326058749998,521.5034766249996,520.4033669166663,,522.061039959,523.130494042,522.0312587506667,,519.967176875,525.1296442090002,519.967176875,525.1296442090002,525.1707810840003,525.8260713750001,519.967176875,2,1,1.355879916000049,reldom2_s014,001,2025-02-13_16h08.32.927,Where-A-Scan_AC,2022.2.5,None,
45,First_Order,8.0,audwhere,stimulus/audwhere_stim/dummy.wav,stimulus/audwhere_stim/dummy.wav,stimulus/audwhere_stim/right_away_290h.wav,stimulus/audwhere_stim/left_away_280h.wav,stimulus/audwhere_stim/blank_white.png,stimulus/audwhere_stim/side_box.png,stimulus/audwhere_stim/side_yes.png,stimulus/audwhere_stim/side_no.png,None,Side,None,Direction,2,0.0,0,5.125,0,5.125,0,5.125,0,0.0,0.625,0,0.0,0,0.0,0,0.0,0,0.0,0,0.0,0,0.0,1,0.5,1,2.125,0,,,,,0,59,59,59,,,,,,,,,526.0785593750002,526.0785593750002,526.0785593750002,526.0785593750002,526.0785593750002,526.0785593750002,526.0785593750002,526.0785593750002,525.9999184583336,526.0785593750002,526.0785593750002,526.0785593750002,525.9999184583336,526.0785593750002,526.0785593750002,526.0785593750002,528.1656735000001,,526.0785593750002,526.0785593750002,531.2699754999999,526.0785593750002,526.0785593750002,526.0785593750002,526.0785593750002,526.542160167,527.6100396249999,526.5125422086664,,528.1656735000001,529.2346285420003,528.1359441666671,,526.0785593750002,531.2699754999999,526.0785593750002,531.2699754999999,531.2699754999999,531.9256138340002,526.0785593750002,2,1,0.9171512910006641,reldom2_s014,001,2025-02-13_16h08.32.927,Where-A-Scan_AC,2022.2.5,None,
46,First_Order,8.0,audwhere,stimulus/audwhere_stim/dummy.wav,stimulus/audwhere_stim/dummy.wav,stimulus/audwhere_stim/left_away_270h.wav,stimulus/audwhere_stim/right_away_290h.wav,stimulus/audwhere_stim/blank_white.png,stimulus/audwhere_stim/direction_box.png,stimulus/audwhere_stim/direction_yes.png,stimulus/audwhere_stim/direction_no.png,None,Direction,None,Direction,1,0.0,0,5.125,0,5.125,0,5.125,0,0.0,0.625,0,0.0,0,0.0,0,0.0,0,0.0,0,0.0,0,0.0,1,0.5,1,2.125,0,,,,,0,60,60,60,,,,,,,,,532.1793175420003,532.1793175420003,532.1793175420003,532.1793175420003,532.1793175420003,532.1793175420003,532.1793175420003,532.1793175420003,532.0995751673332,532.1793175420003,532.1793175420003,532.1793175420003,532.0995751673332,532.1793175420003,532.1793175420003,532.1793175420003,534.275511542,538.3276149589997,532.1793175420003,532.1793175420003,537.3570432499996,532.1793175420003,532.1793175420003,532.1793175420003,532.1793175420003,532.6447551249998,533.7186431249997,532.614662458667,,534.275511542,535.3506656670002,534.2456806256666,,532.1793175420003,537.3570432499996,532.1793175420003,537.3570432499996,537.3989023749996,538.0540749999996,532.1793175420003,2,0,0.9863959160002196,reldom2_s014,001,2025-02-13_16h08.32.927,Where-A-Scan_AC,2022.2.5,None,
0,0.0,None,fixation,stimulus/viswhere_stim/blank_white.png,stimulus/viswhere_stim/blank_white.png,stimulus/audwhere_stim/blank_white.png,stimulus/audwhere_stim/blank_white.png,stimulus/viswhere_stim/blank_white.png,stimulus/viswhere_stim/blank_white.png,stimulus/viswhere_stim/blank_white.png,stimulus/viswhere_stim/blank_white.png,0.0,0.0,0.0,0.0,0,0.0,0,0.0,0,0.0,0,0.0,0,0.0,0.0,0,0.0,0,0.0,0,0.0,0,0.0,0,0.0,0,0.0,0,0.0,0,0.0,9,,,,,0,61,61,61,,,,,,,,,538.3276149589997,538.3276149589997,538.3276149589997,538.3276149589997,538.3276149589997,538.3276149589997,538.3276149589997,538.3276149589997,538.227814417333,538.3276149589997,538.3276149589997,538.3276149589997,538.227814417333,538.3276149589997,538.3276149589997,538.3276149589997,538.3276149589997,538.3276149589997,538.3276149589997,538.3276149589997,538.3276149589997,538.3276149589997,538.3276149589997,538.3276149589997,538.3276149589997,538.3276149589997,538.3276149589997,538.2778144173329,538.3276149589997,538.3276149589997,538.3276149589997,538.2778144173329,538.3276149589997,538.3276149589997,538.3276149589997,538.3276149589997,538.3276149589997,543.5154968749998,543.5154968749998,547.4582838749998,None,0,,reldom2_s014,001,2025-02-13_16h08.32.927,Where-A-Scan_AC,2022.2.5,None,
47,Second_Order,8.0,audwhere,stimulus/audwhere_stim/right_away_280h.wav,stimulus/audwhere_stim/left_away_290h.wav,stimulus/audwhere_stim/right_toward_300h.wav,stimulus/audwhere_stim/right_away_300h.wav,stimulus/viswhere_stim/match_blank.png,stimulus/audwhere_stim/match_box.png,stimulus/viswhere_stim/match_yes.png,stimulus/viswhere_stim/match_no.png,2.0,Match,Direction,Side,2,5.125,0,5.125,0,5.125,0,5.125,0,0.75,0.75,0,0.0,0,0.0,0,0.0,0,0.0,1,0.5,1,2.125,1,0.5,1,2.125,0,,,,,0,62,62,62,,,,,,,,,547.4582838749998,552.5782691250001,547.4582838749998,547.4582838749998,547.4582838749998,547.4582838749998,547.9145025000003,548.9009656249996,547.9280996256664,,549.5377076250002,550.5346918339997,549.5488189586665,,552.5782691250001,553.4285975420003,555.5058795,559.4189119170001,553.4285975420003,553.4285975420003,558.608160792,553.4285975420003,553.4285975420003,553.4285975420003,553.4285975420003,553.8422882500004,554.9032775840001,553.812087875667,,555.5058795,556.5709024590001,555.4760222916664,,553.4285975420003,558.608160792,553.4285975420003,558.608160792,558.608160792,,553.4285975420003,1,0,2.60190987399983,reldom2_s014,001,2025-02-13_16h08.32.927,Where-A-Scan_AC,2022.2.5,None,
48,Second_Order,8.0,audwhere,stimulus/audwhere_stim/left_away_280h.wav,stimulus/audwhere_stim/right_away_290h.wav,stimulus/audwhere_stim/left_toward_280h.wav,stimulus/audwhere_stim/right_toward_300h.wav,stimulus/viswhere_stim/match_blank.png,stimulus/audwhere_stim/match_box.png,stimulus/viswhere_stim/match_yes.png,stimulus/viswhere_stim/match_no.png,1.0,Match,Direction,Direction,1,5.125,0,5.125,0,5.125,0,5.125,0,0.625,0.625,0,0.0,0,0.0,0,0.0,0,0.0,1,0.5,1,2.125,1,0.5,1,2.125,0,,,,,0,63,63,63,,,,,,,,,559.4189119170001,564.5382020419997,559.4189119170001,559.4189119170001,559.4189119170001,559.4189119170001,559.8769936670001,560.8752911249999,559.8894222506667,,561.4971039999996,562.4955397919998,561.5098680416666,,564.5382020419997,565.2686165,567.3341787089998,,565.2686165,565.2686165,570.4283206670002,565.2686165,565.2686165,565.2686165,565.2686165,565.6814505420002,566.7384458749998,565.6518530416668,,567.3341787089998,568.4001290419997,567.3047809166662,,565.2686165,570.4283206670002,565.2686165,570.4283206670002,570.4283206670002,571.077922334,565.2686165,1,1,0.9838846660004492,reldom2_s014,001,2025-02-13_16h08.32.927,Where-A-Scan_AC,2022.2.5,None,
0,0.0,None,fixation,stimulus/viswhere_stim/blank_white.png,stimulus/viswhere_stim/blank_white.png,stimulus/audwhere_stim/blank_white.png,stimulus/audwhere_stim/blank_white.png,stimulus/viswhere_stim/blank_white.png,stimulus/viswhere_stim/blank_white.png,stimulus/viswhere_stim/blank_white.png,stimulus/viswhere_stim/blank_white.png,0.0,0.0,0.0,0.0,0,0.0,0,0.0,0,0.0,0,0.0,0,0.0,0.0,0,0.0,0,0.0,0,0.0,0,0.0,0,0.0,0,0.0,0,0.0,0,0.0,16,,,,,0,64,64,64,,,,,,,,,571.3516329589997,571.3516329589997,571.3516329589997,571.3516329589997,571.3516329589997,571.3516329589997,571.3516329589997,571.3516329589997,571.2515150423329,571.3516329589997,571.3516329589997,571.3516329589997,571.2515150423329,571.3516329589997,571.3516329589997,571.3516329589997,571.3516329589997,571.3516329589997,571.3516329589997,571.3516329589997,571.3516329589997,571.3516329589997,571.3516329589997,571.3516329589997,571.3516329589997,571.3516329589997,571.3516329589997,571.3015150423329,571.3516329589997,571.3516329589997,571.3516329589997,571.3015150423329,571.3516329589997,571.3516329589997,571.3516329589997,571.3516329589997,571.3516329589997,576.5616908750003,576.5616908750003,587.5122390840002,None,0,,reldom2_s014,001,2025-02-13_16h08.32.927,Where-A-Scan_AC,2022.2.5,None,
