Trial,Order,Block,Type,Stimuli_File1,Stimuli_File2,Stimuli_File3,Stimuli_File4,Cue_File1,Cue_File2,Response_File_Yes,Response_File_No,Match,Cue_Dimension,Pair1_Dimension,Pair2_Dimension,Key,Cue1_Duration,Cue1_Onset,Cue2_Duration,Cue2_Onset,ResponseYes_Duration,ResponseYes_Onset,ResponseNo_Duration,ResponseNo_Onset,ITI_Within,ITI_Between,Image1_Duration,Image1_Onset,Image2_Duration,Image2_Onset,Image3_Duration,Image3_Onset,Image4_Duration,Image4_Onset,Sound1_Duration,Sound1_Onset,Sound2_Duration,Sound2_Onset,Sound3_Duration,Sound3_Onset,Sound4_Duration,Sound4_Onset,Fixation_Duration,trials_2.thisRepN,trials_2.thisTrialN,trials_2.thisN,trials_2.thisIndex,trials.thisRepN,trials.thisTrialN,trials.thisN,trials.thisIndex,text_start.started,key_resp_start.started,key_resp_start.keys,key_resp_start.rt,text2.started,key_resp_2.started,key_resp_2.keys,key_resp_2.rt,cue_file1.started,cue_file1.stopped,image_1.started,image_1.stopped,image_2.started,image_2.stopped,sound_icon1.started,sound_icon1.stopped,sound_1.started,sound_1.stopped,sound_icon2.started,sound_icon2.stopped,sound_2.started,sound_2.stopped,image_blank_1.started,image_blank_1.stopped,key_press.started,key_press.stopped,fixation_text.started,cue_file2.started,cue_file2.stopped,image_3.started,image_3.stopped,image_4.started,image_4.stopped,sound_icon3.started,sound_icon3.stopped,sound_3.started,sound_3.stopped,sound_icon4.started,sound_icon4.stopped,sound_4.started,sound_4.stopped,response_yes.started,response_yes.stopped,response_no.started,response_no.stopped,iti_blank.started,iti_blank.stopped,fixation_text.stopped,key_press.keys,key_press.corr,key_press.rt,participant,session,date,expName,psychopyVersion,frameRate,
,,,,,,,,,,,,,,,,,,,,,,,,,,,,,,,,,,,,,,,,,,,,,,,,,,,,8.246612958000014,8.246612958000014,2,0.6002593739999611,,,,,,,,,,,,,,,,,,,,,,,,,,,,,,,,,,,,,,,,,,,,,,,,reldom2_s014,001,2025-02-13_15h34.28.238,Aud-A-Scan_AC,2022.2.5,None,
,,,,,,,,,,,,,,,,,,,,,,,,,,,,,,,,,,,,,,,,,,,,0,0,0,0,,,,,,,,,8.893564875000038,8.893564875000038,5,40.071838666000076,,,,,,,,,,,,,,,,,,,,,,,,,,,,,,,,,,,,,,,,,,,,reldom2_s014,001,2025-02-13_15h34.28.238,Aud-A-Scan_AC,2022.2.5,None,
,,,,,,,,,,,,,,,,,,,,,,,,,,,,,,,,,,,,,,,,,,,,1,0,1,0,,,,,,,,,48.980396208,48.980396208,5,1.9860272079999959,,,,,,,,,,,,,,,,,,,,,,,,,,,,,,,,,,,,,,,,,,,,reldom2_s014,001,2025-02-13_15h34.28.238,Aud-A-Scan_AC,2022.2.5,None,
,,,,,,,,,,,,,,,,,,,,,,,,,,,,,,,,,,,,,,,,,,,,2,0,2,0,,,,,,,,,50.99103587500008,50.99103587500008,5,1.973628041999973,,,,,,,,,,,,,,,,,,,,,,,,,,,,,,,,,,,,,,,,,,,,reldom2_s014,001,2025-02-13_15h34.28.238,Aud-A-Scan_AC,2022.2.5,None,
,,,,,,,,,,,,,,,,,,,,,,,,,,,,,,,,,,,,,,,,,,,,3,0,3,0,,,,,,,,,52.979144958000006,52.979144958000006,5,1.9857860419999724,,,,,,,,,,,,,,,,,,,,,,,,,,,,,,,,,,,,,,,,,,,,reldom2_s014,001,2025-02-13_15h34.28.238,Aud-A-Scan_AC,2022.2.5,None,
0,0.0,None,fixation,stimulus/audwhere_stim/blank_white.png,stimulus/audwhere_stim/blank_white.png,stimulus/audwhat_stim/blank_white.png,stimulus/audwhat_stim/blank_white.png,stimulus/audwhere_stim/blank_white.png,stimulus/audwhere_stim/blank_white.png,stimulus/audwhere_stim/blank_white.png,stimulus/audwhere_stim/blank_white.png,0.0,0.0,0.0,0.0,0,0.0,0,0.0,0,0.0,0,0.0,0,0.0,0.0,0,0,0,0,0,0,0,0,0,0.0,0,0.0,0,0.0,0,0.0,16,,,,,0,0,0,0,,,,,,,,,55.176774042000034,55.176774042000034,55.176774042000034,55.176774042000034,55.176774042000034,55.176774042000034,55.176774042000034,55.176774042000034,55.08414045866663,55.176774042000034,55.176774042000034,55.176774042000034,55.08414045866663,55.176774042000034,55.176774042000034,55.176774042000034,55.176774042000034,55.176774042000034,55.176774042000034,55.176774042000034,55.176774042000034,55.176774042000034,55.176774042000034,55.176774042000034,55.176774042000034,55.176774042000034,55.176774042000034,55.13414045866663,55.176774042000034,55.176774042000034,55.176774042000034,55.13414045866663,55.176774042000034,55.176774042000034,55.176774042000034,55.176774042000034,55.176774042000034,60.39738516700004,60.39738516700004,71.41158650000011,None,0,,reldom2_s014,001,2025-02-13_15h34.28.238,Aud-A-Scan_AC,2022.2.5,None,
1,First_Order,1.0,audwhere,stimulus/audwhere_stim/dummy.wav,stimulus/audwhere_stim/dummy.wav,stimulus/audwhere_stim/left_away_280h.wav,stimulus/audwhere_stim/right_away_290h.wav,stimulus/audwhere_stim/blank_white.png,stimulus/audwhere_stim/direction_box.png,stimulus/audwhere_stim/direction_yes.png,stimulus/audwhere_stim/direction_no.png,None,Direction,None,Direction,1,0.0,0,5.125,0,5.125,0,5.125,0,0.0,0.625,0,0,0,0,0,0,0,0,0,0.0,0,0.0,1,0.5,1,2.125,0,,,,,0,1,1,1,,,,,,,,,71.41158650000011,71.41158650000011,71.41158650000011,71.41158650000011,71.41158650000011,71.41158650000011,71.41158650000011,71.41158650000011,71.34127608300005,71.41158650000011,71.41158650000011,71.41158650000011,71.34127608300005,71.41158650000011,71.41158650000011,71.41158650000011,73.48346141699994,,71.41158650000011,71.41158650000011,76.56612841700007,71.41158650000011,71.41158650000011,71.41158650000011,71.41158650000011,71.89801137500012,72.95420437500002,71.87003179166665,,73.48346141699994,74.54386595799997,73.45594658366669,,71.41158650000011,76.56612841700007,71.41158650000011,76.56612841700007,76.60575658300013,77.26683270800004,71.41158650000011,1,1,2.0706489169999713,reldom2_s014,001,2025-02-13_15h34.28.238,Aud-A-Scan_AC,2022.2.5,None,
2,First_Order,1.0,audwhere,stimulus/audwhere_stim/dummy.wav,stimulus/audwhere_stim/dummy.wav,stimulus/audwhere_stim/left_away_270h.wav,stimulus/audwhere_stim/left_toward_270h.wav,stimulus/audwhere_stim/blank_white.png,stimulus/audwhere_stim/direction_box.png,stimulus/audwhere_stim/direction_yes.png,stimulus/audwhere_stim/direction_no.png,None,Direction,None,Side,2,0.0,0,5.125,0,5.125,0,5.125,0,0.0,0.625,0,0,0,0,0,0,0,0,0,0.0,0,0.0,1,0.5,1,2.125,0,,,,,0,2,2,2,,,,,,,,,77.50815741700012,77.50815741700012,77.50815741700012,77.50815741700012,77.50815741700012,77.50815741700012,77.50815741700012,77.50815741700012,77.43872775033344,77.50815741700012,77.50815741700012,77.50815741700012,77.43872775033344,77.50815741700012,77.50815741700012,77.50815741700012,79.58241295800008,,77.50815741700012,77.50815741700012,82.66893154200011,77.50815741700012,77.50815741700012,77.50815741700012,77.50815741700012,77.99428050000006,79.05406037500006,77.96671758366666,,79.58241295800008,80.64110616700009,79.55478908366673,,77.50815741700012,82.66893154200011,77.50815741700012,82.66893154200011,82.70784745800006,83.3705030000001,77.50815741700012,2,1,2.3299265420000665,reldom2_s014,001,2025-02-13_15h34.28.238,Aud-A-Scan_AC,2022.2.5,None,
3,First_Order,1.0,audwhere,stimulus/audwhere_stim/dummy.wav,stimulus/audwhere_stim/dummy.wav,stimulus/audwhere_stim/left_toward_300h.wav,stimulus/audwhere_stim/left_away_280h.wav,stimulus/audwhere_stim/blank_white.png,stimulus/audwhere_stim/direction_box.png,stimulus/audwhere_stim/direction_yes.png,stimulus/audwhere_stim/direction_no.png,None,Direction,None,Side,2,0.0,0,5.125,0,5.125,0,5.125,0,0.0,0.625,0,0,0,0,0,0,0,0,0,0.0,0,0.0,1,0.5,1,2.125,0,,,,,0,3,3,3,,,,,,,,,83.60970129199995,83.60970129199995,83.60970129199995,83.60970129199995,83.60970129199995,83.60970129199995,83.60970129199995,83.60970129199995,83.54245354133343,83.60970129199995,83.60970129199995,83.60970129199995,83.54245354133343,83.60970129199995,83.60970129199995,83.60970129199995,85.72587687500004,,83.60970129199995,83.60970129199995,88.77009716700013,83.60970129199995,83.60970129199995,83.60970129199995,83.60970129199995,84.09450175000006,85.15407974999994,84.0667371246666,,85.72587687500004,86.78570891699997,85.69822595866664,,83.60970129199995,88.77009716700013,83.60970129199995,88.77009716700013,88.80880700000012,89.46901737500002,83.60970129199995,2,1,1.5254707909998615,reldom2_s014,001,2025-02-13_15h34.28.238,Aud-A-Scan_AC,2022.2.5,None,
4,First_Order,1.0,audwhere,stimulus/audwhere_stim/dummy.wav,stimulus/audwhere_stim/dummy.wav,stimulus/audwhere_stim/left_away_270h.wav,stimulus/audwhere_stim/left_toward_290h.wav,stimulus/audwhere_stim/blank_white.png,stimulus/audwhere_stim/side_box.png,stimulus/audwhere_stim/side_yes.png,stimulus/audwhere_stim/side_no.png,None,Side,None,Side,1,0.0,0,5.125,0,5.125,0,5.125,0,0.0,0.625,0,0,0,0,0,0,0,0,0,0.0,0,0.0,1,0.5,1,2.125,0,,,,,0,4,4,4,,,,,,,,,89.71017837499994,89.71017837499994,89.71017837499994,89.71017837499994,89.71017837499994,89.71017837499994,89.71017837499994,89.71017837499994,89.64100654133347,89.71017837499994,89.71017837499994,89.71017837499994,89.64100654133347,89.71017837499994,89.71017837499994,89.71017837499994,91.82264591700005,,89.71017837499994,89.71017837499994,94.86335862500005,89.71017837499994,89.71017837499994,89.71017837499994,89.71017837499994,90.19512633299996,91.25086833299997,90.16776420866678,,91.82264591700005,92.88193812500003,91.7949826666668,,89.71017837499994,94.86335862500005,89.71017837499994,94.86335862500005,94.90237279200005,95.56287275,89.71017837499994,1,1,2.0383042910000313,reldom2_s014,001,2025-02-13_15h34.28.238,Aud-A-Scan_AC,2022.2.5,None,
0,0.0,None,fixation,stimulus/audwhere_stim/blank_white.png,stimulus/audwhere_stim/blank_white.png,stimulus/audwhat_stim/blank_white.png,stimulus/audwhat_stim/blank_white.png,stimulus/audwhere_stim/blank_white.png,stimulus/audwhere_stim/blank_white.png,stimulus/audwhere_stim/blank_white.png,stimulus/audwhere_stim/blank_white.png,0.0,0.0,0.0,0.0,0,0.0,0,0.0,0,0.0,0,0.0,0,0.0,0.0,0,0,0,0,0,0,0,0,0,0.0,0,0.0,0,0.0,0,0.0,9,,,,,0,5,5,5,,,,,,,,,95.82220933300005,95.82220933300005,95.82220933300005,95.82220933300005,95.82220933300005,95.82220933300005,95.82220933300005,95.82220933300005,95.73475887533334,95.82220933300005,95.82220933300005,95.82220933300005,95.73475887533334,95.82220933300005,95.82220933300005,95.82220933300005,95.82220933300005,95.82220933300005,95.82220933300005,95.82220933300005,95.82220933300005,95.82220933300005,95.82220933300005,95.82220933300005,95.82220933300005,95.82220933300005,95.82220933300005,95.78475887533335,95.82220933300005,95.82220933300005,95.82220933300005,95.78475887533335,95.82220933300005,95.82220933300005,95.82220933300005,95.82220933300005,95.82220933300005,101.03017945800002,101.03017945800002,104.96405604200004,None,0,,reldom2_s014,001,2025-02-13_15h34.28.238,Aud-A-Scan_AC,2022.2.5,None,
5,Second_Order,1.0,audwhere,stimulus/audwhere_stim/left_away_290h.wav,stimulus/audwhere_stim/right_away_300h.wav,stimulus/audwhere_stim/right_toward_290h.wav,stimulus/audwhere_stim/left_toward_300h.wav,stimulus/audwhere_stim/match_blank.png,stimulus/audwhere_stim/match_box.png,stimulus/audwhere_stim/match_yes.png,stimulus/audwhere_stim/match_no.png,1.0,Match,Direction,Direction,1,5.125,0,5.125,0,5.125,0,5.125,0,0.75,0.75,0,0,0,0,0,0,0,0,1,0.5,1,2.125,1,0.5,1,2.125,0,,,,,0,6,6,6,,,,,,,,,104.96405604200004,110.08230487500009,104.96405604200004,104.96405604200004,104.96405604200004,104.96405604200004,105.42097949999993,106.41930366700012,105.43418295866674,,107.041759125,108.04000495800005,107.0541747916666,,110.08230487500009,110.93312500000002,113.0105161250001,116.92402770800004,110.93312500000002,110.93312500000002,116.112309417,110.93312500000002,110.93312500000002,110.93312500000002,110.93312500000002,111.37607816700006,112.43495858300003,111.34872629166672,,113.0105161250001,114.07642920800004,112.98156795866659,,110.93312500000002,116.112309417,110.93312500000002,116.112309417,116.112309417,,110.93312500000002,1,1,2.423747666000054,reldom2_s014,001,2025-02-13_15h34.28.238,Aud-A-Scan_AC,2022.2.5,None,
6,Second_Order,1.0,audwhere,stimulus/audwhere_stim/left_away_280h.wav,stimulus/audwhere_stim/right_away_280h.wav,stimulus/audwhere_stim/left_away_300h.wav,stimulus/audwhere_stim/left_toward_280h.wav,stimulus/audwhere_stim/match_blank.png,stimulus/audwhere_stim/match_box.png,stimulus/audwhere_stim/match_yes.png,stimulus/audwhere_stim/match_no.png,2.0,Match,Direction,Side,2,5.125,0,5.125,0,5.125,0,5.125,0,0.625,0.625,0,0,0,0,0,0,0,0,1,0.5,1,2.125,1,0.5,1,2.125,0,,,,,0,7,7,7,,,,,,,,,116.92402770800004,122.04398104200004,116.92402770800004,116.92402770800004,116.92402770800004,116.92402770800004,117.37992887500013,118.36731112500001,117.39430658366679,,119.00393166699996,120.00117591699996,119.01511166666661,,122.04398104200004,122.77587604199994,124.85138979199996,128.86934591700015,122.77587604199994,122.77587604199994,127.94982174999996,122.77587604199994,122.77587604199994,122.77587604199994,122.77587604199994,123.21838695800011,124.27741291699999,123.19085574966677,,124.85138979199996,125.91728208300015,124.82365679166675,,122.77587604199994,127.94982174999996,122.77587604199994,127.94982174999996,127.94982174999996,128.60941145800007,122.77587604199994,2,1,1.423706250000123,reldom2_s014,001,2025-02-13_15h34.28.238,Aud-A-Scan_AC,2022.2.5,None,
0,0.0,None,fixation,stimulus/audwhere_stim/blank_white.png,stimulus/audwhere_stim/blank_white.png,stimulus/audwhat_stim/blank_white.png,stimulus/audwhat_stim/blank_white.png,stimulus/audwhere_stim/blank_white.png,stimulus/audwhere_stim/blank_white.png,stimulus/audwhere_stim/blank_white.png,stimulus/audwhere_stim/blank_white.png,0.0,0.0,0.0,0.0,0,0.0,0,0.0,0,0.0,0,0.0,0,0.0,0.0,0,0,0,0,0,0,0,0,0,0.0,0,0.0,0,0.0,0,0.0,10,,,,,0,8,8,8,,,,,,,,,128.86934591700015,128.86934591700015,128.86934591700015,128.86934591700015,128.86934591700015,128.86934591700015,128.86934591700015,128.86934591700015,128.78131641633345,128.86934591700015,128.86934591700015,128.86934591700015,128.78131641633345,128.86934591700015,128.86934591700015,128.86934591700015,128.86934591700015,128.86934591700015,128.86934591700015,128.86934591700015,128.86934591700015,128.86934591700015,128.86934591700015,128.86934591700015,128.86934591700015,128.86934591700015,128.86934591700015,128.83131641633344,128.86934591700015,128.86934591700015,128.86934591700015,128.83131641633344,128.86934591700015,128.86934591700015,128.86934591700015,128.86934591700015,128.86934591700015,134.08970983300014,134.08970983300014,139.08700708300012,None,0,,reldom2_s014,001,2025-02-13_15h34.28.238,Aud-A-Scan_AC,2022.2.5,None,
7,First_Order,2.0,audwhere,stimulus/audwhere_stim/dummy.wav,stimulus/audwhere_stim/dummy.wav,stimulus/audwhere_stim/left_away_300h.wav,stimulus/audwhere_stim/right_away_300h.wav,stimulus/audwhere_stim/blank_white.png,stimulus/audwhere_stim/side_box.png,stimulus/audwhere_stim/side_yes.png,stimulus/audwhere_stim/side_no.png,None,Side,None,Direction,2,0.0,0,5.125,0,5.125,0,5.125,0,0.0,0.625,0,0,0,0,0,0,0,0,0,0.0,0,0.0,1,0.5,1,2.125,0,,,,,0,9,9,9,,,,,,,,,139.08700708300012,139.08700708300012,139.08700708300012,139.08700708300012,139.08700708300012,139.08700708300012,139.08700708300012,139.08700708300012,139.006104125,139.08700708300012,139.08700708300012,139.08700708300012,139.006104125,139.08700708300012,139.08700708300012,139.08700708300012,141.17888237500006,145.199191208,139.08700708300012,139.08700708300012,144.25216570800012,139.08700708300012,139.08700708300012,139.08700708300012,139.08700708300012,139.57644091700013,140.64490945800003,139.5485144996667,,141.17888237500006,142.24824000000012,141.15107324966678,,139.08700708300012,144.25216570800012,139.08700708300012,144.25216570800012,144.29145333299994,144.95583720800005,139.08700708300012,2,1,2.2112498330000108,reldom2_s014,001,2025-02-13_15h34.28.238,Aud-A-Scan_AC,2022.2.5,None,
8,First_Order,2.0,audwhere,stimulus/audwhere_stim/dummy.wav,stimulus/audwhere_stim/dummy.wav,stimulus/audwhere_stim/left_away_280h.wav,stimulus/audwhere_stim/right_away_270h.wav,stimulus/audwhere_stim/blank_white.png,stimulus/audwhere_stim/side_box.png,stimulus/audwhere_stim/side_yes.png,stimulus/audwhere_stim/side_no.png,None,Side,None,Direction,2,0.0,0,5.125,0,5.125,0,5.125,0,0.0,0.625,0,0,0,0,0,0,0,0,0,0.0,0,0.0,1,0.5,1,2.125,0,,,,,0,10,10,10,,,,,,,,,145.199191208,145.199191208,145.199191208,145.199191208,145.199191208,145.199191208,145.199191208,145.199191208,145.12921529133328,145.199191208,145.199191208,145.199191208,145.12921529133328,145.199191208,145.199191208,145.199191208,147.29625341700012,,145.199191208,145.199191208,150.38145229199995,145.199191208,145.199191208,145.199191208,145.199191208,145.690025333,146.75940741700015,145.66107649966673,,147.29625341700012,148.3263783330001,147.2679280416667,,145.199191208,150.38145229199995,145.199191208,150.38145229199995,150.42116058300007,151.0900106250001,145.199191208,2,1,1.5027604990000327,reldom2_s014,001,2025-02-13_15h34.28.238,Aud-A-Scan_AC,2022.2.5,None,
9,First_Order,2.0,audwhere,stimulus/audwhere_stim/dummy.wav,stimulus/audwhere_stim/dummy.wav,stimulus/audwhere_stim/left_away_280h.wav,stimulus/audwhere_stim/right_away_300h.wav,stimulus/audwhere_stim/blank_white.png,stimulus/audwhere_stim/direction_box.png,stimulus/audwhere_stim/direction_yes.png,stimulus/audwhere_stim/direction_no.png,None,Direction,None,Direction,1,0.0,0,5.125,0,5.125,0,5.125,0,0.0,0.625,0,0,0,0,0,0,0,0,0,0.0,0,0.0,1,0.5,1,2.125,0,,,,,0,11,11,11,,,,,,,,,151.2950087920001,151.2950087920001,151.2950087920001,151.2950087920001,151.2950087920001,151.2950087920001,151.2950087920001,151.2950087920001,151.22334395833346,151.2950087920001,151.2950087920001,151.2950087920001,151.22334395833346,151.2950087920001,151.2950087920001,151.2950087920001,153.3676659580001,,151.2950087920001,151.2950087920001,156.48158654200006,151.2950087920001,151.2950087920001,151.2950087920001,151.2950087920001,151.74558308299993,152.78126533299996,151.71738224966683,,153.3676659580001,154.40863783300006,153.3393890416667,,151.2950087920001,156.48158654200006,151.2950087920001,156.48158654200006,156.52115616700007,157.19590879199995,151.2950087920001,1,1,1.899024916999906,reldom2_s014,001,2025-02-13_15h34.28.238,Aud-A-Scan_AC,2022.2.5,None,
10,First_Order,2.0,audwhere,stimulus/audwhere_stim/dummy.wav,stimulus/audwhere_stim/dummy.wav,stimulus/audwhere_stim/right_away_270h.wav,stimulus/audwhere_stim/right_toward_300h.wav,stimulus/audwhere_stim/blank_white.png,stimulus/audwhere_stim/side_box.png,stimulus/audwhere_stim/side_yes.png,stimulus/audwhere_stim/side_no.png,None,Side,None,Side,1,0.0,0,5.125,0,5.125,0,5.125,0,0.0,0.625,0,0,0,0,0,0,0,0,0,0.0,0,0.0,1,0.5,1,2.125,0,,,,,0,12,12,12,,,,,,,,,157.40143720800006,157.40143720800006,157.40143720800006,157.40143720800006,157.40143720800006,157.40143720800006,157.40143720800006,157.40143720800006,157.3292421253333,157.40143720800006,157.40143720800006,157.40143720800006,157.3292421253333,157.40143720800006,157.40143720800006,157.40143720800006,159.51539687500008,,157.40143720800006,157.40143720800006,162.58020291699995,157.40143720800006,157.40143720800006,157.40143720800006,157.40143720800006,157.85154258300008,158.88484837500005,157.8230877496667,,159.51539687500008,160.55261474999998,159.4872371666668,,157.40143720800006,162.58020291699995,157.40143720800006,162.58020291699995,162.620099083,163.29199812499996,157.40143720800006,1,1,1.3667001660001006,reldom2_s014,001,2025-02-13_15h34.28.238,Aud-A-Scan_AC,2022.2.5,None,
0,0.0,None,fixation,stimulus/audwhere_stim/blank_white.png,stimulus/audwhere_stim/blank_white.png,stimulus/audwhat_stim/blank_white.png,stimulus/audwhat_stim/blank_white.png,stimulus/audwhere_stim/blank_white.png,stimulus/audwhere_stim/blank_white.png,stimulus/audwhere_stim/blank_white.png,stimulus/audwhere_stim/blank_white.png,0.0,0.0,0.0,0.0,0,0.0,0,0.0,0,0.0,0,0.0,0,0.0,0.0,0,0,0,0,0,0,0,0,0,0.0,0,0.0,0,0.0,0,0.0,8,,,,,0,13,13,13,,,,,,,,,163.517111333,163.517111333,163.517111333,163.517111333,163.517111333,163.517111333,163.517111333,163.517111333,163.42533145833332,163.517111333,163.517111333,163.517111333,163.42533145833332,163.517111333,163.517111333,163.517111333,163.517111333,163.517111333,163.517111333,163.517111333,163.517111333,163.517111333,163.517111333,163.517111333,163.517111333,163.517111333,163.517111333,163.4753314583333,163.517111333,163.517111333,163.517111333,163.4753314583333,163.517111333,163.517111333,163.517111333,163.517111333,163.517111333,168.73876425000003,168.73876425000003,171.66650700000014,None,0,,reldom2_s014,001,2025-02-13_15h34.28.238,Aud-A-Scan_AC,2022.2.5,None,
11,Second_Order,2.0,audwhere,stimulus/audwhere_stim/left_away_280h.wav,stimulus/audwhere_stim/left_toward_280h.wav,stimulus/audwhere_stim/right_toward_280h.wav,stimulus/audwhere_stim/left_toward_270h.wav,stimulus/audwhere_stim/match_blank.png,stimulus/audwhere_stim/match_box.png,stimulus/audwhere_stim/match_yes.png,stimulus/audwhere_stim/match_no.png,2.0,Match,Side,Direction,2,5.125,0,5.125,0,5.125,0,5.125,0,0.75,0.75,0,0,0,0,0,0,0,0,1,0.5,1,2.125,1,0.5,1,2.125,0,,,,,0,14,14,14,,,,,,,,,171.66650700000014,176.78609666700004,171.66650700000014,171.66650700000014,171.66650700000014,171.66650700000014,172.12559766699997,173.123781667,172.13839699966664,,173.74622291700007,174.74395816700007,173.75844408366677,,176.78609666700004,177.63658079200013,179.69281208300004,,177.63658079200013,177.63658079200013,182.79100545799997,177.63658079200013,177.63658079200013,177.63658079200013,177.63658079200013,178.08330345800005,179.113402833,178.05510854166667,,179.69281208300004,180.72600279200014,179.66454595866665,,177.63658079200013,182.79100545799997,177.63658079200013,182.79100545799997,182.8307769170001,,177.63658079200013,2,1,1.3636029159999907,reldom2_s014,001,2025-02-13_15h34.28.238,Aud-A-Scan_AC,2022.2.5,None,
12,Second_Order,2.0,audwhere,stimulus/audwhere_stim/left_away_300h.wav,stimulus/audwhere_stim/right_away_270h.wav,stimulus/audwhere_stim/left_toward_280h.wav,stimulus/audwhere_stim/right_toward_280h.wav,stimulus/audwhere_stim/match_blank.png,stimulus/audwhere_stim/match_box.png,stimulus/audwhere_stim/match_yes.png,stimulus/audwhere_stim/match_no.png,1.0,Match,Direction,Direction,1,5.125,0,5.125,0,5.125,0,5.125,0,0.625,0.625,0,0,0,0,0,0,0,0,1,0.5,1,2.125,1,0.5,1,2.125,0,,,,,0,15,15,15,,,,,,,,,183.61497391700004,188.73076954199996,183.61497391700004,183.61497391700004,183.61497391700004,183.61497391700004,184.0695760000001,185.06791387499993,184.08231620866675,,185.69005716700008,186.6885943750001,185.70243666666673,,188.73076954199996,189.459900458,191.50916704199994,195.56801425000003,189.459900458,189.459900458,194.63862508300008,189.459900458,189.459900458,189.459900458,189.459900458,189.90427512500014,190.97378587499998,189.87604758366663,,191.50916704199994,192.53762966700015,191.48111812466666,,189.459900458,194.63862508300008,189.459900458,194.63862508300008,194.63862508300008,195.30634775,189.459900458,1,1,1.2591374580001684,reldom2_s014,001,2025-02-13_15h34.28.238,Aud-A-Scan_AC,2022.2.5,None,
0,0.0,None,fixation,stimulus/audwhere_stim/blank_white.png,stimulus/audwhere_stim/blank_white.png,stimulus/audwhat_stim/blank_white.png,stimulus/audwhat_stim/blank_white.png,stimulus/audwhere_stim/blank_white.png,stimulus/audwhere_stim/blank_white.png,stimulus/audwhere_stim/blank_white.png,stimulus/audwhere_stim/blank_white.png,0.0,0.0,0.0,0.0,0,0.0,0,0.0,0,0.0,0,0.0,0,0.0,0.0,0,0,0,0,0,0,0,0,0,0.0,0,0.0,0,0.0,0,0.0,8,,,,,0,16,16,16,,,,,,,,,195.56801425000003,195.56801425000003,195.56801425000003,195.56801425000003,195.56801425000003,195.56801425000003,195.56801425000003,195.56801425000003,195.47881375033344,195.56801425000003,195.56801425000003,195.56801425000003,195.47881375033344,195.56801425000003,195.56801425000003,195.56801425000003,195.56801425000003,195.56801425000003,195.56801425000003,195.56801425000003,195.56801425000003,195.56801425000003,195.56801425000003,195.56801425000003,195.56801425000003,195.56801425000003,195.56801425000003,195.52881375033343,195.56801425000003,195.56801425000003,195.56801425000003,195.52881375033343,195.56801425000003,195.56801425000003,195.56801425000003,195.56801425000003,195.56801425000003,200.7994201250001,200.7994201250001,203.8129516250001,None,0,,reldom2_s014,001,2025-02-13_15h34.28.238,Aud-A-Scan_AC,2022.2.5,None,
13,First_Order,3.0,audwhat,stimulus/audwhat_stim/dummy.wav,stimulus/audwhat_stim/dummy.wav,stimulus/audwhat_stim/percussion xylophone_high-pitch_F_loud.wav,stimulus/audwhat_stim/percussion mallet_low-pitch_Dtri_loud.wav,stimulus/audwhat_stim/blank_white.png,stimulus/audwhat_stim/category_box.png,stimulus/audwhat_stim/category_yes.png,stimulus/audwhat_stim/category_no.png,None,Category,None,Category,1,0.0,0,5.125,0,5.125,0,5.125,0,0.0,0.625,0,0,0,0,0,0,0,0,0,0.0,0,0.0,1,0.5,1,2.125,0,,,,,0,17,17,17,,,,,,,,,203.8129516250001,203.8129516250001,203.8129516250001,203.8129516250001,203.8129516250001,203.8129516250001,203.8129516250001,203.8129516250001,203.72966320800006,203.8129516250001,203.8129516250001,203.8129516250001,203.72966320800006,203.8129516250001,203.8129516250001,203.8129516250001,205.89856595800006,,203.8129516250001,203.8129516250001,208.99073712500012,203.8129516250001,203.8129516250001,203.8129516250001,203.8129516250001,204.26656370800015,205.31206195799996,204.23771595866677,205.26627150000013,205.89856595800006,206.94532933300002,205.87022358366679,,203.8129516250001,208.99073712500012,203.8129516250001,208.99073712500012,209.03132291700013,209.70905041700007,203.8129516250001,1,1,1.276628583000047,reldom2_s014,001,2025-02-13_15h34.28.238,Aud-A-Scan_AC,2022.2.5,None,
14,First_Order,3.0,audwhat,stimulus/audwhat_stim/dummy.wav,stimulus/audwhat_stim/dummy.wav,stimulus/audwhat_stim/string cello_low-pitch_Ftri_loud.wav,stimulus/audwhat_stim/string viola_high-pitch_F_loud.wav,stimulus/audwhat_stim/blank_white.png,stimulus/audwhat_stim/category_box.png,stimulus/audwhat_stim/category_yes.png,stimulus/audwhat_stim/category_no.png,None,Category,None,Category,1,0.0,0,5.125,0,5.125,0,5.125,0,0.0,0.625,0,0,0,0,0,0,0,0,0,0.0,0,0.0,1,0.5,1,2.125,0,,,,,0,18,18,18,,,,,,,,,209.91822741700003,209.91822741700003,209.91822741700003,209.91822741700003,209.91822741700003,209.91822741700003,209.91822741700003,209.91822741700003,209.84238375033343,209.91822741700003,209.91822741700003,209.91822741700003,209.84238375033343,209.91822741700003,209.91822741700003,209.91822741700003,212.0055117500001,216.03134887500005,209.91822741700003,209.91822741700003,215.10192158300015,209.91822741700003,209.91822741700003,209.91822741700003,209.91822741700003,210.371844625,211.41639254200004,210.34305991666682,,212.0055117500001,213.056599667,211.9768060416666,,209.91822741700003,215.10192158300015,209.91822741700003,215.10192158300015,215.14235133300008,215.82139591700002,209.91822741700003,1,1,0.7784106660001271,reldom2_s014,001,2025-02-13_15h34.28.238,Aud-A-Scan_AC,2022.2.5,None,
15,First_Order,3.0,audwhat,stimulus/audwhat_stim/dummy.wav,stimulus/audwhat_stim/dummy.wav,stimulus/audwhat_stim/string viola_low-pitch_D_loud.wav,stimulus/audwhat_stim/percussion mallet_low-pitch_D_loud.wav,stimulus/audwhat_stim/blank_white.png,stimulus/audwhat_stim/pitch_box.png,stimulus/audwhat_stim/pitch_yes.png,stimulus/audwhat_stim/pitch_no.png,None,Pitch,None,Pitch,1,0.0,0,5.125,0,5.125,0,5.125,0,0.0,0.625,0,0,0,0,0,0,0,0,0,0.0,0,0.0,1,0.5,1,2.125,0,,,,,0,19,19,19,,,,,,,,,216.03134887500005,216.03134887500005,216.03134887500005,216.03134887500005,216.03134887500005,216.03134887500005,216.03134887500005,216.03134887500005,215.95472925033337,216.03134887500005,216.03134887500005,216.03134887500005,215.95472925033337,216.03134887500005,216.03134887500005,216.03134887500005,218.12338241700013,222.14542112499998,216.03134887500005,216.03134887500005,221.2172652920001,216.03134887500005,216.03134887500005,216.03134887500005,216.03134887500005,216.485105083,217.53328833299997,216.4562303336668,,218.12338241700013,219.17362591699998,218.09425366666667,,216.03134887500005,221.2172652920001,216.03134887500005,221.2172652920001,221.25747575000014,221.93465866700012,216.03134887500005,1,1,0.7519552490000478,reldom2_s014,001,2025-02-13_15h34.28.238,Aud-A-Scan_AC,2022.2.5,None,
16,First_Order,3.0,audwhat,stimulus/audwhat_stim/dummy.wav,stimulus/audwhat_stim/dummy.wav,stimulus/audwhat_stim/string cello_low-pitch_D_loud.wav,stimulus/audwhat_stim/string viola_high-pitch_Dtri_loud.wav,stimulus/audwhat_stim/blank_white.png,stimulus/audwhat_stim/pitch_box.png,stimulus/audwhat_stim/pitch_yes.png,stimulus/audwhat_stim/pitch_no.png,None,Pitch,None,Category,2,0.0,0,5.125,0,5.125,0,5.125,0,0.0,0.625,0,0,0,0,0,0,0,0,0,0.0,0,0.0,1,0.5,1,2.125,0,,,,,0,20,20,20,,,,,,,,,222.14542112499998,222.14542112499998,222.14542112499998,222.14542112499998,222.14542112499998,222.14542112499998,222.14542112499998,222.14542112499998,222.06799200033348,222.14542112499998,222.14542112499998,222.14542112499998,222.06799200033348,222.14542112499998,222.14542112499998,222.14542112499998,224.23615133299995,228.283751167,222.14542112499998,222.14542112499998,227.33401716699996,222.14542112499998,222.14542112499998,222.14542112499998,222.14542112499998,222.60087475,223.64774679200013,222.57164683366662,,224.23615133299995,225.28558191699994,224.20790633366667,,222.14542112499998,227.33401716699996,222.14542112499998,227.33401716699996,227.33401716699996,228.0151659170001,222.14542112499998,2,1,0.6028442500000892,reldom2_s014,001,2025-02-13_15h34.28.238,Aud-A-Scan_AC,2022.2.5,None,
0,0.0,None,fixation,stimulus/audwhere_stim/blank_white.png,stimulus/audwhere_stim/blank_white.png,stimulus/audwhat_stim/blank_white.png,stimulus/audwhat_stim/blank_white.png,stimulus/audwhere_stim/blank_white.png,stimulus/audwhere_stim/blank_white.png,stimulus/audwhere_stim/blank_white.png,stimulus/audwhere_stim/blank_white.png,0.0,0.0,0.0,0.0,0,0.0,0,0.0,0,0.0,0,0.0,0,0.0,0.0,0,0,0,0,0,0,0,0,0,0.0,0,0.0,0,0.0,0,0.0,8,,,,,0,21,21,21,,,,,,,,,228.283751167,228.283751167,228.283751167,228.283751167,228.283751167,228.283751167,228.283751167,228.283751167,228.1884333333334,228.283751167,228.283751167,228.283751167,228.1884333333334,228.283751167,228.283751167,228.283751167,228.283751167,228.283751167,228.283751167,228.283751167,228.283751167,228.283751167,228.283751167,228.283751167,228.283751167,228.283751167,228.283751167,228.23843333333338,228.283751167,228.283751167,228.283751167,228.23843333333338,228.283751167,228.283751167,228.283751167,228.283751167,228.283751167,233.51508408300015,233.51508408300015,236.4283606250001,None,0,,reldom2_s014,001,2025-02-13_15h34.28.238,Aud-A-Scan_AC,2022.2.5,None,
17,Second_Order,3.0,audwhat,stimulus/audwhat_stim/percussion mallet_high-pitch_F_loud.wav,stimulus/audwhat_stim/string viola_high-pitch_F_loud.wav,stimulus/audwhat_stim/string cello_low-pitch_Ftri_loud.wav,stimulus/audwhat_stim/string cello_high-pitch_Dtri_loud.wav,stimulus/audwhere_stim/match_blank.png,stimulus/audwhat_stim/match_box.png,stimulus/audwhere_stim/match_yes.png,stimulus/audwhere_stim/match_no.png,2.0,Match,Pitch,Category,2,5.125,0,5.125,0,5.125,0,5.125,0,0.75,0.75,0,0,0,0,0,0,0,0,1,0.5,1,2.125,1,0.5,1,2.125,0,,,,,0,22,22,22,,,,,,,,,236.4283606250001,241.55265162499995,236.4283606250001,236.4283606250001,236.4283606250001,236.4283606250001,236.87415891699993,237.86072441700003,236.88734333366668,,238.51308970800005,239.51017412500005,238.52518516666672,,241.55265162499995,242.40105412499997,244.47530091700014,,242.40105412499997,242.40105412499997,247.55080795799995,242.40105412499997,242.40105412499997,242.40105412499997,242.40105412499997,242.84972074999996,243.88892925000005,242.82094429166662,,244.47530091700014,245.51832749999994,244.44654508366673,,242.40105412499997,247.55080795799995,242.40105412499997,247.55080795799995,247.59067741700005,,242.40105412499997,2,1,0.7782609989999401,reldom2_s014,001,2025-02-13_15h34.28.238,Aud-A-Scan_AC,2022.2.5,None,
18,Second_Order,3.0,audwhat,stimulus/audwhat_stim/string viola_low-pitch_F_loud.wav,stimulus/audwhat_stim/percussion mallet_low-pitch_F_loud.wav,stimulus/audwhat_stim/percussion mallet_high-pitch_Ftri_loud.wav,stimulus/audwhat_stim/string cello_high-pitch_Ftri_loud.wav,stimulus/audwhere_stim/match_blank.png,stimulus/audwhat_stim/match_box.png,stimulus/audwhere_stim/match_yes.png,stimulus/audwhere_stim/match_no.png,1.0,Match,Pitch,Pitch,1,5.125,0,5.125,0,5.125,0,5.125,0,0.625,0.625,0,0,0,0,0,0,0,0,1,0.5,1,2.125,1,0.5,1,2.125,0,,,,,0,23,23,23,,,,,,,,,248.38380570799995,253.49737299999993,248.38380570799995,248.38380570799995,248.38380570799995,248.38380570799995,248.83558074999996,249.83423025000002,248.84826133366667,,250.4688329170001,251.45839795799998,250.4719534586666,,253.49737299999993,254.2289475,256.29237250000006,260.33633725000004,254.2289475,254.2289475,259.4013641250001,254.2289475,254.2289475,254.2289475,254.2289475,254.67503220799995,255.7081982080001,254.64675958366664,,256.29237250000006,257.32899875,256.26392433366664,,254.2289475,259.4013641250001,254.2289475,259.4013641250001,259.4013641250001,260.07117504200005,254.2289475,1,1,1.1163892080001006,reldom2_s014,001,2025-02-13_15h34.28.238,Aud-A-Scan_AC,2022.2.5,None,
0,0.0,None,fixation,stimulus/audwhere_stim/blank_white.png,stimulus/audwhere_stim/blank_white.png,stimulus/audwhat_stim/blank_white.png,stimulus/audwhat_stim/blank_white.png,stimulus/audwhere_stim/blank_white.png,stimulus/audwhere_stim/blank_white.png,stimulus/audwhere_stim/blank_white.png,stimulus/audwhere_stim/blank_white.png,0.0,0.0,0.0,0.0,0,0.0,0,0.0,0,0.0,0,0.0,0,0.0,0.0,0,0,0,0,0,0,0,0,0,0.0,0,0.0,0,0.0,0,0.0,9,,,,,0,24,24,24,,,,,,,,,260.33633725000004,260.33633725000004,260.33633725000004,260.33633725000004,260.33633725000004,260.33633725000004,260.33633725000004,260.33633725000004,260.24419033333345,260.33633725000004,260.33633725000004,260.33633725000004,260.24419033333345,260.33633725000004,260.33633725000004,260.33633725000004,260.33633725000004,260.33633725000004,260.33633725000004,260.33633725000004,260.33633725000004,260.33633725000004,260.33633725000004,260.33633725000004,260.33633725000004,260.33633725000004,260.33633725000004,260.29419033333346,260.33633725000004,260.33633725000004,260.33633725000004,260.29419033333346,260.33633725000004,260.33633725000004,260.33633725000004,260.33633725000004,260.33633725000004,265.56819129199994,265.56819129199994,269.5900287080001,None,0,,reldom2_s014,001,2025-02-13_15h34.28.238,Aud-A-Scan_AC,2022.2.5,None,
19,First_Order,4.0,audwhat,stimulus/audwhat_stim/dummy.wav,stimulus/audwhat_stim/dummy.wav,stimulus/audwhat_stim/percussion mallet_low-pitch_D_loud.wav,stimulus/audwhat_stim/string viola_low-pitch_D_loud.wav,stimulus/audwhat_stim/blank_white.png,stimulus/audwhat_stim/category_box.png,stimulus/audwhat_stim/category_yes.png,stimulus/audwhat_stim/category_no.png,None,Category,None,Pitch,2,0.0,0,5.125,0,5.125,0,5.125,0,0.0,0.625,0,0,0,0,0,0,0,0,0,0.0,0,0.0,1,0.5,1,2.125,0,,,,,0,25,25,25,,,,,,,,,269.5900287080001,269.5900287080001,269.5900287080001,269.5900287080001,269.5900287080001,269.5900287080001,269.5900287080001,269.5900287080001,269.50819491699997,269.5900287080001,269.5900287080001,269.5900287080001,269.50819491699997,269.5900287080001,269.5900287080001,269.5900287080001,271.6871187500001,,269.5900287080001,269.5900287080001,274.74916104199997,269.5900287080001,269.5900287080001,269.5900287080001,269.5900287080001,270.04680566699994,271.095740125,270.01805795866676,,271.6871187500001,272.738091875,271.6584254996667,,269.5900287080001,274.74916104199997,269.5900287080001,274.74916104199997,274.78961808300005,275.472618,269.5900287080001,2,1,1.8829967500000748,reldom2_s014,001,2025-02-13_15h34.28.238,Aud-A-Scan_AC,2022.2.5,None,
20,First_Order,4.0,audwhat,stimulus/audwhat_stim/dummy.wav,stimulus/audwhat_stim/dummy.wav,stimulus/audwhat_stim/percussion xylophone_high-pitch_Dtri_loud.wav,stimulus/audwhat_stim/string cello_high-pitch_Dtri_loud.wav,stimulus/audwhat_stim/blank_white.png,stimulus/audwhat_stim/pitch_box.png,stimulus/audwhat_stim/pitch_yes.png,stimulus/audwhat_stim/pitch_no.png,None,Pitch,None,Pitch,1,0.0,0,5.125,0,5.125,0,5.125,0,0.0,0.625,0,0,0,0,0,0,0,0,0,0.0,0,0.0,1,0.5,1,2.125,0,,,,,0,26,26,26,,,,,,,,,275.68295212499993,275.68295212499993,275.68295212499993,275.68295212499993,275.68295212499993,275.68295212499993,275.68295212499993,275.68295212499993,275.60595133333334,275.68295212499993,275.68295212499993,275.68295212499993,275.60595133333334,275.68295212499993,275.68295212499993,275.68295212499993,277.778517167,,275.68295212499993,275.68295212499993,280.838140458,275.68295212499993,275.68295212499993,275.68295212499993,275.68295212499993,276.1386285420001,277.18721879200007,276.1096918336666,277.1416280420001,277.778517167,278.832130667,277.74961445866666,,275.68295212499993,280.838140458,275.68295212499993,280.838140458,280.8783125,281.5610858330001,275.68295212499993,1,1,0.6407326670000657,reldom2_s014,001,2025-02-13_15h34.28.238,Aud-A-Scan_AC,2022.2.5,None,
21,First_Order,4.0,audwhat,stimulus/audwhat_stim/dummy.wav,stimulus/audwhat_stim/dummy.wav,stimulus/audwhat_stim/string viola_low-pitch_D_loud.wav,stimulus/audwhat_stim/percussion mallet_low-pitch_D_loud.wav,stimulus/audwhat_stim/blank_white.png,stimulus/audwhat_stim/category_box.png,stimulus/audwhat_stim/category_yes.png,stimulus/audwhat_stim/category_no.png,None,Category,None,Pitch,2,0.0,0,5.125,0,5.125,0,5.125,0,0.0,0.625,0,0,0,0,0,0,0,0,0,0.0,0,0.0,1,0.5,1,2.125,0,,,,,0,27,27,27,,,,,,,,,281.769839458,281.769839458,281.769839458,281.769839458,281.769839458,281.769839458,281.769839458,281.769839458,281.69441916633343,281.769839458,281.769839458,281.769839458,281.69441916633343,281.769839458,281.769839458,281.769839458,283.884883208,287.89987495800005,281.769839458,281.769839458,286.92073900000014,281.769839458,281.769839458,281.769839458,281.769839458,282.23020383300013,283.28783475,282.2007527916667,,283.884883208,284.9451173330001,283.85590762466677,,281.769839458,286.92073900000014,281.769839458,286.92073900000014,286.96085137499995,287.6480246670001,281.769839458,2,1,0.5836075419999815,reldom2_s014,001,2025-02-13_15h34.28.238,Aud-A-Scan_AC,2022.2.5,None,
22,First_Order,4.0,audwhat,stimulus/audwhat_stim/dummy.wav,stimulus/audwhat_stim/dummy.wav,stimulus/audwhat_stim/string viola_low-pitch_Ftri_loud.wav,stimulus/audwhat_stim/string cello_high-pitch_D_loud.wav,stimulus/audwhat_stim/blank_white.png,stimulus/audwhat_stim/pitch_box.png,stimulus/audwhat_stim/pitch_yes.png,stimulus/audwhat_stim/pitch_no.png,None,Pitch,None,Category,2,0.0,0,5.125,0,5.125,0,5.125,0,0.0,0.625,0,0,0,0,0,0,0,0,0,0.0,0,0.0,1,0.5,1,2.125,0,,,,,0,28,28,28,,,,,,,,,287.89987495800005,287.89987495800005,287.89987495800005,287.89987495800005,287.89987495800005,287.89987495800005,287.89987495800005,287.89987495800005,287.82159208333326,287.89987495800005,287.89987495800005,287.89987495800005,287.82159208333326,287.89987495800005,287.89987495800005,287.89987495800005,289.9995403749999,,287.89987495800005,287.89987495800005,293.059192833,287.89987495800005,287.89987495800005,287.89987495800005,287.89987495800005,288.3567109580001,289.4092049170001,288.3272911246668,,289.9995403749999,291.0490240419999,289.9708485416668,,287.89987495800005,293.059192833,287.89987495800005,293.059192833,293.099900125,293.7847066250001,287.89987495800005,1,0,1.7704063329999826,reldom2_s014,001,2025-02-13_15h34.28.238,Aud-A-Scan_AC,2022.2.5,None,
0,0.0,None,fixation,stimulus/audwhere_stim/blank_white.png,stimulus/audwhere_stim/blank_white.png,stimulus/audwhat_stim/blank_white.png,stimulus/audwhat_stim/blank_white.png,stimulus/audwhere_stim/blank_white.png,stimulus/audwhere_stim/blank_white.png,stimulus/audwhere_stim/blank_white.png,stimulus/audwhere_stim/blank_white.png,0.0,0.0,0.0,0.0,0,0.0,0,0.0,0,0.0,0,0.0,0,0.0,0.0,0,0,0,0,0,0,0,0,0,0.0,0,0.0,0,0.0,0,0.0,10,,,,,0,29,29,29,,,,,,,,,294.0143660420001,294.0143660420001,294.0143660420001,294.0143660420001,294.0143660420001,294.0143660420001,294.0143660420001,294.0143660420001,293.91803995833345,294.0143660420001,294.0143660420001,294.0143660420001,293.91803995833345,294.0143660420001,294.0143660420001,294.0143660420001,294.0143660420001,294.0143660420001,294.0143660420001,294.0143660420001,294.0143660420001,294.0143660420001,294.0143660420001,294.0143660420001,294.0143660420001,294.0143660420001,294.0143660420001,293.96803995833346,294.0143660420001,294.0143660420001,294.0143660420001,293.96803995833346,294.0143660420001,294.0143660420001,294.0143660420001,294.0143660420001,294.0143660420001,299.2248897920001,299.2248897920001,304.15534012500007,None,0,,reldom2_s014,001,2025-02-13_15h34.28.238,Aud-A-Scan_AC,2022.2.5,None,
23,Second_Order,4.0,audwhat,stimulus/audwhat_stim/string cello_low-pitch_F_loud.wav,stimulus/audwhat_stim/string cello_high-pitch_Ftri_loud.wav,stimulus/audwhat_stim/percussion mallet_high-pitch_Ftri_loud.wav,stimulus/audwhat_stim/percussion mallet_low-pitch_F_loud.wav,stimulus/audwhere_stim/match_blank.png,stimulus/audwhat_stim/match_box.png,stimulus/audwhere_stim/match_yes.png,stimulus/audwhere_stim/match_no.png,1.0,Match,Category,Category,1,5.125,0,5.125,0,5.125,0,5.125,0,0.75,0.75,0,0,0,0,0,0,0,0,1,0.5,1,2.125,1,0.5,1,2.125,0,,,,,0,30,30,30,,,,,,,,,304.15534012500007,309.275996417,304.15534012500007,304.15534012500007,304.15534012500007,304.15534012500007,304.61451850000003,305.6136026250001,304.6270476666666,,306.234822292,307.2336215,306.24751658366677,,309.275996417,310.126319125,312.16692591700007,316.11282737500005,310.126319125,310.126319125,315.27399149999997,310.126319125,310.126319125,310.126319125,310.126319125,310.5777451250001,311.622600292,310.5488628336666,311.57775645800007,312.16692591700007,313.2253189580001,312.13787620866674,,310.126319125,315.27399149999997,310.126319125,315.27399149999997,315.3143164580001,,310.126319125,1,1,2.305591750000076,reldom2_s014,001,2025-02-13_15h34.28.238,Aud-A-Scan_AC,2022.2.5,None,
24,Second_Order,4.0,audwhat,stimulus/audwhat_stim/percussion xylophone_high-pitch_Dtri_loud.wav,stimulus/audwhat_stim/percussion mallet_low-pitch_D_loud.wav,stimulus/audwhat_stim/string cello_low-pitch_Ftri_loud.wav,stimulus/audwhat_stim/string viola_high-pitch_D_loud.wav,stimulus/audwhere_stim/match_blank.png,stimulus/audwhat_stim/match_box.png,stimulus/audwhere_stim/match_yes.png,stimulus/audwhere_stim/match_no.png,1.0,Match,Category,Category,1,5.125,0,5.125,0,5.125,0,5.125,0,0.625,0.625,0,0,0,0,0,0,0,0,1,0.5,1,2.125,1,0.5,1,2.125,0,,,,,0,31,31,31,,,,,,,,,316.11282737500005,321.23639512499994,316.11282737500005,316.11282737500005,316.11282737500005,316.11282737500005,316.57175708299997,317.560323958,316.5749086666667,317.57381345800013,318.19815800000015,319.19425708300014,318.20941645866674,,321.23639512499994,321.96636245800005,324.03927020800006,328.06554225000014,321.96636245800005,321.96636245800005,327.122355083,321.96636245800005,321.96636245800005,321.96636245800005,321.96636245800005,322.4141729580001,323.45340816700013,322.38572424966674,,324.03927020800006,325.0832204170001,324.0106711246667,,321.96636245800005,327.122355083,321.96636245800005,327.122355083,327.162662083,327.83838149999997,321.96636245800005,1,1,2.296120874000053,reldom2_s014,001,2025-02-13_15h34.28.238,Aud-A-Scan_AC,2022.2.5,None,
0,0.0,None,fixation,stimulus/audwhere_stim/blank_white.png,stimulus/audwhere_stim/blank_white.png,stimulus/audwhat_stim/blank_white.png,stimulus/audwhat_stim/blank_white.png,stimulus/audwhere_stim/blank_white.png,stimulus/audwhere_stim/blank_white.png,stimulus/audwhere_stim/blank_white.png,stimulus/audwhere_stim/blank_white.png,0.0,0.0,0.0,0.0,0,0.0,0,0.0,0,0.0,0,0.0,0,0.0,0.0,0,0,0,0,0,0,0,0,0,0.0,0,0.0,0,0.0,0,0.0,9,,,,,0,32,32,32,,,,,,,,,328.06554225000014,328.06554225000014,328.06554225000014,328.06554225000014,328.06554225000014,328.06554225000014,328.06554225000014,328.06554225000014,327.9717148333333,328.06554225000014,328.06554225000014,328.06554225000014,327.9717148333333,328.06554225000014,328.06554225000014,328.06554225000014,328.06554225000014,328.06554225000014,328.06554225000014,328.06554225000014,328.06554225000014,328.06554225000014,328.06554225000014,328.06554225000014,328.06554225000014,328.06554225000014,328.06554225000014,328.0217148333333,328.06554225000014,328.06554225000014,328.06554225000014,328.0217148333333,328.06554225000014,328.06554225000014,328.06554225000014,328.06554225000014,328.06554225000014,333.26736970799993,333.26736970799993,337.3091979999999,None,0,,reldom2_s014,001,2025-02-13_15h34.28.238,Aud-A-Scan_AC,2022.2.5,None,
25,First_Order,5.0,audwhere,stimulus/audwhere_stim/dummy.wav,stimulus/audwhere_stim/dummy.wav,stimulus/audwhere_stim/right_away_300h.wav,stimulus/audwhere_stim/right_toward_300h.wav,stimulus/audwhere_stim/blank_white.png,stimulus/audwhere_stim/direction_box.png,stimulus/audwhere_stim/direction_yes.png,stimulus/audwhere_stim/direction_no.png,None,Direction,None,Side,2,0.0,0,5.125,0,5.125,0,5.125,0,0.0,0.625,0,0,0,0,0,0,0,0,0,0.0,0,0.0,1,0.5,1,2.125,0,,,,,0,33,33,33,,,,,,,,,337.3091979999999,337.3091979999999,337.3091979999999,337.3091979999999,337.3091979999999,337.3091979999999,337.3091979999999,337.3091979999999,337.2417996666667,337.3091979999999,337.3091979999999,337.3091979999999,337.2417996666667,337.3091979999999,337.3091979999999,337.3091979999999,339.414849583,343.424135125,337.3091979999999,337.3091979999999,342.487756667,337.3091979999999,337.3091979999999,337.3091979999999,337.3091979999999,337.7670115830001,338.8193885830001,337.7377014996666,,339.414849583,340.4701909580001,339.3858202496667,,337.3091979999999,342.487756667,337.3091979999999,342.487756667,342.52884258300014,343.21492070800014,337.3091979999999,2,1,2.873356000000058,reldom2_s014,001,2025-02-13_15h34.28.238,Aud-A-Scan_AC,2022.2.5,None,
26,First_Order,5.0,audwhere,stimulus/audwhere_stim/dummy.wav,stimulus/audwhere_stim/dummy.wav,stimulus/audwhere_stim/right_away_280h.wav,stimulus/audwhere_stim/left_away_270h.wav,stimulus/audwhere_stim/blank_white.png,stimulus/audwhere_stim/side_box.png,stimulus/audwhere_stim/side_yes.png,stimulus/audwhere_stim/side_no.png,None,Side,None,Direction,2,0.0,0,5.125,0,5.125,0,5.125,0,0.0,0.625,0,0,0,0,0,0,0,0,0,0.0,0,0.0,1,0.5,1,2.125,0,,,,,0,34,34,34,,,,,,,,,343.424135125,343.424135125,343.424135125,343.424135125,343.424135125,343.424135125,343.424135125,343.424135125,343.34825404133346,343.424135125,343.424135125,343.424135125,343.34825404133346,343.424135125,343.424135125,343.424135125,345.52688758299996,,343.424135125,343.424135125,348.5920564580001,343.424135125,343.424135125,343.424135125,343.424135125,343.8827147920001,344.9328719580001,343.8532192916666,,345.52688758299996,346.579793958,345.4981125416666,,343.424135125,348.5920564580001,343.424135125,348.5920564580001,348.6323916250001,349.316711208,343.424135125,1,0,1.895980833000067,reldom2_s014,001,2025-02-13_15h34.28.238,Aud-A-Scan_AC,2022.2.5,None,
27,First_Order,5.0,audwhere,stimulus/audwhere_stim/dummy.wav,stimulus/audwhere_stim/dummy.wav,stimulus/audwhere_stim/left_away_300h.wav,stimulus/audwhere_stim/right_away_290h.wav,stimulus/audwhere_stim/blank_white.png,stimulus/audwhere_stim/direction_box.png,stimulus/audwhere_stim/direction_yes.png,stimulus/audwhere_stim/direction_no.png,None,Direction,None,Direction,1,0.0,0,5.125,0,5.125,0,5.125,0,0.0,0.625,0,0,0,0,0,0,0,0,0,0.0,0,0.0,1,0.5,1,2.125,0,,,,,0,35,35,35,,,,,,,,,349.52726529200004,349.52726529200004,349.52726529200004,349.52726529200004,349.52726529200004,349.52726529200004,349.52726529200004,349.52726529200004,349.45004454133334,349.52726529200004,349.52726529200004,349.52726529200004,349.45004454133334,349.52726529200004,349.52726529200004,349.52726529200004,351.59938358299996,,349.52726529200004,349.52726529200004,354.69078420799997,349.52726529200004,349.52726529200004,349.52726529200004,349.52726529200004,349.9882895830001,351.04845220800007,349.9584448746666,,351.59938358299996,352.66360254200004,351.5695708336666,,349.52726529200004,354.69078420799997,349.52726529200004,354.69078420799997,354.7311716250001,355.37910929200007,349.52726529200004,1,1,2.683415540999931,reldom2_s014,001,2025-02-13_15h34.28.238,Aud-A-Scan_AC,2022.2.5,None,
28,First_Order,5.0,audwhere,stimulus/audwhere_stim/dummy.wav,stimulus/audwhere_stim/dummy.wav,stimulus/audwhere_stim/left_away_290h.wav,stimulus/audwhere_stim/right_away_280h.wav,stimulus/audwhere_stim/blank_white.png,stimulus/audwhere_stim/direction_box.png,stimulus/audwhere_stim/direction_yes.png,stimulus/audwhere_stim/direction_no.png,None,Direction,None,Direction,1,0.0,0,5.125,0,5.125,0,5.125,0,0.0,0.625,0,0,0,0,0,0,0,0,0,0.0,0,0.0,1,0.5,1,2.125,0,,,,,0,36,36,36,,,,,,,,,355.6320787080001,355.6320787080001,355.6320787080001,355.6320787080001,355.6320787080001,355.6320787080001,355.6320787080001,355.6320787080001,355.5524324163333,355.6320787080001,355.6320787080001,355.6320787080001,355.5524324163333,355.6320787080001,355.6320787080001,355.6320787080001,357.70822524999994,361.76620345800006,355.6320787080001,355.6320787080001,360.80352541699995,355.6320787080001,355.6320787080001,355.6320787080001,355.6320787080001,356.0921410830001,357.1558392080001,356.0627391246667,,357.70822524999994,358.768609083,357.67878812466665,,355.6320787080001,360.80352541699995,355.6320787080001,360.80352541699995,360.84424583300006,361.49463074999994,355.6320787080001,1,1,2.2844447080001373,reldom2_s014,001,2025-02-13_15h34.28.238,Aud-A-Scan_AC,2022.2.5,None,
0,0.0,None,fixation,stimulus/audwhere_stim/blank_white.png,stimulus/audwhere_stim/blank_white.png,stimulus/audwhat_stim/blank_white.png,stimulus/audwhat_stim/blank_white.png,stimulus/audwhere_stim/blank_white.png,stimulus/audwhere_stim/blank_white.png,stimulus/audwhere_stim/blank_white.png,stimulus/audwhere_stim/blank_white.png,0.0,0.0,0.0,0.0,0,0.0,0,0.0,0,0.0,0,0.0,0,0.0,0.0,0,0,0,0,0,0,0,0,0,0.0,0,0.0,0,0.0,0,0.0,9,,,,,0,37,37,37,,,,,,,,,361.76620345800006,361.76620345800006,361.76620345800006,361.76620345800006,361.76620345800006,361.76620345800006,361.76620345800006,361.76620345800006,361.66865591633325,361.76620345800006,361.76620345800006,361.76620345800006,361.66865591633325,361.76620345800006,361.76620345800006,361.76620345800006,361.76620345800006,361.76620345800006,361.76620345800006,361.76620345800006,361.76620345800006,361.76620345800006,361.76620345800006,361.76620345800006,361.76620345800006,361.76620345800006,361.76620345800006,361.71865591633326,361.76620345800006,361.76620345800006,361.76620345800006,361.71865591633326,361.76620345800006,361.76620345800006,361.76620345800006,361.76620345800006,361.76620345800006,366.9562665420001,366.9562665420001,370.91877216700004,None,0,,reldom2_s014,001,2025-02-13_15h34.28.238,Aud-A-Scan_AC,2022.2.5,None,
29,Second_Order,5.0,audwhere,stimulus/audwhere_stim/right_toward_270h.wav,stimulus/audwhere_stim/right_away_280h.wav,stimulus/audwhere_stim/left_toward_290h.wav,stimulus/audwhere_stim/left_away_290h.wav,stimulus/audwhere_stim/match_blank.png,stimulus/audwhere_stim/match_box.png,stimulus/audwhere_stim/match_yes.png,stimulus/audwhere_stim/match_no.png,1.0,Match,Side,Side,1,5.125,0,5.125,0,5.125,0,5.125,0,0.75,0.75,0,0,0,0,0,0,0,0,1,0.5,1,2.125,1,0.5,1,2.125,0,,,,,0,38,38,38,,,,,,,,,370.91877216700004,376.0424296670001,370.91877216700004,370.91877216700004,370.91877216700004,370.91877216700004,371.3685177080001,372.3673832920001,371.38167370866677,,373.0020173749999,373.991358625,373.00567724966663,,376.0424296670001,376.8930882500001,378.9401001670001,382.887331917,376.8930882500001,376.8930882500001,382.049345292,376.8930882500001,376.8930882500001,376.8930882500001,376.8930882500001,377.348307083,378.3920061250001,377.3192946666668,,378.9401001670001,379.99287112499997,378.91083183366663,,376.8930882500001,382.049345292,376.8930882500001,382.049345292,382.0898474580001,,376.8930882500001,1,1,1.59783450000009,reldom2_s014,001,2025-02-13_15h34.28.238,Aud-A-Scan_AC,2022.2.5,None,
30,Second_Order,5.0,audwhere,stimulus/audwhere_stim/left_toward_300h.wav,stimulus/audwhere_stim/left_away_290h.wav,stimulus/audwhere_stim/right_away_290h.wav,stimulus/audwhere_stim/right_toward_280h.wav,stimulus/audwhere_stim/match_blank.png,stimulus/audwhere_stim/match_box.png,stimulus/audwhere_stim/match_yes.png,stimulus/audwhere_stim/match_no.png,1.0,Match,Side,Side,1,5.125,0,5.125,0,5.125,0,5.125,0,0.625,0.625,0,0,0,0,0,0,0,0,1,0.5,1,2.125,1,0.5,1,2.125,0,,,,,0,39,39,39,,,,,,,,,382.887331917,388.0074475000001,382.887331917,382.887331917,382.887331917,382.887331917,383.346432583,384.34499570799994,383.3594653746668,,384.967983,385.96508529200014,384.97976708366673,,388.0074475000001,388.73511699999995,390.81489975,394.84576300000003,388.73511699999995,388.73511699999995,393.89989175000005,388.73511699999995,388.73511699999995,388.73511699999995,388.73511699999995,389.18719158299996,390.22706766700003,389.1584007086667,,390.81489975,391.8601013750001,390.7866140836668,391.81461470800014,388.73511699999995,393.89989175000005,388.73511699999995,393.89989175000005,393.89989175000005,394.57815174999996,388.73511699999995,1,1,1.1538397910001095,reldom2_s014,001,2025-02-13_15h34.28.238,Aud-A-Scan_AC,2022.2.5,None,
0,0.0,None,fixation,stimulus/audwhere_stim/blank_white.png,stimulus/audwhere_stim/blank_white.png,stimulus/audwhat_stim/blank_white.png,stimulus/audwhat_stim/blank_white.png,stimulus/audwhere_stim/blank_white.png,stimulus/audwhere_stim/blank_white.png,stimulus/audwhere_stim/blank_white.png,stimulus/audwhere_stim/blank_white.png,0.0,0.0,0.0,0.0,0,0.0,0,0.0,0,0.0,0,0.0,0,0.0,0.0,0,0,0,0,0,0,0,0,0,0.0,0,0.0,0,0.0,0,0.0,9,,,,,0,40,40,40,,,,,,,,,394.84576300000003,394.84576300000003,394.84576300000003,394.84576300000003,394.84576300000003,394.84576300000003,394.84576300000003,394.84576300000003,394.7517058753334,394.84576300000003,394.84576300000003,394.84576300000003,394.7517058753334,394.84576300000003,394.84576300000003,394.84576300000003,394.84576300000003,394.84576300000003,394.84576300000003,394.84576300000003,394.84576300000003,394.84576300000003,394.84576300000003,394.84576300000003,394.84576300000003,394.84576300000003,394.84576300000003,394.8017058753334,394.84576300000003,394.84576300000003,394.84576300000003,394.8017058753334,394.84576300000003,394.84576300000003,394.84576300000003,394.84576300000003,394.84576300000003,400.060460958,400.060460958,404.10640887499994,None,0,,reldom2_s014,001,2025-02-13_15h34.28.238,Aud-A-Scan_AC,2022.2.5,None,
31,First_Order,6.0,audwhere,stimulus/audwhere_stim/dummy.wav,stimulus/audwhere_stim/dummy.wav,stimulus/audwhere_stim/left_away_300h.wav,stimulus/audwhere_stim/left_toward_300h.wav,stimulus/audwhere_stim/blank_white.png,stimulus/audwhere_stim/side_box.png,stimulus/audwhere_stim/side_yes.png,stimulus/audwhere_stim/side_no.png,None,Side,None,Side,1,0.0,0,5.125,0,5.125,0,5.125,0,0.0,0.625,0,0,0,0,0,0,0,0,0,0.0,0,0.0,1,0.5,1,2.125,0,,,,,0,41,41,41,,,,,,,,,404.10640887499994,404.10640887499994,404.10640887499994,404.10640887499994,404.10640887499994,404.10640887499994,404.10640887499994,404.10640887499994,404.03911512466664,404.10640887499994,404.10640887499994,404.10640887499994,404.03911512466664,404.10640887499994,404.10640887499994,404.10640887499994,406.213615292,410.21808920800004,404.10640887499994,404.10640887499994,409.2826694170001,404.10640887499994,404.10640887499994,404.10640887499994,404.10640887499994,404.56466,405.61835799999994,404.53562229166664,,406.213615292,407.271971958,406.18434695866677,,404.10640887499994,409.2826694170001,404.10640887499994,409.2826694170001,409.3238462920001,410.007823917,404.10640887499994,2,0,2.8736951660000614,reldom2_s014,001,2025-02-13_15h34.28.238,Aud-A-Scan_AC,2022.2.5,None,
32,First_Order,6.0,audwhere,stimulus/audwhere_stim/dummy.wav,stimulus/audwhere_stim/dummy.wav,stimulus/audwhere_stim/right_away_270h.wav,stimulus/audwhere_stim/left_away_280h.wav,stimulus/audwhere_stim/blank_white.png,stimulus/audwhere_stim/side_box.png,stimulus/audwhere_stim/side_yes.png,stimulus/audwhere_stim/side_no.png,None,Side,None,Direction,2,0.0,0,5.125,0,5.125,0,5.125,0,0.0,0.625,0,0,0,0,0,0,0,0,0,0.0,0,0.0,1,0.5,1,2.125,0,,,,,0,42,42,42,,,,,,,,,410.21808920800004,410.21808920800004,410.21808920800004,410.21808920800004,410.21808920800004,410.21808920800004,410.21808920800004,410.21808920800004,410.1411572503333,410.21808920800004,410.21808920800004,410.21808920800004,410.1411572503333,410.21808920800004,410.21808920800004,410.21808920800004,412.32559600000013,416.3372385,410.21808920800004,410.21808920800004,415.401983083,410.21808920800004,410.21808920800004,410.21808920800004,410.21808920800004,410.67513054200003,411.728403542,410.64552012466675,,412.32559600000013,413.38228316699997,412.2961145836666,,410.21808920800004,415.401983083,410.21808920800004,415.401983083,415.44165187499993,416.12744016700003,410.21808920800004,1,0,1.1499602910000704,reldom2_s014,001,2025-02-13_15h34.28.238,Aud-A-Scan_AC,2022.2.5,None,
33,First_Order,6.0,audwhere,stimulus/audwhere_stim/dummy.wav,stimulus/audwhere_stim/dummy.wav,stimulus/audwhere_stim/left_toward_270h.wav,stimulus/audwhere_stim/left_away_270h.wav,stimulus/audwhere_stim/blank_white.png,stimulus/audwhere_stim/direction_box.png,stimulus/audwhere_stim/direction_yes.png,stimulus/audwhere_stim/direction_no.png,None,Direction,None,Side,2,0.0,0,5.125,0,5.125,0,5.125,0,0.0,0.625,0,0,0,0,0,0,0,0,0,0.0,0,0.0,1,0.5,1,2.125,0,,,,,0,43,43,43,,,,,,,,,416.3372385,416.3372385,416.3372385,416.3372385,416.3372385,416.3372385,416.3372385,416.3372385,416.26077350033336,416.3372385,416.3372385,416.3372385,416.26077350033336,416.3372385,416.3372385,416.3372385,418.419640458,422.459600333,416.3372385,416.3372385,421.51890075000006,416.3372385,416.3372385,416.3372385,416.3372385,416.80009095800006,417.866222375,416.77019212466666,,418.419640458,419.486475875,418.3903020836667,,416.3372385,421.51890075000006,416.3372385,421.51890075000006,421.560005458,422.2085587920001,416.3372385,1,0,3.1786772909999854,reldom2_s014,001,2025-02-13_15h34.28.238,Aud-A-Scan_AC,2022.2.5,None,
34,First_Order,6.0,audwhere,stimulus/audwhere_stim/dummy.wav,stimulus/audwhere_stim/dummy.wav,stimulus/audwhere_stim/left_toward_300h.wav,stimulus/audwhere_stim/left_away_300h.wav,stimulus/audwhere_stim/blank_white.png,stimulus/audwhere_stim/side_box.png,stimulus/audwhere_stim/side_yes.png,stimulus/audwhere_stim/side_no.png,None,Side,None,Side,1,0.0,0,5.125,0,5.125,0,5.125,0,0.0,0.625,0,0,0,0,0,0,0,0,0,0.0,0,0.0,1,0.5,1,2.125,0,,,,,0,44,44,44,,,,,,,,,422.459600333,422.459600333,422.459600333,422.459600333,422.459600333,422.459600333,422.459600333,422.459600333,422.3827831663333,422.459600333,422.459600333,422.459600333,422.3827831663333,422.459600333,422.459600333,422.459600333,424.575091167,,422.459600333,422.459600333,427.6159767920001,422.459600333,422.459600333,422.459600333,422.459600333,422.9210552080001,423.9808142080001,422.8913507916666,,424.575091167,425.64125624999997,424.5457664996668,,422.459600333,427.6159767920001,422.459600333,427.6159767920001,427.65691170800005,428.306438458,422.459600333,2,0,2.988283333000254,reldom2_s014,001,2025-02-13_15h34.28.238,Aud-A-Scan_AC,2022.2.5,None,
0,0.0,None,fixation,stimulus/audwhere_stim/blank_white.png,stimulus/audwhere_stim/blank_white.png,stimulus/audwhat_stim/blank_white.png,stimulus/audwhat_stim/blank_white.png,stimulus/audwhere_stim/blank_white.png,stimulus/audwhere_stim/blank_white.png,stimulus/audwhere_stim/blank_white.png,stimulus/audwhere_stim/blank_white.png,0.0,0.0,0.0,0.0,0,0.0,0,0.0,0,0.0,0,0.0,0,0.0,0.0,0,0,0,0,0,0,0,0,0,0.0,0,0.0,0,0.0,0,0.0,10,,,,,0,45,45,45,,,,,,,,,428.5766490420001,428.5766490420001,428.5766490420001,428.5766490420001,428.5766490420001,428.5766490420001,428.5766490420001,428.5766490420001,428.47967158333347,428.5766490420001,428.5766490420001,428.5766490420001,428.47967158333347,428.5766490420001,428.5766490420001,428.5766490420001,428.5766490420001,428.5766490420001,428.5766490420001,428.5766490420001,428.5766490420001,428.5766490420001,428.5766490420001,428.5766490420001,428.5766490420001,428.5766490420001,428.5766490420001,428.5296715833335,428.5766490420001,428.5766490420001,428.5766490420001,428.5296715833335,428.5766490420001,428.5766490420001,428.5766490420001,428.5766490420001,428.5766490420001,433.77351112500014,433.77351112500014,438.7357823330001,None,0,,reldom2_s014,001,2025-02-13_15h34.28.238,Aud-A-Scan_AC,2022.2.5,None,
35,Second_Order,6.0,audwhere,stimulus/audwhere_stim/left_away_280h.wav,stimulus/audwhere_stim/left_toward_300h.wav,stimulus/audwhere_stim/right_away_280h.wav,stimulus/audwhere_stim/right_toward_300h.wav,stimulus/audwhere_stim/match_blank.png,stimulus/audwhere_stim/match_box.png,stimulus/audwhere_stim/match_yes.png,stimulus/audwhere_stim/match_no.png,1.0,Match,Side,Side,1,5.125,0,5.125,0,5.125,0,5.125,0,0.75,0.75,0,0,0,0,0,0,0,0,1,0.5,1,2.125,1,0.5,1,2.125,0,,,,,0,46,46,46,,,,,,,,,438.7357823330001,443.853328917,438.7357823330001,438.7357823330001,438.7357823330001,438.7357823330001,439.19202770800007,440.19074320799996,439.2049469166666,,440.81366041699994,441.81105183299996,440.8254322086666,,443.853328917,444.70334070800004,446.7555869580001,,444.70334070800004,444.70334070800004,449.87262358299995,444.70334070800004,444.70334070800004,444.70334070800004,444.70334070800004,445.159808958,446.20938775000013,445.1305122086667,,446.7555869580001,447.811106958,446.7264219586666,,444.70334070800004,449.87262358299995,444.70334070800004,449.87262358299995,449.87262358299995,,444.70334070800004,1,1,1.2770705410000573,reldom2_s014,001,2025-02-13_15h34.28.238,Aud-A-Scan_AC,2022.2.5,None,
36,Second_Order,6.0,audwhere,stimulus/audwhere_stim/left_away_290h.wav,stimulus/audwhere_stim/left_toward_270h.wav,stimulus/audwhere_stim/left_toward_290h.wav,stimulus/audwhere_stim/right_toward_270h.wav,stimulus/audwhere_stim/match_blank.png,stimulus/audwhere_stim/match_box.png,stimulus/audwhere_stim/match_yes.png,stimulus/audwhere_stim/match_no.png,2.0,Match,Side,Direction,2,5.125,0,5.125,0,5.125,0,5.125,0,0.625,0.625,0,0,0,0,0,0,0,0,1,0.5,1,2.125,1,0.5,1,2.125,0,,,,,0,47,47,47,,,,,,,,,450.6712574170001,455.793062708,450.6712574170001,450.6712574170001,450.6712574170001,450.6712574170001,451.13274104200013,452.12230283300005,451.13667466666675,,452.75694220800005,453.75537899999995,452.76968562466664,,455.793062708,456.5289210420001,458.610698833,,456.5289210420001,456.5289210420001,461.7027985,456.5289210420001,456.5289210420001,456.5289210420001,456.5289210420001,456.98069529200006,458.021944375,456.9509422916667,,458.610698833,459.6554489580001,458.58193854166666,,456.5289210420001,461.7027985,456.5289210420001,461.7027985,461.7027985,462.38221758300006,456.5289210420001,2,1,1.1277812490000088,reldom2_s014,001,2025-02-13_15h34.28.238,Aud-A-Scan_AC,2022.2.5,None,
0,0.0,None,fixation,stimulus/audwhere_stim/blank_white.png,stimulus/audwhere_stim/blank_white.png,stimulus/audwhat_stim/blank_white.png,stimulus/audwhat_stim/blank_white.png,stimulus/audwhere_stim/blank_white.png,stimulus/audwhere_stim/blank_white.png,stimulus/audwhere_stim/blank_white.png,stimulus/audwhere_stim/blank_white.png,0.0,0.0,0.0,0.0,0,0.0,0,0.0,0,0.0,0,0.0,0,0.0,0.0,0,0,0,0,0,0,0,0,0,0.0,0,0.0,0,0.0,0,0.0,9,,,,,0,48,48,48,,,,,,,,,462.6099622500001,462.6099622500001,462.6099622500001,462.6099622500001,462.6099622500001,462.6099622500001,462.6099622500001,462.6099622500001,462.5155509163334,462.6099622500001,462.6099622500001,462.6099622500001,462.5155509163334,462.6099622500001,462.6099622500001,462.6099622500001,462.6099622500001,462.6099622500001,462.6099622500001,462.6099622500001,462.6099622500001,462.6099622500001,462.6099622500001,462.6099622500001,462.6099622500001,462.6099622500001,462.6099622500001,462.5655509163334,462.6099622500001,462.6099622500001,462.6099622500001,462.5655509163334,462.6099622500001,462.6099622500001,462.6099622500001,462.6099622500001,462.6099622500001,467.8405089999999,467.8405089999999,471.85893929200006,None,0,,reldom2_s014,001,2025-02-13_15h34.28.238,Aud-A-Scan_AC,2022.2.5,None,
37,First_Order,7.0,audwhat,stimulus/audwhat_stim/dummy.wav,stimulus/audwhat_stim/dummy.wav,stimulus/audwhat_stim/string cello_low-pitch_Ftri_loud.wav,stimulus/audwhat_stim/string cello_high-pitch_D_loud.wav,stimulus/audwhat_stim/blank_white.png,stimulus/audwhat_stim/pitch_box.png,stimulus/audwhat_stim/pitch_yes.png,stimulus/audwhat_stim/pitch_no.png,None,Pitch,None,Category,2,0.0,0,5.125,0,5.125,0,5.125,0,0.0,0.625,0,0,0,0,0,0,0,0,0,0.0,0,0.0,1,0.5,1,2.125,0,,,,,0,49,49,49,,,,,,,,,471.85893929200006,471.85893929200006,471.85893929200006,471.85893929200006,471.85893929200006,471.85893929200006,471.85893929200006,471.85893929200006,471.7912040836667,471.85893929200006,471.85893929200006,471.85893929200006,471.7912040836667,471.85893929200006,471.85893929200006,471.85893929200006,473.9712975,477.979586958,471.85893929200006,471.85893929200006,477.04524270800016,471.85893929200006,471.85893929200006,471.85893929200006,471.85893929200006,472.3180006250002,473.37495883299994,472.28867312466673,,473.9712975,475.02730458300016,473.94193999966683,,471.85893929200006,477.04524270800016,471.85893929200006,477.04524270800016,477.0853183749998,477.7695472920002,471.85893929200006,2,1,1.0782599579997623,reldom2_s014,001,2025-02-13_15h34.28.238,Aud-A-Scan_AC,2022.2.5,None,
38,First_Order,7.0,audwhat,stimulus/audwhat_stim/dummy.wav,stimulus/audwhat_stim/dummy.wav,stimulus/audwhat_stim/string cello_low-pitch_D_loud.wav,stimulus/audwhat_stim/string cello_high-pitch_Ftri_loud.wav,stimulus/audwhat_stim/blank_white.png,stimulus/audwhat_stim/pitch_box.png,stimulus/audwhat_stim/pitch_yes.png,stimulus/audwhat_stim/pitch_no.png,None,Pitch,None,Category,2,0.0,0,5.125,0,5.125,0,5.125,0,0.0,0.625,0,0,0,0,0,0,0,0,0,0.0,0,0.0,1,0.5,1,2.125,0,,,,,0,50,50,50,,,,,,,,,477.979586958,477.979586958,477.979586958,477.979586958,477.979586958,477.979586958,477.979586958,477.979586958,477.9028806253335,477.979586958,477.979586958,477.979586958,477.9028806253335,477.979586958,477.979586958,477.979586958,480.0939397919999,,477.979586958,477.979586958,483.12917649999986,477.979586958,477.979586958,477.979586958,477.979586958,478.4386202080002,479.4965298750001,478.4090749586667,,480.0939397919999,481.152347042,480.0645992916666,,477.979586958,483.12917649999986,477.979586958,483.12917649999986,483.2104010830001,483.85821850000025,477.979586958,2,1,1.746710124999936,reldom2_s014,001,2025-02-13_15h34.28.238,Aud-A-Scan_AC,2022.2.5,None,
39,First_Order,7.0,audwhat,stimulus/audwhat_stim/dummy.wav,stimulus/audwhat_stim/dummy.wav,stimulus/audwhat_stim/percussion xylophone_high-pitch_Dtri_loud.wav,stimulus/audwhat_stim/string cello_high-pitch_Dtri_loud.wav,stimulus/audwhat_stim/blank_white.png,stimulus/audwhat_stim/pitch_box.png,stimulus/audwhat_stim/pitch_yes.png,stimulus/audwhat_stim/pitch_no.png,None,Pitch,None,Pitch,1,0.0,0,5.125,0,5.125,0,5.125,0,0.0,0.625,0,0,0,0,0,0,0,0,0,0.0,0,0.0,1,0.5,1,2.125,0,,,,,0,51,51,51,,,,,,,,,484.0693815830002,484.0693815830002,484.0693815830002,484.0693815830002,484.0693815830002,484.0693815830002,484.0693815830002,484.0693815830002,483.9915518333336,484.0693815830002,484.0693815830002,484.0693815830002,483.9915518333336,484.0693815830002,484.0693815830002,484.0693815830002,486.14027950000013,,484.0693815830002,484.0693815830002,489.2314509999999,484.0693815830002,484.0693815830002,484.0693815830002,484.0693815830002,484.5304856670002,485.58912262499985,484.50051341666676,485.5433461670002,486.14027950000013,487.2046579999999,486.1108859586666,,484.0693815830002,489.2314509999999,484.0693815830002,489.2314509999999,489.2714807499999,489.92189141699987,484.0693815830002,1,1,0.933505666000201,reldom2_s014,001,2025-02-13_15h34.28.238,Aud-A-Scan_AC,2022.2.5,None,
40,First_Order,7.0,audwhat,stimulus/audwhat_stim/dummy.wav,stimulus/audwhat_stim/dummy.wav,stimulus/audwhat_stim/string cello_low-pitch_D_loud.wav,stimulus/audwhat_stim/percussion mallet_low-pitch_D_loud.wav,stimulus/audwhat_stim/blank_white.png,stimulus/audwhat_stim/pitch_box.png,stimulus/audwhat_stim/pitch_yes.png,stimulus/audwhat_stim/pitch_no.png,None,Pitch,None,Pitch,1,0.0,0,5.125,0,5.125,0,5.125,0,0.0,0.625,0,0,0,0,0,0,0,0,0,0.0,0,0.0,1,0.5,1,2.125,0,,,,,0,52,52,52,,,,,,,,,490.17406912499996,490.17406912499996,490.17406912499996,490.17406912499996,490.17406912499996,490.17406912499996,490.17406912499996,490.17406912499996,490.0958938333332,490.17406912499996,490.17406912499996,490.17406912499996,490.0958938333332,490.17406912499996,490.17406912499996,490.17406912499996,492.2484367079999,496.3072435830002,490.17406912499996,490.17406912499996,495.3431404999999,490.17406912499996,490.17406912499996,490.17406912499996,490.17406912499996,490.6342215420002,491.694556875,490.6053567496665,,492.2484367079999,493.3142610420002,492.2180727496666,,490.17406912499996,495.3431404999999,490.17406912499996,495.3431404999999,495.384302917,496.0348410419999,490.17406912499996,1,1,1.300593291000041,reldom2_s014,001,2025-02-13_15h34.28.238,Aud-A-Scan_AC,2022.2.5,None,
0,0.0,None,fixation,stimulus/audwhere_stim/blank_white.png,stimulus/audwhere_stim/blank_white.png,stimulus/audwhat_stim/blank_white.png,stimulus/audwhat_stim/blank_white.png,stimulus/audwhere_stim/blank_white.png,stimulus/audwhere_stim/blank_white.png,stimulus/audwhere_stim/blank_white.png,stimulus/audwhere_stim/blank_white.png,0.0,0.0,0.0,0.0,0,0.0,0,0.0,0,0.0,0,0.0,0,0.0,0.0,0,0,0,0,0,0,0,0,0,0.0,0,0.0,0,0.0,0,0.0,10,,,,,0,53,53,53,,,,,,,,,496.3072435830002,496.3072435830002,496.3072435830002,496.3072435830002,496.3072435830002,496.3072435830002,496.3072435830002,496.3072435830002,496.20891629133337,496.3072435830002,496.3072435830002,496.3072435830002,496.20891629133337,496.3072435830002,496.3072435830002,496.3072435830002,496.3072435830002,496.3072435830002,496.3072435830002,496.3072435830002,496.3072435830002,496.3072435830002,496.3072435830002,496.3072435830002,496.3072435830002,496.3072435830002,496.3072435830002,496.2589162913334,496.3072435830002,496.3072435830002,496.3072435830002,496.2589162913334,496.3072435830002,496.3072435830002,496.3072435830002,496.3072435830002,496.3072435830002,501.5062098330002,501.5062098330002,506.48072216700007,None,0,,reldom2_s014,001,2025-02-13_15h34.28.238,Aud-A-Scan_AC,2022.2.5,None,
41,Second_Order,7.0,audwhat,stimulus/audwhat_stim/percussion xylophone_high-pitch_Ftri_loud.wav,stimulus/audwhat_stim/percussion mallet_low-pitch_Dtri_loud.wav,stimulus/audwhat_stim/string viola_low-pitch_Ftri_loud.wav,stimulus/audwhat_stim/percussion mallet_low-pitch_Ftri_loud.wav,stimulus/audwhere_stim/match_blank.png,stimulus/audwhat_stim/match_box.png,stimulus/audwhere_stim/match_yes.png,stimulus/audwhere_stim/match_no.png,2.0,Match,Category,Pitch,2,5.125,0,5.125,0,5.125,0,5.125,0,0.75,0.75,0,0,0,0,0,0,0,0,1,0.5,1,2.125,1,0.5,1,2.125,0,,,,,0,54,54,54,,,,,,,,,506.48072216700007,511.59320925,506.48072216700007,506.48072216700007,506.48072216700007,506.48072216700007,506.93236224999987,507.93032129200014,506.9452027916668,507.9335802920002,508.553507417,509.55106712500015,508.56528724966665,,511.59320925,512.4449257919998,514.5000523750002,,512.4449257919998,512.4449257919998,517.620971,512.4449257919998,512.4449257919998,512.4449257919998,512.4449257919998,512.899866083,513.9527969170001,512.8711538336665,,514.5000523750002,515.5571620419998,514.4712893746669,,512.4449257919998,517.620971,512.4449257919998,517.620971,517.620971,,512.4449257919998,1,0,3.5801395420003246,reldom2_s014,001,2025-02-13_15h34.28.238,Aud-A-Scan_AC,2022.2.5,None,
42,Second_Order,7.0,audwhat,stimulus/audwhat_stim/string cello_high-pitch_Dtri_loud.wav,stimulus/audwhat_stim/percussion mallet_high-pitch_Dtri_loud.wav,stimulus/audwhat_stim/percussion mallet_low-pitch_D_loud.wav,stimulus/audwhat_stim/string cello_low-pitch_D_loud.wav,stimulus/audwhere_stim/match_blank.png,stimulus/audwhat_stim/match_box.png,stimulus/audwhere_stim/match_yes.png,stimulus/audwhere_stim/match_no.png,1.0,Match,Pitch,Pitch,1,5.125,0,5.125,0,5.125,0,5.125,0,0.625,0.625,0,0,0,0,0,0,0,0,1,0.5,1,2.125,1,0.5,1,2.125,0,,,,,0,55,55,55,,,,,,,,,518.4273492079999,523.5500884169999,518.4273492079999,518.4273492079999,518.4273492079999,518.4273492079999,518.8762529170001,519.874783042,518.8891280836665,,520.5096676250002,521.499114,520.5125857496669,,523.5500884169999,524.2846834170002,526.3662736250001,,524.2846834170002,524.2846834170002,529.4672750830002,524.2846834170002,524.2846834170002,524.2846834170002,524.2846834170002,524.7325698749999,525.7770143750001,524.7039029586667,525.7320736250001,526.3662736250001,527.4176664170002,526.3373891246665,,524.2846834170002,529.4672750830002,524.2846834170002,529.4672750830002,529.4672750830002,530.1464257079999,524.2846834170002,1,1,0.8675063749997207,reldom2_s014,001,2025-02-13_15h34.28.238,Aud-A-Scan_AC,2022.2.5,None,
0,0.0,None,fixation,stimulus/audwhere_stim/blank_white.png,stimulus/audwhere_stim/blank_white.png,stimulus/audwhat_stim/blank_white.png,stimulus/audwhat_stim/blank_white.png,stimulus/audwhere_stim/blank_white.png,stimulus/audwhere_stim/blank_white.png,stimulus/audwhere_stim/blank_white.png,stimulus/audwhere_stim/blank_white.png,0.0,0.0,0.0,0.0,0,0.0,0,0.0,0,0.0,0,0.0,0,0.0,0.0,0,0,0,0,0,0,0,0,0,0.0,0,0.0,0,0.0,0,0.0,9,,,,,0,56,56,56,,,,,,,,,530.3751320829999,530.3751320829999,530.3751320829999,530.3751320829999,530.3751320829999,530.3751320829999,530.3751320829999,530.3751320829999,530.2797590413333,530.3751320829999,530.3751320829999,530.3751320829999,530.2797590413333,530.3751320829999,530.3751320829999,530.3751320829999,530.3751320829999,530.3751320829999,530.3751320829999,530.3751320829999,530.3751320829999,530.3751320829999,530.3751320829999,530.3751320829999,530.3751320829999,530.3751320829999,530.3751320829999,530.3297590413332,530.3751320829999,530.3751320829999,530.3751320829999,530.3297590413332,530.3751320829999,530.3751320829999,530.3751320829999,530.3751320829999,530.3751320829999,535.5657791249998,535.5657791249998,539.6407874580002,None,0,,reldom2_s014,001,2025-02-13_15h34.28.238,Aud-A-Scan_AC,2022.2.5,None,
43,First_Order,8.0,audwhat,stimulus/audwhat_stim/dummy.wav,stimulus/audwhat_stim/dummy.wav,stimulus/audwhat_stim/string viola_low-pitch_F_loud.wav,stimulus/audwhat_stim/percussion mallet_low-pitch_F_loud.wav,stimulus/audwhat_stim/blank_white.png,stimulus/audwhat_stim/category_box.png,stimulus/audwhat_stim/category_yes.png,stimulus/audwhat_stim/category_no.png,None,Category,None,Pitch,2,0.0,0,5.125,0,5.125,0,5.125,0,0.0,0.625,0,0,0,0,0,0,0,0,0,0.0,0,0.0,1,0.5,1,2.125,0,,,,,0,57,57,57,,,,,,,,,539.6407874580002,539.6407874580002,539.6407874580002,539.6407874580002,539.6407874580002,539.6407874580002,539.6407874580002,539.6407874580002,539.5717864166667,539.6407874580002,539.6407874580002,539.6407874580002,539.5717864166667,539.6407874580002,539.6407874580002,539.6407874580002,541.7172644170003,545.7529443750002,539.6407874580002,539.6407874580002,544.8123214170002,539.6407874580002,539.6407874580002,539.6407874580002,539.6407874580002,540.1015472920001,541.1643418330002,540.0721851246667,,541.7172644170003,542.7806316670001,541.6878416246668,,539.6407874580002,544.8123214170002,539.6407874580002,544.8123214170002,544.8531914170001,545.501384208,539.6407874580002,2,1,1.0114143739997417,reldom2_s014,001,2025-02-13_15h34.28.238,Aud-A-Scan_AC,2022.2.5,None,
44,First_Order,8.0,audwhat,stimulus/audwhat_stim/dummy.wav,stimulus/audwhat_stim/dummy.wav,stimulus/audwhat_stim/percussion mallet_low-pitch_Dtri_loud.wav,stimulus/audwhat_stim/percussion xylophone_high-pitch_F_loud.wav,stimulus/audwhat_stim/blank_white.png,stimulus/audwhat_stim/category_box.png,stimulus/audwhat_stim/category_yes.png,stimulus/audwhat_stim/category_no.png,None,Category,None,Category,1,0.0,0,5.125,0,5.125,0,5.125,0,0.0,0.625,0,0,0,0,0,0,0,0,0,0.0,0,0.0,1,0.5,1,2.125,0,,,,,0,58,58,58,,,,,,,,,545.7529443750002,545.7529443750002,545.7529443750002,545.7529443750002,545.7529443750002,545.7529443750002,545.7529443750002,545.7529443750002,545.6749194163334,545.7529443750002,545.7529443750002,545.7529443750002,545.6749194163334,545.7529443750002,545.7529443750002,545.7529443750002,547.8364309169999,,545.7529443750002,545.7529443750002,550.9369806249999,545.7529443750002,545.7529443750002,545.7529443750002,545.7529443750002,546.2163625830001,547.2806366249999,546.1863931666667,,547.8364309169999,548.9027490000001,547.8069272496668,548.856591042,545.7529443750002,550.9369806249999,545.7529443750002,550.9369806249999,550.9797249999999,551.6317739580002,545.7529443750002,1,1,1.4403010000000904,reldom2_s014,001,2025-02-13_15h34.28.238,Aud-A-Scan_AC,2022.2.5,None,
45,First_Order,8.0,audwhat,stimulus/audwhat_stim/dummy.wav,stimulus/audwhat_stim/dummy.wav,stimulus/audwhat_stim/string cello_high-pitch_Dtri_loud.wav,stimulus/audwhat_stim/percussion xylophone_high-pitch_Dtri_loud.wav,stimulus/audwhat_stim/blank_white.png,stimulus/audwhat_stim/category_box.png,stimulus/audwhat_stim/category_yes.png,stimulus/audwhat_stim/category_no.png,None,Category,None,Pitch,2,0.0,0,5.125,0,5.125,0,5.125,0,0.0,0.625,0,0,0,0,0,0,0,0,0,0.0,0,0.0,1,0.5,1,2.125,0,,,,,0,59,59,59,,,,,,,,,551.8433670830002,551.8433670830002,551.8433670830002,551.8433670830002,551.8433670830002,551.8433670830002,551.8433670830002,551.8433670830002,551.7651072913335,551.8433670830002,551.8433670830002,551.8433670830002,551.7651072913335,551.8433670830002,551.8433670830002,551.8433670830002,553.9306602499998,,551.8433670830002,551.8433670830002,557.031941167,551.8433670830002,551.8433670830002,551.8433670830002,551.8433670830002,552.3067133329998,553.3754145,552.2770379166668,,553.9306602499998,554.9953069999999,553.9009455416667,554.94748,551.8433670830002,557.031941167,551.8433670830002,557.031941167,557.0731598330001,557.7238222500002,551.8433670830002,2,1,1.2568558330003725,reldom2_s014,001,2025-02-13_15h34.28.238,Aud-A-Scan_AC,2022.2.5,None,
46,First_Order,8.0,audwhat,stimulus/audwhat_stim/dummy.wav,stimulus/audwhat_stim/dummy.wav,stimulus/audwhat_stim/percussion mallet_low-pitch_Ftri_loud.wav,stimulus/audwhat_stim/percussion mallet_high-pitch_F_loud.wav,stimulus/audwhat_stim/blank_white.png,stimulus/audwhat_stim/category_box.png,stimulus/audwhat_stim/category_yes.png,stimulus/audwhat_stim/category_no.png,None,Category,None,Category,1,0.0,0,5.125,0,5.125,0,5.125,0,0.0,0.625,0,0,0,0,0,0,0,0,0,0.0,0,0.0,1,0.5,1,2.125,0,,,,,0,60,60,60,,,,,,,,,557.9359632080002,557.9359632080002,557.9359632080002,557.9359632080002,557.9359632080002,557.9359632080002,557.9359632080002,557.9359632080002,557.8571555833336,557.9359632080002,557.9359632080002,557.9359632080002,557.8571555833336,557.9359632080002,557.9359632080002,557.9359632080002,560.0222550420001,,557.9359632080002,557.9359632080002,563.0894272920002,557.9359632080002,557.9359632080002,557.9359632080002,557.9359632080002,558.3979213750001,559.4675749169999,558.3682184586669,,560.0222550420001,561.0938749170002,559.9922124586665,,557.9359632080002,563.0894272920002,557.9359632080002,563.0894272920002,563.1302093749998,563.783166083,557.9359632080002,1,1,0.7748801670004468,reldom2_s014,001,2025-02-13_15h34.28.238,Aud-A-Scan_AC,2022.2.5,None,
0,0.0,None,fixation,stimulus/audwhere_stim/blank_white.png,stimulus/audwhere_stim/blank_white.png,stimulus/audwhat_stim/blank_white.png,stimulus/audwhat_stim/blank_white.png,stimulus/audwhere_stim/blank_white.png,stimulus/audwhere_stim/blank_white.png,stimulus/audwhere_stim/blank_white.png,stimulus/audwhere_stim/blank_white.png,0.0,0.0,0.0,0.0,0,0.0,0,0.0,0,0.0,0,0.0,0,0.0,0.0,0,0,0,0,0,0,0,0,0,0.0,0,0.0,0,0.0,0,0.0,8,,,,,0,61,61,61,,,,,,,,,564.0558775420002,564.0558775420002,564.0558775420002,564.0558775420002,564.0558775420002,564.0558775420002,564.0558775420002,564.0558775420002,563.9569239583333,564.0558775420002,564.0558775420002,564.0558775420002,563.9569239583333,564.0558775420002,564.0558775420002,564.0558775420002,564.0558775420002,564.0558775420002,564.0558775420002,564.0558775420002,564.0558775420002,564.0558775420002,564.0558775420002,564.0558775420002,564.0558775420002,564.0558775420002,564.0558775420002,564.0069239583332,564.0558775420002,564.0558775420002,564.0558775420002,564.0069239583332,564.0558775420002,564.0558775420002,564.0558775420002,564.0558775420002,564.0558775420002,569.266520333,569.266520333,572.229895833,None,0,,reldom2_s014,001,2025-02-13_15h34.28.238,Aud-A-Scan_AC,2022.2.5,None,
47,Second_Order,8.0,audwhat,stimulus/audwhat_stim/string cello_high-pitch_F_loud.wav,stimulus/audwhat_stim/string viola_low-pitch_D_loud.wav,stimulus/audwhat_stim/percussion mallet_low-pitch_Ftri_loud.wav,stimulus/audwhat_stim/percussion xylophone_high-pitch_F_loud.wav,stimulus/audwhere_stim/match_blank.png,stimulus/audwhat_stim/match_box.png,stimulus/audwhere_stim/match_yes.png,stimulus/audwhere_stim/match_no.png,1.0,Match,Category,Category,1,5.125,0,5.125,0,5.125,0,5.125,0,0.75,0.75,0,0,0,0,0,0,0,0,1,0.5,1,2.125,1,0.5,1,2.125,0,,,,,0,62,62,62,,,,,,,,,572.229895833,577.345538708,572.229895833,572.229895833,572.229895833,572.229895833,572.6827716250002,573.6691128330001,572.6967824166668,,574.305328958,575.3032364580001,574.3169779586665,,577.345538708,578.1951040420001,580.2529904999999,,578.1951040420001,578.1951040420001,583.3732452500001,578.1951040420001,578.1951040420001,578.1951040420001,578.1951040420001,578.6494450829998,579.7033309999999,578.6206495416668,,580.2529904999999,581.3118138329999,580.2234636666667,581.2654588329999,578.1951040420001,583.3732452500001,578.1951040420001,583.3732452500001,583.3732452500001,,578.1951040420001,1,1,0.5825206660001641,reldom2_s014,001,2025-02-13_15h34.28.238,Aud-A-Scan_AC,2022.2.5,None,
48,Second_Order,8.0,audwhat,stimulus/audwhat_stim/percussion mallet_high-pitch_Ftri_loud.wav,stimulus/audwhat_stim/percussion mallet_low-pitch_D_loud.wav,stimulus/audwhat_stim/string cello_high-pitch_Ftri_loud.wav,stimulus/audwhat_stim/percussion xylophone_high-pitch_Ftri_loud.wav,stimulus/audwhere_stim/match_blank.png,stimulus/audwhat_stim/match_box.png,stimulus/audwhere_stim/match_yes.png,stimulus/audwhere_stim/match_no.png,2.0,Match,Category,Pitch,2,5.125,0,5.125,0,5.125,0,5.125,0,0.625,0.625,0,0,0,0,0,0,0,0,1,0.5,1,2.125,1,0.5,1,2.125,0,,,,,0,63,63,63,,,,,,,,,584.1761806249999,589.2890087500002,584.1761806249999,584.1761806249999,584.1761806249999,584.1761806249999,584.6281633330002,585.6266845829998,584.6412067496667,,586.2615740419999,587.2498822499999,586.2647969996665,,589.2890087500002,590.0194349169999,592.062015875,596.1197239999999,590.0194349169999,590.0194349169999,595.1683944170002,590.0194349169999,590.0194349169999,590.0194349169999,590.0194349169999,590.470032208,591.516325667,590.4416397916666,,592.062015875,593.1128298750002,592.0330151246667,593.067242375,590.0194349169999,595.1683944170002,590.0194349169999,595.1683944170002,595.2087072920001,595.8909596669998,590.0194349169999,2,1,1.4120833329998277,reldom2_s014,001,2025-02-13_15h34.28.238,Aud-A-Scan_AC,2022.2.5,None,
0,0.0,None,fixation,stimulus/audwhere_stim/blank_white.png,stimulus/audwhere_stim/blank_white.png,stimulus/audwhat_stim/blank_white.png,stimulus/audwhat_stim/blank_white.png,stimulus/audwhere_stim/blank_white.png,stimulus/audwhere_stim/blank_white.png,stimulus/audwhere_stim/blank_white.png,stimulus/audwhere_stim/blank_white.png,0.0,0.0,0.0,0.0,0,0.0,0,0.0,0,0.0,0,0.0,0,0.0,0.0,0,0,0,0,0,0,0,0,0,0.0,0,0.0,0,0.0,0,0.0,16,,,,,0,64,64,64,,,,,,,,,596.1197239999999,596.1197239999999,596.1197239999999,596.1197239999999,596.1197239999999,596.1197239999999,596.1197239999999,596.1197239999999,596.0242930003332,596.1197239999999,596.1197239999999,596.1197239999999,596.0242930003332,596.1197239999999,596.1197239999999,596.1197239999999,596.1197239999999,596.1197239999999,596.1197239999999,596.1197239999999,596.1197239999999,596.1197239999999,596.1197239999999,596.1197239999999,596.1197239999999,596.1197239999999,596.1197239999999,596.0742930003331,596.1197239999999,596.1197239999999,596.1197239999999,596.0742930003331,596.1197239999999,596.1197239999999,596.1197239999999,596.1197239999999,596.1197239999999,601.308763667,601.308763667,612.2482833330002,None,0,,reldom2_s014,001,2025-02-13_15h34.28.238,Aud-A-Scan_AC,2022.2.5,None,
