Trial,Order,Block,Type,Stimuli_File1,Stimuli_File2,Stimuli_File3,Stimuli_File4,Cue_File1,Cue_File2,Response_File_Yes,Response_File_No,Match,Cue_Dimension,Pair1_Dimension,Pair2_Dimension,Key,Cue1_Duration,Cue1_Onset,Cue2_Duration,Cue2_Onset,ResponseYes_Duration,ResponseYes_Onset,ResponseNo_Duration,ResponseNo_Onset,ITI_Within,ITI_Between,Image1_Duration,Image1_Onset,Image2_Duration,Image2_Onset,Image3_Duration,Image3_Onset,Image4_Duration,Image4_Onset,Sound1_Duration,Sound1_Onset,Sound2_Duration,Sound2_Onset,Sound3_Duration,Sound3_Onset,Sound4_Duration,Sound4_Onset,Fixation_Duration,trials_2.thisRepN,trials_2.thisTrialN,trials_2.thisN,trials_2.thisIndex,trials.thisRepN,trials.thisTrialN,trials.thisN,trials.thisIndex,text_start.started,key_resp_start.started,key_resp_start.keys,key_resp_start.rt,text2.started,key_resp_2.started,key_resp_2.keys,key_resp_2.rt,cue_file1.started,cue_file1.stopped,image_1.started,image_1.stopped,image_2.started,image_2.stopped,sound_icon1.started,sound_icon1.stopped,sound_1.started,sound_1.stopped,sound_icon2.started,sound_icon2.stopped,sound_2.started,sound_2.stopped,image_blank_1.started,image_blank_1.stopped,key_press.started,key_press.stopped,fixation_text.started,cue_file2.started,cue_file2.stopped,image_3.started,image_3.stopped,image_4.started,image_4.stopped,sound_icon3.started,sound_icon3.stopped,sound_3.started,sound_3.stopped,sound_icon4.started,sound_icon4.stopped,sound_4.started,sound_4.stopped,response_yes.started,response_yes.stopped,response_no.started,response_no.stopped,iti_blank.started,iti_blank.stopped,fixation_text.stopped,key_press.keys,key_press.corr,key_press.rt,participant,session,date,expName,psychopyVersion,frameRate,
,,,,,,,,,,,,,,,,,,,,,,,,,,,,,,,,,,,,,,,,,,,,,,,,,,,,7.643115040999874,7.643115040999874,2,0.9935015829996701,,,,,,,,,,,,,,,,,,,,,,,,,,,,,,,,,,,,,,,,,,,,,,,,reldom2_s014,001,2025-02-13_15h57.23.697,What-A-Scan_AC,2022.2.5,None,
,,,,,,,,,,,,,,,,,,,,,,,,,,,,,,,,,,,,,,,,,,,,0,0,0,0,,,,,,,,,8.64787541600026,8.64787541600026,5,17.303886583999883,,,,,,,,,,,,,,,,,,,,,,,,,,,,,,,,,,,,,,,,,,,,reldom2_s014,001,2025-02-13_15h57.23.697,What-A-Scan_AC,2022.2.5,None,
,,,,,,,,,,,,,,,,,,,,,,,,,,,,,,,,,,,,,,,,,,,,1,0,1,0,,,,,,,,,25.971572124999966,25.971572124999966,5,1.9813745839996955,,,,,,,,,,,,,,,,,,,,,,,,,,,,,,,,,,,,,,,,,,,,reldom2_s014,001,2025-02-13_15h57.23.697,What-A-Scan_AC,2022.2.5,None,
,,,,,,,,,,,,,,,,,,,,,,,,,,,,,,,,,,,,,,,,,,,,2,0,2,0,,,,,,,,,27.96946379100018,27.96946379100018,5,1.9836497500000405,,,,,,,,,,,,,,,,,,,,,,,,,,,,,,,,,,,,,,,,,,,,reldom2_s014,001,2025-02-13_15h57.23.697,What-A-Scan_AC,2022.2.5,None,
,,,,,,,,,,,,,,,,,,,,,,,,,,,,,,,,,,,,,,,,,,,,3,0,3,0,,,,,,,,,29.963980291000098,29.963980291000098,5,1.988686499999858,,,,,,,,,,,,,,,,,,,,,,,,,,,,,,,,,,,,,,,,,,,,reldom2_s014,001,2025-02-13_15h57.23.697,What-A-Scan_AC,2022.2.5,None,
0,0.0,None,fixation,stimulus/audwhat_stim/blank_white.png,stimulus/audwhat_stim/blank_white.png,stimulus/viswhat_stim/blank_white.png,stimulus/viswhat_stim/blank_white.png,stimulus/audwhat_stim/blank_white.png,stimulus/audwhat_stim/blank_white.png,stimulus/audwhat_stim/blank_white.png,stimulus/audwhat_stim/blank_white.png,0.0,0.0,0.0,0.0,0,0.0,0,0.0,0,0.0,0,0.0,0,0.0,0.0,0,0.0,0,0.0,0,0.0,0,0.0,0,0.0,0,0.0,0,0.0,0,0.0,16,,,,,0,0,0,0,,,,,,,,,32.17141625000022,32.17141625000022,32.17141625000022,32.17141625000022,32.17141625000022,32.17141625000022,32.17141625000022,32.17141625000022,32.07624145766692,32.17141625000022,32.17141625000022,32.17141625000022,32.07624145766692,32.17141625000022,32.17141625000022,32.17141625000022,32.17141625000022,32.17141625000022,32.17141625000022,32.17141625000022,32.17141625000022,32.17141625000022,32.17141625000022,32.17141625000022,32.17141625000022,32.17141625000022,32.17141625000022,32.126241457666914,32.17141625000022,32.17141625000022,32.17141625000022,32.126241457666914,32.17141625000022,32.17141625000022,32.17141625000022,32.17141625000022,32.17141625000022,37.349512958000105,37.349512958000105,48.385709915999996,None,0,,reldom2_s014,001,2025-02-13_15h57.23.697,What-A-Scan_AC,2022.2.5,None,
1,First_Order,1.0,audwhat,stimulus/audwhat_stim/dummy.wav,stimulus/audwhat_stim/dummy.wav,stimulus/audwhat_stim/percussion mallet_low-pitch_Dtri_loud.wav,stimulus/audwhat_stim/percussion xylophone_high-pitch_F_loud.wav,stimulus/audwhat_stim/blank_white.png,stimulus/audwhat_stim/pitch_box.png,stimulus/audwhat_stim/pitch_yes.png,stimulus/audwhat_stim/pitch_no.png,None,Pitch,None,Category,2,0.0,0,5.125,0,5.125,0,5.125,0,0.0,0.625,0,0.0,0,0.0,0,0.0,0,0.0,0,0.0,0,0.0,1,0.5,1,2.125,0,,,,,0,1,1,1,,,,,,,,,48.385709915999996,48.385709915999996,48.385709915999996,48.385709915999996,48.385709915999996,48.385709915999996,48.385709915999996,48.385709915999996,48.3162617500001,48.385709915999996,48.385709915999996,48.385709915999996,48.3162617500001,48.385709915999996,48.385709915999996,48.385709915999996,50.49852220799994,54.51065604099995,48.385709915999996,48.385709915999996,53.55000429100028,48.385709915999996,48.385709915999996,48.385709915999996,48.385709915999996,48.83552204099988,49.86813725000002,48.80703124966682,,50.49852220799994,51.5328896660003,50.470012249666766,51.5328896660003,48.385709915999996,53.55000429100028,48.385709915999996,53.55000429100028,53.589564082999914,54.263138583,48.385709915999996,2,1,2.3676701249996768,reldom2_s014,001,2025-02-13_15h57.23.697,What-A-Scan_AC,2022.2.5,None,
2,First_Order,1.0,audwhat,stimulus/audwhat_stim/dummy.wav,stimulus/audwhat_stim/dummy.wav,stimulus/audwhat_stim/percussion xylophone_high-pitch_Dtri_loud.wav,stimulus/audwhat_stim/percussion mallet_low-pitch_D_loud.wav,stimulus/audwhat_stim/blank_white.png,stimulus/audwhat_stim/pitch_box.png,stimulus/audwhat_stim/pitch_yes.png,stimulus/audwhat_stim/pitch_no.png,None,Pitch,None,Category,2,0.0,0,5.125,0,5.125,0,5.125,0,0.0,0.625,0,0.0,0,0.0,0,0.0,0,0.0,0,0.0,0,0.0,1,0.5,1,2.125,0,,,,,0,2,2,2,,,,,,,,,54.51065604099995,54.51065604099995,54.51065604099995,54.51065604099995,54.51065604099995,54.51065604099995,54.51065604099995,54.51065604099995,54.435767083333424,54.51065604099995,54.51065604099995,54.51065604099995,54.435767083333424,54.51065604099995,54.51065604099995,54.51065604099995,56.58838191599989,60.6291107080001,54.51065604099995,54.51065604099995,59.66368241600003,54.51065604099995,54.51065604099995,54.51065604099995,54.51065604099995,54.9599195830001,56.00007758299989,54.93107770766689,56.00007758299989,56.58838191599989,57.63125441600005,56.55935566666655,,54.51065604099995,59.66368241600003,54.51065604099995,59.66368241600003,59.703204541000105,60.379916458000025,54.51065604099995,2,1,0.7571803749997343,reldom2_s014,001,2025-02-13_15h57.23.697,What-A-Scan_AC,2022.2.5,None,
3,First_Order,1.0,audwhat,stimulus/audwhat_stim/dummy.wav,stimulus/audwhat_stim/dummy.wav,stimulus/audwhat_stim/percussion mallet_low-pitch_F_loud.wav,stimulus/audwhat_stim/percussion xylophone_high-pitch_Ftri_loud.wav,stimulus/audwhat_stim/blank_white.png,stimulus/audwhat_stim/category_box.png,stimulus/audwhat_stim/category_yes.png,stimulus/audwhat_stim/category_no.png,None,Category,None,Category,1,0.0,0,5.125,0,5.125,0,5.125,0,0.0,0.625,0,0.0,0,0.0,0,0.0,0,0.0,0,0.0,0,0.0,1,0.5,1,2.125,0,,,,,0,3,3,3,,,,,,,,,60.6291107080001,60.6291107080001,60.6291107080001,60.6291107080001,60.6291107080001,60.6291107080001,60.6291107080001,60.6291107080001,60.5528422493336,60.6291107080001,60.6291107080001,60.6291107080001,60.5528422493336,60.6291107080001,60.6291107080001,60.6291107080001,62.7258790410001,,60.6291107080001,60.6291107080001,65.78772100000015,60.6291107080001,60.6291107080001,60.6291107080001,60.6291107080001,61.08459766600026,62.133294791000026,61.05538666666668,,62.7258790410001,63.78130800000008,62.69673629166688,63.735147000000325,60.6291107080001,65.78772100000015,60.6291107080001,65.78772100000015,65.82820500000025,66.51274575000025,60.6291107080001,1,1,0.7508099589999802,reldom2_s014,001,2025-02-13_15h57.23.697,What-A-Scan_AC,2022.2.5,None,
4,First_Order,1.0,audwhat,stimulus/audwhat_stim/dummy.wav,stimulus/audwhat_stim/dummy.wav,stimulus/audwhat_stim/percussion mallet_low-pitch_Dtri_loud.wav,stimulus/audwhat_stim/percussion mallet_high-pitch_F_loud.wav,stimulus/audwhat_stim/blank_white.png,stimulus/audwhat_stim/category_box.png,stimulus/audwhat_stim/category_yes.png,stimulus/audwhat_stim/category_no.png,None,Category,None,Category,1,0.0,0,5.125,0,5.125,0,5.125,0,0.0,0.625,0,0.0,0,0.0,0,0.0,0,0.0,0,0.0,0,0.0,1,0.5,1,2.125,0,,,,,0,4,4,4,,,,,,,,,66.72169945799988,66.72169945799988,66.72169945799988,66.72169945799988,66.72169945799988,66.72169945799988,66.72169945799988,66.72169945799988,66.64607908333357,66.72169945799988,66.72169945799988,66.72169945799988,66.64607908333357,66.72169945799988,66.72169945799988,66.72169945799988,68.8248295000003,,66.72169945799988,66.72169945799988,71.89046829100016,66.72169945799988,66.72169945799988,66.72169945799988,66.72169945799988,67.17750999999998,68.22929666600021,67.1482485416666,,68.8248295000003,69.88124704100028,68.79512591666686,,66.72169945799988,71.89046829100016,66.72169945799988,71.89046829100016,71.93033204099993,72.61561445799998,66.72169945799988,1,1,0.7531607500000064,reldom2_s014,001,2025-02-13_15h57.23.697,What-A-Scan_AC,2022.2.5,None,
0,0.0,None,fixation,stimulus/audwhat_stim/blank_white.png,stimulus/audwhat_stim/blank_white.png,stimulus/viswhat_stim/blank_white.png,stimulus/viswhat_stim/blank_white.png,stimulus/audwhat_stim/blank_white.png,stimulus/audwhat_stim/blank_white.png,stimulus/audwhat_stim/blank_white.png,stimulus/audwhat_stim/blank_white.png,0.0,0.0,0.0,0.0,0,0.0,0,0.0,0,0.0,0,0.0,0,0.0,0.0,0,0.0,0,0.0,0,0.0,0,0.0,0,0.0,0,0.0,0,0.0,0,0.0,10,,,,,0,5,5,5,,,,,,,,,72.84540783300008,72.84540783300008,72.84540783300008,72.84540783300008,72.84540783300008,72.84540783300008,72.84540783300008,72.84540783300008,72.74894779133331,72.84540783300008,72.84540783300008,72.84540783300008,72.74894779133331,72.84540783300008,72.84540783300008,72.84540783300008,72.84540783300008,72.84540783300008,72.84540783300008,72.84540783300008,72.84540783300008,72.84540783300008,72.84540783300008,72.84540783300008,72.84540783300008,72.84540783300008,72.84540783300008,72.79894779133332,72.84540783300008,72.84540783300008,72.84540783300008,72.79894779133332,72.84540783300008,72.84540783300008,72.84540783300008,72.84540783300008,72.84540783300008,78.04641337500016,78.04641337500016,82.98026800000025,None,0,,reldom2_s014,001,2025-02-13_15h57.23.697,What-A-Scan_AC,2022.2.5,None,
5,Second_Order,1.0,audwhat,stimulus/audwhat_stim/string cello_low-pitch_D_loud.wav,stimulus/audwhat_stim/string viola_high-pitch_Dtri_loud.wav,stimulus/audwhat_stim/percussion mallet_low-pitch_D_loud.wav,stimulus/audwhat_stim/string viola_low-pitch_D_loud.wav,stimulus/audwhat_stim/match_blank.png,stimulus/audwhat_stim/match_box.png,stimulus/audwhat_stim/match_yes.png,stimulus/audwhat_stim/match_no.png,2.0,Match,Category,Pitch,2,5.125,0,5.125,0,5.125,0,5.125,0,0.75,0.75,0,0.0,0,0.0,0,0.0,0,0.0,1,0.5,1,2.125,1,0.5,1,2.125,0,,,,,0,6,6,6,,,,,,,,,82.98026800000025,88.09469829099999,82.98026800000025,82.98026800000025,82.98026800000025,82.98026800000025,83.43052204100013,84.41767200000004,83.44482104166697,,85.0523404999999,86.05109725000011,85.06518004166698,,88.09469829099999,88.94378937500005,90.98998358300014,94.93208316600021,88.94378937500005,88.94378937500005,94.13418929099998,88.94378937500005,88.94378937500005,88.94378937500005,88.94378937500005,89.39563833300008,90.44363708299989,89.36650804166699,,90.98998358300014,92.04163295800026,90.96069349966662,,88.94378937500005,94.13418929099998,88.94378937500005,94.13418929099998,94.13418929099998,,88.94378937500005,2,1,0.6296418749998338,reldom2_s014,001,2025-02-13_15h57.23.697,What-A-Scan_AC,2022.2.5,None,
6,Second_Order,1.0,audwhat,stimulus/audwhat_stim/string cello_high-pitch_Dtri_loud.wav,stimulus/audwhat_stim/percussion mallet_high-pitch_Dtri_loud.wav,stimulus/audwhat_stim/percussion mallet_low-pitch_Ftri_loud.wav,stimulus/audwhat_stim/string cello_low-pitch_Ftri_loud.wav,stimulus/audwhat_stim/match_blank.png,stimulus/audwhat_stim/match_box.png,stimulus/audwhat_stim/match_yes.png,stimulus/audwhat_stim/match_no.png,1.0,Match,Pitch,Pitch,1,5.125,0,5.125,0,5.125,0,5.125,0,0.625,0.625,0,0.0,0,0.0,0,0.0,0,0.0,1,0.5,1,2.125,1,0.5,1,2.125,0,,,,,0,7,7,7,,,,,,,,,94.93208316600021,100.05486266600019,94.93208316600021,94.93208316600021,94.93208316600021,94.93208316600021,95.39318741600027,96.39176833300007,95.40608208266691,,97.01388241599989,98.01220341599992,97.02655824966656,,100.05486266600019,100.78529641600016,102.85501408300024,106.8861239580001,100.78529641600016,100.78529641600016,105.93884254100021,100.78529641600016,100.78529641600016,100.78529641600016,100.78529641600016,101.23300479099998,102.26737966600012,101.20484966666687,,102.85501408300024,103.89771275000021,102.82601279166671,,100.78529641600016,105.93884254100021,100.78529641600016,105.93884254100021,105.9802084580001,106.65800725000008,100.78529641600016,1,1,1.0737587079997866,reldom2_s014,001,2025-02-13_15h57.23.697,What-A-Scan_AC,2022.2.5,None,
0,0.0,None,fixation,stimulus/audwhat_stim/blank_white.png,stimulus/audwhat_stim/blank_white.png,stimulus/viswhat_stim/blank_white.png,stimulus/viswhat_stim/blank_white.png,stimulus/audwhat_stim/blank_white.png,stimulus/audwhat_stim/blank_white.png,stimulus/audwhat_stim/blank_white.png,stimulus/audwhat_stim/blank_white.png,0.0,0.0,0.0,0.0,0,0.0,0,0.0,0,0.0,0,0.0,0,0.0,0.0,0,0.0,0,0.0,0,0.0,0,0.0,0,0.0,0,0.0,0,0.0,0,0.0,9,,,,,0,8,8,8,,,,,,,,,106.8861239580001,106.8861239580001,106.8861239580001,106.8861239580001,106.8861239580001,106.8861239580001,106.8861239580001,106.8861239580001,106.79134058333341,106.8861239580001,106.8861239580001,106.8861239580001,106.79134058333341,106.8861239580001,106.8861239580001,106.8861239580001,106.8861239580001,106.8861239580001,106.8861239580001,106.8861239580001,106.8861239580001,106.8861239580001,106.8861239580001,106.8861239580001,106.8861239580001,106.8861239580001,106.8861239580001,106.84134058333342,106.8861239580001,106.8861239580001,106.8861239580001,106.84134058333342,106.8861239580001,106.8861239580001,106.8861239580001,106.8861239580001,106.8861239580001,112.11740587500026,112.11740587500026,116.12473129099999,None,0,,reldom2_s014,001,2025-02-13_15h57.23.697,What-A-Scan_AC,2022.2.5,None,
7,First_Order,2.0,audwhat,stimulus/audwhat_stim/dummy.wav,stimulus/audwhat_stim/dummy.wav,stimulus/audwhat_stim/string cello_low-pitch_F_loud.wav,stimulus/audwhat_stim/percussion mallet_low-pitch_F_loud.wav,stimulus/audwhat_stim/blank_white.png,stimulus/audwhat_stim/pitch_box.png,stimulus/audwhat_stim/pitch_yes.png,stimulus/audwhat_stim/pitch_no.png,None,Pitch,None,Pitch,1,0.0,0,5.125,0,5.125,0,5.125,0,0.0,0.625,0,0.0,0,0.0,0,0.0,0,0.0,0,0.0,0,0.0,1,0.5,1,2.125,0,,,,,0,9,9,9,,,,,,,,,116.12473129099999,116.12473129099999,116.12473129099999,116.12473129099999,116.12473129099999,116.12473129099999,116.12473129099999,116.12473129099999,116.05581024966675,116.12473129099999,116.12473129099999,116.12473129099999,116.05581024966675,116.12473129099999,116.12473129099999,116.12473129099999,118.23040466600014,122.23939070799997,116.12473129099999,116.12473129099999,121.29857625000022,116.12473129099999,116.12473129099999,116.12473129099999,116.12473129099999,116.58281020799996,117.6341472500003,116.5532761246666,,118.23040466600014,119.28560229100003,118.20102866666663,,116.12473129099999,121.29857625000022,116.12473129099999,121.29857625000022,121.33904237500019,122.02793579099989,116.12473129099999,1,1,0.9093492079996395,reldom2_s014,001,2025-02-13_15h57.23.697,What-A-Scan_AC,2022.2.5,None,
8,First_Order,2.0,audwhat,stimulus/audwhat_stim/dummy.wav,stimulus/audwhat_stim/dummy.wav,stimulus/audwhat_stim/string cello_low-pitch_Dtri_loud.wav,stimulus/audwhat_stim/percussion mallet_low-pitch_Dtri_loud.wav,stimulus/audwhat_stim/blank_white.png,stimulus/audwhat_stim/category_box.png,stimulus/audwhat_stim/category_yes.png,stimulus/audwhat_stim/category_no.png,None,Category,None,Pitch,2,0.0,0,5.125,0,5.125,0,5.125,0,0.0,0.625,0,0.0,0,0.0,0,0.0,0,0.0,0,0.0,0,0.0,1,0.5,1,2.125,0,,,,,0,10,10,10,,,,,,,,,122.23939070799997,122.23939070799997,122.23939070799997,122.23939070799997,122.23939070799997,122.23939070799997,122.23939070799997,122.23939070799997,122.16126912433322,122.23939070799997,122.23939070799997,122.23939070799997,122.16126912433322,122.23939070799997,122.23939070799997,122.23939070799997,124.3178532500001,128.35584470799995,122.23939070799997,122.23939070799997,127.41121812500023,122.23939070799997,122.23939070799997,122.23939070799997,122.23939070799997,122.70167375000028,123.76338241600024,122.67177170766696,,124.3178532500001,125.38456879100022,124.28842495766663,,122.23939070799997,127.41121812500023,122.23939070799997,127.41121812500023,127.45211879099998,128.10356804100002,122.23939070799997,2,1,0.5627519159997973,reldom2_s014,001,2025-02-13_15h57.23.697,What-A-Scan_AC,2022.2.5,None,
9,First_Order,2.0,audwhat,stimulus/audwhat_stim/dummy.wav,stimulus/audwhat_stim/dummy.wav,stimulus/audwhat_stim/string cello_high-pitch_F_loud.wav,stimulus/audwhat_stim/percussion mallet_high-pitch_F_loud.wav,stimulus/audwhat_stim/blank_white.png,stimulus/audwhat_stim/pitch_box.png,stimulus/audwhat_stim/pitch_yes.png,stimulus/audwhat_stim/pitch_no.png,None,Pitch,None,Pitch,1,0.0,0,5.125,0,5.125,0,5.125,0,0.0,0.625,0,0.0,0,0.0,0,0.0,0,0.0,0,0.0,0,0.0,1,0.5,1,2.125,0,,,,,0,11,11,11,,,,,,,,,128.35584470799995,128.35584470799995,128.35584470799995,128.35584470799995,128.35584470799995,128.35584470799995,128.35584470799995,128.35584470799995,128.27742770833325,128.35584470799995,128.35584470799995,128.35584470799995,128.27742770833325,128.35584470799995,128.35584470799995,128.35584470799995,130.42956070800028,,128.35584470799995,128.35584470799995,133.5204941249999,128.35584470799995,128.35584470799995,128.35584470799995,128.35584470799995,128.81684375000032,129.87498633299992,128.787446707667,,130.42956070800028,131.4941301660001,130.39976091666657,,128.35584470799995,133.5204941249999,128.35584470799995,133.5204941249999,133.56108291600003,134.2087365000002,128.35584470799995,1,1,0.660365499999898,reldom2_s014,001,2025-02-13_15h57.23.697,What-A-Scan_AC,2022.2.5,None,
10,First_Order,2.0,audwhat,stimulus/audwhat_stim/dummy.wav,stimulus/audwhat_stim/dummy.wav,stimulus/audwhat_stim/percussion xylophone_high-pitch_D_loud.wav,stimulus/audwhat_stim/string cello_high-pitch_D_loud.wav,stimulus/audwhat_stim/blank_white.png,stimulus/audwhat_stim/category_box.png,stimulus/audwhat_stim/category_yes.png,stimulus/audwhat_stim/category_no.png,None,Category,None,Pitch,2,0.0,0,5.125,0,5.125,0,5.125,0,0.0,0.625,0,0.0,0,0.0,0,0.0,0,0.0,0,0.0,0,0.0,1,0.5,1,2.125,0,,,,,0,12,12,12,,,,,,,,,134.46144379099997,134.46144379099997,134.46144379099997,134.46144379099997,134.46144379099997,134.46144379099997,134.46144379099997,134.46144379099997,134.3821768743334,134.46144379099997,134.46144379099997,134.46144379099997,134.3821768743334,134.46144379099997,134.46144379099997,134.46144379099997,136.55045225000003,,134.46144379099997,134.46144379099997,139.6099599160002,134.46144379099997,134.46144379099997,134.46144379099997,134.46144379099997,134.92425595800023,135.992618708,134.8946579166666,135.94479041600016,136.55045225000003,137.61954845800028,136.52029104166675,,134.46144379099997,139.6099599160002,134.46144379099997,139.6099599160002,139.69136495800012,140.34435929100027,134.46144379099997,2,1,0.7131047909997505,reldom2_s014,001,2025-02-13_15h57.23.697,What-A-Scan_AC,2022.2.5,None,
0,0.0,None,fixation,stimulus/audwhat_stim/blank_white.png,stimulus/audwhat_stim/blank_white.png,stimulus/viswhat_stim/blank_white.png,stimulus/viswhat_stim/blank_white.png,stimulus/audwhat_stim/blank_white.png,stimulus/audwhat_stim/blank_white.png,stimulus/audwhat_stim/blank_white.png,stimulus/audwhat_stim/blank_white.png,0.0,0.0,0.0,0.0,0,0.0,0,0.0,0,0.0,0,0.0,0,0.0,0.0,0,0.0,0,0.0,0,0.0,0,0.0,0,0.0,0,0.0,0,0.0,0,0.0,10,,,,,0,13,13,13,,,,,,,,,140.5753987500002,140.5753987500002,140.5753987500002,140.5753987500002,140.5753987500002,140.5753987500002,140.5753987500002,140.5753987500002,140.47769262433363,140.5753987500002,140.5753987500002,140.5753987500002,140.47769262433363,140.5753987500002,140.5753987500002,140.5753987500002,140.5753987500002,140.5753987500002,140.5753987500002,140.5753987500002,140.5753987500002,140.5753987500002,140.5753987500002,140.5753987500002,140.5753987500002,140.5753987500002,140.5753987500002,140.5276926243336,140.5753987500002,140.5753987500002,140.5753987500002,140.5276926243336,140.5753987500002,140.5753987500002,140.5753987500002,140.5753987500002,140.5753987500002,145.7804053750001,145.7804053750001,150.71809795800027,None,0,,reldom2_s014,001,2025-02-13_15h57.23.697,What-A-Scan_AC,2022.2.5,None,
11,Second_Order,2.0,audwhat,stimulus/audwhat_stim/string viola_high-pitch_D_loud.wav,stimulus/audwhat_stim/percussion xylophone_high-pitch_D_loud.wav,stimulus/audwhat_stim/percussion mallet_low-pitch_F_loud.wav,stimulus/audwhat_stim/string viola_low-pitch_F_loud.wav,stimulus/audwhat_stim/match_blank.png,stimulus/audwhat_stim/match_box.png,stimulus/audwhat_stim/match_yes.png,stimulus/audwhat_stim/match_no.png,1.0,Match,Pitch,Pitch,1,5.125,0,5.125,0,5.125,0,5.125,0,0.75,0.75,0,0.0,0,0.0,0,0.0,0,0.0,1,0.5,1,2.125,1,0.5,1,2.125,0,,,,,0,14,14,14,,,,,,,,,150.71809795800027,155.83288200000015,150.71809795800027,150.71809795800027,150.71809795800027,150.71809795800027,151.17264475000002,152.17065579100017,151.1847096666668,,152.79358037500015,153.79102654100006,152.80529174966685,153.79446700000017,155.83288200000015,156.68185141599997,158.7422381250003,,156.68185141599997,156.68185141599997,161.85533495800018,156.68185141599997,156.68185141599997,156.68185141599997,156.68185141599997,157.13606824999988,158.1919216250003,157.10700120766685,,158.7422381250003,159.7976549580003,158.71266199966684,,156.68185141599997,161.85533495800018,156.68185141599997,161.85533495800018,161.85533495800018,,156.68185141599997,1,1,0.854298665999977,reldom2_s014,001,2025-02-13_15h57.23.697,What-A-Scan_AC,2022.2.5,None,
12,Second_Order,2.0,audwhat,stimulus/audwhat_stim/percussion mallet_high-pitch_Dtri_loud.wav,stimulus/audwhat_stim/string viola_high-pitch_Dtri_loud.wav,stimulus/audwhat_stim/string viola_low-pitch_Dtri_loud.wav,stimulus/audwhat_stim/percussion mallet_low-pitch_Dtri_loud.wav,stimulus/audwhat_stim/match_blank.png,stimulus/audwhat_stim/match_box.png,stimulus/audwhat_stim/match_yes.png,stimulus/audwhat_stim/match_no.png,1.0,Match,Pitch,Pitch,1,5.125,0,5.125,0,5.125,0,5.125,0,0.625,0.625,0,0.0,0,0.0,0,0.0,0,0.0,1,0.5,1,2.125,1,0.5,1,2.125,0,,,,,0,15,15,15,,,,,,,,,162.65572220800004,167.77780620800013,162.65572220800004,162.65572220800004,162.65572220800004,162.65572220800004,163.11520795800016,164.10171704100003,163.12883783266696,,164.73738037500016,165.73510925000028,164.74962199966674,,167.77780620800013,168.50968254100007,170.55359545800002,174.6123775000001,168.50968254100007,168.50968254100007,173.70153166599994,168.50968254100007,168.50968254100007,168.50968254100007,168.50968254100007,168.95994841600032,170.00641329100017,168.9315344576669,,170.55359545800002,171.6038100410001,170.5243575416669,,168.50968254100007,173.70153166599994,168.50968254100007,173.70153166599994,173.70153166599994,174.3830065000002,168.50968254100007,1,1,0.42394216599950596,reldom2_s014,001,2025-02-13_15h57.23.697,What-A-Scan_AC,2022.2.5,None,
0,0.0,None,fixation,stimulus/audwhat_stim/blank_white.png,stimulus/audwhat_stim/blank_white.png,stimulus/viswhat_stim/blank_white.png,stimulus/viswhat_stim/blank_white.png,stimulus/audwhat_stim/blank_white.png,stimulus/audwhat_stim/blank_white.png,stimulus/audwhat_stim/blank_white.png,stimulus/audwhat_stim/blank_white.png,0.0,0.0,0.0,0.0,0,0.0,0,0.0,0,0.0,0,0.0,0,0.0,0.0,0,0.0,0,0.0,0,0.0,0,0.0,0,0.0,0,0.0,0,0.0,0,0.0,8,,,,,0,16,16,16,,,,,,,,,174.6123775000001,174.6123775000001,174.6123775000001,174.6123775000001,174.6123775000001,174.6123775000001,174.6123775000001,174.6123775000001,174.51633983333355,174.6123775000001,174.6123775000001,174.6123775000001,174.51633983333355,174.6123775000001,174.6123775000001,174.6123775000001,174.6123775000001,174.6123775000001,174.6123775000001,174.6123775000001,174.6123775000001,174.6123775000001,174.6123775000001,174.6123775000001,174.6123775000001,174.6123775000001,174.6123775000001,174.56633983333353,174.6123775000001,174.6123775000001,174.6123775000001,174.56633983333353,174.6123775000001,174.6123775000001,174.6123775000001,174.6123775000001,174.6123775000001,179.8147658329999,179.8147658329999,182.9733083330002,None,0,,reldom2_s014,001,2025-02-13_15h57.23.697,What-A-Scan_AC,2022.2.5,None,
13,First_Order,3.0,viswhat,stimulus/viswhat_stim/blank_white.png,stimulus/viswhat_stim/blank_white.png,stimulus/viswhat_stim/water_vehicle-cruiseship.png,stimulus/viswhat_stim/land_vehicle-pickuptruck.png,stimulus/viswhat_stim/blank_white.png,stimulus/viswhat_stim/type_box.png,stimulus/viswhat_stim/type_yes.png,stimulus/viswhat_stim/type_no.png,None,Type,None,Type,1,0.0,0,5.125,0,5.125,0,5.125,0,0.0,0.625,0,0.0,0,0.0,1,0.5,1,2.125,0,0.0,0,0.0,0,0.0,0,0.0,0,,,,,0,17,17,17,,,,,,,,,182.9733083330002,182.9733083330002,182.9733083330002,182.9733083330002,182.9733083330002,182.9733083330002,182.9733083330002,182.9733083330002,182.77989354166692,182.9733083330002,182.9733083330002,182.9733083330002,182.77989354166692,182.9733083330002,182.9733083330002,182.9733083330002,185.00639837500012,,182.9733083330002,182.9733083330002,188.19339604100014,183.36150654099993,184.5233779580003,185.00639837500012,186.16857299999992,182.9733083330002,182.9733083330002,182.87989354166692,182.9733083330002,182.9733083330002,182.9733083330002,182.87989354166692,182.9733083330002,182.9733083330002,188.19339604100014,182.9733083330002,188.19339604100014,188.10205316600013,189.41440391600008,182.9733083330002,1,1,0.5866924590000053,reldom2_s014,001,2025-02-13_15h57.23.697,What-A-Scan_AC,2022.2.5,None,
14,First_Order,3.0,viswhat,stimulus/viswhat_stim/blank_white.png,stimulus/viswhat_stim/blank_white.png,stimulus/viswhat_stim/water_animal-lobster.png,stimulus/viswhat_stim/water_vehicle-cruiseship.png,stimulus/viswhat_stim/blank_white.png,stimulus/viswhat_stim/location_box.png,stimulus/viswhat_stim/location_yes.png,stimulus/viswhat_stim/location_no.png,None,Location,None,Location,1,0.0,0,5.125,0,5.125,0,5.125,0,0.0,0.625,0,0.0,0,0.0,1,0.5,1,2.125,0,0.0,0,0.0,0,0.0,0,0.0,0,,,,,0,18,18,18,,,,,,,,,189.41440391600008,189.41440391600008,189.41440391600008,189.41440391600008,189.41440391600008,189.41440391600008,189.41440391600008,189.41440391600008,188.97240687433327,189.41440391600008,189.41440391600008,189.41440391600008,188.97240687433327,189.41440391600008,189.41440391600008,189.41440391600008,191.40415650000023,,189.41440391600008,189.41440391600008,194.9344235409999,189.85594504100027,191.1829318330001,191.40415650000023,192.7313240000003,189.41440391600008,189.41440391600008,189.18907354099994,189.41440391600008,189.41440391600008,189.41440391600008,189.18907354099994,189.41440391600008,189.41440391600008,194.9344235409999,189.41440391600008,194.9344235409999,194.49899020800012,,189.41440391600008,1,1,1.0486933339998359,reldom2_s014,001,2025-02-13_15h57.23.697,What-A-Scan_AC,2022.2.5,None,
15,First_Order,3.0,viswhat,stimulus/viswhat_stim/blank_white.png,stimulus/viswhat_stim/blank_white.png,stimulus/viswhat_stim/water_vehicle-cruiseship.png,stimulus/viswhat_stim/land_vehicle-bus.png,stimulus/viswhat_stim/blank_white.png,stimulus/viswhat_stim/location_box.png,stimulus/viswhat_stim/location_yes.png,stimulus/viswhat_stim/location_no.png,None,Location,None,Type,2,0.0,0,5.125,0,5.125,0,5.125,0,0.0,0.625,0,0.0,0,0.0,1,0.5,1,2.125,0,0.0,0,0.0,0,0.0,0,0.0,0,,,,,0,19,19,19,,,,,,,,,195.6128117080002,195.6128117080002,195.6128117080002,195.6128117080002,195.6128117080002,195.6128117080002,195.6128117080002,195.6128117080002,195.41775687433324,195.6128117080002,195.6128117080002,195.6128117080002,195.41775687433324,195.6128117080002,195.6128117080002,195.6128117080002,197.63839566600018,,195.6128117080002,195.6128117080002,200.876153833,196.0193773330002,197.13243554100018,197.63839566600018,198.754431458,195.6128117080002,195.6128117080002,195.51775687433323,195.6128117080002,195.6128117080002,195.6128117080002,195.51775687433323,195.6128117080002,195.6128117080002,200.876153833,195.6128117080002,200.876153833,200.78109108300032,,195.6128117080002,2,1,1.148165374999735,reldom2_s014,001,2025-02-13_15h57.23.697,What-A-Scan_AC,2022.2.5,None,
16,First_Order,3.0,viswhat,stimulus/viswhat_stim/blank_white.png,stimulus/viswhat_stim/blank_white.png,stimulus/viswhat_stim/land_vehicle-oldcar.png,stimulus/viswhat_stim/water_vehicle-pirateship.png,stimulus/viswhat_stim/blank_white.png,stimulus/viswhat_stim/type_box.png,stimulus/viswhat_stim/type_yes.png,stimulus/viswhat_stim/type_no.png,None,Type,None,Type,1,0.0,0,5.125,0,5.125,0,5.125,0,0.0,0.625,0,0.0,0,0.0,1,0.5,1,2.125,0,0.0,0,0.0,0,0.0,0,0.0,0,,,,,0,20,20,20,,,,,,,,,201.66992658300023,201.66992658300023,201.66992658300023,201.66992658300023,201.66992658300023,201.66992658300023,201.66992658300023,201.66992658300023,201.60268879100022,201.66992658300023,201.66992658300023,201.66992658300023,201.60268879100022,201.66992658300023,201.66992658300023,201.66992658300023,203.77076050000005,,201.66992658300023,201.66992658300023,206.85513191600012,202.14186087500002,203.17159445800007,203.77076050000005,204.79867445800028,201.66992658300023,201.66992658300023,201.63602212433358,201.66992658300023,201.66992658300023,201.66992658300023,201.63602212433358,201.66992658300023,201.66992658300023,206.85513191600012,201.66992658300023,206.85513191600012,206.89267425000025,207.56701229100008,201.66992658300023,1,1,1.2325127089998205,reldom2_s014,001,2025-02-13_15h57.23.697,What-A-Scan_AC,2022.2.5,None,
0,0.0,None,fixation,stimulus/audwhat_stim/blank_white.png,stimulus/audwhat_stim/blank_white.png,stimulus/viswhat_stim/blank_white.png,stimulus/viswhat_stim/blank_white.png,stimulus/audwhat_stim/blank_white.png,stimulus/audwhat_stim/blank_white.png,stimulus/audwhat_stim/blank_white.png,stimulus/audwhat_stim/blank_white.png,0.0,0.0,0.0,0.0,0,0.0,0,0.0,0,0.0,0,0.0,0,0.0,0.0,0,0.0,0,0.0,0,0.0,0,0.0,0,0.0,0,0.0,0,0.0,0,0.0,9,,,,,0,21,21,21,,,,,,,,,207.79608054100026,207.79608054100026,207.79608054100026,207.79608054100026,207.79608054100026,207.79608054100026,207.79608054100026,207.79608054100026,207.70034562433344,207.79608054100026,207.79608054100026,207.79608054100026,207.70034562433344,207.79608054100026,207.79608054100026,207.79608054100026,207.79608054100026,207.79608054100026,207.79608054100026,207.79608054100026,207.79608054100026,207.79608054100026,207.79608054100026,207.79608054100026,207.79608054100026,207.79608054100026,207.79608054100026,207.75034562433342,207.79608054100026,207.79608054100026,207.79608054100026,207.75034562433342,207.79608054100026,207.79608054100026,207.79608054100026,207.79608054100026,207.79608054100026,213.00978208300012,213.00978208300012,216.92147875,None,0,,reldom2_s014,001,2025-02-13_15h57.23.697,What-A-Scan_AC,2022.2.5,None,
17,Second_Order,3.0,viswhat,stimulus/viswhat_stim/water_animal-shark.png,stimulus/viswhat_stim/water_vehicle-pirateship.png,stimulus/viswhat_stim/water_animal-squid.png,stimulus/viswhat_stim/land_animal-elephant.png,stimulus/audwhat_stim/match_blank.png,stimulus/audwhat_stim/match_box.png,stimulus/audwhat_stim/match_yes.png,stimulus/audwhat_stim/match_no.png,2.0,Match,Location,Type,2,5.125,0,5.125,0,5.125,0,5.125,0,0.75,0.75,1,0.5,1,2.125,1,0.5,1,2.125,0,0.0,0,0.0,0,0.0,0,0.0,0,,,,,0,22,22,22,,,,,,,,,216.92147875,222.0366548750003,217.3750102910003,218.37355712499993,219.0086072500003,219.9984397080002,216.92147875,216.92147875,216.93399895800022,216.92147875,216.92147875,216.92147875,216.93399895800022,216.92147875,222.0366548750003,222.92443487500032,224.9897196249999,,222.92443487500032,222.92443487500032,228.12595891599995,223.32308220799996,224.390187041,224.9897196249999,226.06252487500024,222.92443487500032,222.92443487500032,222.87000725000019,222.92443487500032,222.92443487500032,222.92443487500032,222.87000725000019,222.92443487500032,222.92443487500032,228.12595891599995,222.92443487500032,228.12595891599995,228.12595891599995,,222.92443487500032,2,1,1.0044479999996838,reldom2_s014,001,2025-02-13_15h57.23.697,What-A-Scan_AC,2022.2.5,None,
18,Second_Order,3.0,viswhat,stimulus/viswhat_stim/land_vehicle-pickuptruck.png,stimulus/viswhat_stim/water_vehicle-pirateship.png,stimulus/viswhat_stim/water_animal-jellyfish.png,stimulus/viswhat_stim/land_animal-snake.png,stimulus/audwhat_stim/match_blank.png,stimulus/audwhat_stim/match_box.png,stimulus/audwhat_stim/match_yes.png,stimulus/audwhat_stim/match_no.png,1.0,Match,Type,Type,1,5.125,0,5.125,0,5.125,0,5.125,0,0.625,0.625,1,0.5,1,2.125,1,0.5,1,2.125,0,0.0,0,0.0,0,0.0,0,0.0,0,,,,,0,23,23,23,,,,,,,,,228.87445375000016,233.99792879100005,229.35276599999997,230.35129883299987,230.9730614580003,231.9718982080003,228.87445375000016,228.87445375000016,228.88689291600022,228.87445375000016,228.87445375000016,228.87445375000016,228.88689291600022,228.87445375000016,233.99792879100005,234.6909492499999,236.77068825000015,240.807421041,234.6909492499999,234.6909492499999,239.8226831249999,235.12807687500026,236.14160033300004,236.77068825000015,237.78953254099997,234.6909492499999,234.6909492499999,234.66096829100007,234.6909492499999,234.6909492499999,234.6909492499999,234.66096829100007,234.6909492499999,234.6909492499999,239.8226831249999,234.6909492499999,239.8226831249999,239.86652400000003,240.50097241599997,234.6909492499999,1,1,0.5830155419998846,reldom2_s014,001,2025-02-13_15h57.23.697,What-A-Scan_AC,2022.2.5,None,
0,0.0,None,fixation,stimulus/audwhat_stim/blank_white.png,stimulus/audwhat_stim/blank_white.png,stimulus/viswhat_stim/blank_white.png,stimulus/viswhat_stim/blank_white.png,stimulus/audwhat_stim/blank_white.png,stimulus/audwhat_stim/blank_white.png,stimulus/audwhat_stim/blank_white.png,stimulus/audwhat_stim/blank_white.png,0.0,0.0,0.0,0.0,0,0.0,0,0.0,0,0.0,0,0.0,0,0.0,0.0,0,0.0,0,0.0,0,0.0,0,0.0,0,0.0,0,0.0,0,0.0,0,0.0,8,,,,,0,24,24,24,,,,,,,,,240.807421041,240.807421041,240.807421041,240.807421041,240.807421041,240.807421041,240.807421041,240.807421041,240.7091817910001,240.807421041,240.807421041,240.807421041,240.7091817910001,240.807421041,240.807421041,240.807421041,240.807421041,240.807421041,240.807421041,240.807421041,240.807421041,240.807421041,240.807421041,240.807421041,240.807421041,240.807421041,240.807421041,240.7591817910001,240.807421041,240.807421041,240.807421041,240.7591817910001,240.807421041,240.807421041,240.807421041,240.807421041,240.807421041,246.02380295800003,246.02380295800003,249.03762975000018,None,0,,reldom2_s014,001,2025-02-13_15h57.23.697,What-A-Scan_AC,2022.2.5,None,
19,First_Order,4.0,viswhat,stimulus/viswhat_stim/blank_white.png,stimulus/viswhat_stim/blank_white.png,stimulus/viswhat_stim/land_animal-wolf.png,stimulus/viswhat_stim/water_animal-squid.png,stimulus/viswhat_stim/blank_white.png,stimulus/viswhat_stim/location_box.png,stimulus/viswhat_stim/location_yes.png,stimulus/viswhat_stim/location_no.png,None,Location,None,Type,2,0.0,0,5.125,0,5.125,0,5.125,0,0.0,0.625,0,0.0,0,0.0,1,0.5,1,2.125,0,0.0,0,0.0,0,0.0,0,0.0,0,,,,,0,25,25,25,,,,,,,,,249.03762975000018,249.03762975000018,249.03762975000018,249.03762975000018,249.03762975000018,249.03762975000018,249.03762975000018,249.03762975000018,248.9972055826667,249.03762975000018,249.03762975000018,249.03762975000018,248.9972055826667,249.03762975000018,249.03762975000018,249.03762975000018,251.13353895799992,255.1138349160001,249.03762975000018,249.03762975000018,254.18049654100014,249.52484462500024,250.55835500000012,251.13353895799992,252.17396633299995,249.03762975000018,249.03762975000018,249.01387224933336,249.03762975000018,249.03762975000018,249.03762975000018,249.01387224933336,249.03762975000018,249.03762975000018,254.18049654100014,249.03762975000018,254.18049654100014,254.25501625000015,254.89850583299994,249.03762975000018,2,1,0.6679529999996703,reldom2_s014,001,2025-02-13_15h57.23.697,What-A-Scan_AC,2022.2.5,None,
20,First_Order,4.0,viswhat,stimulus/viswhat_stim/blank_white.png,stimulus/viswhat_stim/blank_white.png,stimulus/viswhat_stim/water_animal-jellyfish.png,stimulus/viswhat_stim/water_vehicle-motorboatraft.png,stimulus/viswhat_stim/blank_white.png,stimulus/viswhat_stim/location_box.png,stimulus/viswhat_stim/location_yes.png,stimulus/viswhat_stim/location_no.png,None,Location,None,Location,1,0.0,0,5.125,0,5.125,0,5.125,0,0.0,0.625,0,0.0,0,0.0,1,0.5,1,2.125,0,0.0,0,0.0,0,0.0,0,0.0,0,,,,,0,26,26,26,,,,,,,,,255.1138349160001,255.1138349160001,255.1138349160001,255.1138349160001,255.1138349160001,255.1138349160001,255.1138349160001,255.1138349160001,255.07195004100015,255.1138349160001,255.1138349160001,255.1138349160001,255.07195004100015,255.1138349160001,255.1138349160001,255.1138349160001,257.2078160830001,261.27711050000016,255.1138349160001,255.1138349160001,260.25971166599993,255.604383333,256.6382516660001,257.2078160830001,258.22163008300004,255.1138349160001,255.1138349160001,255.0886167076668,255.1138349160001,255.1138349160001,255.1138349160001,255.0886167076668,255.1138349160001,255.1138349160001,260.25971166599993,255.1138349160001,260.25971166599993,260.32439183299994,260.97030733300016,255.1138349160001,1,1,0.8929786669996247,reldom2_s014,001,2025-02-13_15h57.23.697,What-A-Scan_AC,2022.2.5,None,
21,First_Order,4.0,viswhat,stimulus/viswhat_stim/blank_white.png,stimulus/viswhat_stim/blank_white.png,stimulus/viswhat_stim/land_animal-elephant.png,stimulus/viswhat_stim/land_vehicle-buldozer.png,stimulus/viswhat_stim/blank_white.png,stimulus/viswhat_stim/type_box.png,stimulus/viswhat_stim/type_yes.png,stimulus/viswhat_stim/type_no.png,None,Type,None,Location,2,0.0,0,5.125,0,5.125,0,5.125,0,0.0,0.625,0,0.0,0,0.0,1,0.5,1,2.125,0,0.0,0,0.0,0,0.0,0,0.0,0,,,,,0,27,27,27,,,,,,,,,261.27711050000016,261.27711050000016,261.27711050000016,261.27711050000016,261.27711050000016,261.27711050000016,261.27711050000016,261.27711050000016,261.1557215409999,261.27711050000016,261.27711050000016,261.27711050000016,261.1557215409999,261.27711050000016,261.27711050000016,261.27711050000016,263.367931625,267.4101511660001,261.27711050000016,261.27711050000016,266.50458304099993,261.763966041,262.8805912910002,263.367931625,264.4867314580001,261.27711050000016,261.27711050000016,261.22238820766654,261.27711050000016,261.27711050000016,261.27711050000016,261.22238820766654,261.27711050000016,261.27711050000016,266.50458304099993,261.27711050000016,266.50458304099993,266.50458304099993,267.4101511660001,261.27711050000016,2,1,0.6313452909998887,reldom2_s014,001,2025-02-13_15h57.23.697,What-A-Scan_AC,2022.2.5,None,
22,First_Order,4.0,viswhat,stimulus/viswhat_stim/blank_white.png,stimulus/viswhat_stim/blank_white.png,stimulus/viswhat_stim/water_animal-shark.png,stimulus/viswhat_stim/water_vehicle-cabincruiser.png,stimulus/viswhat_stim/blank_white.png,stimulus/viswhat_stim/type_box.png,stimulus/viswhat_stim/type_yes.png,stimulus/viswhat_stim/type_no.png,None,Type,None,Location,2,0.0,0,5.125,0,5.125,0,5.125,0,0.0,0.625,0,0.0,0,0.0,1,0.5,1,2.125,0,0.0,0,0.0,0,0.0,0,0.0,0,,,,,0,28,28,28,,,,,,,,,267.4101511660001,267.4101511660001,267.4101511660001,267.4101511660001,267.4101511660001,267.4101511660001,267.4101511660001,267.4101511660001,267.32786062433337,267.4101511660001,267.4101511660001,267.4101511660001,267.32786062433337,267.4101511660001,267.4101511660001,267.4101511660001,269.50417504100005,273.5579842080001,267.4101511660001,267.4101511660001,272.6046203330002,267.88559020799994,268.93446729100015,269.50417504100005,270.55598962500017,267.4101511660001,267.4101511660001,267.3778606243333,267.4101511660001,267.4101511660001,267.4101511660001,267.3778606243333,267.4101511660001,267.4101511660001,272.6046203330002,267.4101511660001,272.6046203330002,272.6046203330002,273.2769552079999,267.4101511660001,2,1,1.1928875829999015,reldom2_s014,001,2025-02-13_15h57.23.697,What-A-Scan_AC,2022.2.5,None,
0,0.0,None,fixation,stimulus/audwhat_stim/blank_white.png,stimulus/audwhat_stim/blank_white.png,stimulus/viswhat_stim/blank_white.png,stimulus/viswhat_stim/blank_white.png,stimulus/audwhat_stim/blank_white.png,stimulus/audwhat_stim/blank_white.png,stimulus/audwhat_stim/blank_white.png,stimulus/audwhat_stim/blank_white.png,0.0,0.0,0.0,0.0,0,0.0,0,0.0,0,0.0,0,0.0,0,0.0,0.0,0,0.0,0,0.0,0,0.0,0,0.0,0,0.0,0,0.0,0,0.0,0,0.0,9,,,,,0,29,29,29,,,,,,,,,273.5579842080001,273.5579842080001,273.5579842080001,273.5579842080001,273.5579842080001,273.5579842080001,273.5579842080001,273.5579842080001,273.45223545833335,273.5579842080001,273.5579842080001,273.5579842080001,273.45223545833335,273.5579842080001,273.5579842080001,273.5579842080001,273.5579842080001,273.5579842080001,273.5579842080001,273.5579842080001,273.5579842080001,273.5579842080001,273.5579842080001,273.5579842080001,273.5579842080001,273.5579842080001,273.5579842080001,273.518902125,273.5579842080001,273.5579842080001,273.5579842080001,273.518902125,273.5579842080001,273.5579842080001,273.5579842080001,273.5579842080001,273.5579842080001,278.7804983330002,278.7804983330002,282.69243374999996,None,0,,reldom2_s014,001,2025-02-13_15h57.23.697,What-A-Scan_AC,2022.2.5,None,
23,Second_Order,4.0,viswhat,stimulus/viswhat_stim/water_vehicle-canoe(1).png,stimulus/viswhat_stim/land_vehicle-vespa.png,stimulus/viswhat_stim/land_animal-dog.png,stimulus/viswhat_stim/water_animal-jellyfish.png,stimulus/audwhat_stim/match_blank.png,stimulus/audwhat_stim/match_box.png,stimulus/audwhat_stim/match_yes.png,stimulus/audwhat_stim/match_no.png,1.0,Match,Type,Type,1,5.125,0,5.125,0,5.125,0,5.125,0,0.75,0.75,1,0.5,1,2.125,1,0.5,1,2.125,0,0.0,0,0.0,0,0.0,0,0.0,0,,,,,0,30,30,30,,,,,,,,,282.69243374999996,287.8045990410001,283.159776125,284.14592095800026,284.7808884159999,285.77918679100003,282.69243374999996,282.69243374999996,282.6946492913336,282.69243374999996,282.69243374999996,282.69243374999996,282.6946492913336,282.69243374999996,287.8045990410001,288.6198757500001,290.6949615409999,294.579497791,288.6198757500001,288.6198757500001,293.76860883300014,289.07497141600015,290.10006620800004,290.6949615409999,291.7239117910003,288.6198757500001,288.6198757500001,288.5887774579999,288.6198757500001,288.6198757500001,288.6198757500001,288.5887774579999,288.6198757500001,288.6198757500001,293.76860883300014,288.6198757500001,293.76860883300014,293.814307958,,288.6198757500001,1,1,0.48843483399969045,reldom2_s014,001,2025-02-13_15h57.23.697,What-A-Scan_AC,2022.2.5,None,
24,Second_Order,4.0,viswhat,stimulus/viswhat_stim/land_vehicle-tank.png,stimulus/viswhat_stim/water_vehicle-canoe(1).png,stimulus/viswhat_stim/water_animal-orka.png,stimulus/viswhat_stim/water_vehicle-cabincruiser.png,stimulus/audwhat_stim/match_blank.png,stimulus/audwhat_stim/match_box.png,stimulus/audwhat_stim/match_yes.png,stimulus/audwhat_stim/match_no.png,2.0,Match,Type,Location,2,5.125,0,5.125,0,5.125,0,5.125,0,0.625,0.625,1,0.5,1,2.125,1,0.5,1,2.125,0,0.0,0,0.0,0,0.0,0,0.0,0,,,,,0,31,31,31,,,,,,,,,294.579497791,299.69968825000024,295.05444958299995,296.0530026250003,296.6878850830003,297.67753137499994,294.579497791,294.579497791,294.58984587466654,294.579497791,294.579497791,294.579497791,294.58984587466654,294.579497791,299.69968825000024,300.4890957910002,302.56426762499996,,300.4890957910002,300.4890957910002,305.722411833,300.87340200000017,301.9485949580003,302.56426762499996,303.64366091600004,300.4890957910002,300.4890957910002,300.42954329166685,300.4890957910002,300.4890957910002,300.4890957910002,300.42954329166685,300.4890957910002,300.4890957910002,305.722411833,300.4890957910002,305.722411833,305.65065437500016,306.5943118330001,300.4890957910002,2,1,0.45854779199953555,reldom2_s014,001,2025-02-13_15h57.23.697,What-A-Scan_AC,2022.2.5,None,
0,0.0,None,fixation,stimulus/audwhat_stim/blank_white.png,stimulus/audwhat_stim/blank_white.png,stimulus/viswhat_stim/blank_white.png,stimulus/viswhat_stim/blank_white.png,stimulus/audwhat_stim/blank_white.png,stimulus/audwhat_stim/blank_white.png,stimulus/audwhat_stim/blank_white.png,stimulus/audwhat_stim/blank_white.png,0.0,0.0,0.0,0.0,0,0.0,0,0.0,0,0.0,0,0.0,0,0.0,0.0,0,0.0,0,0.0,0,0.0,0,0.0,0,0.0,0,0.0,0,0.0,0,0.0,9,,,,,0,32,32,32,,,,,,,,,306.5943118330001,306.5943118330001,306.5943118330001,306.5943118330001,306.5943118330001,306.5943118330001,306.5943118330001,306.5943118330001,306.49601387499996,306.5943118330001,306.5943118330001,306.5943118330001,306.49601387499996,306.5943118330001,306.5943118330001,306.5943118330001,306.5943118330001,306.5943118330001,306.5943118330001,306.5943118330001,306.5943118330001,306.5943118330001,306.5943118330001,306.5943118330001,306.5943118330001,306.5943118330001,306.5943118330001,306.54601387499997,306.5943118330001,306.5943118330001,306.5943118330001,306.54601387499997,306.5943118330001,306.5943118330001,306.5943118330001,306.5943118330001,306.5943118330001,311.82103533300005,311.82103533300005,315.81764458299995,None,0,,reldom2_s014,001,2025-02-13_15h57.23.697,What-A-Scan_AC,2022.2.5,None,
25,First_Order,5.0,audwhat,stimulus/audwhat_stim/dummy.wav,stimulus/audwhat_stim/dummy.wav,stimulus/audwhat_stim/string cello_low-pitch_Dtri_loud.wav,stimulus/audwhat_stim/percussion mallet_low-pitch_Dtri_loud.wav,stimulus/audwhat_stim/blank_white.png,stimulus/audwhat_stim/pitch_box.png,stimulus/audwhat_stim/pitch_yes.png,stimulus/audwhat_stim/pitch_no.png,None,Pitch,None,Pitch,1,0.0,0,5.125,0,5.125,0,5.125,0,0.0,0.625,0,0.0,0,0.0,0,0.0,0,0.0,0,0.0,0,0.0,1,0.5,1,2.125,0,,,,,0,33,33,33,,,,,,,,,315.81764458299995,315.81764458299995,315.81764458299995,315.81764458299995,315.81764458299995,315.81764458299995,315.81764458299995,315.81764458299995,315.7460287076666,315.81764458299995,315.81764458299995,315.81764458299995,315.7460287076666,315.81764458299995,315.81764458299995,315.81764458299995,317.89754866600015,321.9383911250002,315.81764458299995,315.81764458299995,320.995755291,315.81764458299995,315.81764458299995,315.81764458299995,315.81764458299995,316.28213270800006,317.3438969160002,316.2526199166666,,317.89754866600015,318.96443712500013,317.8678890826666,,315.81764458299995,320.995755291,315.81764458299995,320.995755291,321.0368205,321.6858072499999,315.81764458299995,1,1,0.5413824170000225,reldom2_s014,001,2025-02-13_15h57.23.697,What-A-Scan_AC,2022.2.5,None,
26,First_Order,5.0,audwhat,stimulus/audwhat_stim/dummy.wav,stimulus/audwhat_stim/dummy.wav,stimulus/audwhat_stim/string cello_low-pitch_F_loud.wav,stimulus/audwhat_stim/percussion mallet_low-pitch_F_loud.wav,stimulus/audwhat_stim/blank_white.png,stimulus/audwhat_stim/pitch_box.png,stimulus/audwhat_stim/pitch_yes.png,stimulus/audwhat_stim/pitch_no.png,None,Pitch,None,Pitch,1,0.0,0,5.125,0,5.125,0,5.125,0,0.0,0.625,0,0.0,0,0.0,0,0.0,0,0.0,0,0.0,0,0.0,1,0.5,1,2.125,0,,,,,0,34,34,34,,,,,,,,,321.9383911250002,321.9383911250002,321.9383911250002,321.9383911250002,321.9383911250002,321.9383911250002,321.9383911250002,321.9383911250002,321.85956041633347,321.9383911250002,321.9383911250002,321.9383911250002,321.85956041633347,321.9383911250002,321.9383911250002,321.9383911250002,324.01680962499995,328.0586096249999,321.9383911250002,321.9383911250002,327.10900408299995,321.9383911250002,321.9383911250002,321.9383911250002,321.9383911250002,322.4010565000003,323.4610203330003,322.3720748326666,,324.01680962499995,325.07899075000023,323.98610637466686,,321.9383911250002,327.10900408299995,321.9383911250002,327.10900408299995,327.14972579100004,327.8019481250003,321.9383911250002,1,1,0.8260030839996944,reldom2_s014,001,2025-02-13_15h57.23.697,What-A-Scan_AC,2022.2.5,None,
27,First_Order,5.0,audwhat,stimulus/audwhat_stim/dummy.wav,stimulus/audwhat_stim/dummy.wav,stimulus/audwhat_stim/string cello_high-pitch_D_loud.wav,stimulus/audwhat_stim/percussion mallet_high-pitch_D_loud.wav,stimulus/audwhat_stim/blank_white.png,stimulus/audwhat_stim/category_box.png,stimulus/audwhat_stim/category_yes.png,stimulus/audwhat_stim/category_no.png,None,Category,None,Pitch,2,0.0,0,5.125,0,5.125,0,5.125,0,0.0,0.625,0,0.0,0,0.0,0,0.0,0,0.0,0,0.0,0,0.0,1,0.5,1,2.125,0,,,,,0,35,35,35,,,,,,,,,328.0586096249999,328.0586096249999,328.0586096249999,328.0586096249999,328.0586096249999,328.0586096249999,328.0586096249999,328.0586096249999,327.97620624933336,328.0586096249999,328.0586096249999,328.0586096249999,327.97620624933336,328.0586096249999,328.0586096249999,328.0586096249999,330.1489108330002,,328.0586096249999,328.0586096249999,333.2125578330001,328.0586096249999,328.0586096249999,328.0586096249999,328.0586096249999,328.5238571660002,329.59107829100003,328.49379929166685,,330.1489108330002,331.217772083,330.1191865416665,,328.0586096249999,333.2125578330001,328.0586096249999,333.2125578330001,333.2537510410002,333.90710312500005,328.0586096249999,2,1,1.2097452909997628,reldom2_s014,001,2025-02-13_15h57.23.697,What-A-Scan_AC,2022.2.5,None,
28,First_Order,5.0,audwhat,stimulus/audwhat_stim/dummy.wav,stimulus/audwhat_stim/dummy.wav,stimulus/audwhat_stim/percussion mallet_low-pitch_Ftri_loud.wav,stimulus/audwhat_stim/percussion mallet_high-pitch_F_loud.wav,stimulus/audwhat_stim/blank_white.png,stimulus/audwhat_stim/category_box.png,stimulus/audwhat_stim/category_yes.png,stimulus/audwhat_stim/category_no.png,None,Category,None,Category,1,0.0,0,5.125,0,5.125,0,5.125,0,0.0,0.625,0,0.0,0,0.0,0,0.0,0,0.0,0,0.0,0,0.0,1,0.5,1,2.125,0,,,,,0,36,36,36,,,,,,,,,334.16136325000025,334.16136325000025,334.16136325000025,334.16136325000025,334.16136325000025,334.16136325000025,334.16136325000025,334.16136325000025,334.08130612433354,334.16136325000025,334.16136325000025,334.16136325000025,334.08130612433354,334.16136325000025,334.16136325000025,334.16136325000025,336.25157229100023,,334.16136325000025,334.16136325000025,339.31572925,334.16136325000025,334.16136325000025,334.16136325000025,334.16136325000025,334.6251173750002,335.6928640410001,334.59565837466675,,336.25157229100023,337.32298441600005,336.221601999667,,334.16136325000025,339.31572925,334.16136325000025,339.31572925,339.35690512500014,340.01122554099993,334.16136325000025,1,1,0.4280167089996212,reldom2_s014,001,2025-02-13_15h57.23.697,What-A-Scan_AC,2022.2.5,None,
0,0.0,None,fixation,stimulus/audwhat_stim/blank_white.png,stimulus/audwhat_stim/blank_white.png,stimulus/viswhat_stim/blank_white.png,stimulus/viswhat_stim/blank_white.png,stimulus/audwhat_stim/blank_white.png,stimulus/audwhat_stim/blank_white.png,stimulus/audwhat_stim/blank_white.png,stimulus/audwhat_stim/blank_white.png,0.0,0.0,0.0,0.0,0,0.0,0,0.0,0,0.0,0,0.0,0,0.0,0.0,0,0.0,0,0.0,0,0.0,0,0.0,0,0.0,0,0.0,0,0.0,0,0.0,8,,,,,0,37,37,37,,,,,,,,,340.28505533299995,340.28505533299995,340.28505533299995,340.28505533299995,340.28505533299995,340.28505533299995,340.28505533299995,340.28505533299995,340.1852045413335,340.28505533299995,340.28505533299995,340.28505533299995,340.1852045413335,340.28505533299995,340.28505533299995,340.28505533299995,340.28505533299995,340.28505533299995,340.28505533299995,340.28505533299995,340.28505533299995,340.28505533299995,340.28505533299995,340.28505533299995,340.28505533299995,340.28505533299995,340.28505533299995,340.23520454133353,340.28505533299995,340.28505533299995,340.28505533299995,340.23520454133353,340.28505533299995,340.28505533299995,340.28505533299995,340.28505533299995,340.28505533299995,345.5195282079999,345.5195282079999,348.4420157499999,None,0,,reldom2_s014,001,2025-02-13_15h57.23.697,What-A-Scan_AC,2022.2.5,None,
29,Second_Order,5.0,audwhat,stimulus/audwhat_stim/percussion xylophone_high-pitch_Dtri_loud.wav,stimulus/audwhat_stim/percussion mallet_low-pitch_Ftri_loud.wav,stimulus/audwhat_stim/string viola_high-pitch_Ftri_loud.wav,stimulus/audwhat_stim/string viola_low-pitch_Dtri_loud.wav,stimulus/audwhat_stim/match_blank.png,stimulus/audwhat_stim/match_box.png,stimulus/audwhat_stim/match_yes.png,stimulus/audwhat_stim/match_no.png,1.0,Match,Category,Category,1,5.125,0,5.125,0,5.125,0,5.125,0,0.75,0.75,0,0.0,0,0.0,0,0.0,0,0.0,1,0.5,1,2.125,1,0.5,1,2.125,0,,,,,0,38,38,38,,,,,,,,,348.4420157499999,353.55677541600016,348.4420157499999,348.4420157499999,348.4420157499999,348.4420157499999,348.8958881660001,349.89438125000015,348.90857049966667,349.8978699160002,350.51669308300006,351.51407866599993,350.5288984576666,,353.55677541600016,354.40943745799996,356.4788001249999,,354.40943745799996,354.40943745799996,359.57239800000025,354.40943745799996,354.40943745799996,354.40943745799996,354.40943745799996,354.8212565829999,355.87891679099994,354.7917702916668,,356.4788001249999,357.5430577500001,356.4490176666666,,354.40943745799996,359.57239800000025,354.40943745799996,359.57239800000025,359.57239800000025,,354.40943745799996,1,1,0.5571493749998808,reldom2_s014,001,2025-02-13_15h57.23.697,What-A-Scan_AC,2022.2.5,None,
30,Second_Order,5.0,audwhat,stimulus/audwhat_stim/percussion mallet_low-pitch_F_loud.wav,stimulus/audwhat_stim/percussion mallet_high-pitch_Ftri_loud.wav,stimulus/audwhat_stim/string viola_low-pitch_F_loud.wav,stimulus/audwhat_stim/string viola_high-pitch_Ftri_loud.wav,stimulus/audwhat_stim/match_blank.png,stimulus/audwhat_stim/match_box.png,stimulus/audwhat_stim/match_yes.png,stimulus/audwhat_stim/match_no.png,1.0,Match,Category,Category,1,5.125,0,5.125,0,5.125,0,5.125,0,0.625,0.625,0,0.0,0,0.0,0,0.0,0,0.0,1,0.5,1,2.125,1,0.5,1,2.125,0,,,,,0,39,39,39,,,,,,,,,360.38305279099995,365.5013207910001,360.38305279099995,360.38305279099995,360.38305279099995,360.38305279099995,360.83946749999996,361.83803283299994,360.8526457076666,,362.4611237080003,363.45888300000024,362.4733337496666,,365.5013207910001,366.2323445830002,368.28591908299995,,366.2323445830002,366.2323445830002,371.40012887500006,366.2323445830002,366.2323445830002,366.2323445830002,366.2323445830002,366.6857570830002,367.735710166,366.65697087466674,,368.28591908299995,369.34164487499993,368.25662029166665,,366.2323445830002,371.40012887500006,366.2323445830002,371.40012887500006,371.40012887500006,372.0855233330003,366.2323445830002,1,1,0.5957360419993165,reldom2_s014,001,2025-02-13_15h57.23.697,What-A-Scan_AC,2022.2.5,None,
0,0.0,None,fixation,stimulus/audwhat_stim/blank_white.png,stimulus/audwhat_stim/blank_white.png,stimulus/viswhat_stim/blank_white.png,stimulus/viswhat_stim/blank_white.png,stimulus/audwhat_stim/blank_white.png,stimulus/audwhat_stim/blank_white.png,stimulus/audwhat_stim/blank_white.png,stimulus/audwhat_stim/blank_white.png,0.0,0.0,0.0,0.0,0,0.0,0,0.0,0,0.0,0,0.0,0,0.0,0.0,0,0.0,0,0.0,0,0.0,0,0.0,0,0.0,0,0.0,0,0.0,0,0.0,9,,,,,0,40,40,40,,,,,,,,,372.3167410830001,372.3167410830001,372.3167410830001,372.3167410830001,372.3167410830001,372.3167410830001,372.3167410830001,372.3167410830001,372.21885666633364,372.3167410830001,372.3167410830001,372.3167410830001,372.21885666633364,372.3167410830001,372.3167410830001,372.3167410830001,372.3167410830001,372.3167410830001,372.3167410830001,372.3167410830001,372.3167410830001,372.3167410830001,372.3167410830001,372.3167410830001,372.3167410830001,372.3167410830001,372.3167410830001,372.26885666633365,372.3167410830001,372.3167410830001,372.3167410830001,372.26885666633365,372.3167410830001,372.3167410830001,372.3167410830001,372.3167410830001,372.3167410830001,377.5336555409999,377.5336555409999,381.5843574159999,None,0,,reldom2_s014,001,2025-02-13_15h57.23.697,What-A-Scan_AC,2022.2.5,None,
31,First_Order,6.0,audwhat,stimulus/audwhat_stim/dummy.wav,stimulus/audwhat_stim/dummy.wav,stimulus/audwhat_stim/string viola_high-pitch_F_loud.wav,stimulus/audwhat_stim/percussion xylophone_high-pitch_F_loud.wav,stimulus/audwhat_stim/blank_white.png,stimulus/audwhat_stim/category_box.png,stimulus/audwhat_stim/category_yes.png,stimulus/audwhat_stim/category_no.png,None,Category,None,Pitch,2,0.0,0,5.125,0,5.125,0,5.125,0,0.0,0.625,0,0.0,0,0.0,0,0.0,0,0.0,0,0.0,0,0.0,1,0.5,1,2.125,0,,,,,0,41,41,41,,,,,,,,,381.5843574159999,381.5843574159999,381.5843574159999,381.5843574159999,381.5843574159999,381.5843574159999,381.5843574159999,381.5843574159999,381.51293970766676,381.5843574159999,381.5843574159999,381.5843574159999,381.51293970766676,381.5843574159999,381.5843574159999,381.5843574159999,383.67060816599997,,381.5843574159999,381.5843574159999,386.7749492910002,381.5843574159999,381.5843574159999,381.5843574159999,381.5843574159999,382.0498965410002,383.11488791600004,382.01933533266697,,383.67060816599997,384.7380048330001,383.64074749966653,384.6915467910003,381.5843574159999,386.7749492910002,381.5843574159999,386.7749492910002,386.7749492910002,387.42936020800016,381.5843574159999,2,1,1.0659062499994434,reldom2_s014,001,2025-02-13_15h57.23.697,What-A-Scan_AC,2022.2.5,None,
32,First_Order,6.0,audwhat,stimulus/audwhat_stim/dummy.wav,stimulus/audwhat_stim/dummy.wav,stimulus/audwhat_stim/percussion mallet_high-pitch_F_loud.wav,stimulus/audwhat_stim/percussion mallet_low-pitch_D_loud.wav,stimulus/audwhat_stim/blank_white.png,stimulus/audwhat_stim/pitch_box.png,stimulus/audwhat_stim/pitch_yes.png,stimulus/audwhat_stim/pitch_no.png,None,Pitch,None,Category,2,0.0,0,5.125,0,5.125,0,5.125,0,0.0,0.625,0,0.0,0,0.0,0,0.0,0,0.0,0,0.0,0,0.0,1,0.5,1,2.125,0,,,,,0,42,42,42,,,,,,,,,387.682218166,387.682218166,387.682218166,387.682218166,387.682218166,387.682218166,387.682218166,387.682218166,387.60301329133347,387.682218166,387.682218166,387.682218166,387.60301329133347,387.682218166,387.682218166,387.682218166,389.761357416,,387.682218166,387.682218166,392.8710437079999,387.682218166,387.682218166,387.682218166,387.682218166,388.14540883300015,389.2075453330003,388.1159007076669,,389.761357416,390.8276841659999,389.7314607916667,,387.682218166,392.8710437079999,387.682218166,392.8710437079999,392.9118010830002,393.56100208299995,387.682218166,2,1,1.887911415999497,reldom2_s014,001,2025-02-13_15h57.23.697,What-A-Scan_AC,2022.2.5,None,
33,First_Order,6.0,audwhat,stimulus/audwhat_stim/dummy.wav,stimulus/audwhat_stim/dummy.wav,stimulus/audwhat_stim/string cello_high-pitch_D_loud.wav,stimulus/audwhat_stim/string cello_low-pitch_Dtri_loud.wav,stimulus/audwhat_stim/blank_white.png,stimulus/audwhat_stim/category_box.png,stimulus/audwhat_stim/category_yes.png,stimulus/audwhat_stim/category_no.png,None,Category,None,Category,1,0.0,0,5.125,0,5.125,0,5.125,0,0.0,0.625,0,0.0,0,0.0,0,0.0,0,0.0,0,0.0,0,0.0,1,0.5,1,2.125,0,,,,,0,43,43,43,,,,,,,,,393.77385300000014,393.77385300000014,393.77385300000014,393.77385300000014,393.77385300000014,393.77385300000014,393.77385300000014,393.77385300000014,393.6943354163333,393.77385300000014,393.77385300000014,393.77385300000014,393.6943354163333,393.77385300000014,393.77385300000014,393.77385300000014,395.86718925000014,,393.77385300000014,393.77385300000014,398.93185304100007,393.77385300000014,393.77385300000014,393.77385300000014,393.77385300000014,394.24218075,395.3098520409999,394.21212187466676,,395.86718925000014,396.9365822909999,395.8370746666667,,393.77385300000014,398.93185304100007,393.77385300000014,398.93185304100007,398.9729380409999,399.62587462500005,393.77385300000014,1,1,2.002578374999757,reldom2_s014,001,2025-02-13_15h57.23.697,What-A-Scan_AC,2022.2.5,None,
34,First_Order,6.0,audwhat,stimulus/audwhat_stim/dummy.wav,stimulus/audwhat_stim/dummy.wav,stimulus/audwhat_stim/string cello_high-pitch_F_loud.wav,stimulus/audwhat_stim/string viola_low-pitch_Ftri_loud.wav,stimulus/audwhat_stim/blank_white.png,stimulus/audwhat_stim/pitch_box.png,stimulus/audwhat_stim/pitch_yes.png,stimulus/audwhat_stim/pitch_no.png,None,Pitch,None,Category,2,0.0,0,5.125,0,5.125,0,5.125,0,0.0,0.625,0,0.0,0,0.0,0,0.0,0,0.0,0,0.0,0,0.0,1,0.5,1,2.125,0,,,,,0,44,44,44,,,,,,,,,399.879790083,399.879790083,399.879790083,399.879790083,399.879790083,399.879790083,399.879790083,399.879790083,399.80016008333325,399.879790083,399.879790083,399.879790083,399.80016008333325,399.879790083,399.879790083,399.879790083,401.96408191599994,406.0297703330002,399.879790083,399.879790083,405.0614152500002,399.879790083,399.879790083,399.879790083,399.879790083,400.345967666,401.4085674580001,400.31601837466656,,401.96408191599994,403.0305127910001,401.9332871246668,,399.879790083,405.0614152500002,399.879790083,405.0614152500002,405.102290583,405.7548643750001,399.879790083,2,1,0.8306908749996182,reldom2_s014,001,2025-02-13_15h57.23.697,What-A-Scan_AC,2022.2.5,None,
0,0.0,None,fixation,stimulus/audwhat_stim/blank_white.png,stimulus/audwhat_stim/blank_white.png,stimulus/viswhat_stim/blank_white.png,stimulus/viswhat_stim/blank_white.png,stimulus/audwhat_stim/blank_white.png,stimulus/audwhat_stim/blank_white.png,stimulus/audwhat_stim/blank_white.png,stimulus/audwhat_stim/blank_white.png,0.0,0.0,0.0,0.0,0,0.0,0,0.0,0,0.0,0,0.0,0,0.0,0.0,0,0.0,0,0.0,0,0.0,0,0.0,0,0.0,0,0.0,0,0.0,0,0.0,10,,,,,0,45,45,45,,,,,,,,,406.0297703330002,406.0297703330002,406.0297703330002,406.0297703330002,406.0297703330002,406.0297703330002,406.0297703330002,406.0297703330002,405.9288424163334,406.0297703330002,406.0297703330002,406.0297703330002,405.9288424163334,406.0297703330002,406.0297703330002,406.0297703330002,406.0297703330002,406.0297703330002,406.0297703330002,406.0297703330002,406.0297703330002,406.0297703330002,406.0297703330002,406.0297703330002,406.0297703330002,406.0297703330002,406.0297703330002,405.9788424163334,406.0297703330002,406.0297703330002,406.0297703330002,405.9788424163334,406.0297703330002,406.0297703330002,406.0297703330002,406.0297703330002,406.0297703330002,411.25695933299994,411.25695933299994,416.2015697910001,None,0,,reldom2_s014,001,2025-02-13_15h57.23.697,What-A-Scan_AC,2022.2.5,None,
35,Second_Order,6.0,audwhat,stimulus/audwhat_stim/percussion xylophone_high-pitch_D_loud.wav,stimulus/audwhat_stim/string viola_high-pitch_D_loud.wav,stimulus/audwhat_stim/percussion mallet_high-pitch_Dtri_loud.wav,stimulus/audwhat_stim/percussion mallet_low-pitch_D_loud.wav,stimulus/audwhat_stim/match_blank.png,stimulus/audwhat_stim/match_box.png,stimulus/audwhat_stim/match_yes.png,stimulus/audwhat_stim/match_no.png,2.0,Match,Pitch,Category,2,5.125,0,5.125,0,5.125,0,5.125,0,0.75,0.75,0,0.0,0,0.0,0,0.0,0,0.0,1,0.5,1,2.125,1,0.5,1,2.125,0,,,,,0,46,46,46,,,,,,,,,416.2015697910001,421.31365437500017,416.2015697910001,416.2015697910001,416.2015697910001,416.2015697910001,416.650139458,417.6372744999999,416.6645567496669,417.6535280830003,418.2731575830003,419.2710569999999,418.2857306666667,,421.31365437500017,422.16213879099996,424.22694924999996,428.1661262910002,422.16213879099996,422.16213879099996,427.3180795000003,422.16213879099996,422.16213879099996,422.16213879099996,422.16213879099996,422.61921625000014,423.6757957499999,422.5897532076667,,424.22694924999996,425.29058154099994,424.19757974966683,,422.16213879099996,427.3180795000003,422.16213879099996,427.3180795000003,427.35881599999993,,422.16213879099996,2,1,0.7290059999995719,reldom2_s014,001,2025-02-13_15h57.23.697,What-A-Scan_AC,2022.2.5,None,
36,Second_Order,6.0,audwhat,stimulus/audwhat_stim/percussion mallet_high-pitch_Dtri_loud.wav,stimulus/audwhat_stim/string viola_high-pitch_Dtri_loud.wav,stimulus/audwhat_stim/string cello_high-pitch_Dtri_loud.wav,stimulus/audwhat_stim/string viola_low-pitch_F_loud.wav,stimulus/audwhat_stim/match_blank.png,stimulus/audwhat_stim/match_box.png,stimulus/audwhat_stim/match_yes.png,stimulus/audwhat_stim/match_no.png,2.0,Match,Pitch,Category,2,5.125,0,5.125,0,5.125,0,5.125,0,0.625,0.625,0,0.0,0,0.0,0,0.0,0,0.0,1,0.5,1,2.125,1,0.5,1,2.125,0,,,,,0,47,47,47,,,,,,,,,428.1661262910002,433.28668800000014,428.1661262910002,428.1661262910002,428.1661262910002,428.1661262910002,428.62592600000016,429.61555287500005,428.6279654166667,,430.25080479100006,431.2488882910002,430.2626372076668,,433.28668800000014,434.0216210829999,436.07433841600005,,434.0216210829999,434.0216210829999,439.1934355409999,434.0216210829999,434.0216210829999,434.0216210829999,434.0216210829999,434.47630745800006,435.52510766600017,434.44715095766674,,436.07433841600005,437.1281772080001,436.0454165826666,,434.0216210829999,439.1934355409999,434.0216210829999,439.1934355409999,439.1934355409999,439.8783238330002,434.0216210829999,2,1,1.0722111659997609,reldom2_s014,001,2025-02-13_15h57.23.697,What-A-Scan_AC,2022.2.5,None,
0,0.0,None,fixation,stimulus/audwhat_stim/blank_white.png,stimulus/audwhat_stim/blank_white.png,stimulus/viswhat_stim/blank_white.png,stimulus/viswhat_stim/blank_white.png,stimulus/audwhat_stim/blank_white.png,stimulus/audwhat_stim/blank_white.png,stimulus/audwhat_stim/blank_white.png,stimulus/audwhat_stim/blank_white.png,0.0,0.0,0.0,0.0,0,0.0,0,0.0,0,0.0,0,0.0,0,0.0,0.0,0,0.0,0,0.0,0,0.0,0,0.0,0,0.0,0,0.0,0,0.0,0,0.0,8,,,,,0,48,48,48,,,,,,,,,440.11109183300005,440.11109183300005,440.11109183300005,440.11109183300005,440.11109183300005,440.11109183300005,440.11109183300005,440.11109183300005,440.0116571663335,440.11109183300005,440.11109183300005,440.11109183300005,440.0116571663335,440.11109183300005,440.11109183300005,440.11109183300005,440.11109183300005,440.11109183300005,440.11109183300005,440.11109183300005,440.11109183300005,440.11109183300005,440.11109183300005,440.11109183300005,440.11109183300005,440.11109183300005,440.11109183300005,440.06165716633353,440.11109183300005,440.11109183300005,440.11109183300005,440.06165716633353,440.11109183300005,440.11109183300005,440.11109183300005,440.11109183300005,440.11109183300005,445.2963332500003,445.2963332500003,448.319886666,None,0,,reldom2_s014,001,2025-02-13_15h57.23.697,What-A-Scan_AC,2022.2.5,None,
37,First_Order,7.0,viswhat,stimulus/viswhat_stim/blank_white.png,stimulus/viswhat_stim/blank_white.png,stimulus/viswhat_stim/land_animal-zebra.png,stimulus/viswhat_stim/water_animal-squid.png,stimulus/viswhat_stim/blank_white.png,stimulus/viswhat_stim/type_box.png,stimulus/viswhat_stim/type_yes.png,stimulus/viswhat_stim/type_no.png,None,Type,None,Type,1,0.0,0,5.125,0,5.125,0,5.125,0,0.0,0.625,0,0.0,0,0.0,1,0.5,1,2.125,0,0.0,0,0.0,0,0.0,0,0.0,0,,,,,0,49,49,49,,,,,,,,,448.319886666,448.319886666,448.319886666,448.319886666,448.319886666,448.319886666,448.319886666,448.319886666,448.27415395766695,448.319886666,448.319886666,448.319886666,448.27415395766695,448.319886666,448.319886666,448.319886666,450.41036191600006,,448.319886666,448.319886666,453.4662869580002,448.8030384580002,449.8328458330002,450.41036191600006,451.441562125,448.319886666,448.319886666,448.29082062433366,448.319886666,448.319886666,448.319886666,448.29082062433366,448.319886666,448.319886666,453.4662869580002,448.319886666,453.4662869580002,453.5459162080001,454.1859934160002,448.319886666,1,1,1.9178949169995576,reldom2_s014,001,2025-02-13_15h57.23.697,What-A-Scan_AC,2022.2.5,None,
38,First_Order,7.0,viswhat,stimulus/viswhat_stim/blank_white.png,stimulus/viswhat_stim/blank_white.png,stimulus/viswhat_stim/water_vehicle-submarine.png,stimulus/viswhat_stim/water_animal-lobster.png,stimulus/viswhat_stim/blank_white.png,stimulus/viswhat_stim/location_box.png,stimulus/viswhat_stim/location_yes.png,stimulus/viswhat_stim/location_no.png,None,Location,None,Location,1,0.0,0,5.125,0,5.125,0,5.125,0,0.0,0.625,0,0.0,0,0.0,1,0.5,1,2.125,0,0.0,0,0.0,0,0.0,0,0.0,0,,,,,0,50,50,50,,,,,,,,,454.63574162500026,454.63574162500026,454.63574162500026,454.63574162500026,454.63574162500026,454.63574162500026,454.63574162500026,454.63574162500026,454.3556421666666,454.63574162500026,454.63574162500026,454.63574162500026,454.3556421666666,454.63574162500026,454.63574162500026,454.63574162500026,456.74403966599994,460.75347175000024,454.63574162500026,454.63574162500026,459.902568041,455.0869928750003,456.2928514580003,456.74403966599994,457.94884329100023,454.63574162500026,454.63574162500026,454.4889754999999,454.63574162500026,454.63574162500026,454.63574162500026,454.4889754999999,454.63574162500026,454.63574162500026,459.902568041,454.63574162500026,459.902568041,459.7578120410003,,454.63574162500026,1,1,1.6194465839998884,reldom2_s014,001,2025-02-13_15h57.23.697,What-A-Scan_AC,2022.2.5,None,
39,First_Order,7.0,viswhat,stimulus/viswhat_stim/blank_white.png,stimulus/viswhat_stim/blank_white.png,stimulus/viswhat_stim/land_vehicle-vespa.png,stimulus/viswhat_stim/water_vehicle-yacht.png,stimulus/viswhat_stim/blank_white.png,stimulus/viswhat_stim/location_box.png,stimulus/viswhat_stim/location_yes.png,stimulus/viswhat_stim/location_no.png,None,Location,None,Type,2,0.0,0,5.125,0,5.125,0,5.125,0,0.0,0.625,0,0.0,0,0.0,1,0.5,1,2.125,0,0.0,0,0.0,0,0.0,0,0.0,0,,,,,0,51,51,51,,,,,,,,,460.75347175000024,460.75347175000024,460.75347175000024,460.75347175000024,460.75347175000024,460.75347175000024,460.75347175000024,460.75347175000024,460.68813908299995,460.75347175000024,460.75347175000024,460.75347175000024,460.68813908299995,460.75347175000024,460.75347175000024,460.75347175000024,462.8468419999999,466.8395014160001,460.75347175000024,460.75347175000024,465.9085580000001,461.2133121659999,462.2612696660003,462.8468419999999,463.89948966600014,460.75347175000024,460.75347175000024,460.7214724163333,460.75347175000024,460.75347175000024,460.75347175000024,460.7214724163333,460.75347175000024,460.75347175000024,465.9085580000001,460.75347175000024,465.9085580000001,465.944947166,466.59569579100025,460.75347175000024,2,1,0.5857978329995603,reldom2_s014,001,2025-02-13_15h57.23.697,What-A-Scan_AC,2022.2.5,None,
40,First_Order,7.0,viswhat,stimulus/viswhat_stim/blank_white.png,stimulus/viswhat_stim/blank_white.png,stimulus/viswhat_stim/water_vehicle-canoe.png,stimulus/viswhat_stim/water_animal-whale (1).png,stimulus/viswhat_stim/blank_white.png,stimulus/viswhat_stim/location_box.png,stimulus/viswhat_stim/location_yes.png,stimulus/viswhat_stim/location_no.png,None,Location,None,Location,1,0.0,0,5.125,0,5.125,0,5.125,0,0.0,0.625,0,0.0,0,0.0,1,0.5,1,2.125,0,0.0,0,0.0,0,0.0,0,0.0,0,,,,,0,52,52,52,,,,,,,,,466.8395014160001,466.8395014160001,466.8395014160001,466.8395014160001,466.8395014160001,466.8395014160001,466.8395014160001,466.8395014160001,466.8007793743333,466.8395014160001,466.8395014160001,466.8395014160001,466.8007793743333,466.8395014160001,466.8395014160001,466.8395014160001,468.94872458300006,472.9772754999999,466.8395014160001,466.8395014160001,471.97601087500016,467.30797929100027,468.3352707080003,468.94872458300006,469.98184708300005,466.8395014160001,466.8395014160001,466.8174460409999,466.8395014160001,466.8395014160001,466.8395014160001,466.8174460409999,466.8395014160001,466.8395014160001,471.97601087500016,466.8395014160001,471.97601087500016,472.0471899160002,472.6826145,466.8395014160001,1,1,0.919204207999428,reldom2_s014,001,2025-02-13_15h57.23.697,What-A-Scan_AC,2022.2.5,None,
0,0.0,None,fixation,stimulus/audwhat_stim/blank_white.png,stimulus/audwhat_stim/blank_white.png,stimulus/viswhat_stim/blank_white.png,stimulus/viswhat_stim/blank_white.png,stimulus/audwhat_stim/blank_white.png,stimulus/audwhat_stim/blank_white.png,stimulus/audwhat_stim/blank_white.png,stimulus/audwhat_stim/blank_white.png,0.0,0.0,0.0,0.0,0,0.0,0,0.0,0,0.0,0,0.0,0,0.0,0.0,0,0.0,0,0.0,0,0.0,0,0.0,0,0.0,0,0.0,0,0.0,0,0.0,10,,,,,0,53,53,53,,,,,,,,,472.9772754999999,472.9772754999999,472.9772754999999,472.9772754999999,472.9772754999999,472.9772754999999,472.9772754999999,472.9772754999999,472.8761379160001,472.9772754999999,472.9772754999999,472.9772754999999,472.8761379160001,472.9772754999999,472.9772754999999,472.9772754999999,472.9772754999999,472.9772754999999,472.9772754999999,472.9772754999999,472.9772754999999,472.9772754999999,472.9772754999999,472.9772754999999,472.9772754999999,472.9772754999999,472.9772754999999,472.92613791600013,472.9772754999999,472.9772754999999,472.9772754999999,472.92613791600013,472.9772754999999,472.9772754999999,472.9772754999999,472.9772754999999,472.9772754999999,478.16248079100023,478.16248079100023,483.1384820410003,None,0,,reldom2_s014,001,2025-02-13_15h57.23.697,What-A-Scan_AC,2022.2.5,None,
41,Second_Order,7.0,viswhat,stimulus/viswhat_stim/water_vehicle-cruiser.png,stimulus/viswhat_stim/land_vehicle-bus.png,stimulus/viswhat_stim/land_animal-fox.png,stimulus/viswhat_stim/water_animal-dolphin.png,stimulus/audwhat_stim/match_blank.png,stimulus/audwhat_stim/match_box.png,stimulus/audwhat_stim/match_yes.png,stimulus/audwhat_stim/match_no.png,1.0,Match,Type,Type,1,5.125,0,5.125,0,5.125,0,5.125,0,0.75,0.75,1,0.5,1,2.125,1,0.5,1,2.125,0,0.0,0,0.0,0,0.0,0,0.0,0,,,,,0,54,54,54,,,,,,,,,483.1384820410003,488.25082729099995,483.56961245799994,484.55888600000026,485.19455608299995,486.1924301250001,483.1384820410003,483.1384820410003,483.1520486243334,483.1384820410003,483.1384820410003,483.1384820410003,483.1520486243334,483.1384820410003,488.25082729099995,489.06259604100023,491.1259150830001,495.0434018750002,489.06259604100023,489.06259604100023,494.1955768329999,489.50664258300003,490.5261559999999,491.1259150830001,492.149580583,489.06259604100023,489.06259604100023,489.0366762910001,489.06259604100023,489.06259604100023,489.06259604100023,489.0366762910001,489.06259604100023,489.06259604100023,494.1955768329999,489.06259604100023,494.1955768329999,494.2574800000002,,489.06259604100023,1,1,1.4234530419994371,reldom2_s014,001,2025-02-13_15h57.23.697,What-A-Scan_AC,2022.2.5,None,
42,Second_Order,7.0,viswhat,stimulus/viswhat_stim/water_animal-whale.png,stimulus/viswhat_stim/water_vehicle-ferryboat.png,stimulus/viswhat_stim/land_vehicle-tank.png,stimulus/viswhat_stim/land_animal-wolf.png,stimulus/audwhat_stim/match_blank.png,stimulus/audwhat_stim/match_box.png,stimulus/audwhat_stim/match_yes.png,stimulus/audwhat_stim/match_no.png,1.0,Match,Location,Location,1,5.125,0,5.125,0,5.125,0,5.125,0,0.625,0.625,1,0.5,1,2.125,1,0.5,1,2.125,0,0.0,0,0.0,0,0.0,0,0.0,0,,,,,0,55,55,55,,,,,,,,,495.0434018750002,500.16247112500014,495.500828875,496.49928820800005,497.13878183299994,498.136784625,495.0434018750002,495.0434018750002,495.04249604166677,495.0434018750002,495.0434018750002,495.0434018750002,495.04249604166677,495.0434018750002,500.16247112500014,500.8388008330003,502.9099974999999,506.94759137500023,500.8388008330003,500.8388008330003,505.9774028750003,501.2851866660003,502.2994483749999,502.9099974999999,503.92752999999993,500.8388008330003,500.8388008330003,500.82573916600023,500.8388008330003,500.8388008330003,500.8388008330003,500.82573916600023,500.8388008330003,500.8388008330003,505.9774028750003,500.8388008330003,505.9774028750003,506.025005125,506.652785708,500.8388008330003,1,1,1.0885522919998039,reldom2_s014,001,2025-02-13_15h57.23.697,What-A-Scan_AC,2022.2.5,None,
0,0.0,None,fixation,stimulus/audwhat_stim/blank_white.png,stimulus/audwhat_stim/blank_white.png,stimulus/viswhat_stim/blank_white.png,stimulus/viswhat_stim/blank_white.png,stimulus/audwhat_stim/blank_white.png,stimulus/audwhat_stim/blank_white.png,stimulus/audwhat_stim/blank_white.png,stimulus/audwhat_stim/blank_white.png,0.0,0.0,0.0,0.0,0,0.0,0,0.0,0,0.0,0,0.0,0,0.0,0.0,0,0.0,0,0.0,0,0.0,0,0.0,0,0.0,0,0.0,0,0.0,0,0.0,9,,,,,0,56,56,56,,,,,,,,,506.94759137500023,506.94759137500023,506.94759137500023,506.94759137500023,506.94759137500023,506.94759137500023,506.94759137500023,506.94759137500023,506.84434624933357,506.94759137500023,506.94759137500023,506.94759137500023,506.84434624933357,506.94759137500023,506.94759137500023,506.94759137500023,506.94759137500023,506.94759137500023,506.94759137500023,506.94759137500023,506.94759137500023,506.94759137500023,506.94759137500023,506.94759137500023,506.94759137500023,506.94759137500023,506.94759137500023,506.8943462493336,506.94759137500023,506.94759137500023,506.94759137500023,506.8943462493336,506.94759137500023,506.94759137500023,506.94759137500023,506.94759137500023,506.94759137500023,512.157204958,512.157204958,516.1987551249999,None,0,,reldom2_s014,001,2025-02-13_15h57.23.697,What-A-Scan_AC,2022.2.5,None,
43,First_Order,8.0,viswhat,stimulus/viswhat_stim/blank_white.png,stimulus/viswhat_stim/blank_white.png,stimulus/viswhat_stim/water_vehicle-canoe.png,stimulus/viswhat_stim/water_animal-octopus.png,stimulus/viswhat_stim/blank_white.png,stimulus/viswhat_stim/type_box.png,stimulus/viswhat_stim/type_yes.png,stimulus/viswhat_stim/type_no.png,None,Type,None,Location,2,0.0,0,5.125,0,5.125,0,5.125,0,0.0,0.625,0,0.0,0,0.0,1,0.5,1,2.125,0,0.0,0,0.0,0,0.0,0,0.0,0,,,,,0,57,57,57,,,,,,,,,516.1987551249999,516.1987551249999,516.1987551249999,516.1987551249999,516.1987551249999,516.1987551249999,516.1987551249999,516.1987551249999,516.1489268326669,516.1987551249999,516.1987551249999,516.1987551249999,516.1489268326669,516.1987551249999,516.1987551249999,516.1987551249999,518.2798215410003,,516.1987551249999,516.1987551249999,521.3475555,516.6761662910003,517.6997435410003,518.2798215410003,519.3043803330002,516.1987551249999,516.1987551249999,516.1655934993336,516.1987551249999,516.1987551249999,516.1987551249999,516.1655934993336,516.1987551249999,516.1987551249999,521.3475555,516.1987551249999,521.3475555,521.404543875,522.0604711250003,516.1987551249999,2,1,2.722636082999543,reldom2_s014,001,2025-02-13_15h57.23.697,What-A-Scan_AC,2022.2.5,None,
44,First_Order,8.0,viswhat,stimulus/viswhat_stim/blank_white.png,stimulus/viswhat_stim/blank_white.png,stimulus/viswhat_stim/water_animal-octopus.png,stimulus/viswhat_stim/land_animal-snake.png,stimulus/viswhat_stim/blank_white.png,stimulus/viswhat_stim/type_box.png,stimulus/viswhat_stim/type_yes.png,stimulus/viswhat_stim/type_no.png,None,Type,None,Type,1,0.0,0,5.125,0,5.125,0,5.125,0,0.0,0.625,0,0.0,0,0.0,1,0.5,1,2.125,0,0.0,0,0.0,0,0.0,0,0.0,0,,,,,0,58,58,58,,,,,,,,,522.275498,522.275498,522.275498,522.275498,522.275498,522.275498,522.275498,522.275498,522.2338512496666,522.275498,522.275498,522.275498,522.2338512496666,522.275498,522.275498,522.275498,524.3859741250003,,522.275498,522.275498,527.43329275,522.7422394580003,523.7651002080001,524.3859741250003,525.4150906250002,522.275498,522.275498,522.2505179163333,522.275498,522.275498,522.275498,522.2505179163333,522.275498,522.275498,527.43329275,522.275498,527.43329275,527.4844021250001,528.1239201660001,522.275498,1,1,0.5657823749997988,reldom2_s014,001,2025-02-13_15h57.23.697,What-A-Scan_AC,2022.2.5,None,
45,First_Order,8.0,viswhat,stimulus/viswhat_stim/blank_white.png,stimulus/viswhat_stim/blank_white.png,stimulus/viswhat_stim/land_vehicle-schoolbus.png,stimulus/viswhat_stim/land_animal-pig.png,stimulus/viswhat_stim/blank_white.png,stimulus/viswhat_stim/type_box.png,stimulus/viswhat_stim/type_yes.png,stimulus/viswhat_stim/type_no.png,None,Type,None,Location,2,0.0,0,5.125,0,5.125,0,5.125,0,0.0,0.625,0,0.0,0,0.0,1,0.5,1,2.125,0,0.0,0,0.0,0,0.0,0,0.0,0,,,,,0,59,59,59,,,,,,,,,528.3419143750002,528.3419143750002,528.3419143750002,528.3419143750002,528.3419143750002,528.3419143750002,528.3419143750002,528.3419143750002,528.2993997499999,528.3419143750002,528.3419143750002,528.3419143750002,528.2993997499999,528.3419143750002,528.3419143750002,528.3419143750002,530.4526072910003,534.448399416,528.3419143750002,528.3419143750002,533.4939675830001,528.8168618330001,529.8454515000003,530.4526072910003,531.486035166,528.3419143750002,528.3419143750002,528.3160664166666,528.3419143750002,528.3419143750002,528.3419143750002,528.3160664166666,528.3419143750002,528.3419143750002,533.4939675830001,528.3419143750002,533.4939675830001,533.556684833,534.2019530830003,528.3419143750002,2,1,1.033154041999751,reldom2_s014,001,2025-02-13_15h57.23.697,What-A-Scan_AC,2022.2.5,None,
46,First_Order,8.0,viswhat,stimulus/viswhat_stim/blank_white.png,stimulus/viswhat_stim/blank_white.png,stimulus/viswhat_stim/land_vehicle-oldcar.png,stimulus/viswhat_stim/water_vehicle-powercruiser.png,stimulus/viswhat_stim/blank_white.png,stimulus/viswhat_stim/location_box.png,stimulus/viswhat_stim/location_yes.png,stimulus/viswhat_stim/location_no.png,None,Location,None,Type,2,0.0,0,5.125,0,5.125,0,5.125,0,0.0,0.625,0,0.0,0,0.0,1,0.5,1,2.125,0,0.0,0,0.0,0,0.0,0,0.0,0,,,,,0,60,60,60,,,,,,,,,534.448399416,534.448399416,534.448399416,534.448399416,534.448399416,534.448399416,534.448399416,534.448399416,534.384768041,534.448399416,534.448399416,534.448399416,534.384768041,534.448399416,534.448399416,534.448399416,536.5503202499999,,534.448399416,534.448399416,539.601805708,534.9009952910001,535.9314422910002,536.5503202499999,537.5833117910001,534.448399416,534.448399416,534.4181013743333,534.448399416,534.448399416,534.448399416,534.4181013743333,534.448399416,534.448399416,539.601805708,534.448399416,539.601805708,539.673164666,540.3477536250002,534.448399416,2,1,1.275464541999554,reldom2_s014,001,2025-02-13_15h57.23.697,What-A-Scan_AC,2022.2.5,None,
0,0.0,None,fixation,stimulus/audwhat_stim/blank_white.png,stimulus/audwhat_stim/blank_white.png,stimulus/viswhat_stim/blank_white.png,stimulus/viswhat_stim/blank_white.png,stimulus/audwhat_stim/blank_white.png,stimulus/audwhat_stim/blank_white.png,stimulus/audwhat_stim/blank_white.png,stimulus/audwhat_stim/blank_white.png,0.0,0.0,0.0,0.0,0,0.0,0,0.0,0,0.0,0,0.0,0,0.0,0.0,0,0.0,0,0.0,0,0.0,0,0.0,0,0.0,0,0.0,0,0.0,0,0.0,9,,,,,0,61,61,61,,,,,,,,,540.5725909580001,540.5725909580001,540.5725909580001,540.5725909580001,540.5725909580001,540.5725909580001,540.5725909580001,540.5725909580001,540.4810869583335,540.5725909580001,540.5725909580001,540.5725909580001,540.4810869583335,540.5725909580001,540.5725909580001,540.5725909580001,540.5725909580001,540.5725909580001,540.5725909580001,540.5725909580001,540.5725909580001,540.5725909580001,540.5725909580001,540.5725909580001,540.5725909580001,540.5725909580001,540.5725909580001,540.5310869583335,540.5725909580001,540.5725909580001,540.5725909580001,540.5310869583335,540.5725909580001,540.5725909580001,540.5725909580001,540.5725909580001,540.5725909580001,545.7577563330001,545.7577563330001,549.804280541,None,0,,reldom2_s014,001,2025-02-13_15h57.23.697,What-A-Scan_AC,2022.2.5,None,
47,Second_Order,8.0,viswhat,stimulus/viswhat_stim/water_animal-dolphin.png,stimulus/viswhat_stim/water_vehicle-cruiseship.png,stimulus/viswhat_stim/land_vehicle-oldcar.png,stimulus/viswhat_stim/land_animal-giraffe.png,stimulus/audwhat_stim/match_blank.png,stimulus/audwhat_stim/match_box.png,stimulus/audwhat_stim/match_yes.png,stimulus/audwhat_stim/match_no.png,1.0,Match,Location,Location,1,5.125,0,5.125,0,5.125,0,5.125,0,0.75,0.75,1,0.5,1,2.125,1,0.5,1,2.125,0,0.0,0,0.0,0,0.0,0,0.0,0,,,,,0,62,62,62,,,,,,,,,549.804280541,554.9224545410002,550.1925146250001,551.179213291,551.8272174580002,552.8155645830002,549.804280541,549.804280541,549.8191963746667,549.804280541,549.804280541,549.804280541,549.8191963746667,549.804280541,554.9224545410002,555.8142923330001,557.8721205410002,,555.8142923330001,555.8142923330001,560.9955945830002,556.2128483330002,557.2746105000001,557.8721205410002,558.9425287910003,555.8142923330001,555.8142923330001,555.7562061660002,555.8142923330001,555.8142923330001,555.8142923330001,555.7562061660002,555.8142923330001,555.8142923330001,560.9955945830002,555.8142923330001,560.9955945830002,560.9955945830002,,555.8142923330001,1,1,0.7104493339998044,reldom2_s014,001,2025-02-13_15h57.23.697,What-A-Scan_AC,2022.2.5,None,
48,Second_Order,8.0,viswhat,stimulus/viswhat_stim/land_animal-ostrich.png,stimulus/viswhat_stim/water_animal-shark.png,stimulus/viswhat_stim/water_animal-whale.png,stimulus/viswhat_stim/water_vehicle-cargoboat.png,stimulus/audwhat_stim/match_blank.png,stimulus/audwhat_stim/match_box.png,stimulus/audwhat_stim/match_yes.png,stimulus/audwhat_stim/match_no.png,2.0,Match,Type,Location,2,5.125,0,5.125,0,5.125,0,5.125,0,0.625,0.625,1,0.5,1,2.125,1,0.5,1,2.125,0,0.0,0,0.0,0,0.0,0,0.0,0,,,,,0,63,63,63,,,,,,,,,561.75404325,566.8660855000003,562.2175160410002,563.2073359999999,563.842995041,564.8404619580001,561.75404325,561.75404325,561.752576791,561.75404325,561.75404325,561.75404325,561.752576791,561.75404325,566.8660855000003,567.5578127910003,569.6299357080002,573.6692311249999,567.5578127910003,567.5578127910003,572.6942666250002,568.0106715830002,569.0215092500002,569.6299357080002,570.6476901660003,567.5578127910003,567.5578127910003,567.530141,567.5578127910003,567.5578127910003,567.5578127910003,567.530141,567.5578127910003,567.5578127910003,572.6942666250002,567.5578127910003,572.6942666250002,572.736393875,573.364750666,567.5578127910003,2,1,0.8197919579997688,reldom2_s014,001,2025-02-13_15h57.23.697,What-A-Scan_AC,2022.2.5,None,
0,0.0,None,fixation,stimulus/audwhat_stim/blank_white.png,stimulus/audwhat_stim/blank_white.png,stimulus/viswhat_stim/blank_white.png,stimulus/viswhat_stim/blank_white.png,stimulus/audwhat_stim/blank_white.png,stimulus/audwhat_stim/blank_white.png,stimulus/audwhat_stim/blank_white.png,stimulus/audwhat_stim/blank_white.png,0.0,0.0,0.0,0.0,0,0.0,0,0.0,0,0.0,0,0.0,0,0.0,0.0,0,0.0,0,0.0,0,0.0,0,0.0,0,0.0,0,0.0,0,0.0,0,0.0,16,,,,,0,64,64,64,,,,,,,,,573.6692311249999,573.6692311249999,573.6692311249999,573.6692311249999,573.6692311249999,573.6692311249999,573.6692311249999,573.6692311249999,573.5692989160003,573.6692311249999,573.6692311249999,573.6692311249999,573.5692989160003,573.6692311249999,573.6692311249999,573.6692311249999,573.6692311249999,573.6692311249999,573.6692311249999,573.6692311249999,573.6692311249999,573.6692311249999,573.6692311249999,573.6692311249999,573.6692311249999,573.6692311249999,573.6692311249999,573.6192989160003,573.6692311249999,573.6692311249999,573.6692311249999,573.6192989160003,573.6692311249999,573.6692311249999,573.6692311249999,573.6692311249999,573.6692311249999,578.8672581660003,578.8672581660003,589.8079749160001,None,0,,reldom2_s014,001,2025-02-13_15h57.23.697,What-A-Scan_AC,2022.2.5,None,
