Trial,Order,Block,Type,Stimuli_File1,Stimuli_File2,Stimuli_File3,Stimuli_File4,Cue_File1,Cue_File2,Response_File_Yes,Response_File_No,Match,Cue_Dimension,Pair1_Dimension,Pair2_Dimension,Key,Cue1_Duration,Cue1_Onset,Cue2_Duration,Cue2_Onset,ResponseYes_Duration,ResponseYes_Onset,ResponseNo_Duration,ResponseNo_Onset,ITI_Within,ITI_Between,Image1_Duration,Image1_Onset,Image2_Duration,Image2_Onset,Image3_Duration,Image3_Onset,Image4_Duration,Image4_Onset,Sound1_Duration,Sound1_Onset,Sound2_Duration,Sound2_Onset,Sound3_Duration,Sound3_Onset,Sound4_Duration,Sound4_Onset,Fixation_Duration,trials_2.thisRepN,trials_2.thisTrialN,trials_2.thisN,trials_2.thisIndex,trials.thisRepN,trials.thisTrialN,trials.thisN,trials.thisIndex,text_start.started,key_resp_start.started,key_resp_start.keys,key_resp_start.rt,text2.started,key_resp_2.started,key_resp_2.keys,key_resp_2.rt,cue_file1.started,cue_file1.stopped,image_1.started,image_1.stopped,image_2.started,image_2.stopped,sound_icon1.started,sound_icon1.stopped,sound_1.started,sound_1.stopped,sound_icon2.started,sound_icon2.stopped,sound_2.started,sound_2.stopped,image_blank_1.started,image_blank_1.stopped,key_press.started,key_press.stopped,fixation_text.started,cue_file2.started,cue_file2.stopped,image_3.started,image_3.stopped,image_4.started,image_4.stopped,sound_icon3.started,sound_icon3.stopped,sound_3.started,sound_3.stopped,sound_icon4.started,sound_icon4.stopped,sound_4.started,sound_4.stopped,response_yes.started,response_yes.stopped,response_no.started,response_no.stopped,iti_blank.started,iti_blank.stopped,fixation_text.stopped,key_press.keys,key_press.corr,key_press.rt,participant,session,date,expName,psychopyVersion,frameRate,
,,,,,,,,,,,,,,,,,,,,,,,,,,,,,,,,,,,,,,,,,,,,,,,,,,,,8.263634958999774,8.263634958999774,2,0.6848854569998366,,,,,,,,,,,,,,,,,,,,,,,,,,,,,,,,,,,,,,,,,,,,,,,,reldom2_s014,001,2025-02-13_15h46.05.653,Vis-A-Scan_AC,2022.2.5,None,
,,,,,,,,,,,,,,,,,,,,,,,,,,,,,,,,,,,,,,,,,,,,0,0,0,0,,,,,,,,,8.980245333999846,8.980245333999846,5,17.398295666000195,,,,,,,,,,,,,,,,,,,,,,,,,,,,,,,,,,,,,,,,,,,,reldom2_s014,001,2025-02-13_15h46.05.653,Vis-A-Scan_AC,2022.2.5,None,
,,,,,,,,,,,,,,,,,,,,,,,,,,,,,,,,,,,,,,,,,,,,1,0,1,0,,,,,,,,,26.39461270899983,26.39461270899983,5,1.982987625000078,,,,,,,,,,,,,,,,,,,,,,,,,,,,,,,,,,,,,,,,,,,,reldom2_s014,001,2025-02-13_15h46.05.653,Vis-A-Scan_AC,2022.2.5,None,
,,,,,,,,,,,,,,,,,,,,,,,,,,,,,,,,,,,,,,,,,,,,2,0,2,0,,,,,,,,,28.406319084000188,28.406319084000188,5,1.9739540820000911,,,,,,,,,,,,,,,,,,,,,,,,,,,,,,,,,,,,,,,,,,,,reldom2_s014,001,2025-02-13_15h46.05.653,Vis-A-Scan_AC,2022.2.5,None,
,,,,,,,,,,,,,,,,,,,,,,,,,,,,,,,,,,,,,,,,,,,,3,0,3,0,,,,,,,,,30.394748000000163,30.394748000000163,5,1.9837084999999206,,,,,,,,,,,,,,,,,,,,,,,,,,,,,,,,,,,,,,,,,,,,reldom2_s014,001,2025-02-13_15h46.05.653,Vis-A-Scan_AC,2022.2.5,None,
0,0.0,None,fixation,stimulus/viswhat_stim/blank_white.png,stimulus/viswhat_stim/blank_white.png,stimulus/viswhere_stim/blank_white.png,stimulus/viswhere_stim/blank_white.png,stimulus/viswhat_stim/blank_white.png,stimulus/viswhat_stim/blank_white.png,stimulus/viswhat_stim/blank_white.png,stimulus/viswhat_stim/blank_white.png,0.0,0.0,0.0,0.0,0,0.0,0,0.0,0,0.0,0,0.0,0,0.0,0.0,0,0.0,0,0.0,0,0.0,0,0.0,0,0,0,0,0,0,0,0,16,,,,,0,0,0,0,,,,,,,,,32.598415250000016,32.598415250000016,32.598415250000016,32.598415250000016,32.598415250000016,32.598415250000016,32.598415250000016,32.598415250000016,32.49922554166675,32.598415250000016,32.598415250000016,32.598415250000016,32.49922554166675,32.598415250000016,32.598415250000016,32.598415250000016,32.598415250000016,32.598415250000016,32.598415250000016,32.598415250000016,32.598415250000016,32.598415250000016,32.598415250000016,32.598415250000016,32.598415250000016,32.598415250000016,32.598415250000016,32.54922554166675,32.598415250000016,32.598415250000016,32.598415250000016,32.54922554166675,32.598415250000016,32.598415250000016,32.598415250000016,32.598415250000016,32.598415250000016,37.81853620899983,37.81853620899983,48.85619137499998,None,0,,reldom2_s014,001,2025-02-13_15h46.05.653,Vis-A-Scan_AC,2022.2.5,None,
1,First_Order,1.0,viswhat,stimulus/viswhat_stim/blank_white.png,stimulus/viswhat_stim/blank_white.png,stimulus/viswhat_stim/land_animal-moose.png,stimulus/viswhat_stim/water_animal-seaturtle.png,stimulus/viswhat_stim/blank_white.png,stimulus/viswhat_stim/type_box.png,stimulus/viswhat_stim/type_yes.png,stimulus/viswhat_stim/type_no.png,None,Type,None,Type,1,0.0,0,5.125,0,5.125,0,5.125,0,0.0,0.625,0,0.0,0,0.0,1,0.5,1,2.125,0,0,0,0,0,0,0,0,0,,,,,0,1,1,1,,,,,,,,,48.85619137499998,48.85619137499998,48.85619137499998,48.85619137499998,48.85619137499998,48.85619137499998,48.85619137499998,48.85619137499998,48.75682258399993,48.85619137499998,48.85619137499998,48.85619137499998,48.75682258399993,48.85619137499998,48.85619137499998,48.85619137499998,50.94589300000007,54.92399533400021,48.85619137499998,48.85619137499998,54.06295758399983,49.30763012499983,50.382098250000126,50.94589300000007,52.02231841699995,48.85619137499998,48.85619137499998,48.806822583999924,48.85619137499998,48.85619137499998,48.85619137499998,48.806822583999924,48.85619137499998,48.85619137499998,54.06295758399983,48.85619137499998,54.06295758399983,54.06295758399983,54.7321784589999,48.85619137499998,1,1,1.9215048750002097,reldom2_s014,001,2025-02-13_15h46.05.653,Vis-A-Scan_AC,2022.2.5,None,
2,First_Order,1.0,viswhat,stimulus/viswhat_stim/blank_white.png,stimulus/viswhat_stim/blank_white.png,stimulus/viswhat_stim/water_vehicle-submarine.png,stimulus/viswhat_stim/land_vehicle-firetruck.png,stimulus/viswhat_stim/blank_white.png,stimulus/viswhat_stim/type_box.png,stimulus/viswhat_stim/type_yes.png,stimulus/viswhat_stim/type_no.png,None,Type,None,Type,1,0.0,0,5.125,0,5.125,0,5.125,0,0.0,0.625,0,0.0,0,0.0,1,0.5,1,2.125,0,0,0,0,0,0,0,0,0,,,,,0,2,2,2,,,,,,,,,54.92399533400021,54.92399533400021,54.92399533400021,54.92399533400021,54.92399533400021,54.92399533400021,54.92399533400021,54.92399533400021,54.882178458999896,54.92399533400021,54.92399533400021,54.92399533400021,54.882178458999896,54.92399533400021,54.92399533400021,54.92399533400021,57.03638312500016,61.01841400000012,54.92399533400021,54.92399533400021,60.05803066699991,55.400725833999786,56.43356245899986,57.03638312500016,58.04815562500016,54.92399533400021,54.92399533400021,54.89884512566656,54.92399533400021,54.92399533400021,54.92399533400021,54.89884512566656,54.92399533400021,54.92399533400021,60.05803066699991,54.92399533400021,60.05803066699991,60.136199084000054,60.76857820899977,54.92399533400021,1,1,0.5416585410002881,reldom2_s014,001,2025-02-13_15h46.05.653,Vis-A-Scan_AC,2022.2.5,None,
3,First_Order,1.0,viswhat,stimulus/viswhat_stim/blank_white.png,stimulus/viswhat_stim/blank_white.png,stimulus/viswhat_stim/water_vehicle-kayak.png,stimulus/viswhat_stim/land_vehicle-vespa.png,stimulus/viswhat_stim/blank_white.png,stimulus/viswhat_stim/location_box.png,stimulus/viswhat_stim/location_yes.png,stimulus/viswhat_stim/location_no.png,None,Location,None,Type,2,0.0,0,5.125,0,5.125,0,5.125,0,0.0,0.625,0,0.0,0,0.0,1,0.5,1,2.125,0,0,0,0,0,0,0,0,0,,,,,0,3,3,3,,,,,,,,,61.01841400000012,61.01841400000012,61.01841400000012,61.01841400000012,61.01841400000012,61.01841400000012,61.01841400000012,61.01841400000012,60.96658350000016,61.01841400000012,61.01841400000012,61.01841400000012,60.96658350000016,61.01841400000012,61.01841400000012,61.01841400000012,63.09763449999991,67.12026849999984,61.01841400000012,61.01841400000012,66.1916101249999,61.48467612500008,62.52421233399991,63.09763449999991,64.14468687499993,61.01841400000012,61.01841400000012,60.98325016666683,61.01841400000012,61.01841400000012,61.01841400000012,60.98325016666683,61.01841400000012,61.01841400000012,66.1916101249999,61.01841400000012,66.1916101249999,66.22220424999978,66.86103216699985,61.01841400000012,2,1,0.6787339989996326,reldom2_s014,001,2025-02-13_15h46.05.653,Vis-A-Scan_AC,2022.2.5,None,
4,First_Order,1.0,viswhat,stimulus/viswhat_stim/blank_white.png,stimulus/viswhat_stim/blank_white.png,stimulus/viswhat_stim/water_vehicle-pirateship.png,stimulus/viswhat_stim/land_vehicle-buldozer.png,stimulus/viswhat_stim/blank_white.png,stimulus/viswhat_stim/location_box.png,stimulus/viswhat_stim/location_yes.png,stimulus/viswhat_stim/location_no.png,None,Location,None,Type,2,0.0,0,5.125,0,5.125,0,5.125,0,0.0,0.625,0,0.0,0,0.0,1,0.5,1,2.125,0,0,0,0,0,0,0,0,0,,,,,0,4,4,4,,,,,,,,,67.12026849999984,67.12026849999984,67.12026849999984,67.12026849999984,67.12026849999984,67.12026849999984,67.12026849999984,67.12026849999984,67.06844216666683,67.12026849999984,67.12026849999984,67.12026849999984,67.06844216666683,67.12026849999984,67.12026849999984,67.12026849999984,69.20903054200016,,67.12026849999984,67.12026849999984,72.278930167,67.59174091700015,68.63658729200006,69.20903054200016,70.25761591699984,67.12026849999984,67.12026849999984,67.10177550000017,67.12026849999984,67.12026849999984,67.12026849999984,67.10177550000017,67.12026849999984,67.12026849999984,72.278930167,67.12026849999984,72.278930167,72.33545912499994,72.98345874999995,67.12026849999984,2,1,2.6588524160001725,reldom2_s014,001,2025-02-13_15h46.05.653,Vis-A-Scan_AC,2022.2.5,None,
0,0.0,None,fixation,stimulus/viswhat_stim/blank_white.png,stimulus/viswhat_stim/blank_white.png,stimulus/viswhere_stim/blank_white.png,stimulus/viswhere_stim/blank_white.png,stimulus/viswhat_stim/blank_white.png,stimulus/viswhat_stim/blank_white.png,stimulus/viswhat_stim/blank_white.png,stimulus/viswhat_stim/blank_white.png,0.0,0.0,0.0,0.0,0,0.0,0,0.0,0,0.0,0,0.0,0,0.0,0.0,0,0.0,0,0.0,0,0.0,0,0.0,0,0,0,0,0,0,0,0,9,,,,,0,5,5,5,,,,,,,,,73.24512970900014,73.24512970900014,73.24512970900014,73.24512970900014,73.24512970900014,73.24512970900014,73.24512970900014,73.24512970900014,73.15584412566646,73.24512970900014,73.24512970900014,73.24512970900014,73.15584412566646,73.24512970900014,73.24512970900014,73.24512970900014,73.24512970900014,73.24512970900014,73.24512970900014,73.24512970900014,73.24512970900014,73.24512970900014,73.24512970900014,73.24512970900014,73.24512970900014,73.24512970900014,73.24512970900014,73.20584412566647,73.24512970900014,73.24512970900014,73.24512970900014,73.20584412566647,73.24512970900014,73.24512970900014,73.24512970900014,73.24512970900014,73.24512970900014,78.43845133400009,78.43845133400009,82.43145666700002,None,0,,reldom2_s014,001,2025-02-13_15h46.05.653,Vis-A-Scan_AC,2022.2.5,None,
5,Second_Order,1.0,viswhat,stimulus/viswhat_stim/water_vehicle-cruiser.png,stimulus/viswhat_stim/land_vehicle-pickuptruck.png,stimulus/viswhat_stim/land_animal-snake.png,stimulus/viswhat_stim/land_vehicle-trolley.png,stimulus/viswhat_stim/match_blank.png,stimulus/viswhat_stim/match_box.png,stimulus/viswhat_stim/match_yes.png,stimulus/viswhat_stim/match_no.png,2.0,Match,Type,Location,2,5.125,0,5.125,0,5.125,0,5.125,0,0.75,0.75,1,0.5,1,2.125,1,0.5,1,2.125,0,0,0,0,0,0,0,0,0,,,,,0,6,6,6,,,,,,,,,82.43145666700002,87.54866837500003,82.85336162500016,83.85157037499994,84.47401633399977,85.47204166699976,82.43145666700002,82.43145666700002,82.44387250033327,82.43145666700002,82.43145666700002,82.43145666700002,82.44387250033327,82.43145666700002,87.54866837500003,88.35181754199994,90.42670237499988,94.3229107090001,88.35181754199994,88.35181754199994,93.48483124999984,88.8000392089998,89.82325366699979,90.42670237499988,91.4326269170001,88.35181754199994,88.35181754199994,88.33217341700019,88.35181754199994,88.35181754199994,88.35181754199994,88.33217341700019,88.35181754199994,88.35181754199994,93.48483124999984,88.35181754199994,93.48483124999984,93.53501141700008,94.3229107090001,88.35181754199994,2,1,0.5350887909999074,reldom2_s014,001,2025-02-13_15h46.05.653,Vis-A-Scan_AC,2022.2.5,None,
6,Second_Order,1.0,viswhat,stimulus/viswhat_stim/land_vehicle-firetruck.png,stimulus/viswhat_stim/land_animal-dog.png,stimulus/viswhat_stim/water_animal-seaturtle.png,stimulus/viswhat_stim/water_vehicle-sailboat.png,stimulus/viswhat_stim/match_blank.png,stimulus/viswhat_stim/match_box.png,stimulus/viswhat_stim/match_yes.png,stimulus/viswhat_stim/match_no.png,1.0,Match,Location,Location,1,5.125,0,5.125,0,5.125,0,5.125,0,0.625,0.625,1,0.5,1,2.125,1,0.5,1,2.125,0,0,0,0,0,0,0,0,0,,,,,0,7,7,7,,,,,,,,,94.3229107090001,99.44271124999977,94.79713004199994,95.78263870899991,96.419712334,97.41641245900018,94.3229107090001,94.3229107090001,94.32376754199986,94.3229107090001,94.3229107090001,94.3229107090001,94.32376754199986,94.3229107090001,99.44271124999977,100.18648249999978,102.24138366699981,106.2962229589998,100.18648249999978,100.18648249999978,105.35424187499984,100.59678395899982,101.67465920899986,102.24138366699981,103.285091792,100.18648249999978,100.18648249999978,100.13894495833331,100.18648249999978,100.18648249999978,100.18648249999978,100.13894495833331,100.18648249999978,100.18648249999978,105.35424187499984,100.18648249999978,105.35424187499984,105.35424187499984,106.05171012499977,100.18648249999978,1,1,0.5569238330003827,reldom2_s014,001,2025-02-13_15h46.05.653,Vis-A-Scan_AC,2022.2.5,None,
0,0.0,None,fixation,stimulus/viswhat_stim/blank_white.png,stimulus/viswhat_stim/blank_white.png,stimulus/viswhere_stim/blank_white.png,stimulus/viswhere_stim/blank_white.png,stimulus/viswhat_stim/blank_white.png,stimulus/viswhat_stim/blank_white.png,stimulus/viswhat_stim/blank_white.png,stimulus/viswhat_stim/blank_white.png,0.0,0.0,0.0,0.0,0,0.0,0,0.0,0,0.0,0,0.0,0,0.0,0.0,0,0.0,0,0.0,0,0.0,0,0.0,0,0,0,0,0,0,0,0,9,,,,,0,8,8,8,,,,,,,,,106.2962229589998,106.2962229589998,106.2962229589998,106.2962229589998,106.2962229589998,106.2962229589998,106.2962229589998,106.2962229589998,106.20171012499978,106.2962229589998,106.2962229589998,106.2962229589998,106.20171012499978,106.2962229589998,106.2962229589998,106.2962229589998,106.2962229589998,106.2962229589998,106.2962229589998,106.2962229589998,106.2962229589998,106.2962229589998,106.2962229589998,106.2962229589998,106.2962229589998,106.2962229589998,106.2962229589998,106.25171012499978,106.2962229589998,106.2962229589998,106.2962229589998,106.25171012499978,106.2962229589998,106.2962229589998,106.2962229589998,106.2962229589998,106.2962229589998,111.50245075000021,111.50245075000021,115.57864749999999,None,0,,reldom2_s014,001,2025-02-13_15h46.05.653,Vis-A-Scan_AC,2022.2.5,None,
7,First_Order,2.0,viswhat,stimulus/viswhat_stim/blank_white.png,stimulus/viswhat_stim/blank_white.png,stimulus/viswhat_stim/water_vehicle-ship.png,stimulus/viswhat_stim/water_animal-stingray.png,stimulus/viswhat_stim/blank_white.png,stimulus/viswhat_stim/type_box.png,stimulus/viswhat_stim/type_yes.png,stimulus/viswhat_stim/type_no.png,None,Type,None,Location,2,0.0,0,5.125,0,5.125,0,5.125,0,0.0,0.625,0,0.0,0,0.0,1,0.5,1,2.125,0,0,0,0,0,0,0,0,0,,,,,0,9,9,9,,,,,,,,,115.57864749999999,115.57864749999999,115.57864749999999,115.57864749999999,115.57864749999999,115.57864749999999,115.57864749999999,115.57864749999999,115.47359058400016,115.57864749999999,115.57864749999999,115.57864749999999,115.47359058400016,115.57864749999999,115.57864749999999,115.57864749999999,117.64995362499985,,115.57864749999999,115.57864749999999,120.7572607090001,116.01426629199977,117.05134391699994,117.64995362499985,118.68791825000017,115.57864749999999,115.57864749999999,115.54025725066683,115.57864749999999,115.57864749999999,115.57864749999999,115.54025725066683,115.57864749999999,115.57864749999999,120.7572607090001,115.57864749999999,120.7572607090001,120.7572607090001,121.44197625000015,115.57864749999999,2,1,1.3787313739999263,reldom2_s014,001,2025-02-13_15h46.05.653,Vis-A-Scan_AC,2022.2.5,None,
8,First_Order,2.0,viswhat,stimulus/viswhat_stim/blank_white.png,stimulus/viswhat_stim/blank_white.png,stimulus/viswhat_stim/land_vehicle-train.png,stimulus/viswhat_stim/land_animal-fox.png,stimulus/viswhat_stim/blank_white.png,stimulus/viswhat_stim/type_box.png,stimulus/viswhat_stim/type_yes.png,stimulus/viswhat_stim/type_no.png,None,Type,None,Location,2,0.0,0,5.125,0,5.125,0,5.125,0,0.0,0.625,0,0.0,0,0.0,1,0.5,1,2.125,0,0,0,0,0,0,0,0,0,,,,,0,10,10,10,,,,,,,,,121.62353308399997,121.62353308399997,121.62353308399997,121.62353308399997,121.62353308399997,121.62353308399997,121.62353308399997,121.62353308399997,121.59197625000016,121.62353308399997,121.62353308399997,121.62353308399997,121.59197625000016,121.62353308399997,121.62353308399997,121.62353308399997,123.72969479199992,127.7180804589998,121.62353308399997,121.62353308399997,126.76421120899977,122.0956593750002,123.1071914590002,123.72969479199992,124.74222262500007,121.62353308399997,121.62353308399997,121.60864291666682,121.62353308399997,121.62353308399997,121.62353308399997,121.60864291666682,121.62353308399997,121.62353308399997,126.76421120899977,121.62353308399997,126.76421120899977,126.84339825000006,127.47024925000005,121.62353308399997,2,1,1.139797248999912,reldom2_s014,001,2025-02-13_15h46.05.653,Vis-A-Scan_AC,2022.2.5,None,
9,First_Order,2.0,viswhat,stimulus/viswhat_stim/blank_white.png,stimulus/viswhat_stim/blank_white.png,stimulus/viswhat_stim/land_animal-lion.png,stimulus/viswhat_stim/land_vehicle-bus.png,stimulus/viswhat_stim/blank_white.png,stimulus/viswhat_stim/location_box.png,stimulus/viswhat_stim/location_yes.png,stimulus/viswhat_stim/location_no.png,None,Location,None,Location,1,0.0,0,5.125,0,5.125,0,5.125,0,0.0,0.625,0,0.0,0,0.0,1,0.5,1,2.125,0,0,0,0,0,0,0,0,0,,,,,0,11,11,11,,,,,,,,,127.7180804589998,127.7180804589998,127.7180804589998,127.7180804589998,127.7180804589998,127.7180804589998,127.7180804589998,127.7180804589998,127.65406550033352,127.7180804589998,127.7180804589998,127.7180804589998,127.65406550033352,127.7180804589998,127.7180804589998,127.7180804589998,129.81323262500018,133.87459591700008,127.7180804589998,127.7180804589998,132.8585107089998,128.17503370899976,129.20395125000005,129.81323262500018,130.84394250000014,127.7180804589998,127.7180804589998,127.68739883366685,127.7180804589998,127.7180804589998,127.7180804589998,127.68739883366685,127.7180804589998,127.7180804589998,132.8585107089998,127.7180804589998,132.8585107089998,132.92370274999985,133.57115212500003,127.7180804589998,1,1,1.3615676660001554,reldom2_s014,001,2025-02-13_15h46.05.653,Vis-A-Scan_AC,2022.2.5,None,
10,First_Order,2.0,viswhat,stimulus/viswhat_stim/blank_white.png,stimulus/viswhat_stim/blank_white.png,stimulus/viswhat_stim/land_animal-elephant.png,stimulus/viswhat_stim/land_vehicle-motorcycle.png,stimulus/viswhat_stim/blank_white.png,stimulus/viswhat_stim/location_box.png,stimulus/viswhat_stim/location_yes.png,stimulus/viswhat_stim/location_no.png,None,Location,None,Location,1,0.0,0,5.125,0,5.125,0,5.125,0,0.0,0.625,0,0.0,0,0.0,1,0.5,1,2.125,0,0,0,0,0,0,0,0,0,,,,,0,12,12,12,,,,,,,,,133.87459591700008,133.87459591700008,133.87459591700008,133.87459591700008,133.87459591700008,133.87459591700008,133.87459591700008,133.87459591700008,133.75193483366672,133.87459591700008,133.87459591700008,133.87459591700008,133.75193483366672,133.87459591700008,133.87459591700008,133.87459591700008,135.94331754199993,140.01872141700005,133.87459591700008,133.87459591700008,139.07638641699987,134.34378937500014,135.41036358400015,135.94331754199993,137.01288966699985,133.87459591700008,133.87459591700008,133.8186015003334,133.87459591700008,133.87459591700008,133.87459591700008,133.8186015003334,133.87459591700008,133.87459591700008,139.07638641699987,133.87459591700008,139.07638641699987,139.07638641699987,139.7445994589998,133.87459591700008,1,1,0.7195757910003522,reldom2_s014,001,2025-02-13_15h46.05.653,Vis-A-Scan_AC,2022.2.5,None,
0,0.0,None,fixation,stimulus/viswhat_stim/blank_white.png,stimulus/viswhat_stim/blank_white.png,stimulus/viswhere_stim/blank_white.png,stimulus/viswhere_stim/blank_white.png,stimulus/viswhat_stim/blank_white.png,stimulus/viswhat_stim/blank_white.png,stimulus/viswhat_stim/blank_white.png,stimulus/viswhat_stim/blank_white.png,0.0,0.0,0.0,0.0,0,0.0,0,0.0,0,0.0,0,0.0,0,0.0,0.0,0,0.0,0,0.0,0,0.0,0,0.0,0,0,0,0,0,0,0,0,10,,,,,0,13,13,13,,,,,,,,,140.01872141700005,140.01872141700005,140.01872141700005,140.01872141700005,140.01872141700005,140.01872141700005,140.01872141700005,140.01872141700005,139.92793279233314,140.01872141700005,140.01872141700005,140.01872141700005,139.92793279233314,140.01872141700005,140.01872141700005,140.01872141700005,140.01872141700005,140.01872141700005,140.01872141700005,140.01872141700005,140.01872141700005,140.01872141700005,140.01872141700005,140.01872141700005,140.01872141700005,140.01872141700005,140.01872141700005,139.97793279233315,140.01872141700005,140.01872141700005,140.01872141700005,139.97793279233315,140.01872141700005,140.01872141700005,140.01872141700005,140.01872141700005,140.01872141700005,145.23696608399996,145.23696608399996,150.16881362499998,None,0,,reldom2_s014,001,2025-02-13_15h46.05.653,Vis-A-Scan_AC,2022.2.5,None,
11,Second_Order,2.0,viswhat,stimulus/viswhat_stim/water_vehicle-cabincruiser.png,stimulus/viswhat_stim/land_vehicle-scooter.png,stimulus/viswhat_stim/land_animal-giraffe.png,stimulus/viswhat_stim/water_animal-squid.png,stimulus/viswhat_stim/match_blank.png,stimulus/viswhat_stim/match_box.png,stimulus/viswhat_stim/match_yes.png,stimulus/viswhat_stim/match_no.png,1.0,Match,Type,Type,1,5.125,0,5.125,0,5.125,0,5.125,0,0.75,0.75,1,0.5,1,2.125,1,0.5,1,2.125,0,0,0,0,0,0,0,0,0,,,,,0,14,14,14,,,,,,,,,150.16881362499998,155.28745141699983,150.626568959,151.62535375000016,152.25967987500007,153.249212834,150.16881362499998,150.16881362499998,150.16832575033337,150.16881362499998,150.16881362499998,150.16881362499998,150.16832575033337,150.16881362499998,155.28745141699983,156.15769512499992,158.21820554199985,162.15813604200002,156.15769512499992,156.15769512499992,161.32880941699977,156.59106158399982,157.67426299999988,158.21820554199985,159.25684016700006,156.15769512499992,156.15769512499992,156.10527450033337,156.15769512499992,156.15769512499992,156.15769512499992,156.10527450033337,156.15769512499992,156.15769512499992,161.32880941699977,156.15769512499992,161.32880941699977,161.32880941699977,,156.15769512499992,1,1,0.9585481660001278,reldom2_s014,001,2025-02-13_15h46.05.653,Vis-A-Scan_AC,2022.2.5,None,
12,Second_Order,2.0,viswhat,stimulus/viswhat_stim/land_animal-bunny.png,stimulus/viswhat_stim/land_vehicle-shortbus.png,stimulus/viswhat_stim/water_vehicle-sailboat.png,stimulus/viswhat_stim/water_animal-whale.png,stimulus/viswhat_stim/match_blank.png,stimulus/viswhat_stim/match_box.png,stimulus/viswhat_stim/match_yes.png,stimulus/viswhat_stim/match_no.png,1.0,Match,Location,Location,1,5.125,0,5.125,0,5.125,0,5.125,0,0.625,0.625,1,0.5,1,2.125,1,0.5,1,2.125,0,0,0,0,0,0,0,0,0,,,,,0,15,15,15,,,,,,,,,162.15813604200002,167.28112812500012,162.6047490420001,163.6025527920001,164.22479629200006,165.22289287500007,162.15813604200002,162.15813604200002,162.1637736669999,162.15813604200002,162.15813604200002,162.15813604200002,162.1637736669999,162.15813604200002,167.28112812500012,168.02641820899998,170.07939295899996,,168.02641820899998,168.02641820899998,173.2180764169998,168.4357132089999,169.51474174999976,170.07939295899996,171.11379316700004,168.02641820899998,168.02641820899998,167.97912779233351,168.02641820899998,168.02641820899998,168.02641820899998,167.97912779233351,168.02641820899998,168.02641820899998,173.2180764169998,168.02641820899998,173.2180764169998,173.2180764169998,174.1082993340001,168.02641820899998,1,1,0.5670344999998633,reldom2_s014,001,2025-02-13_15h46.05.653,Vis-A-Scan_AC,2022.2.5,None,
0,0.0,None,fixation,stimulus/viswhat_stim/blank_white.png,stimulus/viswhat_stim/blank_white.png,stimulus/viswhere_stim/blank_white.png,stimulus/viswhere_stim/blank_white.png,stimulus/viswhat_stim/blank_white.png,stimulus/viswhat_stim/blank_white.png,stimulus/viswhat_stim/blank_white.png,stimulus/viswhat_stim/blank_white.png,0.0,0.0,0.0,0.0,0,0.0,0,0.0,0,0.0,0,0.0,0,0.0,0.0,0,0.0,0,0.0,0,0.0,0,0.0,0,0,0,0,0,0,0,0,9,,,,,0,16,16,16,,,,,,,,,174.1082993340001,174.1082993340001,174.1082993340001,174.1082993340001,174.1082993340001,174.1082993340001,174.1082993340001,174.1082993340001,174.01233566700003,174.1082993340001,174.1082993340001,174.1082993340001,174.01233566700003,174.1082993340001,174.1082993340001,174.1082993340001,174.1082993340001,174.1082993340001,174.1082993340001,174.1082993340001,174.1082993340001,174.1082993340001,174.1082993340001,174.1082993340001,174.1082993340001,174.1082993340001,174.1082993340001,174.06233566700004,174.1082993340001,174.1082993340001,174.1082993340001,174.06233566700004,174.1082993340001,174.1082993340001,174.1082993340001,174.1082993340001,174.1082993340001,179.3164798339999,179.3164798339999,183.31277512499992,None,0,,reldom2_s014,001,2025-02-13_15h46.05.653,Vis-A-Scan_AC,2022.2.5,None,
13,First_Order,3.0,viswhere,stimulus/viswhere_stim/blank_white.png,stimulus/viswhere_stim/blank_white.png,stimulus/viswhere_stim/90-deg_dot-left_slateblue.png,stimulus/viswhere_stim/120-deg_dot-left_slateblue.png,stimulus/viswhere_stim/blank_white.png,stimulus/viswhere_stim/dot_box.png,stimulus/viswhere_stim/dot_yes.png,stimulus/viswhere_stim/dot_no.png,None,Dot,None,Dot,1,0.0,0,5.125,0,5.125,0,5.125,0,0.0,0.625,0,0.0,0,0.0,1,0.5,1,2.125,0,0,0,0,0,0,0,0,0,,,,,0,17,17,17,,,,,,,,,183.31277512499992,183.31277512499992,183.31277512499992,183.31277512499992,183.31277512499992,183.31277512499992,183.31277512499992,183.31277512499992,183.29375062566686,183.31277512499992,183.31277512499992,183.31277512499992,183.29375062566686,183.31277512499992,183.31277512499992,183.31277512499992,185.41751212500003,189.37036575000002,183.31277512499992,183.31277512499992,188.4426401669998,183.78737316700017,184.79454424999994,185.41751212500003,186.42742537499998,183.31277512499992,183.31277512499992,183.29375062566686,183.31277512499992,183.31277512499992,183.31277512499992,183.29375062566686,183.31277512499992,183.31277512499992,188.4426401669998,183.31277512499992,188.4426401669998,188.53958125000008,189.17397883400008,183.31277512499992,1,1,1.1223676240001623,reldom2_s014,001,2025-02-13_15h46.05.653,Vis-A-Scan_AC,2022.2.5,None,
14,First_Order,3.0,viswhere,stimulus/viswhere_stim/blank_white.png,stimulus/viswhere_stim/blank_white.png,stimulus/viswhere_stim/30-deg_dot-left_royalblue.png,stimulus/viswhere_stim/30-deg_dot-right_peru.png,stimulus/viswhere_stim/blank_white.png,stimulus/viswhere_stim/dot_box.png,stimulus/viswhere_stim/dot_yes.png,stimulus/viswhere_stim/dot_no.png,None,Dot,None,Line,2,0.0,0,5.125,0,5.125,0,5.125,0,0.0,0.625,0,0.0,0,0.0,1,0.5,1,2.125,0,0,0,0,0,0,0,0,0,,,,,0,18,18,18,,,,,,,,,189.37036575000002,189.37036575000002,189.37036575000002,189.37036575000002,189.37036575000002,189.37036575000002,189.37036575000002,189.37036575000002,189.35092295833314,189.37036575000002,189.37036575000002,189.37036575000002,189.35092295833314,189.37036575000002,189.37036575000002,189.37036575000002,191.4775380420001,195.4395972090001,189.37036575000002,189.37036575000002,194.5015746250001,189.84545145899983,190.85352954200016,191.4775380420001,192.48995041699982,189.37036575000002,189.37036575000002,189.35092295833314,189.37036575000002,189.37036575000002,189.37036575000002,189.35092295833314,189.37036575000002,189.37036575000002,194.5015746250001,189.37036575000002,194.5015746250001,194.59714870900007,195.2214895000002,189.37036575000002,2,1,0.6991055409998808,reldom2_s014,001,2025-02-13_15h46.05.653,Vis-A-Scan_AC,2022.2.5,None,
15,First_Order,3.0,viswhere,stimulus/viswhere_stim/blank_white.png,stimulus/viswhere_stim/blank_white.png,stimulus/viswhere_stim/150-deg_dot-right_turquoise.png,stimulus/viswhere_stim/150-deg_dot-left_cyan.png,stimulus/viswhere_stim/blank_white.png,stimulus/viswhere_stim/line_box.png,stimulus/viswhere_stim/line_yes.png,stimulus/viswhere_stim/line_no.png,None,Line,None,Line,1,0.0,0,5.125,0,5.125,0,5.125,0,0.0,0.625,0,0.0,0,0.0,1,0.5,1,2.125,0,0,0,0,0,0,0,0,0,,,,,0,19,19,19,,,,,,,,,195.4395972090001,195.4395972090001,195.4395972090001,195.4395972090001,195.4395972090001,195.4395972090001,195.4395972090001,195.4395972090001,195.41822658333317,195.4395972090001,195.4395972090001,195.4395972090001,195.41822658333317,195.4395972090001,195.4395972090001,195.4395972090001,197.55197533399996,201.5036225419999,195.4395972090001,195.4395972090001,200.57390729200006,195.92078495899977,196.9398434169998,197.55197533399996,198.56314070899998,195.4395972090001,195.4395972090001,195.43489324999985,195.4395972090001,195.4395972090001,195.4395972090001,195.43489324999985,195.4395972090001,195.4395972090001,200.57390729200006,195.4395972090001,200.57390729200006,200.66161320899982,201.28861804200005,195.4395972090001,1,1,1.336105082999893,reldom2_s014,001,2025-02-13_15h46.05.653,Vis-A-Scan_AC,2022.2.5,None,
16,First_Order,3.0,viswhere,stimulus/viswhere_stim/blank_white.png,stimulus/viswhere_stim/blank_white.png,stimulus/viswhere_stim/120-deg_dot-right_mediumslateblue.png,stimulus/viswhere_stim/150-deg_dot-right_royalblue.png,stimulus/viswhere_stim/blank_white.png,stimulus/viswhere_stim/line_box.png,stimulus/viswhere_stim/line_yes.png,stimulus/viswhere_stim/line_no.png,None,Line,None,Dot,2,0.0,0,5.125,0,5.125,0,5.125,0,0.0,0.625,0,0.0,0,0.0,1,0.5,1,2.125,0,0,0,0,0,0,0,0,0,,,,,0,20,20,20,,,,,,,,,201.5036225419999,201.5036225419999,201.5036225419999,201.5036225419999,201.5036225419999,201.5036225419999,201.5036225419999,201.5036225419999,201.48274079233337,201.5036225419999,201.5036225419999,201.5036225419999,201.48274079233337,201.5036225419999,201.5036225419999,201.5036225419999,203.60575979199984,207.6392726670001,201.5036225419999,201.5036225419999,206.63476933399988,201.98192854199988,202.99650125000016,203.60575979199984,204.62517683399983,201.5036225419999,201.5036225419999,201.49940745900005,201.5036225419999,201.5036225419999,201.5036225419999,201.49940745900005,201.5036225419999,201.5036225419999,206.63476933399988,201.5036225419999,206.63476933399988,206.73185224999997,207.36312095899984,201.5036225419999,2,1,0.9829350410000188,reldom2_s014,001,2025-02-13_15h46.05.653,Vis-A-Scan_AC,2022.2.5,None,
0,0.0,None,fixation,stimulus/viswhat_stim/blank_white.png,stimulus/viswhat_stim/blank_white.png,stimulus/viswhere_stim/blank_white.png,stimulus/viswhere_stim/blank_white.png,stimulus/viswhat_stim/blank_white.png,stimulus/viswhat_stim/blank_white.png,stimulus/viswhat_stim/blank_white.png,stimulus/viswhat_stim/blank_white.png,0.0,0.0,0.0,0.0,0,0.0,0,0.0,0,0.0,0,0.0,0,0.0,0.0,0,0.0,0,0.0,0,0.0,0,0.0,0,0,0,0,0,0,0,0,8,,,,,0,21,21,21,,,,,,,,,207.6392726670001,207.6392726670001,207.6392726670001,207.6392726670001,207.6392726670001,207.6392726670001,207.6392726670001,207.6392726670001,207.54308437533322,207.6392726670001,207.6392726670001,207.6392726670001,207.54308437533322,207.6392726670001,207.6392726670001,207.6392726670001,207.6392726670001,207.6392726670001,207.6392726670001,207.6392726670001,207.6392726670001,207.6392726670001,207.6392726670001,207.6392726670001,207.6392726670001,207.6392726670001,207.6392726670001,207.59308437533323,207.6392726670001,207.6392726670001,207.6392726670001,207.59308437533323,207.6392726670001,207.6392726670001,207.6392726670001,207.6392726670001,207.6392726670001,212.85144712500005,212.85144712500005,215.78187204200003,None,0,,reldom2_s014,001,2025-02-13_15h46.05.653,Vis-A-Scan_AC,2022.2.5,None,
17,Second_Order,3.0,viswhere,stimulus/viswhere_stim/60-deg_dot-right_seagreen.png,stimulus/viswhere_stim/150-deg_dot-right_seagreen.png,stimulus/viswhere_stim/90-deg_dot-right_salmon.png,stimulus/viswhere_stim/90-deg_dot-left_seagreen.png,stimulus/viswhat_stim/match_blank.png,stimulus/viswhat_stim/match_box.png,stimulus/viswhat_stim/match_yes.png,stimulus/viswhat_stim/match_no.png,2.0,Match,Dot,Line,2,5.125,0,5.125,0,5.125,0,5.125,0,0.75,0.75,1,0.5,1,2.125,1,0.5,1,2.125,0,0,0,0,0,0,0,0,0,,,,,0,22,22,22,,,,,,,,,215.78187204200003,220.9058799999998,216.2611717919999,217.2596632919999,217.8815745840002,218.8800703339998,215.78187204200003,215.78187204200003,215.79681579233343,215.78187204200003,215.78187204200003,215.78187204200003,215.79681579233343,215.78187204200003,220.9058799999998,221.69836720900003,223.78268037499993,227.66294291699978,221.69836720900003,221.69836720900003,226.83347891699987,222.15896187499993,223.17228858399994,223.78268037499993,224.78467708400012,221.69836720900003,221.69836720900003,221.67300591733334,221.69836720900003,221.69836720900003,221.69836720900003,221.67300591733334,221.69836720900003,221.69836720900003,226.83347891699987,221.69836720900003,226.83347891699987,226.8885996250001,227.66294291699978,221.69836720900003,2,1,0.9364581659997384,reldom2_s014,001,2025-02-13_15h46.05.653,Vis-A-Scan_AC,2022.2.5,None,
18,Second_Order,3.0,viswhere,stimulus/viswhere_stim/150-deg_dot-right_goldenrod.png,stimulus/viswhere_stim/150-deg_dot-left_cyan.png,stimulus/viswhere_stim/120-deg_dot-left_royalblue.png,stimulus/viswhere_stim/60-deg_dot-left_royalblue.png,stimulus/viswhat_stim/match_blank.png,stimulus/viswhat_stim/match_box.png,stimulus/viswhat_stim/match_yes.png,stimulus/viswhat_stim/match_no.png,2.0,Match,Line,Dot,2,5.125,0,5.125,0,5.125,0,5.125,0,0.625,0.625,1,0.5,1,2.125,1,0.5,1,2.125,0,0,0,0,0,0,0,0,0,,,,,0,23,23,23,,,,,,,,,227.66294291699978,232.7833138750002,228.1386467090001,229.13749104199997,229.7760106669998,230.7746252500001,227.66294291699978,227.66294291699978,227.67645120900016,227.66294291699978,227.66294291699978,227.66294291699978,227.67645120900016,227.66294291699978,232.7833138750002,233.45454491700002,235.52823391699985,239.56973587499988,233.45454491700002,233.45454491700002,238.57935829200005,233.91271437500018,234.9214991670001,235.52823391699985,236.54207808399997,233.45454491700002,233.45454491700002,233.4305305423332,233.45454491700002,233.45454491700002,233.45454491700002,233.4305305423332,233.45454491700002,233.45454491700002,238.57935829200005,233.45454491700002,238.57935829200005,238.6486662090001,239.2765949589998,233.45454491700002,2,1,1.4802800830002525,reldom2_s014,001,2025-02-13_15h46.05.653,Vis-A-Scan_AC,2022.2.5,None,
0,0.0,None,fixation,stimulus/viswhat_stim/blank_white.png,stimulus/viswhat_stim/blank_white.png,stimulus/viswhere_stim/blank_white.png,stimulus/viswhere_stim/blank_white.png,stimulus/viswhat_stim/blank_white.png,stimulus/viswhat_stim/blank_white.png,stimulus/viswhat_stim/blank_white.png,stimulus/viswhat_stim/blank_white.png,0.0,0.0,0.0,0.0,0,0.0,0,0.0,0,0.0,0,0.0,0,0.0,0.0,0,0.0,0,0.0,0,0.0,0,0.0,0,0,0,0,0,0,0,0,10,,,,,0,24,24,24,,,,,,,,,239.56973587499988,239.56973587499988,239.56973587499988,239.56973587499988,239.56973587499988,239.56973587499988,239.56973587499988,239.56973587499988,239.47368533333324,239.56973587499988,239.56973587499988,239.56973587499988,239.47368533333324,239.56973587499988,239.56973587499988,239.56973587499988,239.56973587499988,239.56973587499988,239.56973587499988,239.56973587499988,239.56973587499988,239.56973587499988,239.56973587499988,239.56973587499988,239.56973587499988,239.56973587499988,239.56973587499988,239.52368533333325,239.56973587499988,239.56973587499988,239.56973587499988,239.52368533333325,239.56973587499988,239.56973587499988,239.56973587499988,239.56973587499988,239.56973587499988,244.75983275,244.75983275,249.78021287499996,None,0,,reldom2_s014,001,2025-02-13_15h46.05.653,Vis-A-Scan_AC,2022.2.5,None,
19,First_Order,4.0,viswhere,stimulus/viswhere_stim/blank_white.png,stimulus/viswhere_stim/blank_white.png,stimulus/viswhere_stim/90-deg_dot-right_royalblue.png,stimulus/viswhere_stim/120-deg_dot-right_goldenrod.png,stimulus/viswhere_stim/blank_white.png,stimulus/viswhere_stim/dot_box.png,stimulus/viswhere_stim/dot_yes.png,stimulus/viswhere_stim/dot_no.png,None,Dot,None,Dot,1,0.0,0,5.125,0,5.125,0,5.125,0,0.0,0.625,0,0.0,0,0.0,1,0.5,1,2.125,0,0,0,0,0,0,0,0,0,,,,,0,25,25,25,,,,,,,,,249.78021287499996,249.78021287499996,249.78021287499996,249.78021287499996,249.78021287499996,249.78021287499996,249.78021287499996,249.78021287499996,249.7629149586666,249.78021287499996,249.78021287499996,249.78021287499996,249.7629149586666,249.78021287499996,249.78021287499996,249.78021287499996,251.88777750000008,255.83771070900002,249.78021287499996,249.78021287499996,254.917685292,250.25563491699995,251.26256858399984,251.88777750000008,252.90088520900008,249.78021287499996,249.78021287499996,249.7629149586666,249.78021287499996,249.78021287499996,249.78021287499996,249.7629149586666,249.78021287499996,249.78021287499996,254.917685292,249.78021287499996,254.917685292,255.00027099999988,255.62488587500002,249.78021287499996,1,1,0.8230184160001954,reldom2_s014,001,2025-02-13_15h46.05.653,Vis-A-Scan_AC,2022.2.5,None,
20,First_Order,4.0,viswhere,stimulus/viswhere_stim/blank_white.png,stimulus/viswhere_stim/blank_white.png,stimulus/viswhere_stim/90-deg_dot-left_peru.png,stimulus/viswhere_stim/90-deg_dot-right_royalblue.png,stimulus/viswhere_stim/blank_white.png,stimulus/viswhere_stim/dot_box.png,stimulus/viswhere_stim/dot_yes.png,stimulus/viswhere_stim/dot_no.png,None,Dot,None,Line,2,0.0,0,5.125,0,5.125,0,5.125,0,0.0,0.625,0,0.0,0,0.0,1,0.5,1,2.125,0,0,0,0,0,0,0,0,0,,,,,0,26,26,26,,,,,,,,,255.83771070900002,255.83771070900002,255.83771070900002,255.83771070900002,255.83771070900002,255.83771070900002,255.83771070900002,255.83771070900002,255.8178008753333,255.83771070900002,255.83771070900002,255.83771070900002,255.8178008753333,255.83771070900002,255.83771070900002,255.83771070900002,257.951132875,261.9158480840001,255.83771070900002,255.83771070900002,260.9678868340002,256.31412095899987,257.32469812499994,257.951132875,258.96769833400003,255.83771070900002,255.83771070900002,255.83446754199997,255.83771070900002,255.83771070900002,255.83771070900002,255.83446754199997,255.83771070900002,255.83771070900002,260.9678868340002,255.83771070900002,260.9678868340002,261.0644737920002,261.6856608339999,255.83771070900002,2,1,0.6842766660001871,reldom2_s014,001,2025-02-13_15h46.05.653,Vis-A-Scan_AC,2022.2.5,None,
21,First_Order,4.0,viswhere,stimulus/viswhere_stim/blank_white.png,stimulus/viswhere_stim/blank_white.png,stimulus/viswhere_stim/120-deg_dot-left_cyan.png,stimulus/viswhere_stim/150-deg_dot-left_seagreen.png,stimulus/viswhere_stim/blank_white.png,stimulus/viswhere_stim/line_box.png,stimulus/viswhere_stim/line_yes.png,stimulus/viswhere_stim/line_no.png,None,Line,None,Dot,2,0.0,0,5.125,0,5.125,0,5.125,0,0.0,0.625,0,0.0,0,0.0,1,0.5,1,2.125,0,0,0,0,0,0,0,0,0,,,,,0,27,27,27,,,,,,,,,261.9158480840001,261.9158480840001,261.9158480840001,261.9158480840001,261.9158480840001,261.9158480840001,261.9158480840001,261.9158480840001,261.89525120833315,261.9158480840001,261.9158480840001,261.9158480840001,261.89525120833315,261.9158480840001,261.9158480840001,261.9158480840001,264.0183457500002,267.9838991669999,261.9158480840001,261.9158480840001,267.04625625000017,262.39496866699983,263.40828387500005,264.0183457500002,265.03644433399995,261.9158480840001,261.9158480840001,261.9119178749998,261.9158480840001,261.9158480840001,261.9158480840001,261.9119178749998,261.9158480840001,261.9158480840001,267.04625625000017,261.9158480840001,267.04625625000017,267.1431753749998,267.7692292500001,261.9158480840001,1,0,1.0729906249998749,reldom2_s014,001,2025-02-13_15h46.05.653,Vis-A-Scan_AC,2022.2.5,None,
22,First_Order,4.0,viswhere,stimulus/viswhere_stim/blank_white.png,stimulus/viswhere_stim/blank_white.png,stimulus/viswhere_stim/150-deg_dot-right_seagreen.png,stimulus/viswhere_stim/150-deg_dot-left_slateblue.png,stimulus/viswhere_stim/blank_white.png,stimulus/viswhere_stim/line_box.png,stimulus/viswhere_stim/line_yes.png,stimulus/viswhere_stim/line_no.png,None,Line,None,Line,1,0.0,0,5.125,0,5.125,0,5.125,0,0.0,0.625,0,0.0,0,0.0,1,0.5,1,2.125,0,0,0,0,0,0,0,0,0,,,,,0,28,28,28,,,,,,,,,267.9838991669999,267.9838991669999,267.9838991669999,267.9838991669999,267.9838991669999,267.9838991669999,267.9838991669999,267.9838991669999,267.96308591733333,267.9838991669999,267.9838991669999,267.9838991669999,267.96308591733333,267.9838991669999,267.9838991669999,267.9838991669999,270.0973077089998,274.12481712499994,267.9838991669999,267.9838991669999,273.1093474999998,268.46490887499976,269.4835687499999,270.0973077089998,271.10585850000007,267.9838991669999,267.9838991669999,267.979752584,267.9838991669999,267.9838991669999,267.9838991669999,267.979752584,267.9838991669999,267.9838991669999,273.1093474999998,267.9838991669999,273.1093474999998,273.20693004199984,273.83359795900014,267.9838991669999,1,1,0.8488738320002085,reldom2_s014,001,2025-02-13_15h46.05.653,Vis-A-Scan_AC,2022.2.5,None,
0,0.0,None,fixation,stimulus/viswhat_stim/blank_white.png,stimulus/viswhat_stim/blank_white.png,stimulus/viswhere_stim/blank_white.png,stimulus/viswhere_stim/blank_white.png,stimulus/viswhat_stim/blank_white.png,stimulus/viswhat_stim/blank_white.png,stimulus/viswhat_stim/blank_white.png,stimulus/viswhat_stim/blank_white.png,0.0,0.0,0.0,0.0,0,0.0,0,0.0,0,0.0,0,0.0,0,0.0,0.0,0,0.0,0,0.0,0,0.0,0,0.0,0,0,0,0,0,0,0,0,9,,,,,0,29,29,29,,,,,,,,,274.12481712499994,274.12481712499994,274.12481712499994,274.12481712499994,274.12481712499994,274.12481712499994,274.12481712499994,274.12481712499994,274.02746458333314,274.12481712499994,274.12481712499994,274.12481712499994,274.02746458333314,274.12481712499994,274.12481712499994,274.12481712499994,274.12481712499994,274.12481712499994,274.12481712499994,274.12481712499994,274.12481712499994,274.12481712499994,274.12481712499994,274.12481712499994,274.12481712499994,274.12481712499994,274.12481712499994,274.07746458333315,274.12481712499994,274.12481712499994,274.12481712499994,274.07746458333315,274.12481712499994,274.12481712499994,274.12481712499994,274.12481712499994,274.12481712499994,279.34326870899986,279.34326870899986,283.2391684999998,None,0,,reldom2_s014,001,2025-02-13_15h46.05.653,Vis-A-Scan_AC,2022.2.5,None,
23,Second_Order,4.0,viswhere,stimulus/viswhere_stim/90-deg_dot-right_salmon.png,stimulus/viswhere_stim/150-deg_dot-right_seagreen.png,stimulus/viswhere_stim/150-deg_dot-right_mediumslateblue.png,stimulus/viswhere_stim/150-deg_dot-left_lightsseagreen.png,stimulus/viswhat_stim/match_blank.png,stimulus/viswhat_stim/match_box.png,stimulus/viswhat_stim/match_yes.png,stimulus/viswhat_stim/match_no.png,2.0,Match,Dot,Line,2,5.125,0,5.125,0,5.125,0,5.125,0,0.75,0.75,1,0.5,1,2.125,1,0.5,1,2.125,0,0,0,0,0,0,0,0,0,,,,,0,30,30,30,,,,,,,,,283.2391684999998,288.3618673340002,283.7172351670001,284.71540049999976,285.33883995899987,286.3358155840001,283.2391684999998,283.2391684999998,283.2380865836666,283.2391684999998,283.2391684999998,283.2391684999998,283.2380865836666,283.2391684999998,288.3618673340002,289.15661316700016,291.2245684169998,295.12813700000015,289.15661316700016,289.15661316700016,294.28015645899995,289.6045867500002,290.6091383339999,291.2245684169998,292.23254104199987,289.15661316700016,289.15661316700016,289.1463991250001,289.15661316700016,289.15661316700016,289.15661316700016,289.1463991250001,289.15661316700016,289.15661316700016,294.28015645899995,289.15661316700016,294.28015645899995,294.35140545900003,295.12813700000015,289.15661316700016,2,1,0.6461070830000608,reldom2_s014,001,2025-02-13_15h46.05.653,Vis-A-Scan_AC,2022.2.5,None,
24,Second_Order,4.0,viswhere,stimulus/viswhere_stim/90-deg_dot-left_cyan.png,stimulus/viswhere_stim/60-deg_dot-left_slateblue.png,stimulus/viswhere_stim/120-deg_dot-right_goldenrod.png,stimulus/viswhere_stim/90-deg_dot-right_seagreen.png,stimulus/viswhat_stim/match_blank.png,stimulus/viswhat_stim/match_box.png,stimulus/viswhat_stim/match_yes.png,stimulus/viswhat_stim/match_no.png,1.0,Match,Dot,Dot,1,5.125,0,5.125,0,5.125,0,5.125,0,0.625,0.625,1,0.5,1,2.125,1,0.5,1,2.125,0,0,0,0,0,0,0,0,0,,,,,0,31,31,31,,,,,,,,,295.12813700000015,300.25165020899976,295.61166241699993,296.6095679169998,297.23163833399985,298.22998583399976,295.12813700000015,295.12813700000015,295.1411728750002,295.12813700000015,295.12813700000015,295.12813700000015,295.1411728750002,295.12813700000015,300.25165020899976,300.925958584,303.0001484999998,307.0453420839999,300.925958584,300.925958584,306.05538720899995,301.38482991699993,302.3919609999998,303.0001484999998,304.0142784999998,300.925958584,300.925958584,300.90275383333346,300.925958584,300.925958584,300.925958584,300.90275383333346,300.925958584,300.925958584,306.05538720899995,300.925958584,306.05538720899995,306.12453670900004,306.752644917,300.925958584,1,1,1.311841290999837,reldom2_s014,001,2025-02-13_15h46.05.653,Vis-A-Scan_AC,2022.2.5,None,
0,0.0,None,fixation,stimulus/viswhat_stim/blank_white.png,stimulus/viswhat_stim/blank_white.png,stimulus/viswhere_stim/blank_white.png,stimulus/viswhere_stim/blank_white.png,stimulus/viswhat_stim/blank_white.png,stimulus/viswhat_stim/blank_white.png,stimulus/viswhat_stim/blank_white.png,stimulus/viswhat_stim/blank_white.png,0.0,0.0,0.0,0.0,0,0.0,0,0.0,0,0.0,0,0.0,0,0.0,0.0,0,0.0,0,0.0,0,0.0,0,0.0,0,0,0,0,0,0,0,0,10,,,,,0,32,32,32,,,,,,,,,307.0453420839999,307.0453420839999,307.0453420839999,307.0453420839999,307.0453420839999,307.0453420839999,307.0453420839999,307.0453420839999,306.94909141733325,307.0453420839999,307.0453420839999,307.0453420839999,306.94909141733325,307.0453420839999,307.0453420839999,307.0453420839999,307.0453420839999,307.0453420839999,307.0453420839999,307.0453420839999,307.0453420839999,307.0453420839999,307.0453420839999,307.0453420839999,307.0453420839999,307.0453420839999,307.0453420839999,306.99909141733326,307.0453420839999,307.0453420839999,307.0453420839999,306.99909141733326,307.0453420839999,307.0453420839999,307.0453420839999,307.0453420839999,307.0453420839999,312.2604275419999,312.2604275419999,317.28470666700014,None,0,,reldom2_s014,001,2025-02-13_15h46.05.653,Vis-A-Scan_AC,2022.2.5,None,
25,First_Order,5.0,viswhat,stimulus/viswhat_stim/blank_white.png,stimulus/viswhat_stim/blank_white.png,stimulus/viswhat_stim/land_vehicle-shortbus.png,stimulus/viswhat_stim/land_animal-pig.png,stimulus/viswhat_stim/blank_white.png,stimulus/viswhat_stim/location_box.png,stimulus/viswhat_stim/location_yes.png,stimulus/viswhat_stim/location_no.png,None,Location,None,Location,1,0.0,0,5.125,0,5.125,0,5.125,0,0.0,0.625,0,0.0,0,0.0,1,0.5,1,2.125,0,0,0,0,0,0,0,0,0,,,,,0,33,33,33,,,,,,,,,317.28470666700014,317.28470666700014,317.28470666700014,317.28470666700014,317.28470666700014,317.28470666700014,317.28470666700014,317.28470666700014,317.2472325416667,317.28470666700014,317.28470666700014,317.28470666700014,317.2472325416667,317.28470666700014,317.28470666700014,317.28470666700014,319.3766542090002,323.40744945899996,317.28470666700014,317.28470666700014,322.4335593750002,317.74817137499986,318.7668167500001,319.3766542090002,320.39722683399987,317.28470666700014,317.28470666700014,317.2638992083334,317.28470666700014,317.28470666700014,317.28470666700014,317.2638992083334,317.28470666700014,317.28470666700014,322.4335593750002,317.28470666700014,322.4335593750002,322.503547584,323.15559270899985,317.28470666700014,1,1,0.6583192070002042,reldom2_s014,001,2025-02-13_15h46.05.653,Vis-A-Scan_AC,2022.2.5,None,
26,First_Order,5.0,viswhat,stimulus/viswhat_stim/blank_white.png,stimulus/viswhat_stim/blank_white.png,stimulus/viswhat_stim/land_vehicle-rv.png,stimulus/viswhat_stim/land_animal-bunny.png,stimulus/viswhat_stim/blank_white.png,stimulus/viswhat_stim/type_box.png,stimulus/viswhat_stim/type_yes.png,stimulus/viswhat_stim/type_no.png,None,Type,None,Location,2,0.0,0,5.125,0,5.125,0,5.125,0,0.0,0.625,0,0.0,0,0.0,1,0.5,1,2.125,0,0,0,0,0,0,0,0,0,,,,,0,34,34,34,,,,,,,,,323.40744945899996,323.40744945899996,323.40744945899996,323.40744945899996,323.40744945899996,323.40744945899996,323.40744945899996,323.40744945899996,323.3254753339998,323.40744945899996,323.40744945899996,323.40744945899996,323.3254753339998,323.40744945899996,323.40744945899996,323.40744945899996,325.494484459,,323.40744945899996,323.40744945899996,328.5774530839999,323.8800770419998,324.92562262499996,325.494484459,326.5457164589998,323.40744945899996,323.40744945899996,323.3754753339998,323.40744945899996,323.40744945899996,323.40744945899996,323.3754753339998,323.40744945899996,323.40744945899996,328.5774530839999,323.40744945899996,328.5774530839999,328.6195290840001,329.2874763340001,323.40744945899996,2,1,0.6074484159998974,reldom2_s014,001,2025-02-13_15h46.05.653,Vis-A-Scan_AC,2022.2.5,None,
27,First_Order,5.0,viswhat,stimulus/viswhat_stim/blank_white.png,stimulus/viswhat_stim/blank_white.png,stimulus/viswhat_stim/land_animal-zebra.png,stimulus/viswhat_stim/land_vehicle-oldcar.png,stimulus/viswhat_stim/blank_white.png,stimulus/viswhat_stim/location_box.png,stimulus/viswhat_stim/location_yes.png,stimulus/viswhat_stim/location_no.png,None,Location,None,Location,1,0.0,0,5.125,0,5.125,0,5.125,0,0.0,0.625,0,0.0,0,0.0,1,0.5,1,2.125,0,0,0,0,0,0,0,0,0,,,,,0,35,35,35,,,,,,,,,329.5000762919999,329.5000762919999,329.5000762919999,329.5000762919999,329.5000762919999,329.5000762919999,329.5000762919999,329.5000762919999,329.4208096673334,329.5000762919999,329.5000762919999,329.5000762919999,329.4208096673334,329.5000762919999,329.5000762919999,329.5000762919999,331.6023627919999,,329.5000762919999,329.5000762919999,334.6732013750002,329.9816268750001,331.03386558400007,331.6023627919999,332.66109695900013,329.5000762919999,329.5000762919999,329.4708096673334,329.5000762919999,329.5000762919999,329.5000762919999,329.4708096673334,329.5000762919999,329.5000762919999,334.6732013750002,329.5000762919999,334.6732013750002,334.71179433399993,335.36069524999994,329.5000762919999,1,1,0.5441449579998334,reldom2_s014,001,2025-02-13_15h46.05.653,Vis-A-Scan_AC,2022.2.5,None,
28,First_Order,5.0,viswhat,stimulus/viswhat_stim/blank_white.png,stimulus/viswhat_stim/blank_white.png,stimulus/viswhat_stim/water_vehicle-canoe.png,stimulus/viswhat_stim/land_vehicle-trolley.png,stimulus/viswhat_stim/blank_white.png,stimulus/viswhat_stim/type_box.png,stimulus/viswhat_stim/type_yes.png,stimulus/viswhat_stim/type_no.png,None,Type,None,Type,1,0.0,0,5.125,0,5.125,0,5.125,0,0.0,0.625,0,0.0,0,0.0,1,0.5,1,2.125,0,0,0,0,0,0,0,0,0,,,,,0,36,36,36,,,,,,,,,335.5664847920002,335.5664847920002,335.5664847920002,335.5664847920002,335.5664847920002,335.5664847920002,335.5664847920002,335.5664847920002,335.53205650033317,335.5664847920002,335.5664847920002,335.5664847920002,335.53205650033317,335.5664847920002,335.5664847920002,335.5664847920002,337.66928179199977,341.69763412500015,335.5664847920002,335.5664847920002,340.7047845840002,336.05269924999993,337.08159729199997,337.66928179199977,338.67763112500006,335.5664847920002,335.5664847920002,335.5487231669998,335.5664847920002,335.5664847920002,335.5664847920002,335.5487231669998,335.5664847920002,335.5664847920002,340.7047845840002,335.5664847920002,340.7047845840002,340.7850414169998,341.4252570839999,335.5664847920002,1,1,0.6638682080001672,reldom2_s014,001,2025-02-13_15h46.05.653,Vis-A-Scan_AC,2022.2.5,None,
0,0.0,None,fixation,stimulus/viswhat_stim/blank_white.png,stimulus/viswhat_stim/blank_white.png,stimulus/viswhere_stim/blank_white.png,stimulus/viswhere_stim/blank_white.png,stimulus/viswhat_stim/blank_white.png,stimulus/viswhat_stim/blank_white.png,stimulus/viswhat_stim/blank_white.png,stimulus/viswhat_stim/blank_white.png,0.0,0.0,0.0,0.0,0,0.0,0,0.0,0,0.0,0,0.0,0,0.0,0.0,0,0.0,0,0.0,0,0.0,0,0.0,0,0,0,0,0,0,0,0,9,,,,,0,37,37,37,,,,,,,,,341.69763412500015,341.69763412500015,341.69763412500015,341.69763412500015,341.69763412500015,341.69763412500015,341.69763412500015,341.69763412500015,341.6053022500001,341.69763412500015,341.69763412500015,341.69763412500015,341.6053022500001,341.69763412500015,341.69763412500015,341.69763412500015,341.69763412500015,341.69763412500015,341.69763412500015,341.69763412500015,341.69763412500015,341.69763412500015,341.69763412500015,341.69763412500015,341.69763412500015,341.69763412500015,341.69763412500015,341.6553022500001,341.69763412500015,341.69763412500015,341.69763412500015,341.6553022500001,341.69763412500015,341.69763412500015,341.69763412500015,341.69763412500015,341.69763412500015,346.92592520900007,346.92592520900007,350.83018733400013,None,0,,reldom2_s014,001,2025-02-13_15h46.05.653,Vis-A-Scan_AC,2022.2.5,None,
29,Second_Order,5.0,viswhat,stimulus/viswhat_stim/land_vehicle-schoolbus.png,stimulus/viswhat_stim/land_animal-snake.png,stimulus/viswhat_stim/water_vehicle-cruiser.png,stimulus/viswhat_stim/water_animal-whale.png,stimulus/viswhat_stim/match_blank.png,stimulus/viswhat_stim/match_box.png,stimulus/viswhat_stim/match_yes.png,stimulus/viswhat_stim/match_no.png,1.0,Match,Location,Location,1,5.125,0,5.125,0,5.125,0,5.125,0,0.75,0.75,1,0.5,1,2.125,1,0.5,1,2.125,0,0,0,0,0,0,0,0,0,,,,,0,38,38,38,,,,,,,,,350.83018733400013,355.9522750840001,351.30624662499986,352.3050964590002,352.9276197089998,353.9255109999999,350.83018733400013,350.83018733400013,350.8382666253334,350.83018733400013,350.83018733400013,350.83018733400013,350.8382666253334,350.83018733400013,355.9522750840001,356.8498949169998,358.90539579200004,,356.8498949169998,356.8498949169998,362.060761875,357.26122291699994,358.3569958339999,358.90539579200004,360.00638337500004,356.8498949169998,356.8498949169998,356.7857680419998,356.8498949169998,356.8498949169998,356.8498949169998,356.7857680419998,356.8498949169998,356.8498949169998,362.060761875,356.8498949169998,362.060761875,361.9967824999999,,356.8498949169998,1,1,0.6587317489997986,reldom2_s014,001,2025-02-13_15h46.05.653,Vis-A-Scan_AC,2022.2.5,None,
30,Second_Order,5.0,viswhat,stimulus/viswhat_stim/land_vehicle-tank.png,stimulus/viswhat_stim/water_vehicle-cabincruiser.png,stimulus/viswhat_stim/land_animal-pig.png,stimulus/viswhat_stim/water_animal-stingray.png,stimulus/viswhat_stim/match_blank.png,stimulus/viswhat_stim/match_box.png,stimulus/viswhat_stim/match_yes.png,stimulus/viswhat_stim/match_no.png,1.0,Match,Type,Type,1,5.125,0,5.125,0,5.125,0,5.125,0,0.625,0.625,1,0.5,1,2.125,1,0.5,1,2.125,0,0,0,0,0,0,0,0,0,,,,,0,39,39,39,,,,,,,,,362.7792008749998,367.89573579199987,363.24968954199994,364.23616516699985,364.8716102090002,365.87011358400014,362.7792008749998,362.7792008749998,362.7784542090002,362.7792008749998,362.7792008749998,362.7792008749998,362.7784542090002,362.7792008749998,367.89573579199987,368.57458158400004,370.64315858400005,374.6948323749998,368.57458158400004,368.57458158400004,373.71699524999985,369.0328353340001,370.05524000000014,370.64315858400005,371.6494895420001,368.57458158400004,368.57458158400004,368.5589200839998,368.57458158400004,368.57458158400004,368.57458158400004,368.5589200839998,368.57458158400004,368.57458158400004,373.71699524999985,368.57458158400004,373.71699524999985,373.76575279200006,374.3908200420001,368.57458158400004,1,1,1.0198299570001836,reldom2_s014,001,2025-02-13_15h46.05.653,Vis-A-Scan_AC,2022.2.5,None,
0,0.0,None,fixation,stimulus/viswhat_stim/blank_white.png,stimulus/viswhat_stim/blank_white.png,stimulus/viswhere_stim/blank_white.png,stimulus/viswhere_stim/blank_white.png,stimulus/viswhat_stim/blank_white.png,stimulus/viswhat_stim/blank_white.png,stimulus/viswhat_stim/blank_white.png,stimulus/viswhat_stim/blank_white.png,0.0,0.0,0.0,0.0,0,0.0,0,0.0,0,0.0,0,0.0,0,0.0,0.0,0,0.0,0,0.0,0,0.0,0,0.0,0,0,0,0,0,0,0,0,10,,,,,0,40,40,40,,,,,,,,,374.6948323749998,374.6948323749998,374.6948323749998,374.6948323749998,374.6948323749998,374.6948323749998,374.6948323749998,374.6948323749998,374.5912090003333,374.6948323749998,374.6948323749998,374.6948323749998,374.5912090003333,374.6948323749998,374.6948323749998,374.6948323749998,374.6948323749998,374.6948323749998,374.6948323749998,374.6948323749998,374.6948323749998,374.6948323749998,374.6948323749998,374.6948323749998,374.6948323749998,374.6948323749998,374.6948323749998,374.657875667,374.6948323749998,374.6948323749998,374.6948323749998,374.657875667,374.6948323749998,374.6948323749998,374.6948323749998,374.6948323749998,374.6948323749998,379.9137462919998,379.9137462919998,384.91739741699985,None,0,,reldom2_s014,001,2025-02-13_15h46.05.653,Vis-A-Scan_AC,2022.2.5,None,
31,First_Order,6.0,viswhat,stimulus/viswhat_stim/blank_white.png,stimulus/viswhat_stim/blank_white.png,stimulus/viswhat_stim/land_vehicle-rv.png,stimulus/viswhat_stim/land_animal-ostrich.png,stimulus/viswhat_stim/blank_white.png,stimulus/viswhat_stim/type_box.png,stimulus/viswhat_stim/type_yes.png,stimulus/viswhat_stim/type_no.png,None,Type,None,Location,2,0.0,0,5.125,0,5.125,0,5.125,0,0.0,0.625,0,0.0,0,0.0,1,0.5,1,2.125,0,0,0,0,0,0,0,0,0,,,,,0,41,41,41,,,,,,,,,384.91739741699985,384.91739741699985,384.91739741699985,384.91739741699985,384.91739741699985,384.91739741699985,384.91739741699985,384.91739741699985,384.89118150066645,384.91739741699985,384.91739741699985,384.91739741699985,384.89118150066645,384.91739741699985,384.91739741699985,384.91739741699985,387.024903,391.06778670899985,384.91739741699985,384.91739741699985,390.04545312499977,385.3971892499999,386.42648629199994,387.024903,388.03497270900016,384.91739741699985,384.91739741699985,384.90784816733316,384.91739741699985,384.91739741699985,384.91739741699985,384.90784816733316,384.91739741699985,384.91739741699985,390.04545312499977,384.91739741699985,390.04545312499977,390.1373895840002,390.76373254200007,384.91739741699985,2,1,0.5742104989999461,reldom2_s014,001,2025-02-13_15h46.05.653,Vis-A-Scan_AC,2022.2.5,None,
32,First_Order,6.0,viswhat,stimulus/viswhat_stim/blank_white.png,stimulus/viswhat_stim/blank_white.png,stimulus/viswhat_stim/land_animal-moose.png,stimulus/viswhat_stim/water_animal-dolphin.png,stimulus/viswhat_stim/blank_white.png,stimulus/viswhat_stim/type_box.png,stimulus/viswhat_stim/type_yes.png,stimulus/viswhat_stim/type_no.png,None,Type,None,Type,1,0.0,0,5.125,0,5.125,0,5.125,0,0.0,0.625,0,0.0,0,0.0,1,0.5,1,2.125,0,0,0,0,0,0,0,0,0,,,,,0,42,42,42,,,,,,,,,391.06778670899985,391.06778670899985,391.06778670899985,391.06778670899985,391.06778670899985,391.06778670899985,391.06778670899985,391.06778670899985,390.9733348340001,391.06778670899985,391.06778670899985,391.06778670899985,390.9733348340001,391.06778670899985,391.06778670899985,391.06778670899985,393.1718673340001,,391.06778670899985,391.06778670899985,396.2725042920001,391.53441254200015,392.58824054199977,393.1718673340001,394.2281053339998,391.06778670899985,391.06778670899985,391.02333483400014,391.06778670899985,391.06778670899985,391.06778670899985,391.02333483400014,391.06778670899985,391.06778670899985,396.2725042920001,391.06778670899985,396.2725042920001,396.2725042920001,397.12419983400014,391.06778670899985,1,1,0.6746551249998447,reldom2_s014,001,2025-02-13_15h46.05.653,Vis-A-Scan_AC,2022.2.5,None,
33,First_Order,6.0,viswhat,stimulus/viswhat_stim/blank_white.png,stimulus/viswhat_stim/blank_white.png,stimulus/viswhat_stim/land_vehicle-buldozer.png,stimulus/viswhat_stim/water_vehicle-canoe.png,stimulus/viswhat_stim/blank_white.png,stimulus/viswhat_stim/location_box.png,stimulus/viswhat_stim/location_yes.png,stimulus/viswhat_stim/location_no.png,None,Location,None,Type,2,0.0,0,5.125,0,5.125,0,5.125,0,0.0,0.625,0,0.0,0,0.0,1,0.5,1,2.125,0,0,0,0,0,0,0,0,0,,,,,0,43,43,43,,,,,,,,,397.12419983400014,397.12419983400014,397.12419983400014,397.12419983400014,397.12419983400014,397.12419983400014,397.12419983400014,397.12419983400014,397.07511866666675,397.12419983400014,397.12419983400014,397.12419983400014,397.07511866666675,397.12419983400014,397.12419983400014,397.12419983400014,399.2158720419998,403.19241120900006,397.12419983400014,397.12419983400014,402.28861645899997,397.59293662499977,398.64054129199985,399.2158720419998,400.26786683399996,397.12419983400014,397.12419983400014,397.09178533333346,397.12419983400014,397.12419983400014,397.12419983400014,397.09178533333346,397.12419983400014,397.12419983400014,402.28861645899997,397.12419983400014,402.28861645899997,402.34972558399977,402.989407,397.12419983400014,2,1,1.293400207999639,reldom2_s014,001,2025-02-13_15h46.05.653,Vis-A-Scan_AC,2022.2.5,None,
34,First_Order,6.0,viswhat,stimulus/viswhat_stim/blank_white.png,stimulus/viswhat_stim/blank_white.png,stimulus/viswhat_stim/land_vehicle-scooter.png,stimulus/viswhat_stim/water_vehicle-motorboatraft.png,stimulus/viswhat_stim/blank_white.png,stimulus/viswhat_stim/location_box.png,stimulus/viswhat_stim/location_yes.png,stimulus/viswhat_stim/location_no.png,None,Location,None,Type,2,0.0,0,5.125,0,5.125,0,5.125,0,0.0,0.625,0,0.0,0,0.0,1,0.5,1,2.125,0,0,0,0,0,0,0,0,0,,,,,0,44,44,44,,,,,,,,,403.19241120900006,403.19241120900006,403.19241120900006,403.19241120900006,403.19241120900006,403.19241120900006,403.19241120900006,403.19241120900006,403.1664929586667,403.19241120900006,403.19241120900006,403.19241120900006,403.1664929586667,403.19241120900006,403.19241120900006,403.19241120900006,405.29805533399986,409.3247633750002,403.19241120900006,403.19241120900006,408.32761712499996,403.6678385,404.68075275,405.29805533399986,406.31810270899996,403.19241120900006,403.19241120900006,403.18315962533336,403.19241120900006,403.19241120900006,403.19241120900006,403.18315962533336,403.19241120900006,403.19241120900006,408.32761712499996,403.19241120900006,408.32761712499996,408.4192842090001,409.0520933749999,403.19241120900006,None,0,,reldom2_s014,001,2025-02-13_15h46.05.653,Vis-A-Scan_AC,2022.2.5,None,
0,0.0,None,fixation,stimulus/viswhat_stim/blank_white.png,stimulus/viswhat_stim/blank_white.png,stimulus/viswhere_stim/blank_white.png,stimulus/viswhere_stim/blank_white.png,stimulus/viswhat_stim/blank_white.png,stimulus/viswhat_stim/blank_white.png,stimulus/viswhat_stim/blank_white.png,stimulus/viswhat_stim/blank_white.png,0.0,0.0,0.0,0.0,0,0.0,0,0.0,0,0.0,0,0.0,0,0.0,0.0,0,0.0,0,0.0,0,0.0,0,0.0,0,0,0,0,0,0,0,0,8,,,,,0,45,45,45,,,,,,,,,409.3247633750002,409.3247633750002,409.3247633750002,409.3247633750002,409.3247633750002,409.3247633750002,409.3247633750002,409.3247633750002,409.2248589583331,409.3247633750002,409.3247633750002,409.3247633750002,409.2248589583331,409.3247633750002,409.3247633750002,409.3247633750002,409.3247633750002,409.3247633750002,409.3247633750002,409.3247633750002,409.3247633750002,409.3247633750002,409.3247633750002,409.3247633750002,409.3247633750002,409.3247633750002,409.3247633750002,409.2748589583331,409.3247633750002,409.3247633750002,409.3247633750002,409.2748589583331,409.3247633750002,409.3247633750002,409.3247633750002,409.3247633750002,409.3247633750002,414.5067789999998,414.5067789999998,417.48979099999997,None,0,,reldom2_s014,001,2025-02-13_15h46.05.653,Vis-A-Scan_AC,2022.2.5,None,
35,Second_Order,6.0,viswhat,stimulus/viswhat_stim/land_vehicle-train.png,stimulus/viswhat_stim/land_animal-moose.png,stimulus/viswhat_stim/land_vehicle-schoolbus.png,stimulus/viswhat_stim/water_vehicle-sailboat.png,stimulus/viswhat_stim/match_blank.png,stimulus/viswhat_stim/match_box.png,stimulus/viswhat_stim/match_yes.png,stimulus/viswhat_stim/match_no.png,2.0,Match,Location,Type,2,5.125,0,5.125,0,5.125,0,5.125,0,0.75,0.75,1,0.5,1,2.125,1,0.5,1,2.125,0,0,0,0,0,0,0,0,0,,,,,0,46,46,46,,,,,,,,,417.48979099999997,422.6051576250002,417.939688292,418.92913158400006,419.5652086670002,420.56290041700004,417.48979099999997,417.48979099999997,417.5035483336666,417.48979099999997,417.48979099999997,417.48979099999997,417.5035483336666,417.48979099999997,422.6051576250002,423.467578709,425.5208200000002,,423.467578709,423.467578709,428.65901129199983,423.876891417,424.9564234589998,425.5208200000002,426.60381287500013,423.467578709,423.467578709,423.4220720833335,423.467578709,423.467578709,423.467578709,423.4220720833335,423.467578709,423.467578709,428.65901129199983,423.467578709,428.65901129199983,428.65901129199983,,423.467578709,2,1,1.108158832999834,reldom2_s014,001,2025-02-13_15h46.05.653,Vis-A-Scan_AC,2022.2.5,None,
36,Second_Order,6.0,viswhat,stimulus/viswhat_stim/land_animal-moose.png,stimulus/viswhat_stim/land_vehicle-schoolbus.png,stimulus/viswhat_stim/land_vehicle-pickuptruck.png,stimulus/viswhat_stim/water_vehicle-canoe(1).png,stimulus/viswhat_stim/match_blank.png,stimulus/viswhat_stim/match_box.png,stimulus/viswhat_stim/match_yes.png,stimulus/viswhat_stim/match_no.png,2.0,Match,Location,Type,2,5.125,0,5.125,0,5.125,0,5.125,0,0.625,0.625,1,0.5,1,2.125,1,0.5,1,2.125,0,0,0,0,0,0,0,0,0,,,,,0,47,47,47,,,,,,,,,429.44042479200016,434.56213379200017,429.8879757089999,430.8737272919998,431.5092076249998,432.50711979200014,429.44042479200016,429.44042479200016,429.4502792920001,429.44042479200016,429.44042479200016,429.44042479200016,429.4502792920001,429.44042479200016,434.56213379200017,435.24542599999995,437.32077712499995,441.3650747920001,435.24542599999995,435.24542599999995,440.37432879200014,435.6969359169998,436.70230274999994,437.32077712499995,438.33222295899986,435.24542599999995,435.24542599999995,435.22989341700014,435.24542599999995,435.24542599999995,435.24542599999995,435.22989341700014,435.24542599999995,435.24542599999995,440.37432879200014,435.24542599999995,440.37432879200014,440.43944279200014,441.0783047089999,435.24542599999995,2,1,0.7758526659999916,reldom2_s014,001,2025-02-13_15h46.05.653,Vis-A-Scan_AC,2022.2.5,None,
0,0.0,None,fixation,stimulus/viswhat_stim/blank_white.png,stimulus/viswhat_stim/blank_white.png,stimulus/viswhere_stim/blank_white.png,stimulus/viswhere_stim/blank_white.png,stimulus/viswhat_stim/blank_white.png,stimulus/viswhat_stim/blank_white.png,stimulus/viswhat_stim/blank_white.png,stimulus/viswhat_stim/blank_white.png,0.0,0.0,0.0,0.0,0,0.0,0,0.0,0,0.0,0,0.0,0,0.0,0.0,0,0.0,0,0.0,0,0.0,0,0.0,0,0,0,0,0,0,0,0,8,,,,,0,48,48,48,,,,,,,,,441.3650747920001,441.3650747920001,441.3650747920001,441.3650747920001,441.3650747920001,441.3650747920001,441.3650747920001,441.3650747920001,441.2620532923332,441.3650747920001,441.3650747920001,441.3650747920001,441.2620532923332,441.3650747920001,441.3650747920001,441.3650747920001,441.3650747920001,441.3650747920001,441.3650747920001,441.3650747920001,441.3650747920001,441.3650747920001,441.3650747920001,441.3650747920001,441.3650747920001,441.3650747920001,441.3650747920001,441.3120532923332,441.3650747920001,441.3650747920001,441.3650747920001,441.3120532923332,441.3650747920001,441.3650747920001,441.3650747920001,441.3650747920001,441.3650747920001,446.5521387089998,446.5521387089998,449.53859087499995,None,0,,reldom2_s014,001,2025-02-13_15h46.05.653,Vis-A-Scan_AC,2022.2.5,None,
37,First_Order,7.0,viswhere,stimulus/viswhere_stim/blank_white.png,stimulus/viswhere_stim/blank_white.png,stimulus/viswhere_stim/120-deg_dot-right_turquoise.png,stimulus/viswhere_stim/120-deg_dot-left_slateblue.png,stimulus/viswhere_stim/blank_white.png,stimulus/viswhere_stim/line_box.png,stimulus/viswhere_stim/line_yes.png,stimulus/viswhere_stim/line_no.png,None,Line,None,Line,1,0.0,0,5.125,0,5.125,0,5.125,0,0.0,0.625,0,0.0,0,0.0,1,0.5,1,2.125,0,0,0,0,0,0,0,0,0,,,,,0,49,49,49,,,,,,,,,449.53859087499995,449.53859087499995,449.53859087499995,449.53859087499995,449.53859087499995,449.53859087499995,449.53859087499995,449.53859087499995,449.52044562566664,449.53859087499995,449.53859087499995,449.53859087499995,449.52044562566664,449.53859087499995,449.53859087499995,449.53859087499995,451.6504194590002,455.5966242919999,449.53859087499995,449.53859087499995,454.6644164170002,450.0138602090001,451.0236750419999,451.6504194590002,452.66521858399983,449.53859087499995,449.53859087499995,449.52044562566664,449.53859087499995,449.53859087499995,449.53859087499995,449.52044562566664,449.53859087499995,449.53859087499995,454.6644164170002,449.53859087499995,454.6644164170002,454.76174441700005,455.4093295419998,449.53859087499995,1,1,1.0099760829998559,reldom2_s014,001,2025-02-13_15h46.05.653,Vis-A-Scan_AC,2022.2.5,None,
38,First_Order,7.0,viswhere,stimulus/viswhere_stim/blank_white.png,stimulus/viswhere_stim/blank_white.png,stimulus/viswhere_stim/30-deg_dot-right_royalblue.png,stimulus/viswhere_stim/30-deg_dot-left_royalblue.png,stimulus/viswhere_stim/blank_white.png,stimulus/viswhere_stim/dot_box.png,stimulus/viswhere_stim/dot_yes.png,stimulus/viswhere_stim/dot_no.png,None,Dot,None,Line,2,0.0,0,5.125,0,5.125,0,5.125,0,0.0,0.625,0,0.0,0,0.0,1,0.5,1,2.125,0,0,0,0,0,0,0,0,0,,,,,0,50,50,50,,,,,,,,,455.5966242919999,455.5966242919999,455.5966242919999,455.5966242919999,455.5966242919999,455.5966242919999,455.5966242919999,455.5966242919999,455.5759369173332,455.5966242919999,455.5966242919999,455.5966242919999,455.5759369173332,455.5966242919999,455.5966242919999,455.5966242919999,457.7074038750002,461.6543029999998,455.5966242919999,455.5966242919999,460.7239320839999,456.0725364169998,457.08174370899997,457.7074038750002,458.72090641700015,455.5966242919999,455.5966242919999,455.59260358399985,455.5966242919999,455.5966242919999,455.5966242919999,455.59260358399985,455.5966242919999,455.5966242919999,460.7239320839999,455.5966242919999,460.7239320839999,460.8214559590001,461.45317779200013,455.5966242919999,2,1,1.2524749159997555,reldom2_s014,001,2025-02-13_15h46.05.653,Vis-A-Scan_AC,2022.2.5,None,
39,First_Order,7.0,viswhere,stimulus/viswhere_stim/blank_white.png,stimulus/viswhere_stim/blank_white.png,stimulus/viswhere_stim/150-deg_dot-left_peru.png,stimulus/viswhere_stim/30-deg_dot-left_goldenrod.png,stimulus/viswhere_stim/blank_white.png,stimulus/viswhere_stim/line_box.png,stimulus/viswhere_stim/line_yes.png,stimulus/viswhere_stim/line_no.png,None,Line,None,Dot,2,0.0,0,5.125,0,5.125,0,5.125,0,0.0,0.625,0,0.0,0,0.0,1,0.5,1,2.125,0,0,0,0,0,0,0,0,0,,,,,0,51,51,51,,,,,,,,,461.6543029999998,461.6543029999998,461.6543029999998,461.6543029999998,461.6543029999998,461.6543029999998,461.6543029999998,461.6543029999998,461.6334372923332,461.6543029999998,461.6543029999998,461.6543029999998,461.6334372923332,461.6543029999998,461.6543029999998,461.6543029999998,463.76272133400016,467.7249341669999,461.6543029999998,461.6543029999998,466.7817209589998,462.1345020419999,463.15034620899996,463.76272133400016,464.7653705419998,461.6543029999998,461.6543029999998,461.65010395899986,461.6543029999998,461.6543029999998,461.6543029999998,461.65010395899986,461.6543029999998,461.6543029999998,466.7817209589998,461.6543029999998,466.7817209589998,466.88011508399995,467.5062244999999,461.6543029999998,2,1,1.6885744569999588,reldom2_s014,001,2025-02-13_15h46.05.653,Vis-A-Scan_AC,2022.2.5,None,
40,First_Order,7.0,viswhere,stimulus/viswhere_stim/blank_white.png,stimulus/viswhere_stim/blank_white.png,stimulus/viswhere_stim/120-deg_dot-left_royalblue.png,stimulus/viswhere_stim/120-deg_dot-right_slateblue.png,stimulus/viswhere_stim/blank_white.png,stimulus/viswhere_stim/dot_box.png,stimulus/viswhere_stim/dot_yes.png,stimulus/viswhere_stim/dot_no.png,None,Dot,None,Line,2,0.0,0,5.125,0,5.125,0,5.125,0,0.0,0.625,0,0.0,0,0.0,1,0.5,1,2.125,0,0,0,0,0,0,0,0,0,,,,,0,52,52,52,,,,,,,,,467.7249341669999,467.7249341669999,467.7249341669999,467.7249341669999,467.7249341669999,467.7249341669999,467.7249341669999,467.7249341669999,467.70424145833323,467.7249341669999,467.7249341669999,467.7249341669999,467.70424145833323,467.7249341669999,467.7249341669999,467.7249341669999,469.8330907499999,473.8718229589999,467.7249341669999,467.7249341669999,472.86625566700013,468.20042775,469.20779870900014,469.8330907499999,470.84717920899993,467.7249341669999,467.7249341669999,467.7209081249999,467.7249341669999,467.7249341669999,467.7249341669999,467.7209081249999,467.7249341669999,467.7249341669999,472.86625566700013,467.7249341669999,472.86625566700013,472.94950104200007,473.58117204200016,467.7249341669999,2,1,0.9922394160003023,reldom2_s014,001,2025-02-13_15h46.05.653,Vis-A-Scan_AC,2022.2.5,None,
0,0.0,None,fixation,stimulus/viswhat_stim/blank_white.png,stimulus/viswhat_stim/blank_white.png,stimulus/viswhere_stim/blank_white.png,stimulus/viswhere_stim/blank_white.png,stimulus/viswhat_stim/blank_white.png,stimulus/viswhat_stim/blank_white.png,stimulus/viswhat_stim/blank_white.png,stimulus/viswhat_stim/blank_white.png,0.0,0.0,0.0,0.0,0,0.0,0,0.0,0,0.0,0,0.0,0,0.0,0.0,0,0.0,0,0.0,0,0.0,0,0.0,0,0,0,0,0,0,0,0,9,,,,,0,53,53,53,,,,,,,,,473.8718229589999,473.8718229589999,473.8718229589999,473.8718229589999,473.8718229589999,473.8718229589999,473.8718229589999,473.8718229589999,473.7748735833332,473.8718229589999,473.8718229589999,473.8718229589999,473.7748735833332,473.8718229589999,473.8718229589999,473.8718229589999,473.8718229589999,473.8718229589999,473.8718229589999,473.8718229589999,473.8718229589999,473.8718229589999,473.8718229589999,473.8718229589999,473.8718229589999,473.8718229589999,473.8718229589999,473.8248735833332,473.8718229589999,473.8718229589999,473.8718229589999,473.8248735833332,473.8718229589999,473.8718229589999,473.8718229589999,473.8718229589999,473.8718229589999,479.09661429200014,479.09661429200014,482.9996192919998,None,0,,reldom2_s014,001,2025-02-13_15h46.05.653,Vis-A-Scan_AC,2022.2.5,None,
41,Second_Order,7.0,viswhere,stimulus/viswhere_stim/90-deg_dot-right_seagreen.png,stimulus/viswhere_stim/90-deg_dot-left_salmon.png,stimulus/viswhere_stim/60-deg_dot-left_slateblue.png,stimulus/viswhere_stim/60-deg_dot-right_lightsseagreen.png,stimulus/viswhat_stim/match_blank.png,stimulus/viswhat_stim/match_box.png,stimulus/viswhat_stim/match_yes.png,stimulus/viswhat_stim/match_no.png,1.0,Match,Line,Line,1,5.125,0,5.125,0,5.125,0,5.125,0,0.75,0.75,1,0.5,1,2.125,1,0.5,1,2.125,0,0,0,0,0,0,0,0,0,,,,,0,54,54,54,,,,,,,,,482.9996192919998,488.12333983400003,483.4790015419999,484.47683537500006,485.1000453749998,486.0977857500002,482.9996192919998,482.9996192919998,483.01420966733315,482.9996192919998,482.9996192919998,482.9996192919998,483.01420966733315,482.9996192919998,488.12333983400003,488.9176336249998,491.00132399999984,494.8886339169999,488.9176336249998,488.9176336249998,494.0443559999999,489.3788972090001,490.39245762500013,491.00132399999984,492.0175717090001,488.9176336249998,488.9176336249998,488.89188404233346,488.9176336249998,488.9176336249998,488.9176336249998,488.89188404233346,488.9176336249998,488.9176336249998,494.0443559999999,488.9176336249998,494.0443559999999,494.11245233399995,494.8886339169999,488.9176336249998,1,1,1.1549177080000845,reldom2_s014,001,2025-02-13_15h46.05.653,Vis-A-Scan_AC,2022.2.5,None,
42,Second_Order,7.0,viswhere,stimulus/viswhere_stim/150-deg_dot-left_cyan.png,stimulus/viswhere_stim/60-deg_dot-left_royalblue.png,stimulus/viswhere_stim/30-deg_dot-right_mediumslateblue.png,stimulus/viswhere_stim/90-deg_dot-right_peru.png,stimulus/viswhat_stim/match_blank.png,stimulus/viswhat_stim/match_box.png,stimulus/viswhat_stim/match_yes.png,stimulus/viswhat_stim/match_no.png,1.0,Match,Dot,Dot,1,5.125,0,5.125,0,5.125,0,5.125,0,0.625,0.625,1,0.5,1,2.125,1,0.5,1,2.125,0,0,0,0,0,0,0,0,0,,,,,0,55,55,55,,,,,,,,,494.8886339169999,500.0010103750001,495.37252345900015,496.371003709,496.993521459,497.9919795840001,494.8886339169999,494.8886339169999,494.9027193750001,494.8886339169999,494.8886339169999,494.8886339169999,494.9027193750001,494.8886339169999,500.0010103750001,500.6707576670001,502.75561404200016,506.78038345899995,500.6707576670001,500.6707576670001,505.8017777499999,501.13207887499993,502.1438227499998,502.75561404200016,503.772749792,500.6707576670001,500.6707576670001,500.6478278333334,500.6707576670001,500.6707576670001,500.6707576670001,500.6478278333334,500.6707576670001,500.6707576670001,505.8017777499999,500.6707576670001,505.8017777499999,505.86944570900005,506.49757258399995,500.6707576670001,1,1,1.174156707000293,reldom2_s014,001,2025-02-13_15h46.05.653,Vis-A-Scan_AC,2022.2.5,None,
0,0.0,None,fixation,stimulus/viswhat_stim/blank_white.png,stimulus/viswhat_stim/blank_white.png,stimulus/viswhere_stim/blank_white.png,stimulus/viswhere_stim/blank_white.png,stimulus/viswhat_stim/blank_white.png,stimulus/viswhat_stim/blank_white.png,stimulus/viswhat_stim/blank_white.png,stimulus/viswhat_stim/blank_white.png,0.0,0.0,0.0,0.0,0,0.0,0,0.0,0,0.0,0,0.0,0,0.0,0.0,0,0.0,0,0.0,0,0.0,0,0.0,0,0,0,0,0,0,0,0,8,,,,,0,56,56,56,,,,,,,,,506.78038345899995,506.78038345899995,506.78038345899995,506.78038345899995,506.78038345899995,506.78038345899995,506.78038345899995,506.78038345899995,506.68135666733343,506.78038345899995,506.78038345899995,506.78038345899995,506.68135666733343,506.78038345899995,506.78038345899995,506.78038345899995,506.78038345899995,506.78038345899995,506.78038345899995,506.78038345899995,506.78038345899995,506.78038345899995,506.78038345899995,506.78038345899995,506.78038345899995,506.78038345899995,506.78038345899995,506.73135666733344,506.78038345899995,506.78038345899995,506.78038345899995,506.73135666733344,506.78038345899995,506.78038345899995,506.78038345899995,506.78038345899995,506.78038345899995,511.96676662499976,511.96676662499976,514.9658091669999,None,0,,reldom2_s014,001,2025-02-13_15h46.05.653,Vis-A-Scan_AC,2022.2.5,None,
43,First_Order,8.0,viswhere,stimulus/viswhere_stim/blank_white.png,stimulus/viswhere_stim/blank_white.png,stimulus/viswhere_stim/150-deg_dot-left_lightsseagreen.png,stimulus/viswhere_stim/30-deg_dot-left_salmon.png,stimulus/viswhere_stim/blank_white.png,stimulus/viswhere_stim/dot_box.png,stimulus/viswhere_stim/dot_yes.png,stimulus/viswhere_stim/dot_no.png,None,Dot,None,Dot,1,0.0,0,5.125,0,5.125,0,5.125,0,0.0,0.625,0,0.0,0,0.0,1,0.5,1,2.125,0,0,0,0,0,0,0,0,0,,,,,0,57,57,57,,,,,,,,,514.9658091669999,514.9658091669999,514.9658091669999,514.9658091669999,514.9658091669999,514.9658091669999,514.9658091669999,514.9658091669999,514.9463370006666,514.9658091669999,514.9658091669999,514.9658091669999,514.9463370006666,514.9658091669999,514.9658091669999,514.9658091669999,517.0686398339999,521.0679716670002,514.9658091669999,514.9658091669999,520.0920771669998,515.4445674590002,516.4595585840002,517.0686398339999,518.086175375,514.9658091669999,514.9658091669999,514.9463370006666,514.9658091669999,514.9658091669999,514.9658091669999,514.9463370006666,514.9658091669999,514.9658091669999,520.0920771669998,514.9658091669999,520.0920771669998,520.1894553339998,520.8142912499998,514.9658091669999,None,0,,reldom2_s014,001,2025-02-13_15h46.05.653,Vis-A-Scan_AC,2022.2.5,None,
44,First_Order,8.0,viswhere,stimulus/viswhere_stim/blank_white.png,stimulus/viswhere_stim/blank_white.png,stimulus/viswhere_stim/150-deg_dot-right_seagreen.png,stimulus/viswhere_stim/150-deg_dot-left_goldenrod.png,stimulus/viswhere_stim/blank_white.png,stimulus/viswhere_stim/line_box.png,stimulus/viswhere_stim/line_yes.png,stimulus/viswhere_stim/line_no.png,None,Line,None,Line,1,0.0,0,5.125,0,5.125,0,5.125,0,0.0,0.625,0,0.0,0,0.0,1,0.5,1,2.125,0,0,0,0,0,0,0,0,0,,,,,0,58,58,58,,,,,,,,,521.0679716670002,521.0679716670002,521.0679716670002,521.0679716670002,521.0679716670002,521.0679716670002,521.0679716670002,521.0679716670002,521.0438102916668,521.0679716670002,521.0679716670002,521.0679716670002,521.0438102916668,521.0679716670002,521.0679716670002,521.0679716670002,523.1684945420002,527.129169667,521.0679716670002,521.0679716670002,526.2003702500001,521.5496016249999,522.5527189169998,523.1684945420002,524.175137875,521.0679716670002,521.0679716670002,521.0604769583334,521.0679716670002,521.0679716670002,521.0679716670002,521.0604769583334,521.0679716670002,521.0679716670002,526.2003702500001,521.0679716670002,526.2003702500001,526.2975355839999,526.9269330420002,521.0679716670002,1,1,0.9853076250001322,reldom2_s014,001,2025-02-13_15h46.05.653,Vis-A-Scan_AC,2022.2.5,None,
45,First_Order,8.0,viswhere,stimulus/viswhere_stim/blank_white.png,stimulus/viswhere_stim/blank_white.png,stimulus/viswhere_stim/150-deg_dot-left_seagreen.png,stimulus/viswhere_stim/60-deg_dot-left_turquoise.png,stimulus/viswhere_stim/blank_white.png,stimulus/viswhere_stim/dot_box.png,stimulus/viswhere_stim/dot_yes.png,stimulus/viswhere_stim/dot_no.png,None,Dot,None,Dot,1,0.0,0,5.125,0,5.125,0,5.125,0,0.0,0.625,0,0.0,0,0.0,1,0.5,1,2.125,0,0,0,0,0,0,0,0,0,,,,,0,59,59,59,,,,,,,,,527.129169667,527.129169667,527.129169667,527.129169667,527.129169667,527.129169667,527.129169667,527.129169667,527.1078884173334,527.129169667,527.129169667,527.129169667,527.1078884173334,527.129169667,527.129169667,527.129169667,529.2339597089999,533.1918827919999,527.129169667,527.129169667,532.2662947499998,527.607876084,528.6227059170001,529.2339597089999,530.2542136669999,527.129169667,527.129169667,527.124555084,527.129169667,527.129169667,527.129169667,527.124555084,527.129169667,527.129169667,532.2662947499998,527.129169667,532.2662947499998,532.353719792,533.0051242089999,527.129169667,1,1,0.5383487080002851,reldom2_s014,001,2025-02-13_15h46.05.653,Vis-A-Scan_AC,2022.2.5,None,
46,First_Order,8.0,viswhere,stimulus/viswhere_stim/blank_white.png,stimulus/viswhere_stim/blank_white.png,stimulus/viswhere_stim/150-deg_dot-left_lightsseagreen.png,stimulus/viswhere_stim/60-deg_dot-left_royalblue.png,stimulus/viswhere_stim/blank_white.png,stimulus/viswhere_stim/line_box.png,stimulus/viswhere_stim/line_yes.png,stimulus/viswhere_stim/line_no.png,None,Line,None,Dot,2,0.0,0,5.125,0,5.125,0,5.125,0,0.0,0.625,0,0.0,0,0.0,1,0.5,1,2.125,0,0,0,0,0,0,0,0,0,,,,,0,60,60,60,,,,,,,,,533.1918827919999,533.1918827919999,533.1918827919999,533.1918827919999,533.1918827919999,533.1918827919999,533.1918827919999,533.1918827919999,533.1717680003334,533.1918827919999,533.1918827919999,533.1918827919999,533.1717680003334,533.1918827919999,533.1918827919999,533.1918827919999,535.2989782499999,539.337924292,533.1918827919999,533.1918827919999,538.3174683339998,533.6706582920001,534.688198542,535.2989782499999,536.3017047090002,533.1918827919999,533.1918827919999,533.188434667,533.1918827919999,533.1918827919999,533.1918827919999,533.188434667,533.1918827919999,533.1918827919999,538.3174683339998,533.1918827919999,538.3174683339998,538.414959709,539.0460655840002,533.1918827919999,2,1,0.7525997910001934,reldom2_s014,001,2025-02-13_15h46.05.653,Vis-A-Scan_AC,2022.2.5,None,
0,0.0,None,fixation,stimulus/viswhat_stim/blank_white.png,stimulus/viswhat_stim/blank_white.png,stimulus/viswhere_stim/blank_white.png,stimulus/viswhere_stim/blank_white.png,stimulus/viswhat_stim/blank_white.png,stimulus/viswhat_stim/blank_white.png,stimulus/viswhat_stim/blank_white.png,stimulus/viswhat_stim/blank_white.png,0.0,0.0,0.0,0.0,0,0.0,0,0.0,0,0.0,0,0.0,0,0.0,0.0,0,0.0,0,0.0,0,0.0,0,0.0,0,0,0,0,0,0,0,0,9,,,,,0,61,61,61,,,,,,,,,539.337924292,539.337924292,539.337924292,539.337924292,539.337924292,539.337924292,539.337924292,539.337924292,539.2400863333336,539.337924292,539.337924292,539.337924292,539.2400863333336,539.337924292,539.337924292,539.337924292,539.337924292,539.337924292,539.337924292,539.337924292,539.337924292,539.337924292,539.337924292,539.337924292,539.337924292,539.337924292,539.337924292,539.2900863333335,539.337924292,539.337924292,539.337924292,539.2900863333335,539.337924292,539.337924292,539.337924292,539.337924292,539.337924292,544.5230701669998,544.5230701669998,548.4855863339999,None,0,,reldom2_s014,001,2025-02-13_15h46.05.653,Vis-A-Scan_AC,2022.2.5,None,
47,Second_Order,8.0,viswhere,stimulus/viswhere_stim/120-deg_dot-left_goldenrod.png,stimulus/viswhere_stim/120-deg_dot-right_seagreen.png,stimulus/viswhere_stim/90-deg_dot-left_peru.png,stimulus/viswhere_stim/90-deg_dot-right_turquoise.png,stimulus/viswhat_stim/match_blank.png,stimulus/viswhat_stim/match_box.png,stimulus/viswhat_stim/match_yes.png,stimulus/viswhat_stim/match_no.png,1.0,Match,Line,Line,1,5.125,0,5.125,0,5.125,0,5.125,0,0.75,0.75,1,0.5,1,2.125,1,0.5,1,2.125,0,0,0,0,0,0,0,0,0,,,,,0,62,62,62,,,,,,,,,548.4855863339999,553.6076091250002,548.9638335,549.9618721249999,550.5855499170002,551.5827783750001,548.4855863339999,548.4855863339999,548.4983946673334,548.4855863339999,548.4855863339999,548.4855863339999,548.4983946673334,548.4855863339999,553.6076091250002,554.4035797920001,556.4776285419998,560.3393417090001,554.4035797920001,554.4035797920001,559.533017792,554.848628917,555.8647378750002,556.4776285419998,557.4796366669998,554.4035797920001,554.4035797920001,554.3750377083334,554.4035797920001,554.4035797920001,554.4035797920001,554.3750377083334,554.4035797920001,554.4035797920001,559.533017792,554.4035797920001,559.533017792,559.601820417,560.3758561250002,554.4035797920001,1,1,0.8228776659998402,reldom2_s014,001,2025-02-13_15h46.05.653,Vis-A-Scan_AC,2022.2.5,None,
48,Second_Order,8.0,viswhere,stimulus/viswhere_stim/150-deg_dot-right_salmon.png,stimulus/viswhere_stim/90-deg_dot-right_cyan.png,stimulus/viswhere_stim/60-deg_dot-left_mediumslateblue.png,stimulus/viswhere_stim/30-deg_dot-left_turquoise.png,stimulus/viswhat_stim/match_blank.png,stimulus/viswhat_stim/match_box.png,stimulus/viswhat_stim/match_yes.png,stimulus/viswhat_stim/match_no.png,1.0,Match,Dot,Dot,1,5.125,0,5.125,0,5.125,0,5.125,0,0.625,0.625,1,0.5,1,2.125,1,0.5,1,2.125,0,0,0,0,0,0,0,0,0,,,,,0,63,63,63,,,,,,,,,560.3758561250002,565.4975667919998,560.8573752500001,561.8555607919998,562.478968375,563.475915209,560.3758561250002,560.3758561250002,560.3893417090001,560.3758561250002,560.3758561250002,560.3758561250002,560.3893417090001,560.3758561250002,565.4975667919998,566.1720310840001,568.2558428749999,572.2832642090002,566.1720310840001,566.1720310840001,571.3009723750001,566.6349973749998,567.6454442089998,568.2558428749999,569.2758732090001,566.1720310840001,566.1720310840001,566.1491916673331,566.1720310840001,566.1720310840001,566.1720310840001,566.1491916673331,566.1720310840001,566.1720310840001,571.3009723750001,566.1720310840001,571.3009723750001,571.370595375,572.00234125,566.1720310840001,1,1,0.5605198749999545,reldom2_s014,001,2025-02-13_15h46.05.653,Vis-A-Scan_AC,2022.2.5,None,
0,0.0,None,fixation,stimulus/viswhat_stim/blank_white.png,stimulus/viswhat_stim/blank_white.png,stimulus/viswhere_stim/blank_white.png,stimulus/viswhere_stim/blank_white.png,stimulus/viswhat_stim/blank_white.png,stimulus/viswhat_stim/blank_white.png,stimulus/viswhat_stim/blank_white.png,stimulus/viswhat_stim/blank_white.png,0.0,0.0,0.0,0.0,0,0.0,0,0.0,0,0.0,0,0.0,0,0.0,0.0,0,0.0,0,0.0,0,0.0,0,0.0,0,0,0,0,0,0,0,0,16,,,,,0,64,64,64,,,,,,,,,572.2832642090002,572.2832642090002,572.2832642090002,572.2832642090002,572.2832642090002,572.2832642090002,572.2832642090002,572.2832642090002,572.1858777503334,572.2832642090002,572.2832642090002,572.2832642090002,572.1858777503334,572.2832642090002,572.2832642090002,572.2832642090002,572.2832642090002,572.2832642090002,572.2832642090002,572.2832642090002,572.2832642090002,572.2832642090002,572.2832642090002,572.2832642090002,572.2832642090002,572.2832642090002,572.2832642090002,572.2358777503333,572.2832642090002,572.2832642090002,572.2832642090002,572.2358777503333,572.2832642090002,572.2832642090002,572.2832642090002,572.2832642090002,572.2832642090002,577.4932846249999,577.4932846249999,588.432547417,None,0,,reldom2_s014,001,2025-02-13_15h46.05.653,Vis-A-Scan_AC,2022.2.5,None,
