Trial,Order,Block,Type,Stimuli_File1,Stimuli_File2,Stimuli_File3,Stimuli_File4,Cue_File1,Cue_File2,Response_File_Yes,Response_File_No,Match,Cue_Dimension,Pair1_Dimension,Pair2_Dimension,Key,Cue1_Duration,Cue1_Onset,Cue2_Duration,Cue2_Onset,ResponseYes_Duration,ResponseYes_Onset,ResponseNo_Duration,ResponseNo_Onset,ITI_Within,ITI_Between,Image1_Duration,Image1_Onset,Image2_Duration,Image2_Onset,Image3_Duration,Image3_Onset,Image4_Duration,Image4_Onset,Sound1_Duration,Sound1_Onset,Sound2_Duration,Sound2_Onset,Sound3_Duration,Sound3_Onset,Sound4_Duration,Sound4_Onset,Fixation_Duration,trials_2.thisRepN,trials_2.thisTrialN,trials_2.thisN,trials_2.thisIndex,trials.thisRepN,trials.thisTrialN,trials.thisN,trials.thisIndex,text_start.started,key_resp_start.started,key_resp_start.keys,key_resp_start.rt,text2.started,key_resp_2.started,key_resp_2.keys,key_resp_2.rt,cue_file1.started,cue_file1.stopped,image_1.started,image_1.stopped,image_2.started,image_2.stopped,sound_icon1.started,sound_icon1.stopped,sound_1.started,sound_1.stopped,sound_icon2.started,sound_icon2.stopped,sound_2.started,sound_2.stopped,image_blank_1.started,image_blank_1.stopped,key_press.started,key_press.stopped,fixation_text.started,cue_file2.started,cue_file2.stopped,image_3.started,image_3.stopped,image_4.started,image_4.stopped,sound_icon3.started,sound_icon3.stopped,sound_3.started,sound_3.stopped,sound_icon4.started,sound_icon4.stopped,sound_4.started,sound_4.stopped,response_yes.started,response_yes.stopped,response_no.started,response_no.stopped,iti_blank.started,iti_blank.stopped,fixation_text.stopped,key_press.keys,key_press.corr,key_press.rt,participant,session,date,expName,psychopyVersion,frameRate,
,,,,,,,,,,,,,,,,,,,,,,,,,,,,,,,,,,,,,,,,,,,,,,,,,,,,9.092875000002095,9.092875000002095,2,12.54305745800957,,,,,,,,,,,,,,,,,,,,,,,,,,,,,,,,,,,,,,,,,,,,,,,,reldom2_s027,001,2025-02-26_15h44.23.850,Vis-B-Scan_AC,2022.2.5,None,
,,,,,,,,,,,,,,,,,,,,,,,,,,,,,,,,,,,,,,,,,,,,0,0,0,0,,,,,,,,,21.680797333014198,21.680797333014198,5,19.199519750021864,,,,,,,,,,,,,,,,,,,,,,,,,,,,,,,,,,,,,,,,,,,,reldom2_s027,001,2025-02-26_15h44.23.850,Vis-B-Scan_AC,2022.2.5,None,
,,,,,,,,,,,,,,,,,,,,,,,,,,,,,,,,,,,,,,,,,,,,1,0,1,0,,,,,,,,,40.89502116700169,40.89502116700169,5,1.986131125013344,,,,,,,,,,,,,,,,,,,,,,,,,,,,,,,,,,,,,,,,,,,,reldom2_s027,001,2025-02-26_15h44.23.850,Vis-B-Scan_AC,2022.2.5,None,
,,,,,,,,,,,,,,,,,,,,,,,,,,,,,,,,,,,,,,,,,,,,2,0,2,0,,,,,,,,,42.888583082996774,42.888583082996774,5,1.9926751659950241,,,,,,,,,,,,,,,,,,,,,,,,,,,,,,,,,,,,,,,,,,,,reldom2_s027,001,2025-02-26_15h44.23.850,Vis-B-Scan_AC,2022.2.5,None,
,,,,,,,,,,,,,,,,,,,,,,,,,,,,,,,,,,,,,,,,,,,,3,0,3,0,,,,,,,,,44.89564541701111,44.89564541701111,5,1.984561916993698,,,,,,,,,,,,,,,,,,,,,,,,,,,,,,,,,,,,,,,,,,,,reldom2_s027,001,2025-02-26_15h44.23.850,Vis-B-Scan_AC,2022.2.5,None,
0,0.0,None,fixation,stimulus/viswhere_stim/blank_white.png,stimulus/viswhere_stim/blank_white.png,stimulus/viswhat_stim/blank_white.png,stimulus/viswhat_stim/blank_white.png,stimulus/viswhere_stim/blank_white.png,stimulus/viswhere_stim/blank_white.png,stimulus/viswhere_stim/blank_white.png,stimulus/viswhere_stim/blank_white.png,0.0,0.0,0.0,0.0,0,0.0,0,0.0,0,0.0,0,0.0,0,0.0,0.0,0,0.0,0,0.0,0,0.0,0,0.0,0,0,0,0,0,0,0,0,16,,,,,0,0,0,0,,,,,,,,,47.10705966700334,47.10705966700334,47.10705966700334,47.10705966700334,47.10705966700334,47.10705966700334,47.10705966700334,47.10705966700334,47.00877945867057,47.10705966700334,47.10705966700334,47.10705966700334,47.00877945867057,47.10705966700334,47.10705966700334,47.10705966700334,47.10705966700334,47.10705966700334,47.10705966700334,47.10705966700334,47.10705966700334,47.10705966700334,47.10705966700334,47.10705966700334,47.10705966700334,47.10705966700334,47.10705966700334,47.058779458670564,47.10705966700334,47.10705966700334,47.10705966700334,47.058779458670564,47.10705966700334,47.10705966700334,47.10705966700334,47.10705966700334,47.10705966700334,52.32110070800991,52.32110070800991,63.26865500002168,None,0,,reldom2_s027,001,2025-02-26_15h44.23.850,Vis-B-Scan_AC,2022.2.5,None,
1,First_Order,1.0,viswhere,stimulus/viswhere_stim/blank_white.png,stimulus/viswhere_stim/blank_white.png,stimulus/viswhere_stim/150-deg_dot-left_royalblue.png,stimulus/viswhere_stim/150-deg_dot-right_peru.png,stimulus/viswhere_stim/blank_white.png,stimulus/viswhere_stim/dot_box.png,stimulus/viswhere_stim/dot_yes.png,stimulus/viswhere_stim/dot_no.png,None,Dot,None,Line,2,0.0,0,5.125,0,5.125,0,5.125,0,0.0,0.625,0,0.0,0,0.0,1,0.5,1,2.125,0,0,0,0,0,0,0,0,0,,,,,0,1,1,1,,,,,,,,,63.26865500002168,63.26865500002168,63.26865500002168,63.26865500002168,63.26865500002168,63.26865500002168,63.26865500002168,63.26865500002168,63.24805379199679,63.26865500002168,63.26865500002168,63.26865500002168,63.24805379199679,63.26865500002168,63.26865500002168,63.26865500002168,65.37167879199842,69.3278860830178,63.26865500002168,63.26865500002168,68.39943033299642,63.74558012501802,64.74929837501259,65.37167879199842,66.38189258301281,63.26865500002168,63.26865500002168,63.264720458663454,63.26865500002168,63.26865500002168,63.26865500002168,63.264720458663454,63.26865500002168,63.26865500002168,68.39943033299642,63.26865500002168,68.39943033299642,68.49348208299489,69.12228066701209,63.26865500002168,2,1,1.2206149589910638,reldom2_s027,001,2025-02-26_15h44.23.850,Vis-B-Scan_AC,2022.2.5,None,
2,First_Order,1.0,viswhere,stimulus/viswhere_stim/blank_white.png,stimulus/viswhere_stim/blank_white.png,stimulus/viswhere_stim/30-deg_dot-left_salmon.png,stimulus/viswhere_stim/30-deg_dot-right_seagreen.png,stimulus/viswhere_stim/blank_white.png,stimulus/viswhere_stim/dot_box.png,stimulus/viswhere_stim/dot_yes.png,stimulus/viswhere_stim/dot_no.png,None,Dot,None,Line,2,0.0,0,5.125,0,5.125,0,5.125,0,0.0,0.625,0,0.0,0,0.0,1,0.5,1,2.125,0,0,0,0,0,0,0,0,0,,,,,0,2,2,2,,,,,,,,,69.3278860830178,69.3278860830178,69.3278860830178,69.3278860830178,69.3278860830178,69.3278860830178,69.3278860830178,69.3278860830178,69.311968583342,69.3278860830178,69.3278860830178,69.3278860830178,69.311968583342,69.3278860830178,69.3278860830178,69.3278860830178,71.43959354201797,75.3852974580077,69.3278860830178,69.3278860830178,74.45788441700279,69.81737200001953,70.81993320799666,71.43959354201797,72.44631920801476,69.3278860830178,69.3278860830178,69.311968583342,69.3278860830178,69.3278860830178,69.3278860830178,69.311968583342,69.3278860830178,69.3278860830178,74.45788441700279,69.3278860830178,74.45788441700279,74.55182308302028,75.17844750001677,69.3278860830178,2,1,0.854398624971509,reldom2_s027,001,2025-02-26_15h44.23.850,Vis-B-Scan_AC,2022.2.5,None,
3,First_Order,1.0,viswhere,stimulus/viswhere_stim/blank_white.png,stimulus/viswhere_stim/blank_white.png,stimulus/viswhere_stim/120-deg_dot-left_goldenrod.png,stimulus/viswhere_stim/30-deg_dot-left_slateblue.png,stimulus/viswhere_stim/blank_white.png,stimulus/viswhere_stim/dot_box.png,stimulus/viswhere_stim/dot_yes.png,stimulus/viswhere_stim/dot_no.png,None,Dot,None,Dot,1,0.0,0,5.125,0,5.125,0,5.125,0,0.0,0.625,0,0.0,0,0.0,1,0.5,1,2.125,0,0,0,0,0,0,0,0,0,,,,,0,3,3,3,,,,,,,,,75.3852974580077,75.3852974580077,75.3852974580077,75.3852974580077,75.3852974580077,75.3852974580077,75.3852974580077,75.3852974580077,75.36963391634829,75.3852974580077,75.3852974580077,75.3852974580077,75.36963391634829,75.3852974580077,75.3852974580077,75.3852974580077,77.49458633302129,81.44414141701418,75.3852974580077,75.3852974580077,80.52282641700003,75.86248120799428,76.87179758300772,77.49458633302129,78.51069125000504,75.3852974580077,75.3852974580077,75.36963391634829,75.3852974580077,75.3852974580077,75.3852974580077,75.36963391634829,75.3852974580077,75.3852974580077,80.52282641700003,75.3852974580077,80.52282641700003,80.6081089170184,81.2372301669966,75.3852974580077,1,1,1.221962416981114,reldom2_s027,001,2025-02-26_15h44.23.850,Vis-B-Scan_AC,2022.2.5,None,
4,First_Order,1.0,viswhere,stimulus/viswhere_stim/blank_white.png,stimulus/viswhere_stim/blank_white.png,stimulus/viswhere_stim/150-deg_dot-right_royalblue.png,stimulus/viswhere_stim/30-deg_dot-right_salmon.png,stimulus/viswhere_stim/blank_white.png,stimulus/viswhere_stim/line_box.png,stimulus/viswhere_stim/line_yes.png,stimulus/viswhere_stim/line_no.png,None,Line,None,Dot,2,0.0,0,5.125,0,5.125,0,5.125,0,0.0,0.625,0,0.0,0,0.0,1,0.5,1,2.125,0,0,0,0,0,0,0,0,0,,,,,0,4,4,4,,,,,,,,,81.44414141701418,81.44414141701418,81.44414141701418,81.44414141701418,81.44414141701418,81.44414141701418,81.44414141701418,81.44414141701418,81.42644754132682,81.44414141701418,81.44414141701418,81.44414141701418,81.42644754132682,81.44414141701418,81.44414141701418,81.44414141701418,83.54715979201137,87.58031495800242,81.44414141701418,81.44414141701418,86.5738958750153,81.92714737501228,82.93323225001222,83.54715979201137,84.5574595000071,81.44414141701418,81.44414141701418,81.42644754132682,81.44414141701418,81.44414141701418,81.44414141701418,81.42644754132682,81.44414141701418,81.44414141701418,86.5738958750153,81.44414141701418,86.5738958750153,86.66969158299617,87.3011756670021,81.44414141701418,2,1,0.9979352499940433,reldom2_s027,001,2025-02-26_15h44.23.850,Vis-B-Scan_AC,2022.2.5,None,
0,0.0,None,fixation,stimulus/viswhere_stim/blank_white.png,stimulus/viswhere_stim/blank_white.png,stimulus/viswhat_stim/blank_white.png,stimulus/viswhat_stim/blank_white.png,stimulus/viswhere_stim/blank_white.png,stimulus/viswhere_stim/blank_white.png,stimulus/viswhere_stim/blank_white.png,stimulus/viswhere_stim/blank_white.png,0.0,0.0,0.0,0.0,0,0.0,0,0.0,0,0.0,0,0.0,0,0.0,0.0,0,0.0,0,0.0,0,0.0,0,0.0,0,0,0,0,0,0,0,0,9,,,,,0,5,5,5,,,,,,,,,87.58031495800242,87.58031495800242,87.58031495800242,87.58031495800242,87.58031495800242,87.58031495800242,87.58031495800242,87.58031495800242,87.49097587533954,87.58031495800242,87.58031495800242,87.58031495800242,87.49097587533954,87.58031495800242,87.58031495800242,87.58031495800242,87.58031495800242,87.58031495800242,87.58031495800242,87.58031495800242,87.58031495800242,87.58031495800242,87.58031495800242,87.58031495800242,87.58031495800242,87.58031495800242,87.58031495800242,87.54097587533954,87.58031495800242,87.58031495800242,87.58031495800242,87.54097587533954,87.58031495800242,87.58031495800242,87.58031495800242,87.58031495800242,87.58031495800242,92.79779462501756,92.79779462501756,96.72010141701321,None,0,,reldom2_s027,001,2025-02-26_15h44.23.850,Vis-B-Scan_AC,2022.2.5,None,
5,Second_Order,1.0,viswhere,stimulus/viswhere_stim/90-deg_dot-left_mediumslateblue.png,stimulus/viswhere_stim/30-deg_dot-left_slateblue.png,stimulus/viswhere_stim/90-deg_dot-left_royalblue.png,stimulus/viswhere_stim/90-deg_dot-right_goldenrod.png,stimulus/viswhere_stim/match_blank.png,stimulus/viswhere_stim/match_box.png,stimulus/viswhere_stim/match_yes.png,stimulus/viswhere_stim/match_no.png,2.0,Match,Dot,Line,2,5.125,0,5.125,0,5.125,0,5.125,0,0.75,0.75,1,0.5,1,2.125,1,0.5,1,2.125,0,0,0,0,0,0,0,0,0,,,,,0,6,6,6,,,,,,,,,96.72010141701321,101.84037229200476,97.1953274999978,98.19396025000606,98.82838195801014,99.81799325000611,96.72010141701321,96.72010141701321,96.72321908367836,96.72010141701321,96.72010141701321,96.72010141701321,96.72321908367836,96.72010141701321,101.84037229200476,102.63422783301212,104.71061025001109,108.60623220799607,102.63422783301212,102.63422783301212,107.755842167011,103.08517391700298,104.09472737502074,104.71061025001109,105.73017254201113,102.63422783301212,102.63422783301212,102.6076037913522,102.63422783301212,102.63422783301212,102.63422783301212,102.6076037913522,102.63422783301212,102.63422783301212,107.755842167011,102.63422783301212,107.755842167011,107.82891729200492,108.60623220799607,102.63422783301212,2,1,0.6514416249992792,reldom2_s027,001,2025-02-26_15h44.23.850,Vis-B-Scan_AC,2022.2.5,None,
6,Second_Order,1.0,viswhere,stimulus/viswhere_stim/30-deg_dot-right_turquoise.png,stimulus/viswhere_stim/30-deg_dot-left_goldenrod.png,stimulus/viswhere_stim/60-deg_dot-left_salmon.png,stimulus/viswhere_stim/60-deg_dot-right_slateblue.png,stimulus/viswhere_stim/match_blank.png,stimulus/viswhere_stim/match_box.png,stimulus/viswhere_stim/match_yes.png,stimulus/viswhere_stim/match_no.png,1.0,Match,Line,Line,1,5.125,0,5.125,0,5.125,0,5.125,0,0.625,0.625,1,0.5,1,2.125,1,0.5,1,2.125,0,0,0,0,0,0,0,0,0,,,,,0,7,7,7,,,,,,,,,108.60623220799607,113.72968958300771,109.08908674999839,110.08768245801912,110.71079716700478,111.70829066701117,108.60623220799607,108.60623220799607,108.62016304199351,108.60623220799607,108.60623220799607,108.60623220799607,108.62016304199351,108.60623220799607,113.72968958300771,114.40425304201199,116.48267595801735,120.50821666701813,114.40425304201199,114.40425304201199,119.53206349999527,114.85079058300471,115.85298645801959,116.48267595801735,117.49653666702216,114.40425304201199,114.40425304201199,114.38115120834166,114.40425304201199,114.40425304201199,114.40425304201199,114.38115120834166,114.40425304201199,114.40425304201199,119.53206349999527,114.40425304201199,119.53206349999527,119.59897512500174,120.2272130830097,114.40425304201199,1,1,0.8087024580163416,reldom2_s027,001,2025-02-26_15h44.23.850,Vis-B-Scan_AC,2022.2.5,None,
0,0.0,None,fixation,stimulus/viswhere_stim/blank_white.png,stimulus/viswhere_stim/blank_white.png,stimulus/viswhat_stim/blank_white.png,stimulus/viswhat_stim/blank_white.png,stimulus/viswhere_stim/blank_white.png,stimulus/viswhere_stim/blank_white.png,stimulus/viswhere_stim/blank_white.png,stimulus/viswhere_stim/blank_white.png,0.0,0.0,0.0,0.0,0,0.0,0,0.0,0,0.0,0,0.0,0,0.0,0.0,0,0.0,0,0.0,0,0.0,0,0.0,0,0,0,0,0,0,0,0,9,,,,,0,8,8,8,,,,,,,,,120.50821666701813,120.50821666701813,120.50821666701813,120.50821666701813,120.50821666701813,120.50821666701813,120.50821666701813,120.50821666701813,120.4166798753334,120.50821666701813,120.50821666701813,120.50821666701813,120.4166798753334,120.50821666701813,120.50821666701813,120.50821666701813,120.50821666701813,120.50821666701813,120.50821666701813,120.50821666701813,120.50821666701813,120.50821666701813,120.50821666701813,120.50821666701813,120.50821666701813,120.50821666701813,120.50821666701813,120.4666798753334,120.50821666701813,120.50821666701813,120.50821666701813,120.4666798753334,120.50821666701813,120.50821666701813,120.50821666701813,120.50821666701813,120.50821666701813,125.73741104200599,125.73741104200599,129.687776708015,None,0,,reldom2_s027,001,2025-02-26_15h44.23.850,Vis-B-Scan_AC,2022.2.5,None,
7,First_Order,2.0,viswhere,stimulus/viswhere_stim/blank_white.png,stimulus/viswhere_stim/blank_white.png,stimulus/viswhere_stim/60-deg_dot-right_peru.png,stimulus/viswhere_stim/120-deg_dot-right_goldenrod.png,stimulus/viswhere_stim/blank_white.png,stimulus/viswhere_stim/line_box.png,stimulus/viswhere_stim/line_yes.png,stimulus/viswhere_stim/line_no.png,None,Line,None,Dot,2,0.0,0,5.125,0,5.125,0,5.125,0,0.0,0.625,0,0.0,0,0.0,1,0.5,1,2.125,0,0,0,0,0,0,0,0,0,,,,,0,9,9,9,,,,,,,,,129.687776708015,129.687776708015,129.687776708015,129.687776708015,129.687776708015,129.687776708015,129.687776708015,129.687776708015,129.6583474580024,129.687776708015,129.687776708015,129.687776708015,129.6583474580024,129.687776708015,129.687776708015,129.687776708015,131.7880283750128,135.74362783299875,129.687776708015,129.687776708015,134.81760516701615,130.17579199999454,131.1903917080199,131.7880283750128,132.78927541701705,129.687776708015,129.687776708015,129.67501412466908,129.687776708015,129.687776708015,129.687776708015,129.67501412466908,129.687776708015,129.687776708015,134.81760516701615,129.687776708015,134.81760516701615,134.91389541700482,135.54234166699462,129.687776708015,2,1,0.6878623329976108,reldom2_s027,001,2025-02-26_15h44.23.850,Vis-B-Scan_AC,2022.2.5,None,
8,First_Order,2.0,viswhere,stimulus/viswhere_stim/blank_white.png,stimulus/viswhere_stim/blank_white.png,stimulus/viswhere_stim/90-deg_dot-left_turquoise.png,stimulus/viswhere_stim/90-deg_dot-right_peru.png,stimulus/viswhere_stim/blank_white.png,stimulus/viswhere_stim/line_box.png,stimulus/viswhere_stim/line_yes.png,stimulus/viswhere_stim/line_no.png,None,Line,None,Line,1,0.0,0,5.125,0,5.125,0,5.125,0,0.0,0.625,0,0.0,0,0.0,1,0.5,1,2.125,0,0,0,0,0,0,0,0,0,,,,,0,10,10,10,,,,,,,,,135.74362783299875,135.74362783299875,135.74362783299875,135.74362783299875,135.74362783299875,135.74362783299875,135.74362783299875,135.74362783299875,135.72597075034477,135.74362783299875,135.74362783299875,135.74362783299875,135.72597075034477,135.74362783299875,135.74362783299875,135.74362783299875,137.85704737500055,141.801116208022,135.74362783299875,135.74362783299875,140.87054470801377,136.23351079199347,137.2534815420222,137.85704737500055,138.86672508300398,135.74362783299875,135.74362783299875,135.72597075034477,135.74362783299875,135.74362783299875,135.74362783299875,135.72597075034477,135.74362783299875,135.74362783299875,140.87054470801377,135.74362783299875,140.87054470801377,140.96877766700345,141.6007665420184,135.74362783299875,1,1,0.8173626670031808,reldom2_s027,001,2025-02-26_15h44.23.850,Vis-B-Scan_AC,2022.2.5,None,
9,First_Order,2.0,viswhere,stimulus/viswhere_stim/blank_white.png,stimulus/viswhere_stim/blank_white.png,stimulus/viswhere_stim/60-deg_dot-right_seagreen.png,stimulus/viswhere_stim/120-deg_dot-right_salmon.png,stimulus/viswhere_stim/blank_white.png,stimulus/viswhere_stim/dot_box.png,stimulus/viswhere_stim/dot_yes.png,stimulus/viswhere_stim/dot_no.png,None,Dot,None,Dot,1,0.0,0,5.125,0,5.125,0,5.125,0,0.0,0.625,0,0.0,0,0.0,1,0.5,1,2.125,0,0,0,0,0,0,0,0,0,,,,,0,11,11,11,,,,,,,,,141.801116208022,141.801116208022,141.801116208022,141.801116208022,141.801116208022,141.801116208022,141.801116208022,141.801116208022,141.78295445834132,141.801116208022,141.801116208022,141.801116208022,141.78295445834132,141.801116208022,141.801116208022,141.801116208022,143.90740704201744,147.86969041702105,141.801116208022,141.801116208022,146.9312244169996,142.2885181250167,143.30711145800888,143.90740704201744,144.9127328750037,141.801116208022,141.801116208022,141.78295445834132,141.801116208022,141.801116208022,141.801116208022,141.78295445834132,141.801116208022,141.801116208022,146.9312244169996,141.801116208022,146.9312244169996,147.02571220800746,147.64648383299937,141.801116208022,1,1,0.8479952499910723,reldom2_s027,001,2025-02-26_15h44.23.850,Vis-B-Scan_AC,2022.2.5,None,
10,First_Order,2.0,viswhere,stimulus/viswhere_stim/blank_white.png,stimulus/viswhere_stim/blank_white.png,stimulus/viswhere_stim/120-deg_dot-right_cyan.png,stimulus/viswhere_stim/120-deg_dot-left_turquoise.png,stimulus/viswhere_stim/blank_white.png,stimulus/viswhere_stim/line_box.png,stimulus/viswhere_stim/line_yes.png,stimulus/viswhere_stim/line_no.png,None,Line,None,Line,1,0.0,0,5.125,0,5.125,0,5.125,0,0.0,0.625,0,0.0,0,0.0,1,0.5,1,2.125,0,0,0,0,0,0,0,0,0,,,,,0,12,12,12,,,,,,,,,147.86969041702105,147.86969041702105,147.86969041702105,147.86969041702105,147.86969041702105,147.86969041702105,147.86969041702105,147.86969041702105,147.8506390413289,147.86969041702105,147.86969041702105,147.86969041702105,147.8506390413289,147.86969041702105,147.86969041702105,147.86969041702105,149.98294370801887,154.01205183300772,147.86969041702105,147.86969041702105,152.9924361250014,148.35977458301932,149.3617588750203,149.98294370801887,150.98981729202205,147.86969041702105,147.86969041702105,147.8506390413289,147.86969041702105,147.86969041702105,147.86969041702105,147.8506390413289,147.86969041702105,147.86969041702105,152.9924361250014,147.86969041702105,152.9924361250014,153.09970616700593,153.72779254202032,147.86969041702105,1,1,0.8971487079979852,reldom2_s027,001,2025-02-26_15h44.23.850,Vis-B-Scan_AC,2022.2.5,None,
0,0.0,None,fixation,stimulus/viswhere_stim/blank_white.png,stimulus/viswhere_stim/blank_white.png,stimulus/viswhat_stim/blank_white.png,stimulus/viswhat_stim/blank_white.png,stimulus/viswhere_stim/blank_white.png,stimulus/viswhere_stim/blank_white.png,stimulus/viswhere_stim/blank_white.png,stimulus/viswhere_stim/blank_white.png,0.0,0.0,0.0,0.0,0,0.0,0,0.0,0,0.0,0,0.0,0,0.0,0.0,0,0.0,0,0.0,0,0.0,0,0.0,0,0,0,0,0,0,0,0,8,,,,,0,13,13,13,,,,,,,,,154.01205183300772,154.01205183300772,154.01205183300772,154.01205183300772,154.01205183300772,154.01205183300772,154.01205183300772,154.01205183300772,153.91829891632855,154.01205183300772,154.01205183300772,154.01205183300772,153.91829891632855,154.01205183300772,154.01205183300772,154.01205183300772,154.01205183300772,154.01205183300772,154.01205183300772,154.01205183300772,154.01205183300772,154.01205183300772,154.01205183300772,154.01205183300772,154.01205183300772,154.01205183300772,154.01205183300772,153.96829891632856,154.01205183300772,154.01205183300772,154.01205183300772,153.96829891632856,154.01205183300772,154.01205183300772,154.01205183300772,154.01205183300772,154.01205183300772,159.2130959170172,159.2130959170172,162.14292091701645,None,0,,reldom2_s027,001,2025-02-26_15h44.23.850,Vis-B-Scan_AC,2022.2.5,None,
11,Second_Order,2.0,viswhere,stimulus/viswhere_stim/120-deg_dot-left_slateblue.png,stimulus/viswhere_stim/60-deg_dot-left_seagreen.png,stimulus/viswhere_stim/90-deg_dot-right_seagreen.png,stimulus/viswhere_stim/30-deg_dot-right_mediumslateblue.png,stimulus/viswhere_stim/match_blank.png,stimulus/viswhere_stim/match_box.png,stimulus/viswhere_stim/match_yes.png,stimulus/viswhere_stim/match_no.png,1.0,Match,Dot,Dot,1,5.125,0,5.125,0,5.125,0,5.125,0,0.75,0.75,1,0.5,1,2.125,1,0.5,1,2.125,0,0,0,0,0,0,0,0,0,,,,,0,14,14,14,,,,,,,,,162.14292091701645,167.25957291701343,162.62621479202062,163.61494204201153,164.25143108301563,165.24883349999436,162.14292091701645,162.14292091701645,162.14242895867017,162.14292091701645,162.14292091701645,162.14292091701645,162.14242895867017,162.14292091701645,167.25957291701343,168.05033591701067,170.13522483300767,174.02330966701265,168.05033591701067,168.05033591701067,173.1748944580031,168.50683916700655,169.51100829200004,170.13522483300767,171.14348995801993,168.05033591701067,168.05033591701067,168.02554741633554,168.05033591701067,168.05033591701067,168.05033591701067,168.02554741633554,168.05033591701067,168.05033591701067,173.1748944580031,168.05033591701067,173.1748944580031,173.24354341701837,174.02330966701265,168.05033591701067,1,1,1.1073062920186203,reldom2_s027,001,2025-02-26_15h44.23.850,Vis-B-Scan_AC,2022.2.5,None,
12,Second_Order,2.0,viswhere,stimulus/viswhere_stim/90-deg_dot-right_cyan.png,stimulus/viswhere_stim/90-deg_dot-left_salmon.png,stimulus/viswhere_stim/30-deg_dot-left_goldenrod.png,stimulus/viswhere_stim/60-deg_dot-left_turquoise.png,stimulus/viswhere_stim/match_blank.png,stimulus/viswhere_stim/match_box.png,stimulus/viswhere_stim/match_yes.png,stimulus/viswhere_stim/match_no.png,2.0,Match,Line,Dot,2,5.125,0,5.125,0,5.125,0,5.125,0,0.625,0.625,1,0.5,1,2.125,1,0.5,1,2.125,0,0,0,0,0,0,0,0,0,,,,,0,15,15,15,,,,,,,,,174.02330966701265,179.1353041669936,174.50696804199833,175.49266170800547,176.12859766700421,177.12648458301555,174.02330966701265,174.02330966701265,174.0375286250026,174.02330966701265,174.02330966701265,174.02330966701265,174.0375286250026,174.02330966701265,179.1353041669936,179.80387387500377,181.89133704200503,185.91936362499837,179.80387387500377,179.80387387500377,184.9339318750135,180.25665983301587,181.27166641701479,181.89133704200503,182.8974607080163,179.80387387500377,179.80387387500377,179.78206212534184,179.80387387500377,179.80387387500377,179.80387387500377,179.78206212534184,179.80387387500377,179.80387387500377,184.9339318750135,179.80387387500377,184.9339318750135,185.00729808301548,185.63460412502172,179.80387387500377,2,1,0.9337099579861388,reldom2_s027,001,2025-02-26_15h44.23.850,Vis-B-Scan_AC,2022.2.5,None,
0,0.0,None,fixation,stimulus/viswhere_stim/blank_white.png,stimulus/viswhere_stim/blank_white.png,stimulus/viswhat_stim/blank_white.png,stimulus/viswhat_stim/blank_white.png,stimulus/viswhere_stim/blank_white.png,stimulus/viswhere_stim/blank_white.png,stimulus/viswhere_stim/blank_white.png,stimulus/viswhere_stim/blank_white.png,0.0,0.0,0.0,0.0,0,0.0,0,0.0,0,0.0,0,0.0,0,0.0,0.0,0,0.0,0,0.0,0,0.0,0,0.0,0,0,0,0,0,0,0,0,10,,,,,0,16,16,16,,,,,,,,,185.91936362499837,185.91936362499837,185.91936362499837,185.91936362499837,185.91936362499837,185.91936362499837,185.91936362499837,185.91936362499837,185.82512100034123,185.91936362499837,185.91936362499837,185.91936362499837,185.82512100034123,185.91936362499837,185.91936362499837,185.91936362499837,185.91936362499837,185.91936362499837,185.91936362499837,185.91936362499837,185.91936362499837,185.91936362499837,185.91936362499837,185.91936362499837,185.91936362499837,185.91936362499837,185.91936362499837,185.87512100034124,185.91936362499837,185.91936362499837,185.91936362499837,185.87512100034124,185.91936362499837,185.91936362499837,185.91936362499837,185.91936362499837,185.91936362499837,191.12686358302017,191.12686358302017,196.2017892920121,None,0,,reldom2_s027,001,2025-02-26_15h44.23.850,Vis-B-Scan_AC,2022.2.5,None,
13,First_Order,3.0,viswhat,stimulus/viswhat_stim/blank_white.png,stimulus/viswhat_stim/blank_white.png,stimulus/viswhat_stim/land_animal-moose.png,stimulus/viswhat_stim/water_animal-whale (1).png,stimulus/viswhat_stim/blank_white.png,stimulus/viswhat_stim/type_box.png,stimulus/viswhat_stim/type_yes.png,stimulus/viswhat_stim/type_no.png,None,Type,None,Type,1,0.0,0,5.125,0,5.125,0,5.125,0,0.0,0.625,0,0.0,0,0.0,1,0.5,1,2.125,0,0,0,0,0,0,0,0,0,,,,,0,17,17,17,,,,,,,,,196.2017892920121,196.2017892920121,196.2017892920121,196.2017892920121,196.2017892920121,196.2017892920121,196.2017892920121,196.2017892920121,196.08947737501003,196.2017892920121,196.2017892920121,196.2017892920121,196.08947737501003,196.2017892920121,196.2017892920121,196.2017892920121,198.28159870801028,202.2797943750047,196.2017892920121,196.2017892920121,201.40558087499812,196.66298566700425,197.70435529202223,198.28159870801028,199.32882791699376,196.2017892920121,196.2017892920121,196.1561440416767,196.2017892920121,196.2017892920121,196.2017892920121,196.1561440416767,196.2017892920121,196.2017892920121,201.40558087499812,196.2017892920121,201.40558087499812,201.40558087499812,202.08402933299658,196.2017892920121,1,1,0.8268239159951918,reldom2_s027,001,2025-02-26_15h44.23.850,Vis-B-Scan_AC,2022.2.5,None,
14,First_Order,3.0,viswhat,stimulus/viswhat_stim/blank_white.png,stimulus/viswhat_stim/blank_white.png,stimulus/viswhat_stim/land_vehicle-trolley.png,stimulus/viswhat_stim/water_vehicle-jetski.png,stimulus/viswhat_stim/blank_white.png,stimulus/viswhat_stim/location_box.png,stimulus/viswhat_stim/location_yes.png,stimulus/viswhat_stim/location_no.png,None,Location,None,Type,2,0.0,0,5.125,0,5.125,0,5.125,0,0.0,0.625,0,0.0,0,0.0,1,0.5,1,2.125,0,0,0,0,0,0,0,0,0,,,,,0,18,18,18,,,,,,,,,202.2797943750047,202.2797943750047,202.2797943750047,202.2797943750047,202.2797943750047,202.2797943750047,202.2797943750047,202.2797943750047,202.25069599966326,202.2797943750047,202.2797943750047,202.2797943750047,202.25069599966326,202.2797943750047,202.2797943750047,202.2797943750047,204.37104204201023,208.3562535000092,202.2797943750047,202.2797943750047,207.42574587502168,202.75212441702024,203.77562766699702,204.37104204201023,205.4026724169962,202.2797943750047,202.2797943750047,202.26736266632992,202.2797943750047,202.2797943750047,202.2797943750047,202.26736266632992,202.2797943750047,202.2797943750047,207.42574587502168,202.2797943750047,207.42574587502168,207.50297954201233,208.13601491702138,202.2797943750047,2,1,1.1414465839916375,reldom2_s027,001,2025-02-26_15h44.23.850,Vis-B-Scan_AC,2022.2.5,None,
15,First_Order,3.0,viswhat,stimulus/viswhat_stim/blank_white.png,stimulus/viswhat_stim/blank_white.png,stimulus/viswhat_stim/land_animal-ostrich.png,stimulus/viswhat_stim/land_vehicle-train.png,stimulus/viswhat_stim/blank_white.png,stimulus/viswhat_stim/location_box.png,stimulus/viswhat_stim/location_yes.png,stimulus/viswhat_stim/location_no.png,None,Location,None,Location,1,0.0,0,5.125,0,5.125,0,5.125,0,0.0,0.625,0,0.0,0,0.0,1,0.5,1,2.125,0,0,0,0,0,0,0,0,0,,,,,0,19,19,19,,,,,,,,,208.3562535000092,208.3562535000092,208.3562535000092,208.3562535000092,208.3562535000092,208.3562535000092,208.3562535000092,208.3562535000092,208.33213775001934,208.3562535000092,208.3562535000092,208.3562535000092,208.33213775001934,208.3562535000092,208.3562535000092,208.3562535000092,210.45306687499397,214.7517628330097,208.3562535000092,208.3562535000092,213.49517141701654,208.83392662499682,209.85973258301965,210.45306687499397,211.46390162501484,208.3562535000092,208.3562535000092,208.348804416686,208.3562535000092,208.3562535000092,208.3562535000092,208.348804416686,208.3562535000092,208.3562535000092,213.49517141701654,208.3562535000092,213.49517141701654,213.58165745800943,214.21539675001986,208.3562535000092,1,1,1.1107287910126615,reldom2_s027,001,2025-02-26_15h44.23.850,Vis-B-Scan_AC,2022.2.5,None,
16,First_Order,3.0,viswhat,stimulus/viswhat_stim/blank_white.png,stimulus/viswhat_stim/blank_white.png,stimulus/viswhat_stim/water_animal-lobster.png,stimulus/viswhat_stim/land_animal-moose.png,stimulus/viswhat_stim/blank_white.png,stimulus/viswhat_stim/location_box.png,stimulus/viswhat_stim/location_yes.png,stimulus/viswhat_stim/location_no.png,None,Location,None,Type,2,0.0,0,5.125,0,5.125,0,5.125,0,0.0,0.625,0,0.0,0,0.0,1,0.5,1,2.125,0,0,0,0,0,0,0,0,0,,,,,0,20,20,20,,,,,,,,,214.7517628330097,214.7517628330097,214.7517628330097,214.7517628330097,214.7517628330097,214.7517628330097,214.7517628330097,214.7517628330097,214.3843393753535,214.7517628330097,214.7517628330097,214.7517628330097,214.3843393753535,214.7517628330097,214.7517628330097,214.7517628330097,216.7127774580149,,214.7517628330097,214.7517628330097,220.09815062501002,215.1104930420115,216.3566637080221,216.7127774580149,217.96263870800612,214.7517628330097,214.7517628330097,214.58433937535352,214.7517628330097,214.7517628330097,214.7517628330097,214.58433937535352,214.7517628330097,214.7517628330097,220.09815062501002,214.7517628330097,220.09815062501002,219.92707458301447,,214.7517628330097,2,1,0.8548826669866685,reldom2_s027,001,2025-02-26_15h44.23.850,Vis-B-Scan_AC,2022.2.5,None,
0,0.0,None,fixation,stimulus/viswhere_stim/blank_white.png,stimulus/viswhere_stim/blank_white.png,stimulus/viswhat_stim/blank_white.png,stimulus/viswhat_stim/blank_white.png,stimulus/viswhere_stim/blank_white.png,stimulus/viswhere_stim/blank_white.png,stimulus/viswhere_stim/blank_white.png,stimulus/viswhere_stim/blank_white.png,0.0,0.0,0.0,0.0,0,0.0,0,0.0,0,0.0,0,0.0,0,0.0,0.0,0,0.0,0,0.0,0,0.0,0,0.0,0,0,0,0,0,0,0,0,8,,,,,0,21,21,21,,,,,,,,,220.77139325000462,220.77139325000462,220.77139325000462,220.77139325000462,220.77139325000462,220.77139325000462,220.77139325000462,220.77139325000462,220.6715740420099,220.77139325000462,220.77139325000462,220.77139325000462,220.6715740420099,220.77139325000462,220.77139325000462,220.77139325000462,220.77139325000462,220.77139325000462,220.77139325000462,220.77139325000462,220.77139325000462,220.77139325000462,220.77139325000462,220.77139325000462,220.77139325000462,220.77139325000462,220.77139325000462,220.7215740420099,220.77139325000462,220.77139325000462,220.77139325000462,220.7215740420099,220.77139325000462,220.77139325000462,220.77139325000462,220.77139325000462,220.77139325000462,225.98141037501046,225.98141037501046,228.91495591701823,None,0,,reldom2_s027,001,2025-02-26_15h44.23.850,Vis-B-Scan_AC,2022.2.5,None,
17,Second_Order,3.0,viswhat,stimulus/viswhat_stim/land_animal-giraffe.png,stimulus/viswhat_stim/water_animal-stingray.png,stimulus/viswhat_stim/water_animal-squid.png,stimulus/viswhat_stim/water_vehicle-yacht.png,stimulus/viswhere_stim/match_blank.png,stimulus/viswhere_stim/match_box.png,stimulus/viswhere_stim/match_yes.png,stimulus/viswhere_stim/match_no.png,2.0,Match,Type,Location,2,5.125,0,5.125,0,5.125,0,5.125,0,0.75,0.75,1,0.5,1,2.125,1,0.5,1,2.125,0,0,0,0,0,0,0,0,0,,,,,0,22,22,22,,,,,,,,,228.91495591701823,234.0299617080018,229.3659722500015,230.3523533330008,230.9883232919965,231.98650595801882,228.91495591701823,228.91495591701823,228.91770741702058,228.91495591701823,228.91495591701823,228.91495591701823,228.91770741702058,228.91495591701823,234.0299617080018,234.86364054199657,236.94462062499952,240.8599909170007,234.86364054199657,234.86364054199657,240.0032005420071,235.30832375001046,236.34974204201717,236.94462062499952,237.99274487499497,234.86364054199657,234.86364054199657,234.8304524996648,234.86364054199657,234.86364054199657,234.86364054199657,234.8304524996648,234.86364054199657,234.86364054199657,240.0032005420071,234.86364054199657,240.0032005420071,240.0350611670001,,234.86364054199657,2,1,0.6846553329960443,reldom2_s027,001,2025-02-26_15h44.23.850,Vis-B-Scan_AC,2022.2.5,None,
18,Second_Order,3.0,viswhat,stimulus/viswhat_stim/water_animal-whale (1).png,stimulus/viswhat_stim/land_animal-tiger.png,stimulus/viswhat_stim/water_animal-orka.png,stimulus/viswhat_stim/water_vehicle-cargoboat.png,stimulus/viswhere_stim/match_blank.png,stimulus/viswhere_stim/match_box.png,stimulus/viswhere_stim/match_yes.png,stimulus/viswhere_stim/match_no.png,2.0,Match,Type,Location,2,5.125,0,5.125,0,5.125,0,5.125,0,0.625,0.625,1,0.5,1,2.125,1,0.5,1,2.125,0,0,0,0,0,0,0,0,0,,,,,0,23,23,23,,,,,,,,,240.8599909170007,245.9733675000025,241.32423708299757,242.31363987500663,242.94923404199653,243.94773412501672,240.8599909170007,240.8599909170007,240.86542700000575,240.8599909170007,240.8599909170007,240.8599909170007,240.86542700000575,240.8599909170007,245.9733675000025,246.7460311250179,248.80744429200422,,246.7460311250179,246.7460311250179,251.96785245800857,247.1937286670145,248.2897783750086,248.80744429200422,249.90567829200882,246.7460311250179,246.7460311250179,246.68691650000403,246.7460311250179,246.7460311250179,246.7460311250179,246.68691650000403,246.7460311250179,246.7460311250179,251.96785245800857,246.7460311250179,251.96785245800857,251.90959237501374,252.83030962501653,246.7460311250179,2,1,0.7015515830134973,reldom2_s027,001,2025-02-26_15h44.23.850,Vis-B-Scan_AC,2022.2.5,None,
0,0.0,None,fixation,stimulus/viswhere_stim/blank_white.png,stimulus/viswhere_stim/blank_white.png,stimulus/viswhat_stim/blank_white.png,stimulus/viswhat_stim/blank_white.png,stimulus/viswhere_stim/blank_white.png,stimulus/viswhere_stim/blank_white.png,stimulus/viswhere_stim/blank_white.png,stimulus/viswhere_stim/blank_white.png,0.0,0.0,0.0,0.0,0,0.0,0,0.0,0,0.0,0,0.0,0,0.0,0.0,0,0.0,0,0.0,0,0.0,0,0.0,0,0,0,0,0,0,0,0,9,,,,,0,24,24,24,,,,,,,,,252.83030962501653,252.83030962501653,252.83030962501653,252.83030962501653,252.83030962501653,252.83030962501653,252.83030962501653,252.83030962501653,252.74100229133813,252.83030962501653,252.83030962501653,252.83030962501653,252.74100229133813,252.83030962501653,252.83030962501653,252.83030962501653,252.83030962501653,252.83030962501653,252.83030962501653,252.83030962501653,252.83030962501653,252.83030962501653,252.83030962501653,252.83030962501653,252.83030962501653,252.83030962501653,252.83030962501653,252.79100229133815,252.83030962501653,252.83030962501653,252.83030962501653,252.79100229133815,252.83030962501653,252.83030962501653,252.83030962501653,252.83030962501653,252.83030962501653,258.0158852080058,258.0158852080058,262.02207141701365,None,0,,reldom2_s027,001,2025-02-26_15h44.23.850,Vis-B-Scan_AC,2022.2.5,None,
19,First_Order,4.0,viswhat,stimulus/viswhat_stim/blank_white.png,stimulus/viswhat_stim/blank_white.png,stimulus/viswhat_stim/water_animal-dolphin.png,stimulus/viswhat_stim/water_vehicle-canoe.png,stimulus/viswhat_stim/blank_white.png,stimulus/viswhat_stim/type_box.png,stimulus/viswhat_stim/type_yes.png,stimulus/viswhat_stim/type_no.png,None,Type,None,Location,2,0.0,0,5.125,0,5.125,0,5.125,0,0.0,0.625,0,0.0,0,0.0,1,0.5,1,2.125,0,0,0,0,0,0,0,0,0,,,,,0,25,25,25,,,,,,,,,262.02207141701365,262.02207141701365,262.02207141701365,262.02207141701365,262.02207141701365,262.02207141701365,262.02207141701365,262.02207141701365,261.98492741667235,262.02207141701365,262.02207141701365,262.02207141701365,261.98492741667235,262.02207141701365,262.02207141701365,262.02207141701365,264.114180708013,268.1610425420222,262.02207141701365,262.02207141701365,267.1654158330057,262.50846199999796,263.5411143329984,264.114180708013,265.1265405000013,262.02207141701365,262.02207141701365,262.00159408333906,262.02207141701365,262.02207141701365,262.02207141701365,262.00159408333906,262.02207141701365,262.02207141701365,267.1654158330057,262.02207141701365,267.1654158330057,267.2345827080135,267.884595792013,262.02207141701365,2,1,0.8766472089919262,reldom2_s027,001,2025-02-26_15h44.23.850,Vis-B-Scan_AC,2022.2.5,None,
20,First_Order,4.0,viswhat,stimulus/viswhat_stim/blank_white.png,stimulus/viswhat_stim/blank_white.png,stimulus/viswhat_stim/land_animal-elephant.png,stimulus/viswhat_stim/land_vehicle-pickuptruck.png,stimulus/viswhat_stim/blank_white.png,stimulus/viswhat_stim/type_box.png,stimulus/viswhat_stim/type_yes.png,stimulus/viswhat_stim/type_no.png,None,Type,None,Location,2,0.0,0,5.125,0,5.125,0,5.125,0,0.0,0.625,0,0.0,0,0.0,1,0.5,1,2.125,0,0,0,0,0,0,0,0,0,,,,,0,26,26,26,,,,,,,,,268.1610425420222,268.1610425420222,268.1610425420222,268.1610425420222,268.1610425420222,268.1610425420222,268.1610425420222,268.1610425420222,268.05411433299884,268.1610425420222,268.1610425420222,268.1610425420222,268.05411433299884,268.1610425420222,268.1610425420222,268.1610425420222,270.2313323749986,,268.1610425420222,268.1610425420222,273.357984125003,268.633733374998,269.6995637080108,270.2313323749986,271.29609133300255,268.1610425420222,268.1610425420222,268.10411433299885,268.1610425420222,268.1610425420222,268.1610425420222,268.10411433299885,268.1610425420222,268.1610425420222,273.357984125003,268.1610425420222,273.357984125003,273.357984125003,274.39097379200393,268.1610425420222,2,1,0.6373255419894122,reldom2_s027,001,2025-02-26_15h44.23.850,Vis-B-Scan_AC,2022.2.5,None,
21,First_Order,4.0,viswhat,stimulus/viswhat_stim/blank_white.png,stimulus/viswhat_stim/blank_white.png,stimulus/viswhat_stim/water_vehicle-cruiseship.png,stimulus/viswhat_stim/land_vehicle-oldcar.png,stimulus/viswhat_stim/blank_white.png,stimulus/viswhat_stim/type_box.png,stimulus/viswhat_stim/type_yes.png,stimulus/viswhat_stim/type_no.png,None,Type,None,Type,1,0.0,0,5.125,0,5.125,0,5.125,0,0.0,0.625,0,0.0,0,0.0,1,0.5,1,2.125,0,0,0,0,0,0,0,0,0,,,,,0,27,27,27,,,,,,,,,274.39097379200393,274.39097379200393,274.39097379200393,274.39097379200393,274.39097379200393,274.39097379200393,274.39097379200393,274.39097379200393,274.1663905836855,274.39097379200393,274.39097379200393,274.39097379200393,274.1663905836855,274.39097379200393,274.39097379200393,274.39097379200393,276.47043333301554,280.53596479201224,274.39097379200393,274.39097379200393,279.70038212501095,274.85379412499606,276.00972245799494,276.47043333301554,277.62814579199767,274.39097379200393,274.39097379200393,274.28305725035216,274.39097379200393,274.39097379200393,274.39097379200393,274.28305725035216,274.39097379200393,274.39097379200393,279.70038212501095,274.39097379200393,279.70038212501095,279.59098633300164,,274.39097379200393,1,1,0.6419347079936415,reldom2_s027,001,2025-02-26_15h44.23.850,Vis-B-Scan_AC,2022.2.5,None,
22,First_Order,4.0,viswhat,stimulus/viswhat_stim/blank_white.png,stimulus/viswhat_stim/blank_white.png,stimulus/viswhat_stim/water_vehicle-pirateship.png,stimulus/viswhat_stim/water_animal-orka.png,stimulus/viswhat_stim/blank_white.png,stimulus/viswhat_stim/location_box.png,stimulus/viswhat_stim/location_yes.png,stimulus/viswhat_stim/location_no.png,None,Location,None,Location,1,0.0,0,5.125,0,5.125,0,5.125,0,0.0,0.625,0,0.0,0,0.0,1,0.5,1,2.125,0,0,0,0,0,0,0,0,0,,,,,0,28,28,28,,,,,,,,,280.53596479201224,280.53596479201224,280.53596479201224,280.53596479201224,280.53596479201224,280.53596479201224,280.53596479201224,280.53596479201224,280.4068363746667,280.53596479201224,280.53596479201224,280.53596479201224,280.4068363746667,280.53596479201224,280.53596479201224,280.53596479201224,282.59379587500007,,280.53596479201224,280.53596479201224,285.7171569580096,281.0007051670109,282.06335533299716,282.59379587500007,283.66155862499727,280.53596479201224,280.53596479201224,280.47350304133334,280.53596479201224,280.53596479201224,280.53596479201224,280.47350304133334,280.53596479201224,280.53596479201224,285.7171569580096,280.53596479201224,285.7171569580096,285.7171569580096,286.6577107500052,280.53596479201224,1,1,0.775280792004196,reldom2_s027,001,2025-02-26_15h44.23.850,Vis-B-Scan_AC,2022.2.5,None,
0,0.0,None,fixation,stimulus/viswhere_stim/blank_white.png,stimulus/viswhere_stim/blank_white.png,stimulus/viswhat_stim/blank_white.png,stimulus/viswhat_stim/blank_white.png,stimulus/viswhere_stim/blank_white.png,stimulus/viswhere_stim/blank_white.png,stimulus/viswhere_stim/blank_white.png,stimulus/viswhere_stim/blank_white.png,0.0,0.0,0.0,0.0,0,0.0,0,0.0,0,0.0,0,0.0,0,0.0,0.0,0,0.0,0,0.0,0,0.0,0,0.0,0,0,0,0,0,0,0,0,10,,,,,0,29,29,29,,,,,,,,,286.6577107500052,286.6577107500052,286.6577107500052,286.6577107500052,286.6577107500052,286.6577107500052,286.6577107500052,286.6577107500052,286.56680054134534,286.6577107500052,286.6577107500052,286.6577107500052,286.56680054134534,286.6577107500052,286.6577107500052,286.6577107500052,286.6577107500052,286.6577107500052,286.6577107500052,286.6577107500052,286.6577107500052,286.6577107500052,286.6577107500052,286.6577107500052,286.6577107500052,286.6577107500052,286.6577107500052,286.6168005413453,286.6577107500052,286.6577107500052,286.6577107500052,286.6168005413453,286.6577107500052,286.6577107500052,286.6577107500052,286.6577107500052,286.6577107500052,291.8775650000025,291.8775650000025,296.82353766702,None,0,,reldom2_s027,001,2025-02-26_15h44.23.850,Vis-B-Scan_AC,2022.2.5,None,
23,Second_Order,4.0,viswhat,stimulus/viswhat_stim/land_vehicle-pickuptruck.png,stimulus/viswhat_stim/land_animal-lion.png,stimulus/viswhat_stim/water_animal-jellyfish.png,stimulus/viswhat_stim/water_vehicle-cabincruiser.png,stimulus/viswhere_stim/match_blank.png,stimulus/viswhere_stim/match_box.png,stimulus/viswhere_stim/match_yes.png,stimulus/viswhere_stim/match_no.png,1.0,Match,Location,Location,1,5.125,0,5.125,0,5.125,0,5.125,0,0.75,0.75,1,0.5,1,2.125,1,0.5,1,2.125,0,0,0,0,0,0,0,0,0,,,,,0,30,30,30,,,,,,,,,296.82353766702,301.93600775001687,297.28910470800474,298.27675279200776,298.9123449170147,299.90956625001854,296.82353766702,296.82353766702,296.8233997083463,296.82353766702,296.82353766702,296.82353766702,296.8233997083463,296.82353766702,301.93600775001687,302.778502125002,304.8285754999961,308.76777608299744,302.778502125002,302.778502125002,307.92010487499647,303.2116027919983,304.2360095420154,304.8285754999961,305.8624752080068,302.778502125002,302.778502125002,302.7369680836719,302.778502125002,302.778502125002,302.778502125002,302.7369680836719,302.778502125002,302.778502125002,307.92010487499647,302.778502125002,307.92010487499647,307.9542979580001,,302.778502125002,1,1,0.7923402499873191,reldom2_s027,001,2025-02-26_15h44.23.850,Vis-B-Scan_AC,2022.2.5,None,
24,Second_Order,4.0,viswhat,stimulus/viswhat_stim/water_vehicle-pirateship.png,stimulus/viswhat_stim/land_vehicle-oldcar.png,stimulus/viswhat_stim/land_animal-zebra.png,stimulus/viswhat_stim/water_animal-seahorse.png,stimulus/viswhere_stim/match_blank.png,stimulus/viswhere_stim/match_box.png,stimulus/viswhere_stim/match_yes.png,stimulus/viswhere_stim/match_no.png,1.0,Match,Type,Type,1,5.125,0,5.125,0,5.125,0,5.125,0,0.625,0.625,1,0.5,1,2.125,1,0.5,1,2.125,0,0,0,0,0,0,0,0,0,,,,,0,31,31,31,,,,,,,,,308.76777608299744,313.8802842500154,309.23145000002114,310.22100125,310.8562187080097,311.85382550000213,308.76777608299744,308.76777608299744,308.7665217080153,308.76777608299744,308.76777608299744,308.76777608299744,308.7665217080153,308.76777608299744,313.8802842500154,314.5621917080134,316.6304559170094,320.67171616700944,314.5621917080134,314.5621917080134,319.7052031250205,315.0195445830177,316.0299568750197,316.6304559170094,317.6508597500215,314.5621917080134,314.5621917080134,314.54353775000783,314.5621917080134,314.5621917080134,314.5621917080134,314.54353775000783,314.5621917080134,314.5621917080134,319.7052031250205,314.5621917080134,319.7052031250205,319.760933417012,320.38978779199533,314.5621917080134,1,1,0.6465902920172084,reldom2_s027,001,2025-02-26_15h44.23.850,Vis-B-Scan_AC,2022.2.5,None,
0,0.0,None,fixation,stimulus/viswhere_stim/blank_white.png,stimulus/viswhere_stim/blank_white.png,stimulus/viswhat_stim/blank_white.png,stimulus/viswhat_stim/blank_white.png,stimulus/viswhere_stim/blank_white.png,stimulus/viswhere_stim/blank_white.png,stimulus/viswhere_stim/blank_white.png,stimulus/viswhere_stim/blank_white.png,0.0,0.0,0.0,0.0,0,0.0,0,0.0,0,0.0,0,0.0,0,0.0,0.0,0,0.0,0,0.0,0,0.0,0,0.0,0,0,0,0,0,0,0,0,9,,,,,0,32,32,32,,,,,,,,,320.67171616700944,320.67171616700944,320.67171616700944,320.67171616700944,320.67171616700944,320.67171616700944,320.67171616700944,320.67171616700944,320.5825574580172,320.67171616700944,320.67171616700944,320.67171616700944,320.5825574580172,320.67171616700944,320.67171616700944,320.67171616700944,320.67171616700944,320.67171616700944,320.67171616700944,320.67171616700944,320.67171616700944,320.67171616700944,320.67171616700944,320.67171616700944,320.67171616700944,320.67171616700944,320.67171616700944,320.63255745801723,320.67171616700944,320.67171616700944,320.67171616700944,320.63255745801723,320.67171616700944,320.67171616700944,320.67171616700944,320.67171616700944,320.67171616700944,325.8905899579986,325.8905899579986,329.84249133299454,None,0,,reldom2_s027,001,2025-02-26_15h44.23.850,Vis-B-Scan_AC,2022.2.5,None,
25,First_Order,5.0,viswhere,stimulus/viswhere_stim/blank_white.png,stimulus/viswhere_stim/blank_white.png,stimulus/viswhere_stim/90-deg_dot-right_seagreen.png,stimulus/viswhere_stim/150-deg_dot-right_turquoise.png,stimulus/viswhere_stim/blank_white.png,stimulus/viswhere_stim/line_box.png,stimulus/viswhere_stim/line_yes.png,stimulus/viswhere_stim/line_no.png,None,Line,None,Dot,2,0.0,0,5.125,0,5.125,0,5.125,0,0.0,0.625,0,0.0,0,0.0,1,0.5,1,2.125,0,0,0,0,0,0,0,0,0,,,,,0,33,33,33,,,,,,,,,329.84249133299454,329.84249133299454,329.84249133299454,329.84249133299454,329.84249133299454,329.84249133299454,329.84249133299454,329.84249133299454,329.8259126246654,329.84249133299454,329.84249133299454,329.84249133299454,329.8259126246654,329.84249133299454,329.84249133299454,329.84249133299454,331.94601687500835,335.9060904170037,329.84249133299454,329.84249133299454,334.9784803329967,330.32087833300466,331.3349296670058,331.94601687500835,332.94781062501715,329.84249133299454,329.84249133299454,329.8259126246654,329.84249133299454,329.84249133299454,329.84249133299454,329.8259126246654,329.84249133299454,329.84249133299454,334.9784803329967,329.84249133299454,334.9784803329967,335.06137383301393,335.6914676669985,329.84249133299454,2,1,0.8000156249909196,reldom2_s027,001,2025-02-26_15h44.23.850,Vis-B-Scan_AC,2022.2.5,None,
26,First_Order,5.0,viswhere,stimulus/viswhere_stim/blank_white.png,stimulus/viswhere_stim/blank_white.png,stimulus/viswhere_stim/150-deg_dot-left_seagreen.png,stimulus/viswhere_stim/150-deg_dot-right_seagreen.png,stimulus/viswhere_stim/blank_white.png,stimulus/viswhere_stim/dot_box.png,stimulus/viswhere_stim/dot_yes.png,stimulus/viswhere_stim/dot_no.png,None,Dot,None,Line,2,0.0,0,5.125,0,5.125,0,5.125,0,0.0,0.625,0,0.0,0,0.0,1,0.5,1,2.125,0,0,0,0,0,0,0,0,0,,,,,0,34,34,34,,,,,,,,,335.9060904170037,335.9060904170037,335.9060904170037,335.9060904170037,335.9060904170037,335.9060904170037,335.9060904170037,335.9060904170037,335.88548641633434,335.9060904170037,335.9060904170037,335.9060904170037,335.88548641633434,335.9060904170037,335.9060904170037,335.9060904170037,338.0177046250028,341.9763963750156,335.9060904170037,335.9060904170037,341.04012091699406,336.38627458299743,337.4045687500038,338.0177046250028,339.0235742920195,335.9060904170037,335.9060904170037,335.902153083001,335.9060904170037,335.9060904170037,335.9060904170037,335.902153083001,335.9060904170037,335.9060904170037,341.04012091699406,335.9060904170037,341.04012091699406,341.15441262500826,341.78907183301635,335.9060904170037,2,1,0.7135269579885062,reldom2_s027,001,2025-02-26_15h44.23.850,Vis-B-Scan_AC,2022.2.5,None,
27,First_Order,5.0,viswhere,stimulus/viswhere_stim/blank_white.png,stimulus/viswhere_stim/blank_white.png,stimulus/viswhere_stim/90-deg_dot-left_turquoise.png,stimulus/viswhere_stim/90-deg_dot-right_seagreen.png,stimulus/viswhere_stim/blank_white.png,stimulus/viswhere_stim/line_box.png,stimulus/viswhere_stim/line_yes.png,stimulus/viswhere_stim/line_no.png,None,Line,None,Line,1,0.0,0,5.125,0,5.125,0,5.125,0,0.0,0.625,0,0.0,0,0.0,1,0.5,1,2.125,0,0,0,0,0,0,0,0,0,,,,,0,35,35,35,,,,,,,,,341.9763963750156,341.9763963750156,341.9763963750156,341.9763963750156,341.9763963750156,341.9763963750156,341.9763963750156,341.9763963750156,341.9559119583476,341.9763963750156,341.9763963750156,341.9763963750156,341.9559119583476,341.9763963750156,341.9763963750156,341.9763963750156,344.0760966670059,348.0474002500123,341.9763963750156,341.9763963750156,347.10170120801195,342.45421216700925,343.4663103329949,344.0760966670059,345.09619466701406,341.9763963750156,341.9763963750156,341.97257862501425,341.9763963750156,341.9763963750156,341.9763963750156,341.97257862501425,341.9763963750156,341.9763963750156,347.10170120801195,341.9763963750156,347.10170120801195,347.1987251670216,347.82973116700305,341.9763963750156,1,1,0.7038239589892328,reldom2_s027,001,2025-02-26_15h44.23.850,Vis-B-Scan_AC,2022.2.5,None,
28,First_Order,5.0,viswhere,stimulus/viswhere_stim/blank_white.png,stimulus/viswhere_stim/blank_white.png,stimulus/viswhere_stim/120-deg_dot-right_mediumslateblue.png,stimulus/viswhere_stim/90-deg_dot-right_lightsseagreen.png,stimulus/viswhere_stim/blank_white.png,stimulus/viswhere_stim/dot_box.png,stimulus/viswhere_stim/dot_yes.png,stimulus/viswhere_stim/dot_no.png,None,Dot,None,Dot,1,0.0,0,5.125,0,5.125,0,5.125,0,0.0,0.625,0,0.0,0,0.0,1,0.5,1,2.125,0,0,0,0,0,0,0,0,0,,,,,0,36,36,36,,,,,,,,,348.0474002500123,348.0474002500123,348.0474002500123,348.0474002500123,348.0474002500123,348.0474002500123,348.0474002500123,348.0474002500123,348.0266012913392,348.0474002500123,348.0474002500123,348.0474002500123,348.0266012913392,348.0474002500123,348.0474002500123,348.0474002500123,350.16101008301484,354.18786312500015,348.0474002500123,348.0474002500123,353.1734106670192,348.5231512080063,349.5341274579987,350.16101008301484,351.1762497500167,348.0474002500123,348.0474002500123,348.04326795800586,348.0474002500123,348.0474002500123,348.0474002500123,348.04326795800586,348.0474002500123,348.0474002500123,353.1734106670192,348.0474002500123,353.1734106670192,353.2695306670212,353.89366458301083,348.0474002500123,1,1,0.7943733329884708,reldom2_s027,001,2025-02-26_15h44.23.850,Vis-B-Scan_AC,2022.2.5,None,
0,0.0,None,fixation,stimulus/viswhere_stim/blank_white.png,stimulus/viswhere_stim/blank_white.png,stimulus/viswhat_stim/blank_white.png,stimulus/viswhat_stim/blank_white.png,stimulus/viswhere_stim/blank_white.png,stimulus/viswhere_stim/blank_white.png,stimulus/viswhere_stim/blank_white.png,stimulus/viswhere_stim/blank_white.png,0.0,0.0,0.0,0.0,0,0.0,0,0.0,0,0.0,0,0.0,0,0.0,0.0,0,0.0,0,0.0,0,0.0,0,0.0,0,0,0,0,0,0,0,0,10,,,,,0,37,37,37,,,,,,,,,354.18786312500015,354.18786312500015,354.18786312500015,354.18786312500015,354.18786312500015,354.18786312500015,354.18786312500015,354.18786312500015,354.0914766253457,354.18786312500015,354.18786312500015,354.18786312500015,354.0914766253457,354.18786312500015,354.18786312500015,354.18786312500015,354.18786312500015,354.18786312500015,354.18786312500015,354.18786312500015,354.18786312500015,354.18786312500015,354.18786312500015,354.18786312500015,354.18786312500015,354.18786312500015,354.18786312500015,354.1414766253457,354.18786312500015,354.18786312500015,354.18786312500015,354.1414766253457,354.18786312500015,354.18786312500015,354.18786312500015,354.18786312500015,354.18786312500015,359.3915544170013,359.3915544170013,364.28949454199756,None,0,,reldom2_s027,001,2025-02-26_15h44.23.850,Vis-B-Scan_AC,2022.2.5,None,
29,Second_Order,5.0,viswhere,stimulus/viswhere_stim/30-deg_dot-right_peru.png,stimulus/viswhere_stim/120-deg_dot-right_royalblue.png,stimulus/viswhere_stim/120-deg_dot-left_lightsseagreen.png,stimulus/viswhere_stim/90-deg_dot-left_seagreen.png,stimulus/viswhere_stim/match_blank.png,stimulus/viswhere_stim/match_box.png,stimulus/viswhere_stim/match_yes.png,stimulus/viswhere_stim/match_no.png,1.0,Match,Dot,Dot,1,5.125,0,5.125,0,5.125,0,5.125,0,0.75,0.75,1,0.5,1,2.125,1,0.5,1,2.125,0,0,0,0,0,0,0,0,0,,,,,0,38,38,38,,,,,,,,,364.28949454199756,369.4091475419991,364.7624053750187,365.74860620801337,366.39720254199347,367.3855975829938,364.28949454199756,364.28949454199756,364.3038962913289,364.28949454199756,364.28949454199756,364.28949454199756,364.3038962913289,364.28949454199756,369.4091475419991,370.2031005830213,372.2861608749954,376.142272416997,370.2031005830213,370.2031005830213,375.32810312500806,370.66339825000614,371.67604691701126,372.2861608749954,373.3042465830222,370.2031005830213,370.2031005830213,370.19252454199597,370.2031005830213,370.2031005830213,370.2031005830213,370.19252454199597,370.2031005830213,370.2031005830213,375.32810312500806,370.2031005830213,375.32810312500806,375.3971162920061,376.17838891700376,370.2031005830213,1,1,0.7128107500029728,reldom2_s027,001,2025-02-26_15h44.23.850,Vis-B-Scan_AC,2022.2.5,None,
30,Second_Order,5.0,viswhere,stimulus/viswhere_stim/60-deg_dot-right_seagreen.png,stimulus/viswhere_stim/60-deg_dot-left_slateblue.png,stimulus/viswhere_stim/120-deg_dot-left_seagreen.png,stimulus/viswhere_stim/30-deg_dot-left_cyan.png,stimulus/viswhere_stim/match_blank.png,stimulus/viswhere_stim/match_box.png,stimulus/viswhere_stim/match_yes.png,stimulus/viswhere_stim/match_no.png,2.0,Match,Line,Dot,2,5.125,0,5.125,0,5.125,0,5.125,0,0.625,0.625,1,0.5,1,2.125,1,0.5,1,2.125,0,0,0,0,0,0,0,0,0,,,,,0,39,39,39,,,,,,,,,376.17838891700376,381.3027272920008,376.65788549999706,377.6560081670177,378.29075941699557,379.27962208300596,376.17838891700376,376.17838891700376,376.192272416997,376.17838891700376,376.17838891700376,376.17838891700376,376.192272416997,376.17838891700376,381.3027272920008,381.9723210830125,384.0475589999987,388.0862825420045,381.9723210830125,381.9723210830125,387.1007114170061,382.43175562500255,383.4413157920062,384.0475589999987,385.06411270800163,381.9723210830125,381.9723210830125,381.94921800035127,381.9723210830125,381.9723210830125,381.9723210830125,381.94921800035127,381.9723210830125,381.9723210830125,387.1007114170061,381.9723210830125,387.1007114170061,387.17464612500044,387.80542600000626,381.9723210830125,2,1,0.6381398339872248,reldom2_s027,001,2025-02-26_15h44.23.850,Vis-B-Scan_AC,2022.2.5,None,
0,0.0,None,fixation,stimulus/viswhere_stim/blank_white.png,stimulus/viswhere_stim/blank_white.png,stimulus/viswhat_stim/blank_white.png,stimulus/viswhat_stim/blank_white.png,stimulus/viswhere_stim/blank_white.png,stimulus/viswhere_stim/blank_white.png,stimulus/viswhere_stim/blank_white.png,stimulus/viswhere_stim/blank_white.png,0.0,0.0,0.0,0.0,0,0.0,0,0.0,0,0.0,0,0.0,0,0.0,0.0,0,0.0,0,0.0,0,0.0,0,0.0,0,0,0,0,0,0,0,0,9,,,,,0,40,40,40,,,,,,,,,388.0862825420045,388.0862825420045,388.0862825420045,388.0862825420045,388.0862825420045,388.0862825420045,388.0862825420045,388.0862825420045,387.98941683334607,388.0862825420045,388.0862825420045,388.0862825420045,387.98941683334607,388.0862825420045,388.0862825420045,388.0862825420045,388.0862825420045,388.0862825420045,388.0862825420045,388.0862825420045,388.0862825420045,388.0862825420045,388.0862825420045,388.0862825420045,388.0862825420045,388.0862825420045,388.0862825420045,388.0394168333461,388.0862825420045,388.0862825420045,388.0862825420045,388.0394168333461,388.0862825420045,388.0862825420045,388.0862825420045,388.0862825420045,388.0862825420045,393.2780551670003,393.2780551670003,397.2983468750026,None,0,,reldom2_s027,001,2025-02-26_15h44.23.850,Vis-B-Scan_AC,2022.2.5,None,
31,First_Order,6.0,viswhere,stimulus/viswhere_stim/blank_white.png,stimulus/viswhere_stim/blank_white.png,stimulus/viswhere_stim/120-deg_dot-left_royalblue.png,stimulus/viswhere_stim/30-deg_dot-left_goldenrod.png,stimulus/viswhere_stim/blank_white.png,stimulus/viswhere_stim/dot_box.png,stimulus/viswhere_stim/dot_yes.png,stimulus/viswhere_stim/dot_no.png,None,Dot,None,Dot,1,0.0,0,5.125,0,5.125,0,5.125,0,0.0,0.625,0,0.0,0,0.0,1,0.5,1,2.125,0,0,0,0,0,0,0,0,0,,,,,0,41,41,41,,,,,,,,,397.2983468750026,397.2983468750026,397.2983468750026,397.2983468750026,397.2983468750026,397.2983468750026,397.2983468750026,397.2983468750026,397.28147833367495,397.2983468750026,397.2983468750026,397.2983468750026,397.28147833367495,397.2983468750026,397.2983468750026,397.2983468750026,399.4047969999956,403.369160458009,397.2983468750026,397.2983468750026,402.4296248750179,397.77190650001285,398.7782845000038,399.4047969999956,400.415550375008,397.2983468750026,397.2983468750026,397.28147833367495,397.2983468750026,397.2983468750026,397.2983468750026,397.28147833367495,397.2983468750026,397.2983468750026,402.4296248750179,397.2983468750026,402.4296248750179,402.52999620800256,403.1642871249933,397.2983468750026,1,1,0.7842431669705547,reldom2_s027,001,2025-02-26_15h44.23.850,Vis-B-Scan_AC,2022.2.5,None,
32,First_Order,6.0,viswhere,stimulus/viswhere_stim/blank_white.png,stimulus/viswhere_stim/blank_white.png,stimulus/viswhere_stim/150-deg_dot-left_salmon.png,stimulus/viswhere_stim/150-deg_dot-right_salmon.png,stimulus/viswhere_stim/blank_white.png,stimulus/viswhere_stim/dot_box.png,stimulus/viswhere_stim/dot_yes.png,stimulus/viswhere_stim/dot_no.png,None,Dot,None,Line,2,0.0,0,5.125,0,5.125,0,5.125,0,0.0,0.625,0,0.0,0,0.0,1,0.5,1,2.125,0,0,0,0,0,0,0,0,0,,,,,0,42,42,42,,,,,,,,,403.369160458009,403.369160458009,403.369160458009,403.369160458009,403.369160458009,403.369160458009,403.369160458009,403.369160458009,403.34790662535426,403.369160458009,403.369160458009,403.369160458009,403.34790662535426,403.369160458009,403.369160458009,403.369160458009,405.478399500018,409.4357006250066,403.369160458009,403.369160458009,408.4993918330001,403.84819620801136,404.8645006669976,405.478399500018,406.4837343330146,403.369160458009,403.369160458009,403.3645732920209,403.369160458009,403.369160458009,403.369160458009,403.3645732920209,403.369160458009,403.369160458009,408.4993918330001,403.369160458009,408.4993918330001,408.58800654200604,409.2191990830179,403.369160458009,2,1,0.7144035419914871,reldom2_s027,001,2025-02-26_15h44.23.850,Vis-B-Scan_AC,2022.2.5,None,
33,First_Order,6.0,viswhere,stimulus/viswhere_stim/blank_white.png,stimulus/viswhere_stim/blank_white.png,stimulus/viswhere_stim/150-deg_dot-left_cyan.png,stimulus/viswhere_stim/150-deg_dot-right_seagreen.png,stimulus/viswhere_stim/blank_white.png,stimulus/viswhere_stim/line_box.png,stimulus/viswhere_stim/line_yes.png,stimulus/viswhere_stim/line_no.png,None,Line,None,Line,1,0.0,0,5.125,0,5.125,0,5.125,0,0.0,0.625,0,0.0,0,0.0,1,0.5,1,2.125,0,0,0,0,0,0,0,0,0,,,,,0,43,43,43,,,,,,,,,409.4357006250066,409.4357006250066,409.4357006250066,409.4357006250066,409.4357006250066,409.4357006250066,409.4357006250066,409.4357006250066,409.41430879133014,409.4357006250066,409.4357006250066,409.4357006250066,409.41430879133014,409.4357006250066,409.4357006250066,409.4357006250066,411.53554145799717,415.4969498749997,409.4357006250066,409.4357006250066,414.5656409999938,409.9170020830061,410.9205445419939,411.53554145799717,412.5427522920072,409.4357006250066,409.4357006250066,409.4309754579968,409.4357006250066,409.4357006250066,409.4357006250066,409.4309754579968,409.4357006250066,409.4357006250066,414.5656409999938,409.4357006250066,414.5656409999938,414.6630120000045,415.2948875000002,409.4357006250066,1,1,0.8857964999915566,reldom2_s027,001,2025-02-26_15h44.23.850,Vis-B-Scan_AC,2022.2.5,None,
34,First_Order,6.0,viswhere,stimulus/viswhere_stim/blank_white.png,stimulus/viswhere_stim/blank_white.png,stimulus/viswhere_stim/150-deg_dot-right_cyan.png,stimulus/viswhere_stim/120-deg_dot-right_cyan.png,stimulus/viswhere_stim/blank_white.png,stimulus/viswhere_stim/line_box.png,stimulus/viswhere_stim/line_yes.png,stimulus/viswhere_stim/line_no.png,None,Line,None,Dot,2,0.0,0,5.125,0,5.125,0,5.125,0,0.0,0.625,0,0.0,0,0.0,1,0.5,1,2.125,0,0,0,0,0,0,0,0,0,,,,,0,44,44,44,,,,,,,,,415.4969498749997,415.4969498749997,415.4969498749997,415.4969498749997,415.4969498749997,415.4969498749997,415.4969498749997,415.4969498749997,415.4757847083286,415.4969498749997,415.4969498749997,415.4969498749997,415.4757847083286,415.4969498749997,415.4969498749997,415.4969498749997,417.6041645829973,421.6504019580025,415.4969498749997,415.4969498749997,420.6216819170222,415.97585958300624,416.9917258330097,417.6041645829973,418.6063209169952,415.4969498749997,415.4969498749997,415.49245137499526,415.4969498749997,415.4969498749997,415.4969498749997,415.49245137499526,415.4969498749997,415.4969498749997,420.6216819170222,415.4969498749997,420.6216819170222,420.7186068750161,421.35376075000386,415.4969498749997,2,1,0.7229656249983236,reldom2_s027,001,2025-02-26_15h44.23.850,Vis-B-Scan_AC,2022.2.5,None,
0,0.0,None,fixation,stimulus/viswhere_stim/blank_white.png,stimulus/viswhere_stim/blank_white.png,stimulus/viswhat_stim/blank_white.png,stimulus/viswhat_stim/blank_white.png,stimulus/viswhere_stim/blank_white.png,stimulus/viswhere_stim/blank_white.png,stimulus/viswhere_stim/blank_white.png,stimulus/viswhere_stim/blank_white.png,0.0,0.0,0.0,0.0,0,0.0,0,0.0,0,0.0,0,0.0,0,0.0,0.0,0,0.0,0,0.0,0,0.0,0,0.0,0,0,0,0,0,0,0,0,8,,,,,0,45,45,45,,,,,,,,,421.6504019580025,421.6504019580025,421.6504019580025,421.6504019580025,421.6504019580025,421.6504019580025,421.6504019580025,421.6504019580025,421.5415883333383,421.6504019580025,421.6504019580025,421.6504019580025,421.5415883333383,421.6504019580025,421.6504019580025,421.6504019580025,421.6504019580025,421.6504019580025,421.6504019580025,421.6504019580025,421.6504019580025,421.6504019580025,421.6504019580025,421.6504019580025,421.6504019580025,421.6504019580025,421.6504019580025,421.608255000005,421.6504019580025,421.6504019580025,421.6504019580025,421.608255000005,421.6504019580025,421.6504019580025,421.6504019580025,421.6504019580025,421.6504019580025,426.8463031249994,426.8463031249994,429.79364633301157,None,0,,reldom2_s027,001,2025-02-26_15h44.23.850,Vis-B-Scan_AC,2022.2.5,None,
35,Second_Order,6.0,viswhere,stimulus/viswhere_stim/60-deg_dot-right_cyan.png,stimulus/viswhere_stim/60-deg_dot-left_goldenrod.png,stimulus/viswhere_stim/150-deg_dot-left_salmon.png,stimulus/viswhere_stim/150-deg_dot-right_goldenrod.png,stimulus/viswhere_stim/match_blank.png,stimulus/viswhere_stim/match_box.png,stimulus/viswhere_stim/match_yes.png,stimulus/viswhere_stim/match_no.png,1.0,Match,Line,Line,1,5.125,0,5.125,0,5.125,0,5.125,0,0.75,0.75,1,0.5,1,2.125,1,0.5,1,2.125,0,0,0,0,0,0,0,0,0,,,,,0,46,46,46,,,,,,,,,429.79364633301157,434.90979429200524,430.27740554200136,431.26678962502046,431.90284541700385,432.9007710830192,429.79364633301157,429.79364633301157,429.80754045833794,429.79364633301157,429.79364633301157,429.79364633301157,429.80754045833794,429.79364633301157,434.90979429200524,435.70358775000204,437.77515366699663,441.669892875012,435.70358775000204,435.70358775000204,440.8371631670161,436.1513504580071,437.15734058301314,437.77515366699663,438.7886059580196,435.70358775000204,435.70358775000204,435.6773242503482,435.70358775000204,435.70358775000204,435.70358775000204,435.6773242503482,435.70358775000204,435.70358775000204,440.8371631670161,435.70358775000204,440.8371631670161,440.89418945802026,441.669892875012,435.70358775000204,1,1,0.7328655410092324,reldom2_s027,001,2025-02-26_15h44.23.850,Vis-B-Scan_AC,2022.2.5,None,
36,Second_Order,6.0,viswhere,stimulus/viswhere_stim/120-deg_dot-right_slateblue.png,stimulus/viswhere_stim/120-deg_dot-left_royalblue.png,stimulus/viswhere_stim/150-deg_dot-right_royalblue.png,stimulus/viswhere_stim/150-deg_dot-left_salmon.png,stimulus/viswhere_stim/match_blank.png,stimulus/viswhere_stim/match_box.png,stimulus/viswhere_stim/match_yes.png,stimulus/viswhere_stim/match_no.png,1.0,Match,Line,Line,1,5.125,0,5.125,0,5.125,0,5.125,0,0.625,0.625,1,0.5,1,2.125,1,0.5,1,2.125,0,0,0,0,0,0,0,0,0,,,,,0,47,47,47,,,,,,,,,441.669892875012,446.78652250001323,442.15521870800876,443.1443527500087,443.7804427499941,444.77774487499846,441.669892875012,441.669892875012,441.68327333302005,441.669892875012,441.669892875012,441.669892875012,441.68327333302005,441.669892875012,446.78652250001323,447.45574433301226,449.538124957995,453.5700455830083,447.45574433301226,447.45574433301226,452.590291667002,447.91958587500267,448.922744667012,449.538124957995,450.5467672079976,447.45574433301226,447.45574433301226,447.4339997083375,447.45574433301226,447.45574433301226,447.45574433301226,447.4339997083375,447.45574433301226,447.45574433301226,452.590291667002,447.45574433301226,452.590291667002,452.65924758301117,453.29035362499417,447.45574433301226,1,1,0.8317667090159375,reldom2_s027,001,2025-02-26_15h44.23.850,Vis-B-Scan_AC,2022.2.5,None,
0,0.0,None,fixation,stimulus/viswhere_stim/blank_white.png,stimulus/viswhere_stim/blank_white.png,stimulus/viswhat_stim/blank_white.png,stimulus/viswhat_stim/blank_white.png,stimulus/viswhere_stim/blank_white.png,stimulus/viswhere_stim/blank_white.png,stimulus/viswhere_stim/blank_white.png,stimulus/viswhere_stim/blank_white.png,0.0,0.0,0.0,0.0,0,0.0,0,0.0,0,0.0,0,0.0,0,0.0,0.0,0,0.0,0,0.0,0,0.0,0,0.0,0,0,0,0,0,0,0,0,10,,,,,0,48,48,48,,,,,,,,,453.5700455830083,453.5700455830083,453.5700455830083,453.5700455830083,453.5700455830083,453.5700455830083,453.5700455830083,453.5700455830083,453.47107883335167,453.5700455830083,453.5700455830083,453.5700455830083,453.47107883335167,453.5700455830083,453.5700455830083,453.5700455830083,453.5700455830083,453.5700455830083,453.5700455830083,453.5700455830083,453.5700455830083,453.5700455830083,453.5700455830083,453.5700455830083,453.5700455830083,453.5700455830083,453.5700455830083,453.5210788333517,453.5700455830083,453.5700455830083,453.5700455830083,453.5210788333517,453.5700455830083,453.5700455830083,453.5700455830083,453.5700455830083,453.5700455830083,458.79177150002215,458.79177150002215,463.80781941700843,None,0,,reldom2_s027,001,2025-02-26_15h44.23.850,Vis-B-Scan_AC,2022.2.5,None,
37,First_Order,7.0,viswhat,stimulus/viswhat_stim/blank_white.png,stimulus/viswhat_stim/blank_white.png,stimulus/viswhat_stim/water_vehicle-sailboat.png,stimulus/viswhat_stim/land_vehicle-bus.png,stimulus/viswhat_stim/blank_white.png,stimulus/viswhat_stim/location_box.png,stimulus/viswhat_stim/location_yes.png,stimulus/viswhat_stim/location_no.png,None,Location,None,Type,2,0.0,0,5.125,0,5.125,0,5.125,0,0.0,0.625,0,0.0,0,0.0,1,0.5,1,2.125,0,0,0,0,0,0,0,0,0,,,,,0,49,49,49,,,,,,,,,463.80781941700843,463.80781941700843,463.80781941700843,463.80781941700843,463.80781941700843,463.80781941700843,463.80781941700843,463.80781941700843,463.71975949966384,463.80781941700843,463.80781941700843,463.80781941700843,463.71975949966384,463.80781941700843,463.80781941700843,463.80781941700843,465.8773768749961,,463.80781941700843,463.80781941700843,468.9994578330079,464.2877295000071,465.3498819170054,465.8773768749961,466.9382736670086,463.80781941700843,463.80781941700843,463.76975949966385,463.80781941700843,463.80781941700843,463.80781941700843,463.76975949966385,463.80781941700843,463.80781941700843,468.9994578330079,463.80781941700843,468.9994578330079,468.9994578330079,469.6613106250006,463.80781941700843,2,1,1.0793447500036564,reldom2_s027,001,2025-02-26_15h44.23.850,Vis-B-Scan_AC,2022.2.5,None,
38,First_Order,7.0,viswhat,stimulus/viswhat_stim/blank_white.png,stimulus/viswhat_stim/blank_white.png,stimulus/viswhat_stim/land_vehicle-tank.png,stimulus/viswhat_stim/land_animal-elephant.png,stimulus/viswhat_stim/blank_white.png,stimulus/viswhat_stim/type_box.png,stimulus/viswhat_stim/type_yes.png,stimulus/viswhat_stim/type_no.png,None,Type,None,Location,2,0.0,0,5.125,0,5.125,0,5.125,0,0.0,0.625,0,0.0,0,0.0,1,0.5,1,2.125,0,0,0,0,0,0,0,0,0,,,,,0,50,50,50,,,,,,,,,469.9128857500036,469.9128857500036,469.9128857500036,469.9128857500036,469.9128857500036,469.9128857500036,469.9128857500036,469.9128857500036,469.8113106250006,469.9128857500036,469.9128857500036,469.9128857500036,469.8113106250006,469.9128857500036,469.9128857500036,469.9128857500036,471.9880790830066,,469.9128857500036,469.9128857500036,475.10063970802,470.374881042022,471.47151562501676,471.9880790830066,473.0305810419959,469.9128857500036,469.9128857500036,469.8613106250006,469.9128857500036,469.9128857500036,469.9128857500036,469.8613106250006,469.9128857500036,469.9128857500036,475.10063970802,469.9128857500036,475.10063970802,475.10063970802,475.7777014170133,469.9128857500036,2,1,0.7329340830037836,reldom2_s027,001,2025-02-26_15h44.23.850,Vis-B-Scan_AC,2022.2.5,None,
39,First_Order,7.0,viswhat,stimulus/viswhat_stim/blank_white.png,stimulus/viswhat_stim/blank_white.png,stimulus/viswhat_stim/land_animal-ostrich.png,stimulus/viswhat_stim/water_animal-whale.png,stimulus/viswhat_stim/blank_white.png,stimulus/viswhat_stim/location_box.png,stimulus/viswhat_stim/location_yes.png,stimulus/viswhat_stim/location_no.png,None,Location,None,Type,2,0.0,0,5.125,0,5.125,0,5.125,0,0.0,0.625,0,0.0,0,0.0,1,0.5,1,2.125,0,0,0,0,0,0,0,0,0,,,,,0,51,51,51,,,,,,,,,475.97911458299495,475.97911458299495,475.97911458299495,475.97911458299495,475.97911458299495,475.97911458299495,475.97911458299495,475.97911458299495,475.94436808367993,475.97911458299495,475.97911458299495,475.97911458299495,475.94436808367993,475.97911458299495,475.97911458299495,475.97911458299495,478.0654855830071,,475.97911458299495,475.97911458299495,481.1279667080089,476.44455225000274,477.46291687499615,478.0654855830071,479.08886437502224,475.97911458299495,475.97911458299495,475.96103475034664,475.97911458299495,475.97911458299495,475.97911458299495,475.96103475034664,475.97911458299495,475.97911458299495,481.1279667080089,475.97911458299495,481.1279667080089,481.19332074999693,481.8250385830179,475.97911458299495,2,1,0.9922657090064604,reldom2_s027,001,2025-02-26_15h44.23.850,Vis-B-Scan_AC,2022.2.5,None,
40,First_Order,7.0,viswhat,stimulus/viswhat_stim/blank_white.png,stimulus/viswhat_stim/blank_white.png,stimulus/viswhat_stim/land_vehicle-truck.png,stimulus/viswhat_stim/land_animal-fox.png,stimulus/viswhat_stim/blank_white.png,stimulus/viswhat_stim/location_box.png,stimulus/viswhat_stim/location_yes.png,stimulus/viswhat_stim/location_no.png,None,Location,None,Location,1,0.0,0,5.125,0,5.125,0,5.125,0,0.0,0.625,0,0.0,0,0.0,1,0.5,1,2.125,0,0,0,0,0,0,0,0,0,,,,,0,52,52,52,,,,,,,,,482.04303320799954,482.04303320799954,482.04303320799954,482.04303320799954,482.04303320799954,482.04303320799954,482.04303320799954,482.04303320799954,482.0119894170144,482.04303320799954,482.04303320799954,482.04303320799954,482.0119894170144,482.04303320799954,482.04303320799954,482.04303320799954,484.1435823329957,488.1761832500051,482.04303320799954,482.04303320799954,487.16823999999906,482.50897295802133,483.5375019170169,484.1435823329957,485.15733062502113,482.04303320799954,482.04303320799954,482.0286560836811,482.04303320799954,482.04303320799954,482.04303320799954,482.0286560836811,482.04303320799954,482.04303320799954,487.16823999999906,482.04303320799954,487.16823999999906,487.2574309580086,487.8986692080216,482.04303320799954,1,1,0.8513659159943927,reldom2_s027,001,2025-02-26_15h44.23.850,Vis-B-Scan_AC,2022.2.5,None,
0,0.0,None,fixation,stimulus/viswhere_stim/blank_white.png,stimulus/viswhere_stim/blank_white.png,stimulus/viswhat_stim/blank_white.png,stimulus/viswhat_stim/blank_white.png,stimulus/viswhere_stim/blank_white.png,stimulus/viswhere_stim/blank_white.png,stimulus/viswhere_stim/blank_white.png,stimulus/viswhere_stim/blank_white.png,0.0,0.0,0.0,0.0,0,0.0,0,0.0,0,0.0,0,0.0,0,0.0,0.0,0,0.0,0,0.0,0,0.0,0,0.0,0,0,0,0,0,0,0,0,8,,,,,0,53,53,53,,,,,,,,,488.1761832500051,488.1761832500051,488.1761832500051,488.1761832500051,488.1761832500051,488.1761832500051,488.1761832500051,488.1761832500051,488.07030416634126,488.1761832500051,488.1761832500051,488.1761832500051,488.07030416634126,488.1761832500051,488.1761832500051,488.1761832500051,488.1761832500051,488.1761832500051,488.1761832500051,488.1761832500051,488.1761832500051,488.1761832500051,488.1761832500051,488.1761832500051,488.1761832500051,488.1761832500051,488.1761832500051,488.1369708330079,488.1761832500051,488.1761832500051,488.1761832500051,488.1369708330079,488.1761832500051,488.1761832500051,488.1761832500051,488.1761832500051,488.1761832500051,493.3573591670138,493.3573591670138,496.3120809580141,None,0,,reldom2_s027,001,2025-02-26_15h44.23.850,Vis-B-Scan_AC,2022.2.5,None,
41,Second_Order,7.0,viswhat,stimulus/viswhat_stim/water_animal-whale (1).png,stimulus/viswhat_stim/water_vehicle-canoe(1).png,stimulus/viswhat_stim/land_animal-tiger.png,stimulus/viswhat_stim/land_vehicle-train.png,stimulus/viswhere_stim/match_blank.png,stimulus/viswhere_stim/match_box.png,stimulus/viswhere_stim/match_yes.png,stimulus/viswhere_stim/match_no.png,1.0,Match,Location,Location,1,5.125,0,5.125,0,5.125,0,5.125,0,0.75,0.75,1,0.5,1,2.125,1,0.5,1,2.125,0,0,0,0,0,0,0,0,0,,,,,0,54,54,54,,,,,,,,,496.3120809580141,501.43009270800394,496.78495470801136,497.78418725001393,498.4062267919944,499.4044536250003,496.3120809580141,496.3120809580141,496.3194724583319,496.3120809580141,496.3120809580141,496.3120809580141,496.3194724583319,496.3120809580141,501.43009270800394,502.2530054170056,504.325665500015,508.2452270000067,502.2530054170056,502.2530054170056,507.4113315420109,502.6874405830167,503.7258082500193,504.325665500015,505.3694072920189,502.2530054170056,502.2530054170056,502.2300133746622,502.2530054170056,502.2530054170056,502.2530054170056,502.2300133746622,502.2530054170056,502.2530054170056,507.4113315420109,502.2530054170056,507.4113315420109,507.4396393750212,,502.2530054170056,1,1,0.676727000012761,reldom2_s027,001,2025-02-26_15h44.23.850,Vis-B-Scan_AC,2022.2.5,None,
42,Second_Order,7.0,viswhat,stimulus/viswhat_stim/land_vehicle-buldozer.png,stimulus/viswhat_stim/water_vehicle-jetski.png,stimulus/viswhat_stim/water_animal-whale.png,stimulus/viswhat_stim/land_animal-fox.png,stimulus/viswhere_stim/match_blank.png,stimulus/viswhere_stim/match_box.png,stimulus/viswhere_stim/match_yes.png,stimulus/viswhere_stim/match_no.png,1.0,Match,Type,Type,1,5.125,0,5.125,0,5.125,0,5.125,0,0.625,0.625,1,0.5,1,2.125,1,0.5,1,2.125,0,0,0,0,0,0,0,0,0,,,,,0,55,55,55,,,,,,,,,508.2452270000067,513.3576266250166,508.71117391702137,509.69762679201085,510.33378933300264,511.33186304199626,508.2452270000067,508.2452270000067,508.24538350034464,508.2452270000067,508.2452270000067,508.2452270000067,508.24538350034464,508.2452270000067,513.3576266250166,514.047578208003,516.1070663330029,520.1529972080025,514.047578208003,514.047578208003,519.1759374999965,514.4911777079978,515.5105698330153,516.1070663330029,517.1403902080201,514.047578208003,514.047578208003,514.0216305829933,514.047578208003,514.047578208003,514.047578208003,514.0216305829933,514.047578208003,514.047578208003,519.1759374999965,514.047578208003,519.1759374999965,519.2376305000216,519.8747786250024,514.047578208003,1,1,0.6571638750028796,reldom2_s027,001,2025-02-26_15h44.23.850,Vis-B-Scan_AC,2022.2.5,None,
0,0.0,None,fixation,stimulus/viswhere_stim/blank_white.png,stimulus/viswhere_stim/blank_white.png,stimulus/viswhat_stim/blank_white.png,stimulus/viswhat_stim/blank_white.png,stimulus/viswhere_stim/blank_white.png,stimulus/viswhere_stim/blank_white.png,stimulus/viswhere_stim/blank_white.png,stimulus/viswhere_stim/blank_white.png,0.0,0.0,0.0,0.0,0,0.0,0,0.0,0,0.0,0,0.0,0,0.0,0.0,0,0.0,0,0.0,0,0.0,0,0.0,0,0,0,0,0,0,0,0,9,,,,,0,56,56,56,,,,,,,,,520.1529972080025,520.1529972080025,520.1529972080025,520.1529972080025,520.1529972080025,520.1529972080025,520.1529972080025,520.1529972080025,520.0560804580106,520.1529972080025,520.1529972080025,520.1529972080025,520.0560804580106,520.1529972080025,520.1529972080025,520.1529972080025,520.1529972080025,520.1529972080025,520.1529972080025,520.1529972080025,520.1529972080025,520.1529972080025,520.1529972080025,520.1529972080025,520.1529972080025,520.1529972080025,520.1529972080025,520.1060804580105,520.1529972080025,520.1529972080025,520.1529972080025,520.1060804580105,520.1529972080025,520.1529972080025,520.1529972080025,520.1529972080025,520.1529972080025,525.379048792005,525.379048792005,529.345628125011,None,0,,reldom2_s027,001,2025-02-26_15h44.23.850,Vis-B-Scan_AC,2022.2.5,None,
43,First_Order,8.0,viswhat,stimulus/viswhat_stim/blank_white.png,stimulus/viswhat_stim/blank_white.png,stimulus/viswhat_stim/land_animal-fox.png,stimulus/viswhat_stim/land_vehicle-motorcycle.png,stimulus/viswhat_stim/blank_white.png,stimulus/viswhat_stim/type_box.png,stimulus/viswhat_stim/type_yes.png,stimulus/viswhat_stim/type_no.png,None,Type,None,Location,2,0.0,0,5.125,0,5.125,0,5.125,0,0.0,0.625,0,0.0,0,0.0,1,0.5,1,2.125,0,0,0,0,0,0,0,0,0,,,,,0,57,57,57,,,,,,,,,529.345628125011,529.345628125011,529.345628125011,529.345628125011,529.345628125011,529.345628125011,529.345628125011,529.345628125011,529.3035754586841,529.345628125011,529.345628125011,529.345628125011,529.3035754586841,529.345628125011,529.345628125011,529.345628125011,531.4318252920057,535.4189098330098,529.345628125011,529.345628125011,534.489902375004,529.8259958330018,530.8589977500087,531.4318252920057,532.4644045830064,529.345628125011,529.345628125011,529.3202421253508,529.345628125011,529.345628125011,529.345628125011,529.3202421253508,529.345628125011,529.345628125011,534.489902375004,529.345628125011,534.489902375004,534.5638696670067,535.2080579170142,529.345628125011,2,1,0.7523002499947324,reldom2_s027,001,2025-02-26_15h44.23.850,Vis-B-Scan_AC,2022.2.5,None,
44,First_Order,8.0,viswhat,stimulus/viswhat_stim/blank_white.png,stimulus/viswhat_stim/blank_white.png,stimulus/viswhat_stim/land_animal-pig.png,stimulus/viswhat_stim/land_vehicle-firetruck.png,stimulus/viswhat_stim/blank_white.png,stimulus/viswhat_stim/location_box.png,stimulus/viswhat_stim/location_yes.png,stimulus/viswhat_stim/location_no.png,None,Location,None,Location,1,0.0,0,5.125,0,5.125,0,5.125,0,0.0,0.625,0,0.0,0,0.0,1,0.5,1,2.125,0,0,0,0,0,0,0,0,0,,,,,0,58,58,58,,,,,,,,,535.4189098330098,535.4189098330098,535.4189098330098,535.4189098330098,535.4189098330098,535.4189098330098,535.4189098330098,535.4189098330098,535.3821477919934,535.4189098330098,535.4189098330098,535.4189098330098,535.3821477919934,535.4189098330098,535.4189098330098,535.4189098330098,537.5228666250187,541.5380152080033,535.4189098330098,535.4189098330098,540.5470549580059,535.8876463750203,536.9171429999988,537.5228666250187,538.5339653750125,535.4189098330098,535.4189098330098,535.39881445866,535.4189098330098,535.4189098330098,535.4189098330098,535.39881445866,535.4189098330098,535.4189098330098,540.5470549580059,535.4189098330098,540.5470549580059,540.6374387080141,541.2767485420045,535.4189098330098,1,1,0.8659016659948975,reldom2_s027,001,2025-02-26_15h44.23.850,Vis-B-Scan_AC,2022.2.5,None,
45,First_Order,8.0,viswhat,stimulus/viswhat_stim/blank_white.png,stimulus/viswhat_stim/blank_white.png,stimulus/viswhat_stim/land_vehicle-trolley.png,stimulus/viswhat_stim/water_vehicle-sailboat.png,stimulus/viswhat_stim/blank_white.png,stimulus/viswhat_stim/type_box.png,stimulus/viswhat_stim/type_yes.png,stimulus/viswhat_stim/type_no.png,None,Type,None,Type,1,0.0,0,5.125,0,5.125,0,5.125,0,0.0,0.625,0,0.0,0,0.0,1,0.5,1,2.125,0,0,0,0,0,0,0,0,0,,,,,0,59,59,59,,,,,,,,,541.5380152080033,541.5380152080033,541.5380152080033,541.5380152080033,541.5380152080033,541.5380152080033,541.5380152080033,541.5380152080033,541.4476397083394,541.5380152080033,541.5380152080033,541.5380152080033,541.4476397083394,541.5380152080033,541.5380152080033,541.5380152080033,543.6241243749973,,541.5380152080033,541.5380152080033,546.7281365829986,542.024397125002,543.0908087920106,543.6241243749973,544.6952262500126,541.5380152080033,541.5380152080033,541.4976397083393,541.5380152080033,541.5380152080033,541.5380152080033,541.4976397083393,541.5380152080033,541.5380152080033,546.7281365829986,541.5380152080033,546.7281365829986,546.7281365829986,547.4137917920016,541.5380152080033,1,1,0.8395255409996025,reldom2_s027,001,2025-02-26_15h44.23.850,Vis-B-Scan_AC,2022.2.5,None,
46,First_Order,8.0,viswhat,stimulus/viswhat_stim/blank_white.png,stimulus/viswhat_stim/blank_white.png,stimulus/viswhat_stim/water_vehicle-canoe(1).png,stimulus/viswhat_stim/land_vehicle-truck.png,stimulus/viswhat_stim/blank_white.png,stimulus/viswhat_stim/type_box.png,stimulus/viswhat_stim/type_yes.png,stimulus/viswhat_stim/type_no.png,None,Type,None,Type,1,0.0,0,5.125,0,5.125,0,5.125,0,0.0,0.625,0,0.0,0,0.0,1,0.5,1,2.125,0,0,0,0,0,0,0,0,0,,,,,0,60,60,60,,,,,,,,,547.5825995829946,547.5825995829946,547.5825995829946,547.5825995829946,547.5825995829946,547.5825995829946,547.5825995829946,547.5825995829946,547.5471251253349,547.5825995829946,547.5825995829946,547.5825995829946,547.5471251253349,547.5825995829946,547.5825995829946,547.5825995829946,549.6977904580126,553.718049749994,547.5825995829946,547.5825995829946,552.7157227080024,548.0629784170014,549.0885073330137,549.6977904580126,550.7080113330157,547.5825995829946,547.5825995829946,547.5637917920016,547.5825995829946,547.5825995829946,547.5825995829946,547.5637917920016,547.5825995829946,547.5825995829946,552.7157227080024,547.5825995829946,552.7157227080024,552.7968277080217,553.4306735830032,547.5825995829946,1,1,0.5630574999959208,reldom2_s027,001,2025-02-26_15h44.23.850,Vis-B-Scan_AC,2022.2.5,None,
0,0.0,None,fixation,stimulus/viswhere_stim/blank_white.png,stimulus/viswhere_stim/blank_white.png,stimulus/viswhat_stim/blank_white.png,stimulus/viswhat_stim/blank_white.png,stimulus/viswhere_stim/blank_white.png,stimulus/viswhere_stim/blank_white.png,stimulus/viswhere_stim/blank_white.png,stimulus/viswhere_stim/blank_white.png,0.0,0.0,0.0,0.0,0,0.0,0,0.0,0,0.0,0,0.0,0,0.0,0.0,0,0.0,0,0.0,0,0.0,0,0.0,0,0,0,0,0,0,0,0,9,,,,,0,61,61,61,,,,,,,,,553.718049749994,553.718049749994,553.718049749994,553.718049749994,553.718049749994,553.718049749994,553.718049749994,553.718049749994,553.6138880833363,553.718049749994,553.718049749994,553.718049749994,553.6138880833363,553.718049749994,553.718049749994,553.718049749994,553.718049749994,553.718049749994,553.718049749994,553.718049749994,553.718049749994,553.718049749994,553.718049749994,553.718049749994,553.718049749994,553.718049749994,553.718049749994,553.6638880833362,553.718049749994,553.718049749994,553.718049749994,553.6638880833362,553.718049749994,553.718049749994,553.718049749994,553.718049749994,553.718049749994,558.9499802500068,558.9499802500068,562.8678295419959,None,0,,reldom2_s027,001,2025-02-26_15h44.23.850,Vis-B-Scan_AC,2022.2.5,None,
47,Second_Order,8.0,viswhat,stimulus/viswhat_stim/water_animal-seaturtle.png,stimulus/viswhat_stim/water_vehicle-kayak.png,stimulus/viswhat_stim/water_vehicle-motorboatraft.png,stimulus/viswhat_stim/land_vehicle-tank.png,stimulus/viswhere_stim/match_blank.png,stimulus/viswhere_stim/match_box.png,stimulus/viswhere_stim/match_yes.png,stimulus/viswhere_stim/match_no.png,2.0,Match,Location,Type,2,5.125,0,5.125,0,5.125,0,5.125,0,0.75,0.75,1,0.5,1,2.125,1,0.5,1,2.125,0,0,0,0,0,0,0,0,0,,,,,0,62,62,62,,,,,,,,,562.8678295419959,567.9840342920215,563.3391250830027,564.3375274169957,564.9599840420124,565.9583335829957,562.8678295419959,562.8678295419959,562.8703285413523,562.8678295419959,562.8678295419959,562.8678295419959,562.8703285413523,562.8678295419959,567.9840342920215,568.7824574580009,570.8507106250036,574.7579743330134,568.7824574580009,568.7824574580009,573.9130290830217,569.2363004170184,570.2392959170102,570.8507106250036,571.8619599580124,568.7824574580009,568.7824574580009,568.7681896250112,568.7824574580009,568.7824574580009,568.7824574580009,568.7681896250112,568.7824574580009,568.7824574580009,573.9130290830217,568.7824574580009,573.9130290830217,573.9777695420198,574.7579743330134,568.7824574580009,2,1,0.7790727090032306,reldom2_s027,001,2025-02-26_15h44.23.850,Vis-B-Scan_AC,2022.2.5,None,
48,Second_Order,8.0,viswhat,stimulus/viswhat_stim/land_vehicle-rv.png,stimulus/viswhat_stim/water_vehicle-cargoboat.png,stimulus/viswhat_stim/water_animal-squid.png,stimulus/viswhat_stim/land_animal-dog.png,stimulus/viswhere_stim/match_blank.png,stimulus/viswhere_stim/match_box.png,stimulus/viswhere_stim/match_yes.png,stimulus/viswhere_stim/match_no.png,1.0,Match,Type,Type,1,5.125,0,5.125,0,5.125,0,5.125,0,0.625,0.625,1,0.5,1,2.125,1,0.5,1,2.125,0,0,0,0,0,0,0,0,0,,,,,0,63,63,63,,,,,,,,,574.7579743330134,579.8783829169988,575.2329693750071,576.231452958018,576.8546950830205,577.851684082998,574.7579743330134,574.7579743330134,574.7628254169947,574.7579743330134,574.7579743330134,574.7579743330134,574.7628254169947,574.7579743330134,579.8783829169988,580.5784799170215,582.6467554580013,,580.5784799170215,580.5784799170215,585.7141451250063,581.0125744999968,582.0316586669942,582.6467554580013,583.6735966670094,580.5784799170215,580.5784799170215,580.5417868330085,580.5784799170215,580.5784799170215,580.5784799170215,580.5417868330085,580.5784799170215,580.5784799170215,585.7141451250063,580.5784799170215,585.7141451250063,585.7650693750184,586.3995085830102,580.5784799170215,1,1,0.5231974580092356,reldom2_s027,001,2025-02-26_15h44.23.850,Vis-B-Scan_AC,2022.2.5,None,
0,0.0,None,fixation,stimulus/viswhere_stim/blank_white.png,stimulus/viswhere_stim/blank_white.png,stimulus/viswhat_stim/blank_white.png,stimulus/viswhat_stim/blank_white.png,stimulus/viswhere_stim/blank_white.png,stimulus/viswhere_stim/blank_white.png,stimulus/viswhere_stim/blank_white.png,stimulus/viswhere_stim/blank_white.png,0.0,0.0,0.0,0.0,0,0.0,0,0.0,0,0.0,0,0.0,0,0.0,0.0,0,0.0,0,0.0,0,0.0,0,0.0,0,0,0,0,0,0,0,0,16,,,,,0,64,64,64,,,,,,,,,586.682020667009,586.682020667009,586.682020667009,586.682020667009,586.682020667009,586.682020667009,586.682020667009,586.682020667009,586.5917781246807,586.682020667009,586.682020667009,586.682020667009,586.5917781246807,586.682020667009,586.682020667009,586.682020667009,586.682020667009,586.682020667009,586.682020667009,586.682020667009,586.682020667009,586.682020667009,586.682020667009,586.682020667009,586.682020667009,586.682020667009,586.682020667009,586.6417781246806,586.682020667009,586.682020667009,586.682020667009,586.6417781246806,586.682020667009,586.682020667009,586.682020667009,586.682020667009,586.682020667009,591.8703054999933,591.8703054999933,602.8424430000014,None,0,,reldom2_s027,001,2025-02-26_15h44.23.850,Vis-B-Scan_AC,2022.2.5,None,
