Trial,Order,Block,Type,Stimuli_File1,Stimuli_File2,Stimuli_File3,Stimuli_File4,Cue_File1,Cue_File2,Response_File_Yes,Response_File_No,Match,Cue_Dimension,Pair1_Dimension,Pair2_Dimension,Key,Cue1_Duration,Cue1_Onset,Cue2_Duration,Cue2_Onset,ResponseYes_Duration,ResponseYes_Onset,ResponseNo_Duration,ResponseNo_Onset,ITI_Within,ITI_Between,Image1_Duration,Image1_Onset,Image2_Duration,Image2_Onset,Image3_Duration,Image3_Onset,Image4_Duration,Image4_Onset,Sound1_Duration,Sound1_Onset,Sound2_Duration,Sound2_Onset,Sound3_Duration,Sound3_Onset,Sound4_Duration,Sound4_Onset,Fixation_Duration,trials_2.thisRepN,trials_2.thisTrialN,trials_2.thisN,trials_2.thisIndex,trials.thisRepN,trials.thisTrialN,trials.thisN,trials.thisIndex,text_start.started,key_resp_start.started,key_resp_start.keys,key_resp_start.rt,text2.started,key_resp_2.started,key_resp_2.keys,key_resp_2.rt,cue_file1.started,cue_file1.stopped,image_1.started,image_1.stopped,image_2.started,image_2.stopped,sound_icon1.started,sound_icon1.stopped,sound_1.started,sound_1.stopped,sound_icon2.started,sound_icon2.stopped,sound_2.started,sound_2.stopped,image_blank_1.started,image_blank_1.stopped,key_press.started,key_press.stopped,fixation_text.started,cue_file2.started,cue_file2.stopped,image_3.started,image_3.stopped,image_4.started,image_4.stopped,sound_icon3.started,sound_icon3.stopped,sound_3.started,sound_3.stopped,sound_icon4.started,sound_icon4.stopped,sound_4.started,sound_4.stopped,response_yes.started,response_yes.stopped,response_no.started,response_no.stopped,iti_blank.started,iti_blank.stopped,fixation_text.stopped,key_press.keys,key_press.corr,key_press.rt,participant,session,date,expName,psychopyVersion,frameRate,
,,,,,,,,,,,,,,,,,,,,,,,,,,,,,,,,,,,,,,,,,,,,,,,,,,,,6.663393124996219,6.663393124996219,2,3.0334226670092903,,,,,,,,,,,,,,,,,,,,,,,,,,,,,,,,,,,,,,,,,,,,,,,,reldom2_s027,001,2025-02-26_16h29.42.702,Aud-B-Scan_AC,2022.2.5,None,
,,,,,,,,,,,,,,,,,,,,,,,,,,,,,,,,,,,,,,,,,,,,0,0,0,0,,,,,,,,,9.731550209020497,9.731550209020497,5,17.80959508297383,,,,,,,,,,,,,,,,,,,,,,,,,,,,,,,,,,,,,,,,,,,,reldom2_s027,001,2025-02-26_16h29.42.702,Aud-B-Scan_AC,2022.2.5,None,
,,,,,,,,,,,,,,,,,,,,,,,,,,,,,,,,,,,,,,,,,,,,1,0,1,0,,,,,,,,,27.546339417021954,27.546339417021954,5,1.995516333001433,,,,,,,,,,,,,,,,,,,,,,,,,,,,,,,,,,,,,,,,,,,,reldom2_s027,001,2025-02-26_16h29.42.702,Aud-B-Scan_AC,2022.2.5,None,
,,,,,,,,,,,,,,,,,,,,,,,,,,,,,,,,,,,,,,,,,,,,2,0,2,0,,,,,,,,,29.564807750022737,29.564807750022737,5,1.976061749010114,,,,,,,,,,,,,,,,,,,,,,,,,,,,,,,,,,,,,,,,,,,,reldom2_s027,001,2025-02-26_16h29.42.702,Aud-B-Scan_AC,2022.2.5,None,
,,,,,,,,,,,,,,,,,,,,,,,,,,,,,,,,,,,,,,,,,,,,3,0,3,0,,,,,,,,,31.559543209004914,31.559543209004914,5,1.9828408750181552,,,,,,,,,,,,,,,,,,,,,,,,,,,,,,,,,,,,,,,,,,,,reldom2_s027,001,2025-02-26_16h29.42.702,Aud-B-Scan_AC,2022.2.5,None,
0,0.0,None,fixation,stimulus/audwhat_stim/blank_white.png,stimulus/audwhat_stim/blank_white.png,stimulus/audwhere_stim/blank_white.png,stimulus/audwhere_stim/blank_white.png,stimulus/audwhat_stim/blank_white.png,stimulus/audwhat_stim/blank_white.png,stimulus/audwhat_stim/blank_white.png,stimulus/audwhat_stim/blank_white.png,0.0,0.0,0.0,0.0,0,0.0,0,0.0,0,0.0,0,0.0,0,0.0,0.0,0,0,0,0,0,0,0,0,0,0.0,0,0.0,0,0.0,0,0.0,16,,,,,0,0,0,0,,,,,,,,,33.75101837501279,33.75101837501279,33.75101837501279,33.75101837501279,33.75101837501279,33.75101837501279,33.75101837501279,33.75101837501279,33.66063275068688,33.75101837501279,33.75101837501279,33.75101837501279,33.66063275068688,33.75101837501279,33.75101837501279,33.75101837501279,33.75101837501279,33.75101837501279,33.75101837501279,33.75101837501279,33.75101837501279,33.75101837501279,33.75101837501279,33.75101837501279,33.75101837501279,33.75101837501279,33.75101837501279,33.71063275068688,33.75101837501279,33.75101837501279,33.75101837501279,33.71063275068688,33.75101837501279,33.75101837501279,33.75101837501279,33.75101837501279,33.75101837501279,38.928895084012765,38.928895084012765,49.97818829200696,None,0,,reldom2_s027,001,2025-02-26_16h29.42.702,Aud-B-Scan_AC,2022.2.5,None,
1,First_Order,1.0,audwhat,stimulus/audwhat_stim/dummy.wav,stimulus/audwhat_stim/dummy.wav,stimulus/audwhat_stim/string viola_low-pitch_F_loud.wav,stimulus/audwhat_stim/string cello_high-pitch_Dtri_loud.wav,stimulus/audwhat_stim/blank_white.png,stimulus/audwhat_stim/pitch_box.png,stimulus/audwhat_stim/pitch_yes.png,stimulus/audwhat_stim/pitch_no.png,None,Pitch,None,Category,2,0.0,0,5.125,0,5.125,0,5.125,0,0.0,0.625,0,0,0,0,0,0,0,0,0,0.0,0,0.0,1,0.5,1,2.125,0,,,,,0,1,1,1,,,,,,,,,49.97818829200696,49.97818829200696,49.97818829200696,49.97818829200696,49.97818829200696,49.97818829200696,49.97818829200696,49.97818829200696,49.9060003749968,49.97818829200696,49.97818829200696,49.97818829200696,49.9060003749968,49.97818829200696,49.97818829200696,49.97818829200696,52.06445683402126,,49.97818829200696,49.97818829200696,55.153388209000695,49.97818829200696,49.97818829200696,49.97818829200696,49.97818829200696,50.43190979200881,51.474760584009346,50.403011666672924,,52.06445683402126,53.11332812500768,52.035326166664404,,49.97818829200696,55.153388209000695,49.97818829200696,55.153388209000695,55.19413837502361,55.87700891701388,49.97818829200696,2,1,0.9314903740014415,reldom2_s027,001,2025-02-26_16h29.42.702,Aud-B-Scan_AC,2022.2.5,None,
2,First_Order,1.0,audwhat,stimulus/audwhat_stim/dummy.wav,stimulus/audwhat_stim/dummy.wav,stimulus/audwhat_stim/percussion xylophone_high-pitch_Ftri_loud.wav,stimulus/audwhat_stim/string viola_high-pitch_Ftri_loud.wav,stimulus/audwhat_stim/blank_white.png,stimulus/audwhat_stim/pitch_box.png,stimulus/audwhat_stim/pitch_yes.png,stimulus/audwhat_stim/pitch_no.png,None,Pitch,None,Pitch,1,0.0,0,5.125,0,5.125,0,5.125,0,0.0,0.625,0,0,0,0,0,0,0,0,0,0.0,0,0.0,1,0.5,1,2.125,0,,,,,0,2,2,2,,,,,,,,,56.09084920902387,56.09084920902387,56.09084920902387,56.09084920902387,56.09084920902387,56.09084920902387,56.09084920902387,56.09084920902387,56.010342250347215,56.09084920902387,56.09084920902387,56.09084920902387,56.010342250347215,56.09084920902387,56.09084920902387,56.09084920902387,58.193740500020795,,56.09084920902387,56.09084920902387,61.25896633401862,56.09084920902387,56.09084920902387,56.09084920902387,56.09084920902387,56.547611084009986,57.59976441701292,56.51838708366655,57.553748459002236,58.193740500020795,59.24791020900011,58.1644430006893,,56.09084920902387,61.25896633401862,56.09084920902387,61.25896633401862,61.299470375000965,61.98647916701157,56.09084920902387,1,1,0.7509648329869378,reldom2_s027,001,2025-02-26_16h29.42.702,Aud-B-Scan_AC,2022.2.5,None,
3,First_Order,1.0,audwhat,stimulus/audwhat_stim/dummy.wav,stimulus/audwhat_stim/dummy.wav,stimulus/audwhat_stim/string viola_low-pitch_Dtri_loud.wav,stimulus/audwhat_stim/percussion mallet_low-pitch_Dtri_loud.wav,stimulus/audwhat_stim/blank_white.png,stimulus/audwhat_stim/category_box.png,stimulus/audwhat_stim/category_yes.png,stimulus/audwhat_stim/category_no.png,None,Category,None,Pitch,2,0.0,0,5.125,0,5.125,0,5.125,0,0.0,0.625,0,0,0,0,0,0,0,0,0,0.0,0,0.0,1,0.5,1,2.125,0,,,,,0,3,3,3,,,,,,,,,62.19727125001373,62.19727125001373,62.19727125001373,62.19727125001373,62.19727125001373,62.19727125001373,62.19727125001373,62.19727125001373,62.1198125003449,62.19727125001373,62.19727125001373,62.19727125001373,62.1198125003449,62.19727125001373,62.19727125001373,62.19727125001373,64.3114636670216,,62.19727125001373,62.19727125001373,67.35620762500912,62.19727125001373,62.19727125001373,62.19727125001373,62.19727125001373,62.65668879201985,63.71487108399742,62.62686241668804,,64.3114636670216,65.37590850002016,64.28178550067629,,62.19727125001373,67.35620762500912,62.19727125001373,67.35620762500912,67.39728158400976,68.04758808400948,62.19727125001373,2,1,0.5521670410234947,reldom2_s027,001,2025-02-26_16h29.42.702,Aud-B-Scan_AC,2022.2.5,None,
4,First_Order,1.0,audwhat,stimulus/audwhat_stim/dummy.wav,stimulus/audwhat_stim/dummy.wav,stimulus/audwhat_stim/percussion mallet_low-pitch_D_loud.wav,stimulus/audwhat_stim/percussion xylophone_high-pitch_Dtri_loud.wav,stimulus/audwhat_stim/blank_white.png,stimulus/audwhat_stim/pitch_box.png,stimulus/audwhat_stim/pitch_yes.png,stimulus/audwhat_stim/pitch_no.png,None,Pitch,None,Category,2,0.0,0,5.125,0,5.125,0,5.125,0,0.0,0.625,0,0,0,0,0,0,0,0,0,0.0,0,0.0,1,0.5,1,2.125,0,,,,,0,4,4,4,,,,,,,,,68.30270287502208,68.30270287502208,68.30270287502208,68.30270287502208,68.30270287502208,68.30270287502208,68.30270287502208,68.30270287502208,68.22159104235664,68.30270287502208,68.30270287502208,68.30270287502208,68.22159104235664,68.30270287502208,68.30270287502208,68.30270287502208,70.41534870900796,,68.30270287502208,68.30270287502208,73.4540509590006,68.30270287502208,68.30270287502208,68.30270287502208,68.30270287502208,68.76068950002082,69.81777787499595,68.73156212567507,,70.41534870900796,71.47536279199994,70.38620312567606,71.42890570900636,68.30270287502208,73.4540509590006,68.30270287502208,73.4540509590006,73.49465829200926,74.18244562501786,68.30270287502208,2,1,0.7721427500073332,reldom2_s027,001,2025-02-26_16h29.42.702,Aud-B-Scan_AC,2022.2.5,None,
0,0.0,None,fixation,stimulus/audwhat_stim/blank_white.png,stimulus/audwhat_stim/blank_white.png,stimulus/audwhere_stim/blank_white.png,stimulus/audwhere_stim/blank_white.png,stimulus/audwhat_stim/blank_white.png,stimulus/audwhat_stim/blank_white.png,stimulus/audwhat_stim/blank_white.png,stimulus/audwhat_stim/blank_white.png,0.0,0.0,0.0,0.0,0,0.0,0,0.0,0,0.0,0,0.0,0,0.0,0.0,0,0,0,0,0,0,0,0,0,0.0,0,0.0,0,0.0,0,0.0,8,,,,,0,5,5,5,,,,,,,,,74.41549337501056,74.41549337501056,74.41549337501056,74.41549337501056,74.41549337501056,74.41549337501056,74.41549337501056,74.41549337501056,74.31577895835119,74.41549337501056,74.41549337501056,74.41549337501056,74.31577895835119,74.41549337501056,74.41549337501056,74.41549337501056,74.41549337501056,74.41549337501056,74.41549337501056,74.41549337501056,74.41549337501056,74.41549337501056,74.41549337501056,74.41549337501056,74.41549337501056,74.41549337501056,74.41549337501056,74.3657789583512,74.41549337501056,74.41549337501056,74.41549337501056,74.3657789583512,74.41549337501056,74.41549337501056,74.41549337501056,74.41549337501056,74.41549337501056,79.61618599999929,79.61618599999929,82.56943879200844,None,0,,reldom2_s027,001,2025-02-26_16h29.42.702,Aud-B-Scan_AC,2022.2.5,None,
5,Second_Order,1.0,audwhat,stimulus/audwhat_stim/percussion mallet_high-pitch_Dtri_loud.wav,stimulus/audwhat_stim/string cello_high-pitch_Dtri_loud.wav,stimulus/audwhat_stim/string viola_low-pitch_F_loud.wav,stimulus/audwhat_stim/percussion mallet_low-pitch_F_loud.wav,stimulus/audwhat_stim/match_blank.png,stimulus/audwhat_stim/match_box.png,stimulus/audwhat_stim/match_yes.png,stimulus/audwhat_stim/match_no.png,1.0,Match,Pitch,Pitch,1,5.125,0,5.125,0,5.125,0,5.125,0,0.75,0.75,0,0,0,0,0,0,0,0,1,0.5,1,2.125,1,0.5,1,2.125,0,,,,,0,6,6,6,,,,,,,,,82.56943879200844,87.6869175840111,82.56943879200844,82.56943879200844,82.56943879200844,82.56943879200844,83.02552325002034,84.0231431669963,83.03841916667103,,84.64654616700136,85.643667833996,84.65824025066492,,87.6869175840111,88.5377350000199,90.59692429201095,,88.5377350000199,88.5377350000199,93.71769562500413,88.5377350000199,88.5377350000199,88.5377350000199,88.5377350000199,88.99230095901294,90.04773154199938,88.96391508367766,,90.59692429201095,91.65471783399698,90.5673875006653,,88.5377350000199,93.71769562500413,88.5377350000199,93.71769562500413,93.71769562500413,,88.5377350000199,1,1,1.625912749004783,reldom2_s027,001,2025-02-26_16h29.42.702,Aud-B-Scan_AC,2022.2.5,None,
6,Second_Order,1.0,audwhat,stimulus/audwhat_stim/percussion mallet_low-pitch_F_loud.wav,stimulus/audwhat_stim/percussion mallet_high-pitch_Dtri_loud.wav,stimulus/audwhat_stim/string viola_low-pitch_Ftri_loud.wav,stimulus/audwhat_stim/percussion mallet_low-pitch_Ftri_loud.wav,stimulus/audwhat_stim/match_blank.png,stimulus/audwhat_stim/match_box.png,stimulus/audwhat_stim/match_yes.png,stimulus/audwhat_stim/match_no.png,2.0,Match,Category,Pitch,2,5.125,0,5.125,0,5.125,0,5.125,0,0.625,0.625,0,0,0,0,0,0,0,0,1,0.5,1,2.125,1,0.5,1,2.125,0,,,,,0,7,7,7,,,,,,,,,94.52033737499733,99.64293062500656,94.52033737499733,94.52033737499733,94.52033737499733,94.52033737499733,94.96869495901046,95.95466241700342,94.9817743336646,,96.60266587501974,97.59170266700676,96.60580466667695,,99.64293062500656,100.37679962499533,102.41879429199616,106.48243487501168,100.37679962499533,100.37679962499533,105.57104229202378,100.37679962499533,100.37679962499533,100.37679962499533,100.37679962499533,100.82769820900285,101.87190558400471,100.79886691668459,,102.41879429199616,103.46979458400165,102.38970675066618,,100.37679962499533,105.57104229202378,100.37679962499533,105.57104229202378,105.57104229202378,106.25213920901297,100.37679962499533,2,1,0.8678057079960126,reldom2_s027,001,2025-02-26_16h29.42.702,Aud-B-Scan_AC,2022.2.5,None,
0,0.0,None,fixation,stimulus/audwhat_stim/blank_white.png,stimulus/audwhat_stim/blank_white.png,stimulus/audwhere_stim/blank_white.png,stimulus/audwhere_stim/blank_white.png,stimulus/audwhat_stim/blank_white.png,stimulus/audwhat_stim/blank_white.png,stimulus/audwhat_stim/blank_white.png,stimulus/audwhat_stim/blank_white.png,0.0,0.0,0.0,0.0,0,0.0,0,0.0,0,0.0,0,0.0,0,0.0,0.0,0,0,0,0,0,0,0,0,0,0.0,0,0.0,0,0.0,0,0.0,10,,,,,0,8,8,8,,,,,,,,,106.48243487501168,106.48243487501168,106.48243487501168,106.48243487501168,106.48243487501168,106.48243487501168,106.48243487501168,106.48243487501168,106.38547254234629,106.48243487501168,106.48243487501168,106.48243487501168,106.38547254234629,106.48243487501168,106.48243487501168,106.48243487501168,106.48243487501168,106.48243487501168,106.48243487501168,106.48243487501168,106.48243487501168,106.48243487501168,106.48243487501168,106.48243487501168,106.48243487501168,106.48243487501168,106.48243487501168,106.4354725423463,106.48243487501168,106.48243487501168,106.48243487501168,106.4354725423463,106.48243487501168,106.48243487501168,106.48243487501168,106.48243487501168,106.48243487501168,111.68922662502155,111.68922662502155,116.72307854201063,None,0,,reldom2_s027,001,2025-02-26_16h29.42.702,Aud-B-Scan_AC,2022.2.5,None,
7,First_Order,2.0,audwhat,stimulus/audwhat_stim/dummy.wav,stimulus/audwhat_stim/dummy.wav,stimulus/audwhat_stim/percussion xylophone_high-pitch_F_loud.wav,stimulus/audwhat_stim/percussion mallet_low-pitch_D_loud.wav,stimulus/audwhat_stim/blank_white.png,stimulus/audwhat_stim/category_box.png,stimulus/audwhat_stim/category_yes.png,stimulus/audwhat_stim/category_no.png,None,Category,None,Category,1,0.0,0,5.125,0,5.125,0,5.125,0,0.0,0.625,0,0,0,0,0,0,0,0,0,0.0,0,0.0,1,0.5,1,2.125,0,,,,,0,9,9,9,,,,,,,,,116.72307854201063,116.72307854201063,116.72307854201063,116.72307854201063,116.72307854201063,116.72307854201063,116.72307854201063,116.72307854201063,116.65204716666874,116.72307854201063,116.72307854201063,116.72307854201063,116.65204716666874,116.72307854201063,116.72307854201063,116.72307854201063,118.80433191699558,,116.72307854201063,116.72307854201063,121.9094734590035,116.72307854201063,116.72307854201063,116.72307854201063,116.72307854201063,117.18482216700795,118.2492328340013,117.15516008367219,118.20304562500678,118.80433191699558,119.87351737500285,118.77471220866234,,116.72307854201063,121.9094734590035,116.72307854201063,121.9094734590035,121.95002687501255,122.60302475001663,116.72307854201063,1,1,0.8589822500071023,reldom2_s027,001,2025-02-26_16h29.42.702,Aud-B-Scan_AC,2022.2.5,None,
8,First_Order,2.0,audwhat,stimulus/audwhat_stim/dummy.wav,stimulus/audwhat_stim/dummy.wav,stimulus/audwhat_stim/percussion mallet_low-pitch_D_loud.wav,stimulus/audwhat_stim/string viola_low-pitch_D_loud.wav,stimulus/audwhat_stim/blank_white.png,stimulus/audwhat_stim/pitch_box.png,stimulus/audwhat_stim/pitch_yes.png,stimulus/audwhat_stim/pitch_no.png,None,Pitch,None,Pitch,1,0.0,0,5.125,0,5.125,0,5.125,0,0.0,0.625,0,0,0,0,0,0,0,0,0,0.0,0,0.0,1,0.5,1,2.125,0,,,,,0,10,10,10,,,,,,,,,122.8157626670145,122.8157626670145,122.8157626670145,122.8157626670145,122.8157626670145,122.8157626670145,122.8157626670145,122.8157626670145,122.73635808334996,122.8157626670145,122.8157626670145,122.8157626670145,122.73635808334996,122.8157626670145,122.8157626670145,122.8157626670145,124.89162825001404,128.93562366699916,122.8157626670145,122.8157626670145,127.99006729200482,122.8157626670145,122.8157626670145,122.8157626670145,122.8157626670145,123.27725770900724,124.3380013749993,123.24755375067276,,124.89162825001404,125.9596663340053,124.86177004166917,,122.8157626670145,127.99006729200482,122.8157626670145,127.99006729200482,128.03119450001395,128.68203008401906,122.8157626670145,1,1,0.6752158750023227,reldom2_s027,001,2025-02-26_16h29.42.702,Aud-B-Scan_AC,2022.2.5,None,
9,First_Order,2.0,audwhat,stimulus/audwhat_stim/dummy.wav,stimulus/audwhat_stim/dummy.wav,stimulus/audwhat_stim/percussion mallet_low-pitch_D_loud.wav,stimulus/audwhat_stim/percussion mallet_high-pitch_Ftri_loud.wav,stimulus/audwhat_stim/blank_white.png,stimulus/audwhat_stim/category_box.png,stimulus/audwhat_stim/category_yes.png,stimulus/audwhat_stim/category_no.png,None,Category,None,Category,1,0.0,0,5.125,0,5.125,0,5.125,0,0.0,0.625,0,0,0,0,0,0,0,0,0,0.0,0,0.0,1,0.5,1,2.125,0,,,,,0,11,11,11,,,,,,,,,128.93562366699916,128.93562366699916,128.93562366699916,128.93562366699916,128.93562366699916,128.93562366699916,128.93562366699916,128.93562366699916,128.85610545834257,128.93562366699916,128.93562366699916,128.93562366699916,128.85610545834257,128.93562366699916,128.93562366699916,128.93562366699916,131.0282037090219,,128.93562366699916,128.93562366699916,134.09765850001713,128.93562366699916,128.93562366699916,128.93562366699916,128.93562366699916,129.4011662499979,130.47063066699775,129.3710243756689,,131.0282037090219,132.10230625001714,130.99767616668058,,128.93562366699916,134.09765850001713,128.93562366699916,134.09765850001713,134.13908675001585,134.793338959018,128.93562366699916,1,1,0.45109212401439436,reldom2_s027,001,2025-02-26_16h29.42.702,Aud-B-Scan_AC,2022.2.5,None,
10,First_Order,2.0,audwhat,stimulus/audwhat_stim/dummy.wav,stimulus/audwhat_stim/dummy.wav,stimulus/audwhat_stim/string cello_high-pitch_F_loud.wav,stimulus/audwhat_stim/percussion mallet_high-pitch_F_loud.wav,stimulus/audwhat_stim/blank_white.png,stimulus/audwhat_stim/category_box.png,stimulus/audwhat_stim/category_yes.png,stimulus/audwhat_stim/category_no.png,None,Category,None,Pitch,2,0.0,0,5.125,0,5.125,0,5.125,0,0.0,0.625,0,0,0,0,0,0,0,0,0,0.0,0,0.0,1,0.5,1,2.125,0,,,,,0,12,12,12,,,,,,,,,135.04671033401974,135.04671033401974,135.04671033401974,135.04671033401974,135.04671033401974,135.04671033401974,135.04671033401974,135.04671033401974,134.96653287534915,135.04671033401974,135.04671033401974,135.04671033401974,134.96653287534915,135.04671033401974,135.04671033401974,135.04671033401974,137.13407191701117,,135.04671033401974,135.04671033401974,140.20835166701,135.04671033401974,135.04671033401974,135.04671033401974,135.04671033401974,135.51182700000936,136.5786702920159,135.48173833368153,,137.13407191701117,138.20733250002377,137.1046363756798,,135.04671033401974,140.20835166701,135.04671033401974,140.20835166701,140.2493944170128,140.90354850000585,135.04671033401974,2,1,1.2378163749817759,reldom2_s027,001,2025-02-26_16h29.42.702,Aud-B-Scan_AC,2022.2.5,None,
0,0.0,None,fixation,stimulus/audwhat_stim/blank_white.png,stimulus/audwhat_stim/blank_white.png,stimulus/audwhere_stim/blank_white.png,stimulus/audwhere_stim/blank_white.png,stimulus/audwhat_stim/blank_white.png,stimulus/audwhat_stim/blank_white.png,stimulus/audwhat_stim/blank_white.png,stimulus/audwhat_stim/blank_white.png,0.0,0.0,0.0,0.0,0,0.0,0,0.0,0,0.0,0,0.0,0,0.0,0.0,0,0,0,0,0,0,0,0,0,0.0,0,0.0,0,0.0,0,0.0,8,,,,,0,13,13,13,,,,,,,,,141.17710441700183,141.17710441700183,141.17710441700183,141.17710441700183,141.17710441700183,141.17710441700183,141.17710441700183,141.17710441700183,141.0778894583365,141.17710441700183,141.17710441700183,141.17710441700183,141.0778894583365,141.17710441700183,141.17710441700183,141.17710441700183,141.17710441700183,141.17710441700183,141.17710441700183,141.17710441700183,141.17710441700183,141.17710441700183,141.17710441700183,141.17710441700183,141.17710441700183,141.17710441700183,141.17710441700183,141.12788945833648,141.17710441700183,141.17710441700183,141.17710441700183,141.12788945833648,141.17710441700183,141.17710441700183,141.17710441700183,141.17710441700183,141.17710441700183,146.3607420840126,146.3607420840126,149.34018587501487,None,0,,reldom2_s027,001,2025-02-26_16h29.42.702,Aud-B-Scan_AC,2022.2.5,None,
11,Second_Order,2.0,audwhat,stimulus/audwhat_stim/string viola_high-pitch_Dtri_loud.wav,stimulus/audwhat_stim/string cello_low-pitch_D_loud.wav,stimulus/audwhat_stim/percussion mallet_high-pitch_Dtri_loud.wav,stimulus/audwhat_stim/percussion mallet_low-pitch_Ftri_loud.wav,stimulus/audwhat_stim/match_blank.png,stimulus/audwhat_stim/match_box.png,stimulus/audwhat_stim/match_yes.png,stimulus/audwhat_stim/match_no.png,1.0,Match,Category,Category,1,5.125,0,5.125,0,5.125,0,5.125,0,0.75,0.75,0,0,0,0,0,0,0,0,1,0.5,1,2.125,1,0.5,1,2.125,0,,,,,0,14,14,14,,,,,,,,,149.34018587501487,154.4572025000234,149.34018587501487,149.34018587501487,149.34018587501487,149.34018587501487,149.7941700000083,150.78056562499842,149.8084876256801,,151.41750491701532,152.41456083400408,151.42952566667034,,154.4572025000234,155.3088776670047,157.37667929200688,,155.3088776670047,155.3088776670047,160.47350491699763,155.3088776670047,155.3088776670047,155.3088776670047,155.3088776670047,155.7241379590123,156.77888145900215,155.6944506666662,,157.37667929200688,158.44437733400264,157.34735795867553,,155.3088776670047,160.47350491699763,155.3088776670047,160.47350491699763,160.47350491699763,,155.3088776670047,1,1,0.6152780830161646,reldom2_s027,001,2025-02-26_16h29.42.702,Aud-B-Scan_AC,2022.2.5,None,
12,Second_Order,2.0,audwhat,stimulus/audwhat_stim/string viola_low-pitch_F_loud.wav,stimulus/audwhat_stim/string viola_high-pitch_Ftri_loud.wav,stimulus/audwhat_stim/percussion mallet_low-pitch_Ftri_loud.wav,stimulus/audwhat_stim/percussion xylophone_high-pitch_Dtri_loud.wav,stimulus/audwhat_stim/match_blank.png,stimulus/audwhat_stim/match_box.png,stimulus/audwhat_stim/match_yes.png,stimulus/audwhat_stim/match_no.png,1.0,Match,Category,Category,1,5.125,0,5.125,0,5.125,0,5.125,0,0.625,0.625,0,0,0,0,0,0,0,0,1,0.5,1,2.125,1,0.5,1,2.125,0,,,,,0,15,15,15,,,,,,,,,161.2813902090129,166.40228720899904,161.2813902090129,161.2813902090129,161.2813902090129,161.2813902090129,161.73946758400416,162.7385387920076,161.75245437567744,,163.36143770901253,164.35911029201816,163.37338337567442,,166.40228720899904,167.13388508401113,169.18792066699825,,167.13388508401113,167.13388508401113,172.30984095900203,167.13388508401113,167.13388508401113,167.13388508401113,167.13388508401113,167.5901172500162,168.64009554201039,167.5595924166885,,169.18792066699825,170.24647574999835,169.1585025836869,170.20035450000432,167.13388508401113,172.30984095900203,167.13388508401113,172.30984095900203,172.30984095900203,172.99392979202094,167.13388508401113,1,1,0.9948886250203941,reldom2_s027,001,2025-02-26_16h29.42.702,Aud-B-Scan_AC,2022.2.5,None,
0,0.0,None,fixation,stimulus/audwhat_stim/blank_white.png,stimulus/audwhat_stim/blank_white.png,stimulus/audwhere_stim/blank_white.png,stimulus/audwhere_stim/blank_white.png,stimulus/audwhat_stim/blank_white.png,stimulus/audwhat_stim/blank_white.png,stimulus/audwhat_stim/blank_white.png,stimulus/audwhat_stim/blank_white.png,0.0,0.0,0.0,0.0,0,0.0,0,0.0,0,0.0,0,0.0,0,0.0,0.0,0,0,0,0,0,0,0,0,0,0.0,0,0.0,0,0.0,0,0.0,9,,,,,0,16,16,16,,,,,,,,,173.2251404170238,173.2251404170238,173.2251404170238,173.2251404170238,173.2251404170238,173.2251404170238,173.2251404170238,173.2251404170238,173.1272631253543,173.2251404170238,173.2251404170238,173.2251404170238,173.1272631253543,173.2251404170238,173.2251404170238,173.2251404170238,173.2251404170238,173.2251404170238,173.2251404170238,173.2251404170238,173.2251404170238,173.2251404170238,173.2251404170238,173.2251404170238,173.2251404170238,173.2251404170238,173.2251404170238,173.17726312535427,173.2251404170238,173.2251404170238,173.2251404170238,173.17726312535427,173.2251404170238,173.2251404170238,173.2251404170238,173.2251404170238,173.2251404170238,178.4156364170194,178.4156364170194,182.4805564590206,None,0,,reldom2_s027,001,2025-02-26_16h29.42.702,Aud-B-Scan_AC,2022.2.5,None,
13,First_Order,3.0,audwhere,stimulus/audwhere_stim/dummy.wav,stimulus/audwhere_stim/dummy.wav,stimulus/audwhere_stim/left_toward_290h.wav,stimulus/audwhere_stim/right_toward_280h.wav,stimulus/audwhere_stim/blank_white.png,stimulus/audwhere_stim/direction_box.png,stimulus/audwhere_stim/direction_yes.png,stimulus/audwhere_stim/direction_no.png,None,Direction,None,Direction,1,0.0,0,5.125,0,5.125,0,5.125,0,0.0,0.625,0,0,0,0,0,0,0,0,0,0.0,0,0.0,1,0.5,1,2.125,0,,,,,0,17,17,17,,,,,,,,,182.4805564590206,182.4805564590206,182.4805564590206,182.4805564590206,182.4805564590206,182.4805564590206,182.4805564590206,182.4805564590206,182.40842158368713,182.4805564590206,182.4805564590206,182.4805564590206,182.40842158368713,182.4805564590206,182.4805564590206,182.4805564590206,184.5704345840204,,182.4805564590206,182.4805564590206,187.63975275002304,182.4805564590206,182.4805564590206,182.4805564590206,182.4805564590206,182.94303900000523,184.0139047090197,182.91369562567368,,184.5704345840204,185.642202292016,184.54020275068277,,182.4805564590206,187.63975275002304,182.4805564590206,187.63975275002304,187.68061895901337,188.33402929201839,182.4805564590206,1,1,1.653600457997527,reldom2_s027,001,2025-02-26_16h29.42.702,Aud-B-Scan_AC,2022.2.5,None,
14,First_Order,3.0,audwhere,stimulus/audwhere_stim/dummy.wav,stimulus/audwhere_stim/dummy.wav,stimulus/audwhere_stim/left_toward_270h.wav,stimulus/audwhere_stim/right_toward_290h.wav,stimulus/audwhere_stim/blank_white.png,stimulus/audwhere_stim/direction_box.png,stimulus/audwhere_stim/direction_yes.png,stimulus/audwhere_stim/direction_no.png,None,Direction,None,Direction,1,0.0,0,5.125,0,5.125,0,5.125,0,0.0,0.625,0,0,0,0,0,0,0,0,0,0.0,0,0.0,1,0.5,1,2.125,0,,,,,0,18,18,18,,,,,,,,,188.58719125000061,188.58719125000061,188.58719125000061,188.58719125000061,188.58719125000061,188.58719125000061,188.58719125000061,188.58719125000061,188.50805666734428,188.58719125000061,188.58719125000061,188.58719125000061,188.50805666734428,188.58719125000061,188.58719125000061,188.58719125000061,190.67494120899937,,188.58719125000061,188.58719125000061,193.74113925002166,188.58719125000061,188.58719125000061,188.58719125000061,188.58719125000061,189.04979479202302,190.11830445899977,189.02034216668497,,190.67494120899937,191.7452687920013,190.6450058336816,,188.58719125000061,193.74113925002166,188.58719125000061,193.74113925002166,193.7820490419981,194.43744974999572,188.58719125000061,1,1,0.8700555830146186,reldom2_s027,001,2025-02-26_16h29.42.702,Aud-B-Scan_AC,2022.2.5,None,
15,First_Order,3.0,audwhere,stimulus/audwhere_stim/dummy.wav,stimulus/audwhere_stim/dummy.wav,stimulus/audwhere_stim/left_away_290h.wav,stimulus/audwhere_stim/left_toward_280h.wav,stimulus/audwhere_stim/blank_white.png,stimulus/audwhere_stim/direction_box.png,stimulus/audwhere_stim/direction_yes.png,stimulus/audwhere_stim/direction_no.png,None,Direction,None,Side,2,0.0,0,5.125,0,5.125,0,5.125,0,0.0,0.625,0,0,0,0,0,0,0,0,0,0.0,0,0.0,1,0.5,1,2.125,0,,,,,0,19,19,19,,,,,,,,,194.6914913750079,194.6914913750079,194.6914913750079,194.6914913750079,194.6914913750079,194.6914913750079,194.6914913750079,194.6914913750079,194.6120601673339,194.6914913750079,194.6914913750079,194.6914913750079,194.6120601673339,194.6914913750079,194.6914913750079,194.6914913750079,196.7871364169987,200.81757924999692,194.6914913750079,194.6914913750079,199.8682152920228,194.6914913750079,194.6914913750079,194.6914913750079,194.6914913750079,195.15585275000194,196.22865012500552,195.12613145867752,,196.7871364169987,197.86185033401125,196.75701120868715,,194.6914913750079,199.8682152920228,194.6914913750079,199.8682152920228,199.90923933399608,200.56385179201607,194.6914913750079,2,1,0.9987611249962356,reldom2_s027,001,2025-02-26_16h29.42.702,Aud-B-Scan_AC,2022.2.5,None,
16,First_Order,3.0,audwhere,stimulus/audwhere_stim/dummy.wav,stimulus/audwhere_stim/dummy.wav,stimulus/audwhere_stim/left_toward_300h.wav,stimulus/audwhere_stim/left_away_290h.wav,stimulus/audwhere_stim/blank_white.png,stimulus/audwhere_stim/direction_box.png,stimulus/audwhere_stim/direction_yes.png,stimulus/audwhere_stim/direction_no.png,None,Direction,None,Side,2,0.0,0,5.125,0,5.125,0,5.125,0,0.0,0.625,0,0,0,0,0,0,0,0,0,0.0,0,0.0,1,0.5,1,2.125,0,,,,,0,20,20,20,,,,,,,,,200.81757924999692,200.81757924999692,200.81757924999692,200.81757924999692,200.81757924999692,200.81757924999692,200.81757924999692,200.81757924999692,200.7381878753387,200.81757924999692,200.81757924999692,200.81757924999692,200.7381878753387,200.81757924999692,200.81757924999692,200.81757924999692,202.91426400002092,206.96275916701416,200.81757924999692,200.81757924999692,205.99261041701538,200.81757924999692,200.81757924999692,200.81757924999692,200.81757924999692,201.2833298750047,202.35516312500113,201.2528066256821,,202.91426400002092,203.98913150001317,202.8839475416792,,200.81757924999692,205.99261041701538,200.81757924999692,205.99261041701538,206.03333520900924,206.6884100419993,200.81757924999692,2,1,1.1685745419817977,reldom2_s027,001,2025-02-26_16h29.42.702,Aud-B-Scan_AC,2022.2.5,None,
0,0.0,None,fixation,stimulus/audwhat_stim/blank_white.png,stimulus/audwhat_stim/blank_white.png,stimulus/audwhere_stim/blank_white.png,stimulus/audwhere_stim/blank_white.png,stimulus/audwhat_stim/blank_white.png,stimulus/audwhat_stim/blank_white.png,stimulus/audwhat_stim/blank_white.png,stimulus/audwhat_stim/blank_white.png,0.0,0.0,0.0,0.0,0,0.0,0,0.0,0,0.0,0,0.0,0,0.0,0.0,0,0,0,0,0,0,0,0,0,0.0,0,0.0,0,0.0,0,0.0,10,,,,,0,21,21,21,,,,,,,,,206.96275916701416,206.96275916701416,206.96275916701416,206.96275916701416,206.96275916701416,206.96275916701416,206.96275916701416,206.96275916701416,206.86257012534966,206.96275916701416,206.96275916701416,206.96275916701416,206.86257012534966,206.96275916701416,206.96275916701416,206.96275916701416,206.96275916701416,206.96275916701416,206.96275916701416,206.96275916701416,206.96275916701416,206.96275916701416,206.96275916701416,206.96275916701416,206.96275916701416,206.96275916701416,206.96275916701416,206.91257012534965,206.96275916701416,206.96275916701416,206.96275916701416,206.91257012534965,206.96275916701416,206.96275916701416,206.96275916701416,206.96275916701416,206.96275916701416,212.15488383400952,212.15488383400952,217.11680445901584,None,0,,reldom2_s027,001,2025-02-26_16h29.42.702,Aud-B-Scan_AC,2022.2.5,None,
17,Second_Order,3.0,audwhere,stimulus/audwhere_stim/right_toward_290h.wav,stimulus/audwhere_stim/right_away_290h.wav,stimulus/audwhere_stim/right_away_280h.wav,stimulus/audwhere_stim/left_away_300h.wav,stimulus/audwhat_stim/match_blank.png,stimulus/audwhat_stim/match_box.png,stimulus/audwhat_stim/match_yes.png,stimulus/audwhat_stim/match_no.png,2.0,Match,Side,Direction,2,5.125,0,5.125,0,5.125,0,5.125,0,0.75,0.75,0,0,0,0,0,0,0,0,1,0.5,1,2.125,1,0.5,1,2.125,0,,,,,0,22,22,22,,,,,,,,,217.11680445901584,222.23099779200857,217.11680445901584,217.11680445901584,217.11680445901584,217.11680445901584,217.56737975002034,218.55416379199596,217.58133416666922,,219.19017700001132,220.1880267090164,219.20241387567174,,222.23099779200857,223.08086425001966,225.1540762920049,229.0702527500107,223.08086425001966,223.08086425001966,228.25884520899854,223.08086425001966,223.08086425001966,223.08086425001966,223.08086425001966,223.53894891700475,224.60016616701614,223.5092566666756,,225.1540762920049,226.2255302919948,225.12399887567543,,223.08086425001966,228.25884520899854,223.08086425001966,228.25884520899854,228.25884520899854,,223.08086425001966,2,1,0.6050558330025524,reldom2_s027,001,2025-02-26_16h29.42.702,Aud-B-Scan_AC,2022.2.5,None,
18,Second_Order,3.0,audwhere,stimulus/audwhere_stim/right_toward_270h.wav,stimulus/audwhere_stim/left_toward_270h.wav,stimulus/audwhere_stim/right_away_300h.wav,stimulus/audwhere_stim/left_away_280h.wav,stimulus/audwhat_stim/match_blank.png,stimulus/audwhat_stim/match_box.png,stimulus/audwhat_stim/match_yes.png,stimulus/audwhat_stim/match_no.png,1.0,Match,Direction,Direction,1,5.125,0,5.125,0,5.125,0,5.125,0,0.625,0.625,0,0,0,0,0,0,0,0,1,0.5,1,2.125,1,0.5,1,2.125,0,,,,,0,23,23,23,,,,,,,,,229.0702527500107,234.19263304199558,229.0702527500107,229.0702527500107,229.0702527500107,229.0702527500107,229.52962516702246,230.52849162500934,229.54297720868297,,231.15061095901183,232.14874274999602,231.1633382916664,,234.19263304199558,234.92312691701227,236.98036054201657,241.03112554200925,234.92312691701227,234.92312691701227,240.11154174999683,234.92312691701227,234.92312691701227,234.92312691701227,234.92312691701227,235.37746833401616,236.4304359999951,235.34794308367808,,236.98036054201657,238.043508792005,236.95125716668943,,234.92312691701227,240.11154174999683,234.92312691701227,240.11154174999683,240.11154174999683,240.75982866701088,234.92312691701227,1,1,0.9905167079996318,reldom2_s027,001,2025-02-26_16h29.42.702,Aud-B-Scan_AC,2022.2.5,None,
0,0.0,None,fixation,stimulus/audwhat_stim/blank_white.png,stimulus/audwhat_stim/blank_white.png,stimulus/audwhere_stim/blank_white.png,stimulus/audwhere_stim/blank_white.png,stimulus/audwhat_stim/blank_white.png,stimulus/audwhat_stim/blank_white.png,stimulus/audwhat_stim/blank_white.png,stimulus/audwhat_stim/blank_white.png,0.0,0.0,0.0,0.0,0,0.0,0,0.0,0,0.0,0,0.0,0,0.0,0.0,0,0,0,0,0,0,0,0,0,0.0,0,0.0,0,0.0,0,0.0,8,,,,,0,24,24,24,,,,,,,,,241.03112554200925,241.03112554200925,241.03112554200925,241.03112554200925,241.03112554200925,241.03112554200925,241.03112554200925,241.03112554200925,240.93352304233318,241.03112554200925,241.03112554200925,241.03112554200925,240.93352304233318,241.03112554200925,241.03112554200925,241.03112554200925,241.03112554200925,241.03112554200925,241.03112554200925,241.03112554200925,241.03112554200925,241.03112554200925,241.03112554200925,241.03112554200925,241.03112554200925,241.03112554200925,241.03112554200925,240.98352304233316,241.03112554200925,241.03112554200925,241.03112554200925,240.98352304233316,241.03112554200925,241.03112554200925,241.03112554200925,241.03112554200925,241.03112554200925,246.23734629200771,246.23734629200771,249.29471912499866,None,0,,reldom2_s027,001,2025-02-26_16h29.42.702,Aud-B-Scan_AC,2022.2.5,None,
19,First_Order,4.0,audwhere,stimulus/audwhere_stim/dummy.wav,stimulus/audwhere_stim/dummy.wav,stimulus/audwhere_stim/right_toward_280h.wav,stimulus/audwhere_stim/left_toward_280h.wav,stimulus/audwhere_stim/blank_white.png,stimulus/audwhere_stim/side_box.png,stimulus/audwhere_stim/side_yes.png,stimulus/audwhere_stim/side_no.png,None,Side,None,Direction,2,0.0,0,5.125,0,5.125,0,5.125,0,0.0,0.625,0,0,0,0,0,0,0,0,0,0.0,0,0.0,1,0.5,1,2.125,0,,,,,0,25,25,25,,,,,,,,,249.29471912499866,249.29471912499866,249.29471912499866,249.29471912499866,249.29471912499866,249.29471912499866,249.29471912499866,249.29471912499866,249.2235830006636,249.29471912499866,249.29471912499866,249.29471912499866,249.2235830006636,249.29471912499866,249.29471912499866,249.29471912499866,251.37494325000443,255.42234708400792,249.29471912499866,249.29471912499866,254.47826450000866,249.29471912499866,249.29471912499866,249.29471912499866,249.29471912499866,249.7599721250008,250.82142604200635,249.73003041668952,,251.37494325000443,252.4439690420113,251.34462566668324,,249.29471912499866,254.47826450000866,249.29471912499866,254.47826450000866,254.51916704201722,255.1699709999957,249.29471912499866,2,1,1.0539189580013044,reldom2_s027,001,2025-02-26_16h29.42.702,Aud-B-Scan_AC,2022.2.5,None,
20,First_Order,4.0,audwhere,stimulus/audwhere_stim/dummy.wav,stimulus/audwhere_stim/dummy.wav,stimulus/audwhere_stim/left_toward_290h.wav,stimulus/audwhere_stim/right_toward_270h.wav,stimulus/audwhere_stim/blank_white.png,stimulus/audwhere_stim/side_box.png,stimulus/audwhere_stim/side_yes.png,stimulus/audwhere_stim/side_no.png,None,Side,None,Direction,2,0.0,0,5.125,0,5.125,0,5.125,0,0.0,0.625,0,0,0,0,0,0,0,0,0,0.0,0,0.0,1,0.5,1,2.125,0,,,,,0,26,26,26,,,,,,,,,255.42234708400792,255.42234708400792,255.42234708400792,255.42234708400792,255.42234708400792,255.42234708400792,255.42234708400792,255.42234708400792,255.34407616732838,255.42234708400792,255.42234708400792,255.42234708400792,255.34407616732838,255.42234708400792,255.42234708400792,255.42234708400792,257.5018960000016,261.54898225000943,255.42234708400792,255.42234708400792,260.60331624999526,255.42234708400792,255.42234708400792,255.42234708400792,255.42234708400792,255.8863856670214,256.9487555420201,255.85627266668988,,257.5018960000016,258.57245408400195,257.4723347086731,,255.42234708400792,260.60331624999526,255.42234708400792,260.60331624999526,260.64417995899566,261.2948869999964,255.42234708400792,2,1,0.9277289579913486,reldom2_s027,001,2025-02-26_16h29.42.702,Aud-B-Scan_AC,2022.2.5,None,
21,First_Order,4.0,audwhere,stimulus/audwhere_stim/dummy.wav,stimulus/audwhere_stim/dummy.wav,stimulus/audwhere_stim/left_toward_270h.wav,stimulus/audwhere_stim/left_away_300h.wav,stimulus/audwhere_stim/blank_white.png,stimulus/audwhere_stim/side_box.png,stimulus/audwhere_stim/side_yes.png,stimulus/audwhere_stim/side_no.png,None,Side,None,Side,1,0.0,0,5.125,0,5.125,0,5.125,0,0.0,0.625,0,0,0,0,0,0,0,0,0,0.0,0,0.0,1,0.5,1,2.125,0,,,,,0,27,27,27,,,,,,,,,261.54898225000943,261.54898225000943,261.54898225000943,261.54898225000943,261.54898225000943,261.54898225000943,261.54898225000943,261.54898225000943,261.468842500357,261.54898225000943,261.54898225000943,261.54898225000943,261.468842500357,261.54898225000943,261.54898225000943,261.54898225000943,263.6309809590166,267.67825516700395,261.54898225000943,261.54898225000943,266.7327137090033,261.54898225000943,261.54898225000943,261.54898225000943,261.54898225000943,262.0128695000021,263.07574704202125,261.9831136666801,,263.6309809590166,264.6966844999988,263.60149191666665,,261.54898225000943,266.7327137090033,261.54898225000943,266.7327137090033,266.7742247090209,267.4246508340002,261.54898225000943,1,1,1.3417764579935465,reldom2_s027,001,2025-02-26_16h29.42.702,Aud-B-Scan_AC,2022.2.5,None,
22,First_Order,4.0,audwhere,stimulus/audwhere_stim/dummy.wav,stimulus/audwhere_stim/dummy.wav,stimulus/audwhere_stim/left_away_290h.wav,stimulus/audwhere_stim/left_toward_270h.wav,stimulus/audwhere_stim/blank_white.png,stimulus/audwhere_stim/side_box.png,stimulus/audwhere_stim/side_yes.png,stimulus/audwhere_stim/side_no.png,None,Side,None,Side,1,0.0,0,5.125,0,5.125,0,5.125,0,0.0,0.625,0,0,0,0,0,0,0,0,0,0.0,0,0.0,1,0.5,1,2.125,0,,,,,0,28,28,28,,,,,,,,,267.67825516700395,267.67825516700395,267.67825516700395,267.67825516700395,267.67825516700395,267.67825516700395,267.67825516700395,267.67825516700395,267.59898170834833,267.67825516700395,267.67825516700395,267.67825516700395,267.59898170834833,267.67825516700395,267.67825516700395,267.67825516700395,269.767727583996,,267.67825516700395,267.67825516700395,272.82739879199653,267.67825516700395,267.67825516700395,267.67825516700395,267.67825516700395,268.14298883400625,269.21019662500476,268.112897166666,,269.767727583996,270.83586208400084,269.73787062568977,,267.67825516700395,272.82739879199653,267.67825516700395,272.82739879199653,272.8688051250065,273.5202125420037,267.67825516700395,2,0,1.9675599159963895,reldom2_s027,001,2025-02-26_16h29.42.702,Aud-B-Scan_AC,2022.2.5,None,
0,0.0,None,fixation,stimulus/audwhat_stim/blank_white.png,stimulus/audwhat_stim/blank_white.png,stimulus/audwhere_stim/blank_white.png,stimulus/audwhere_stim/blank_white.png,stimulus/audwhat_stim/blank_white.png,stimulus/audwhat_stim/blank_white.png,stimulus/audwhat_stim/blank_white.png,stimulus/audwhat_stim/blank_white.png,0.0,0.0,0.0,0.0,0,0.0,0,0.0,0,0.0,0,0.0,0,0.0,0.0,0,0,0,0,0,0,0,0,0,0.0,0,0.0,0,0.0,0,0.0,10,,,,,0,29,29,29,,,,,,,,,273.7956058749987,273.7956058749987,273.7956058749987,273.7956058749987,273.7956058749987,273.7956058749987,273.7956058749987,273.7956058749987,273.6953115423404,273.7956058749987,273.7956058749987,273.7956058749987,273.6953115423404,273.7956058749987,273.7956058749987,273.7956058749987,273.7956058749987,273.7956058749987,273.7956058749987,273.7956058749987,273.7956058749987,273.7956058749987,273.7956058749987,273.7956058749987,273.7956058749987,273.7956058749987,273.7956058749987,273.7453115423404,273.7956058749987,273.7956058749987,273.7956058749987,273.7453115423404,273.7956058749987,273.7956058749987,273.7956058749987,273.7956058749987,273.7956058749987,279.030411292013,279.030411292013,283.93549758399604,None,0,,reldom2_s027,001,2025-02-26_16h29.42.702,Aud-B-Scan_AC,2022.2.5,None,
23,Second_Order,4.0,audwhere,stimulus/audwhere_stim/right_toward_300h.wav,stimulus/audwhere_stim/left_toward_270h.wav,stimulus/audwhere_stim/left_away_300h.wav,stimulus/audwhere_stim/right_away_300h.wav,stimulus/audwhat_stim/match_blank.png,stimulus/audwhat_stim/match_box.png,stimulus/audwhat_stim/match_yes.png,stimulus/audwhat_stim/match_no.png,1.0,Match,Direction,Direction,1,5.125,0,5.125,0,5.125,0,5.125,0,0.75,0.75,0,0,0,0,0,0,0,0,1,0.5,1,2.125,1,0.5,1,2.125,0,,,,,0,30,30,30,,,,,,,,,283.93549758399604,289.05146933402284,283.93549758399604,283.93549758399604,283.93549758399604,283.93549758399604,284.3880352920096,285.3752778340131,284.40237833367814,,286.0109592920053,287.00887183399755,286.02332433368815,,289.05146933402284,289.8982702920039,291.9764398749976,295.89036266700714,289.8982702920039,289.8982702920039,295.08016287500504,289.8982702920039,289.8982702920039,289.8982702920039,289.8982702920039,290.3596900840057,291.4200407919998,290.32984695866276,,291.9764398749976,293.04333858401515,291.9465820836815,,289.8982702920039,295.08016287500504,289.8982702920039,295.08016287500504,295.08016287500504,,289.8982702920039,1,1,0.892756790999556,reldom2_s027,001,2025-02-26_16h29.42.702,Aud-B-Scan_AC,2022.2.5,None,
24,Second_Order,4.0,audwhere,stimulus/audwhere_stim/right_toward_300h.wav,stimulus/audwhere_stim/left_toward_300h.wav,stimulus/audwhere_stim/left_away_290h.wav,stimulus/audwhere_stim/right_away_280h.wav,stimulus/audwhat_stim/match_blank.png,stimulus/audwhat_stim/match_box.png,stimulus/audwhat_stim/match_yes.png,stimulus/audwhat_stim/match_no.png,1.0,Match,Direction,Direction,1,5.125,0,5.125,0,5.125,0,5.125,0,0.625,0.625,0,0,0,0,0,0,0,0,1,0.5,1,2.125,1,0.5,1,2.125,0,,,,,0,31,31,31,,,,,,,,,295.89036266700714,301.01240245901863,295.89036266700714,295.89036266700714,295.89036266700714,295.89036266700714,296.3512406250229,297.3495861670235,296.3637350836691,,297.9718920419982,298.9703313750215,297.9842777086635,,301.01240245901863,301.7403032500006,303.80024395900546,307.8562336670002,301.7403032500006,301.7403032500006,306.88931308401516,301.7403032500006,301.7403032500006,301.7403032500006,301.7403032500006,302.19595808401937,303.2485075420118,302.166716625685,,303.80024395900546,304.86110987499706,303.7709781666674,,301.7403032500006,306.88931308401516,301.7403032500006,306.88931308401516,306.9301731250016,307.5829701250186,301.7403032500006,1,1,0.7784614160191268,reldom2_s027,001,2025-02-26_16h29.42.702,Aud-B-Scan_AC,2022.2.5,None,
0,0.0,None,fixation,stimulus/audwhat_stim/blank_white.png,stimulus/audwhat_stim/blank_white.png,stimulus/audwhere_stim/blank_white.png,stimulus/audwhere_stim/blank_white.png,stimulus/audwhat_stim/blank_white.png,stimulus/audwhat_stim/blank_white.png,stimulus/audwhat_stim/blank_white.png,stimulus/audwhat_stim/blank_white.png,0.0,0.0,0.0,0.0,0,0.0,0,0.0,0,0.0,0,0.0,0,0.0,0.0,0,0,0,0,0,0,0,0,0,0.0,0,0.0,0,0.0,0,0.0,9,,,,,0,32,32,32,,,,,,,,,307.8562336670002,307.8562336670002,307.8562336670002,307.8562336670002,307.8562336670002,307.8562336670002,307.8562336670002,307.8562336670002,307.75709608334193,307.8562336670002,307.8562336670002,307.8562336670002,307.75709608334193,307.8562336670002,307.8562336670002,307.8562336670002,307.8562336670002,307.8562336670002,307.8562336670002,307.8562336670002,307.8562336670002,307.8562336670002,307.8562336670002,307.8562336670002,307.8562336670002,307.8562336670002,307.8562336670002,307.80709608334195,307.8562336670002,307.8562336670002,307.8562336670002,307.80709608334195,307.8562336670002,307.8562336670002,307.8562336670002,307.8562336670002,307.8562336670002,313.0678584170237,313.0678584170237,317.09015845900285,None,0,,reldom2_s027,001,2025-02-26_16h29.42.702,Aud-B-Scan_AC,2022.2.5,None,
25,First_Order,5.0,audwhat,stimulus/audwhat_stim/dummy.wav,stimulus/audwhat_stim/dummy.wav,stimulus/audwhat_stim/percussion xylophone_high-pitch_Ftri_loud.wav,stimulus/audwhat_stim/percussion mallet_low-pitch_F_loud.wav,stimulus/audwhat_stim/blank_white.png,stimulus/audwhat_stim/pitch_box.png,stimulus/audwhat_stim/pitch_yes.png,stimulus/audwhat_stim/pitch_no.png,None,Pitch,None,Category,2,0.0,0,5.125,0,5.125,0,5.125,0,0.0,0.625,0,0,0,0,0,0,0,0,0,0.0,0,0.0,1,0.5,1,2.125,0,,,,,0,33,33,33,,,,,,,,,317.09015845900285,317.09015845900285,317.09015845900285,317.09015845900285,317.09015845900285,317.09015845900285,317.09015845900285,317.09015845900285,317.0167790416841,317.09015845900285,317.09015845900285,317.09015845900285,317.0167790416841,317.09015845900285,317.09015845900285,317.09015845900285,319.1747867090162,,317.09015845900285,317.09015845900285,322.23919237501104,317.09015845900285,317.09015845900285,317.09015845900285,317.09015845900285,317.5558961670031,318.62072504201205,317.5248459166653,318.574053459015,319.1747867090162,320.2465030839958,319.1453896256901,,317.09015845900285,322.23919237501104,317.09015845900285,322.23919237501104,322.28048512499663,322.93399099999806,317.09015845900285,2,1,0.8250304169778246,reldom2_s027,001,2025-02-26_16h29.42.702,Aud-B-Scan_AC,2022.2.5,None,
26,First_Order,5.0,audwhat,stimulus/audwhat_stim/dummy.wav,stimulus/audwhat_stim/dummy.wav,stimulus/audwhat_stim/percussion mallet_low-pitch_Dtri_loud.wav,stimulus/audwhat_stim/percussion xylophone_high-pitch_Ftri_loud.wav,stimulus/audwhat_stim/blank_white.png,stimulus/audwhat_stim/category_box.png,stimulus/audwhat_stim/category_yes.png,stimulus/audwhat_stim/category_no.png,None,Category,None,Category,1,0.0,0,5.125,0,5.125,0,5.125,0,0.0,0.625,0,0,0,0,0,0,0,0,0,0.0,0,0.0,1,0.5,1,2.125,0,,,,,0,34,34,34,,,,,,,,,323.1886808749987,323.1886808749987,323.1886808749987,323.1886808749987,323.1886808749987,323.1886808749987,323.1886808749987,323.1886808749987,323.1081967503434,323.1886808749987,323.1886808749987,323.1886808749987,323.1081967503434,323.1886808749987,323.1886808749987,323.1886808749987,325.2818775839987,329.30490520902094,323.1886808749987,323.1886808749987,328.35535204201005,323.1886808749987,323.1886808749987,323.1886808749987,323.1886808749987,323.65498116699746,324.72374924999895,323.62480079167676,,325.2818775839987,326.35618012500345,325.25182354168305,326.30942504201084,323.1886808749987,328.35535204201005,323.1886808749987,328.35535204201005,328.39621000000625,329.04962095900555,323.1886808749987,1,1,1.0160303330048919,reldom2_s027,001,2025-02-26_16h29.42.702,Aud-B-Scan_AC,2022.2.5,None,
27,First_Order,5.0,audwhat,stimulus/audwhat_stim/dummy.wav,stimulus/audwhat_stim/dummy.wav,stimulus/audwhat_stim/string cello_low-pitch_Dtri_loud.wav,stimulus/audwhat_stim/percussion mallet_low-pitch_Dtri_loud.wav,stimulus/audwhat_stim/blank_white.png,stimulus/audwhat_stim/pitch_box.png,stimulus/audwhat_stim/pitch_yes.png,stimulus/audwhat_stim/pitch_no.png,None,Pitch,None,Pitch,1,0.0,0,5.125,0,5.125,0,5.125,0,0.0,0.625,0,0,0,0,0,0,0,0,0,0.0,0,0.0,1,0.5,1,2.125,0,,,,,0,35,35,35,,,,,,,,,329.30490520902094,329.30490520902094,329.30490520902094,329.30490520902094,329.30490520902094,329.30490520902094,329.30490520902094,329.30490520902094,329.22398054233247,329.30490520902094,329.30490520902094,329.30490520902094,329.22398054233247,329.30490520902094,329.30490520902094,329.30490520902094,331.3930542500166,,329.30490520902094,329.30490520902094,334.4582014589978,329.30490520902094,329.30490520902094,329.30490520902094,329.30490520902094,329.7706555420009,330.8375125419989,329.740982041669,,331.3930542500166,332.467004584003,331.3628552086632,,329.30490520902094,334.4582014589978,329.30490520902094,334.4582014589978,334.4994270419993,335.15316341700964,329.30490520902094,1,1,0.7549994169967249,reldom2_s027,001,2025-02-26_16h29.42.702,Aud-B-Scan_AC,2022.2.5,None,
28,First_Order,5.0,audwhat,stimulus/audwhat_stim/dummy.wav,stimulus/audwhat_stim/dummy.wav,stimulus/audwhat_stim/percussion xylophone_high-pitch_Ftri_loud.wav,stimulus/audwhat_stim/percussion mallet_low-pitch_F_loud.wav,stimulus/audwhat_stim/blank_white.png,stimulus/audwhat_stim/category_box.png,stimulus/audwhat_stim/category_yes.png,stimulus/audwhat_stim/category_no.png,None,Category,None,Category,1,0.0,0,5.125,0,5.125,0,5.125,0,0.0,0.625,0,0,0,0,0,0,0,0,0,0.0,0,0.0,1,0.5,1,2.125,0,,,,,0,36,36,36,,,,,,,,,335.4068929589994,335.4068929589994,335.4068929589994,335.4068929589994,335.4068929589994,335.4068929589994,335.4068929589994,335.4068929589994,335.3267472503377,335.4068929589994,335.4068929589994,335.4068929589994,335.3267472503377,335.4068929589994,335.4068929589994,335.4068929589994,337.50673687501694,,335.4068929589994,335.4068929589994,340.5858100000187,335.4068929589994,335.4068929589994,335.4068929589994,335.4068929589994,335.87647433401435,336.949022292014,335.84640208367296,336.9025287090044,337.50673687501694,338.5375800000038,337.47713200067324,,335.4068929589994,340.5858100000187,335.4068929589994,340.5858100000187,340.6272095000022,341.283566166996,335.4068929589994,1,1,0.6649958750058431,reldom2_s027,001,2025-02-26_16h29.42.702,Aud-B-Scan_AC,2022.2.5,None,
0,0.0,None,fixation,stimulus/audwhat_stim/blank_white.png,stimulus/audwhat_stim/blank_white.png,stimulus/audwhere_stim/blank_white.png,stimulus/audwhere_stim/blank_white.png,stimulus/audwhat_stim/blank_white.png,stimulus/audwhat_stim/blank_white.png,stimulus/audwhat_stim/blank_white.png,stimulus/audwhat_stim/blank_white.png,0.0,0.0,0.0,0.0,0,0.0,0,0.0,0,0.0,0,0.0,0,0.0,0.0,0,0,0,0,0,0,0,0,0,0.0,0,0.0,0,0.0,0,0.0,8,,,,,0,37,37,37,,,,,,,,,341.51748441701056,341.51748441701056,341.51748441701056,341.51748441701056,341.51748441701056,341.51748441701056,341.51748441701056,341.51748441701056,341.41689950032935,341.51748441701056,341.51748441701056,341.51748441701056,341.41689950032935,341.51748441701056,341.51748441701056,341.51748441701056,341.51748441701056,341.51748441701056,341.51748441701056,341.51748441701056,341.51748441701056,341.51748441701056,341.51748441701056,341.51748441701056,341.51748441701056,341.51748441701056,341.51748441701056,341.46689950032936,341.51748441701056,341.51748441701056,341.51748441701056,341.46689950032936,341.51748441701056,341.51748441701056,341.51748441701056,341.51748441701056,341.51748441701056,346.71482591700624,346.71482591700624,349.64797679201,None,0,,reldom2_s027,001,2025-02-26_16h29.42.702,Aud-B-Scan_AC,2022.2.5,None,
29,Second_Order,5.0,audwhat,stimulus/audwhat_stim/string viola_low-pitch_Dtri_loud.wav,stimulus/audwhat_stim/percussion mallet_low-pitch_Dtri_loud.wav,stimulus/audwhat_stim/string viola_low-pitch_Dtri_loud.wav,stimulus/audwhat_stim/string cello_high-pitch_Ftri_loud.wav,stimulus/audwhat_stim/match_blank.png,stimulus/audwhat_stim/match_box.png,stimulus/audwhat_stim/match_yes.png,stimulus/audwhat_stim/match_no.png,2.0,Match,Pitch,Category,2,5.125,0,5.125,0,5.125,0,5.125,0,0.75,0.75,0,0,0,0,0,0,0,0,1,0.5,1,2.125,1,0.5,1,2.125,0,,,,,0,38,38,38,,,,,,,,,349.64797679201,354.7698862499965,349.64797679201,349.64797679201,349.64797679201,349.64797679201,350.1044993750111,351.09374258402386,350.1065634586887,,351.73000783400494,352.7274698750116,351.74190620868853,,354.7698862499965,355.62273812500644,357.7026717920089,361.6207936250139,355.62273812500644,355.62273812500644,360.80954645900056,355.62273812500644,355.62273812500644,355.62273812500644,355.62273812500644,356.0389809590124,357.10058504200424,356.0088837506812,,357.7026717920089,358.77135895899846,357.67312154168417,,355.62273812500644,360.80954645900056,355.62273812500644,360.80954645900056,360.80954645900056,,355.62273812500644,1,0,0.9910088329925202,reldom2_s027,001,2025-02-26_16h29.42.702,Aud-B-Scan_AC,2022.2.5,None,
30,Second_Order,5.0,audwhat,stimulus/audwhat_stim/string viola_high-pitch_Ftri_loud.wav,stimulus/audwhat_stim/percussion xylophone_high-pitch_Ftri_loud.wav,stimulus/audwhat_stim/string viola_low-pitch_D_loud.wav,stimulus/audwhat_stim/percussion mallet_low-pitch_D_loud.wav,stimulus/audwhat_stim/match_blank.png,stimulus/audwhat_stim/match_box.png,stimulus/audwhat_stim/match_yes.png,stimulus/audwhat_stim/match_no.png,1.0,Match,Pitch,Pitch,1,5.125,0,5.125,0,5.125,0,5.125,0,0.625,0.625,0,0,0,0,0,0,0,0,1,0.5,1,2.125,1,0.5,1,2.125,0,,,,,0,39,39,39,,,,,,,,,361.6207936250139,366.74284533399623,361.6207936250139,361.6207936250139,361.6207936250139,361.6207936250139,362.0679837500211,363.05502708401764,362.0820922506721,,363.7029518750205,364.69182666699635,363.7062369166854,364.69182666699635,366.74284533399623,367.476416917023,369.54533941700356,,367.476416917023,367.476416917023,372.6370132090233,367.476416917023,367.476416917023,367.476416917023,367.476416917023,367.9362155419949,368.99332329200115,367.9068786256869,,369.54533941700356,370.6071135420061,369.51551787567246,,367.476416917023,372.6370132090233,367.476416917023,372.6370132090233,372.6370132090233,373.2858464590099,367.476416917023,1,1,0.5459234169975389,reldom2_s027,001,2025-02-26_16h29.42.702,Aud-B-Scan_AC,2022.2.5,None,
0,0.0,None,fixation,stimulus/audwhat_stim/blank_white.png,stimulus/audwhat_stim/blank_white.png,stimulus/audwhere_stim/blank_white.png,stimulus/audwhere_stim/blank_white.png,stimulus/audwhat_stim/blank_white.png,stimulus/audwhat_stim/blank_white.png,stimulus/audwhat_stim/blank_white.png,stimulus/audwhat_stim/blank_white.png,0.0,0.0,0.0,0.0,0,0.0,0,0.0,0,0.0,0,0.0,0,0.0,0.0,0,0,0,0,0,0,0,0,0,0.0,0,0.0,0,0.0,0,0.0,9,,,,,0,40,40,40,,,,,,,,,373.5601751670183,373.5601751670183,373.5601751670183,373.5601751670183,373.5601751670183,373.5601751670183,373.5601751670183,373.5601751670183,373.4592647503324,373.5601751670183,373.5601751670183,373.5601751670183,373.4592647503324,373.5601751670183,373.5601751670183,373.5601751670183,373.5601751670183,373.5601751670183,373.5601751670183,373.5601751670183,373.5601751670183,373.5601751670183,373.5601751670183,373.5601751670183,373.5601751670183,373.5601751670183,373.5601751670183,373.5092647503324,373.5601751670183,373.5601751670183,373.5601751670183,373.5092647503324,373.5601751670183,373.5601751670183,373.5601751670183,373.5601751670183,373.5601751670183,378.77098845900036,378.77098845900036,382.7848984170123,None,0,,reldom2_s027,001,2025-02-26_16h29.42.702,Aud-B-Scan_AC,2022.2.5,None,
31,First_Order,6.0,audwhat,stimulus/audwhat_stim/dummy.wav,stimulus/audwhat_stim/dummy.wav,stimulus/audwhat_stim/string viola_low-pitch_D_loud.wav,stimulus/audwhat_stim/percussion mallet_low-pitch_D_loud.wav,stimulus/audwhat_stim/blank_white.png,stimulus/audwhat_stim/category_box.png,stimulus/audwhat_stim/category_yes.png,stimulus/audwhat_stim/category_no.png,None,Category,None,Pitch,2,0.0,0,5.125,0,5.125,0,5.125,0,0.0,0.625,0,0,0,0,0,0,0,0,0,0.0,0,0.0,1,0.5,1,2.125,0,,,,,0,41,41,41,,,,,,,,,382.7848984170123,382.7848984170123,382.7848984170123,382.7848984170123,382.7848984170123,382.7848984170123,382.7848984170123,382.7848984170123,382.71346212566516,382.7848984170123,382.7848984170123,382.7848984170123,382.71346212566516,382.7848984170123,382.7848984170123,382.7848984170123,384.8794776670111,388.8982460840198,382.7848984170123,382.7848984170123,387.9490005840198,382.7848984170123,382.7848984170123,382.7848984170123,382.7848984170123,383.2512089590018,384.32200933402055,383.2210585416799,,384.8794776670111,385.954169042001,384.8495122916686,,382.7848984170123,387.9490005840198,382.7848984170123,387.9490005840198,387.99039650001214,388.64475458400557,382.7848984170123,2,1,0.7889592910069041,reldom2_s027,001,2025-02-26_16h29.42.702,Aud-B-Scan_AC,2022.2.5,None,
32,First_Order,6.0,audwhat,stimulus/audwhat_stim/dummy.wav,stimulus/audwhat_stim/dummy.wav,stimulus/audwhat_stim/percussion mallet_high-pitch_Dtri_loud.wav,stimulus/audwhat_stim/string viola_high-pitch_Dtri_loud.wav,stimulus/audwhat_stim/blank_white.png,stimulus/audwhat_stim/pitch_box.png,stimulus/audwhat_stim/pitch_yes.png,stimulus/audwhat_stim/pitch_no.png,None,Pitch,None,Pitch,1,0.0,0,5.125,0,5.125,0,5.125,0,0.0,0.625,0,0,0,0,0,0,0,0,0,0.0,0,0.0,1,0.5,1,2.125,0,,,,,0,42,42,42,,,,,,,,,388.8982460840198,388.8982460840198,388.8982460840198,388.8982460840198,388.8982460840198,388.8982460840198,388.8982460840198,388.8982460840198,388.81882783334197,388.8982460840198,388.8982460840198,388.8982460840198,388.81882783334197,388.8982460840198,388.8982460840198,388.8982460840198,390.9832104590023,,388.8982460840198,388.8982460840198,394.0469995420135,388.8982460840198,388.8982460840198,388.8982460840198,388.8982460840198,389.3611812090094,390.4308134590101,389.3314224586686,,390.9832104590023,392.05536758402013,390.95381716668294,,388.8982460840198,394.0469995420135,388.8982460840198,394.0469995420135,394.12897454202175,394.7831636670162,388.8982460840198,1,1,0.6962919159850571,reldom2_s027,001,2025-02-26_16h29.42.702,Aud-B-Scan_AC,2022.2.5,None,
33,First_Order,6.0,audwhat,stimulus/audwhat_stim/dummy.wav,stimulus/audwhat_stim/dummy.wav,stimulus/audwhat_stim/string cello_high-pitch_D_loud.wav,stimulus/audwhat_stim/string viola_low-pitch_F_loud.wav,stimulus/audwhat_stim/blank_white.png,stimulus/audwhat_stim/pitch_box.png,stimulus/audwhat_stim/pitch_yes.png,stimulus/audwhat_stim/pitch_no.png,None,Pitch,None,Category,2,0.0,0,5.125,0,5.125,0,5.125,0,0.0,0.625,0,0,0,0,0,0,0,0,0,0.0,0,0.0,1,0.5,1,2.125,0,,,,,0,43,43,43,,,,,,,,,394.99612358401646,394.99612358401646,394.99612358401646,394.99612358401646,394.99612358401646,394.99612358401646,394.99612358401646,394.99612358401646,394.9164970003495,394.99612358401646,394.99612358401646,394.99612358401646,394.9164970003495,394.99612358401646,394.99612358401646,394.99612358401646,397.0814222090121,,394.99612358401646,394.99612358401646,400.14792512499844,394.99612358401646,394.99612358401646,394.99612358401646,394.99612358401646,395.459778584016,396.5263966670027,395.4300697086767,,397.0814222090121,398.15274537500227,397.05179845868065,,394.99612358401646,400.14792512499844,394.99612358401646,400.14792512499844,400.1890215839958,400.8417618749954,394.99612358401646,2,1,0.8734026240126695,reldom2_s027,001,2025-02-26_16h29.42.702,Aud-B-Scan_AC,2022.2.5,None,
34,First_Order,6.0,audwhat,stimulus/audwhat_stim/dummy.wav,stimulus/audwhat_stim/dummy.wav,stimulus/audwhat_stim/percussion mallet_low-pitch_F_loud.wav,stimulus/audwhat_stim/string viola_low-pitch_F_loud.wav,stimulus/audwhat_stim/blank_white.png,stimulus/audwhat_stim/category_box.png,stimulus/audwhat_stim/category_yes.png,stimulus/audwhat_stim/category_no.png,None,Category,None,Pitch,2,0.0,0,5.125,0,5.125,0,5.125,0,0.0,0.625,0,0,0,0,0,0,0,0,0,0.0,0,0.0,1,0.5,1,2.125,0,,,,,0,44,44,44,,,,,,,,,401.09561154199764,401.09561154199764,401.09561154199764,401.09561154199764,401.09561154199764,401.09561154199764,401.09561154199764,401.09561154199764,401.0155890833431,401.09561154199764,401.09561154199764,401.09561154199764,401.0155890833431,401.09561154199764,401.09561154199764,401.09561154199764,403.1963260420016,,401.09561154199764,401.09561154199764,406.27537308400497,401.09561154199764,401.09561154199764,401.09561154199764,401.09561154199764,401.56406866700854,402.6373945840169,401.5325855836893,,403.1963260420016,404.2270067089994,403.16606720866207,,401.09561154199764,406.27537308400497,401.09561154199764,406.27537308400497,406.31663487502374,406.97226908401353,401.09561154199764,2,1,0.6895672910031863,reldom2_s027,001,2025-02-26_16h29.42.702,Aud-B-Scan_AC,2022.2.5,None,
0,0.0,None,fixation,stimulus/audwhat_stim/blank_white.png,stimulus/audwhat_stim/blank_white.png,stimulus/audwhere_stim/blank_white.png,stimulus/audwhere_stim/blank_white.png,stimulus/audwhat_stim/blank_white.png,stimulus/audwhat_stim/blank_white.png,stimulus/audwhat_stim/blank_white.png,stimulus/audwhat_stim/blank_white.png,0.0,0.0,0.0,0.0,0,0.0,0,0.0,0,0.0,0,0.0,0,0.0,0.0,0,0,0,0,0,0,0,0,0,0.0,0,0.0,0,0.0,0,0.0,9,,,,,0,45,45,45,,,,,,,,,407.2063842090138,407.2063842090138,407.2063842090138,407.2063842090138,407.2063842090138,407.2063842090138,407.2063842090138,407.2063842090138,407.10560241734686,407.2063842090138,407.2063842090138,407.2063842090138,407.10560241734686,407.2063842090138,407.2063842090138,407.2063842090138,407.2063842090138,407.2063842090138,407.2063842090138,407.2063842090138,407.2063842090138,407.2063842090138,407.2063842090138,407.2063842090138,407.2063842090138,407.2063842090138,407.2063842090138,407.15560241734687,407.2063842090138,407.2063842090138,407.2063842090138,407.15560241734687,407.2063842090138,407.2063842090138,407.2063842090138,407.2063842090138,407.2063842090138,412.40181829201174,412.40181829201174,416.3531339170004,None,0,,reldom2_s027,001,2025-02-26_16h29.42.702,Aud-B-Scan_AC,2022.2.5,None,
35,Second_Order,6.0,audwhat,stimulus/audwhat_stim/string cello_low-pitch_D_loud.wav,stimulus/audwhat_stim/percussion mallet_low-pitch_D_loud.wav,stimulus/audwhat_stim/percussion mallet_low-pitch_D_loud.wav,stimulus/audwhat_stim/percussion xylophone_high-pitch_Ftri_loud.wav,stimulus/audwhat_stim/match_blank.png,stimulus/audwhat_stim/match_box.png,stimulus/audwhat_stim/match_yes.png,stimulus/audwhat_stim/match_no.png,2.0,Match,Pitch,Category,2,5.125,0,5.125,0,5.125,0,5.125,0,0.75,0.75,0,0,0,0,0,0,0,0,1,0.5,1,2.125,1,0.5,1,2.125,0,,,,,0,46,46,46,,,,,,,,,416.3531339170004,421.4742809589952,416.3531339170004,416.3531339170004,416.3531339170004,416.3531339170004,416.8090464590059,417.79827850000584,416.8123257086884,,418.4339883750072,419.4316434590146,418.4459124586758,,421.4742809589952,422.3244138750015,424.40697224999894,428.3234746250091,422.3244138750015,422.3244138750015,427.51010495901573,422.3244138750015,422.3244138750015,422.3244138750015,422.3244138750015,422.74007770902244,423.8065325420175,422.71052275068746,,424.40697224999894,425.474114334007,424.37733604168557,425.4277062500187,422.3244138750015,427.51010495901573,422.3244138750015,427.51010495901573,427.51010495901573,,422.3244138750015,2,1,1.3334202920086682,reldom2_s027,001,2025-02-26_16h29.42.702,Aud-B-Scan_AC,2022.2.5,None,
36,Second_Order,6.0,audwhat,stimulus/audwhat_stim/string cello_low-pitch_Dtri_loud.wav,stimulus/audwhat_stim/percussion mallet_low-pitch_Dtri_loud.wav,stimulus/audwhat_stim/string viola_high-pitch_F_loud.wav,stimulus/audwhat_stim/percussion xylophone_high-pitch_F_loud.wav,stimulus/audwhat_stim/match_blank.png,stimulus/audwhat_stim/match_box.png,stimulus/audwhat_stim/match_yes.png,stimulus/audwhat_stim/match_no.png,1.0,Match,Pitch,Pitch,1,5.125,0,5.125,0,5.125,0,5.125,0,0.625,0.625,0,0,0,0,0,0,0,0,1,0.5,1,2.125,1,0.5,1,2.125,0,,,,,0,47,47,47,,,,,,,,,428.3234746250091,433.44736241700593,428.3234746250091,428.3234746250091,428.3234746250091,428.3234746250091,428.77315533399815,429.7718309170159,428.7861554586891,,430.40711641701637,431.3965850000095,430.41093016666514,,433.44736241700593,434.18083687502076,436.2494858750142,,434.18083687502076,434.18083687502076,439.3409353750176,434.18083687502076,434.18083687502076,434.18083687502076,434.18083687502076,434.63798366699484,435.6973632090085,434.6085782916673,,436.2494858750142,437.3103980839951,436.2205046256752,437.26416770901415,434.18083687502076,439.3409353750176,434.18083687502076,439.3409353750176,439.3409353750176,439.9921510000131,434.18083687502076,1,1,1.6063673330063466,reldom2_s027,001,2025-02-26_16h29.42.702,Aud-B-Scan_AC,2022.2.5,None,
0,0.0,None,fixation,stimulus/audwhat_stim/blank_white.png,stimulus/audwhat_stim/blank_white.png,stimulus/audwhere_stim/blank_white.png,stimulus/audwhere_stim/blank_white.png,stimulus/audwhat_stim/blank_white.png,stimulus/audwhat_stim/blank_white.png,stimulus/audwhat_stim/blank_white.png,stimulus/audwhat_stim/blank_white.png,0.0,0.0,0.0,0.0,0,0.0,0,0.0,0,0.0,0,0.0,0,0.0,0.0,0,0,0,0,0,0,0,0,0,0.0,0,0.0,0,0.0,0,0.0,10,,,,,0,48,48,48,,,,,,,,,440.2662384590076,440.2662384590076,440.2662384590076,440.2662384590076,440.2662384590076,440.2662384590076,440.2662384590076,440.2662384590076,440.1661521253428,440.2662384590076,440.2662384590076,440.2662384590076,440.1661521253428,440.2662384590076,440.2662384590076,440.2662384590076,440.2662384590076,440.2662384590076,440.2662384590076,440.2662384590076,440.2662384590076,440.2662384590076,440.2662384590076,440.2662384590076,440.2662384590076,440.2662384590076,440.2662384590076,440.21615212534283,440.2662384590076,440.2662384590076,440.2662384590076,440.21615212534283,440.2662384590076,440.2662384590076,440.2662384590076,440.2662384590076,440.2662384590076,445.4757515420206,445.4757515420206,450.51916883399826,None,0,,reldom2_s027,001,2025-02-26_16h29.42.702,Aud-B-Scan_AC,2022.2.5,None,
37,First_Order,7.0,audwhere,stimulus/audwhere_stim/dummy.wav,stimulus/audwhere_stim/dummy.wav,stimulus/audwhere_stim/right_toward_300h.wav,stimulus/audwhere_stim/left_toward_290h.wav,stimulus/audwhere_stim/blank_white.png,stimulus/audwhere_stim/direction_box.png,stimulus/audwhere_stim/direction_yes.png,stimulus/audwhere_stim/direction_no.png,None,Direction,None,Direction,1,0.0,0,5.125,0,5.125,0,5.125,0,0.0,0.625,0,0,0,0,0,0,0,0,0,0.0,0,0.0,1,0.5,1,2.125,0,,,,,0,49,49,49,,,,,,,,,450.51916883399826,450.51916883399826,450.51916883399826,450.51916883399826,450.51916883399826,450.51916883399826,450.51916883399826,450.51916883399826,450.44750583367806,450.51916883399826,450.51916883399826,450.51916883399826,450.44750583367806,450.51916883399826,450.51916883399826,450.51916883399826,452.6151601670135,456.6460616250115,450.51916883399826,450.51916883399826,455.6964239170193,450.51916883399826,450.51916883399826,450.51916883399826,450.51916883399826,450.98679566700594,452.05675779201556,450.956532958666,,452.6151601670135,453.68940175001626,452.5850917086684,,450.51916883399826,455.6964239170193,450.51916883399826,455.6964239170193,455.7376604170131,456.3925183750107,450.51916883399826,1,1,1.3144502500072122,reldom2_s027,001,2025-02-26_16h29.42.702,Aud-B-Scan_AC,2022.2.5,None,
38,First_Order,7.0,audwhere,stimulus/audwhere_stim/dummy.wav,stimulus/audwhere_stim/dummy.wav,stimulus/audwhere_stim/right_toward_290h.wav,stimulus/audwhere_stim/right_away_270h.wav,stimulus/audwhere_stim/blank_white.png,stimulus/audwhere_stim/side_box.png,stimulus/audwhere_stim/side_yes.png,stimulus/audwhere_stim/side_no.png,None,Side,None,Side,1,0.0,0,5.125,0,5.125,0,5.125,0,0.0,0.625,0,0,0,0,0,0,0,0,0,0.0,0,0.0,1,0.5,1,2.125,0,,,,,0,50,50,50,,,,,,,,,456.6460616250115,456.6460616250115,456.6460616250115,456.6460616250115,456.6460616250115,456.6460616250115,456.6460616250115,456.6460616250115,456.56626670833987,456.6460616250115,456.6460616250115,456.6460616250115,456.56626670833987,456.6460616250115,456.6460616250115,456.6460616250115,458.7316489170189,,456.6460616250115,456.6460616250115,461.7956265840039,456.6460616250115,456.6460616250115,456.6460616250115,456.6460616250115,457.1101566670113,458.17593945900444,457.07999370867424,,458.7316489170189,459.80610187500133,458.70205237568393,,456.6460616250115,461.7956265840039,456.6460616250115,461.7956265840039,461.83686820900766,462.48779574999935,456.6460616250115,1,1,0.760784498997964,reldom2_s027,001,2025-02-26_16h29.42.702,Aud-B-Scan_AC,2022.2.5,None,
39,First_Order,7.0,audwhere,stimulus/audwhere_stim/dummy.wav,stimulus/audwhere_stim/dummy.wav,stimulus/audwhere_stim/left_away_290h.wav,stimulus/audwhere_stim/left_toward_290h.wav,stimulus/audwhere_stim/blank_white.png,stimulus/audwhere_stim/direction_box.png,stimulus/audwhere_stim/direction_yes.png,stimulus/audwhere_stim/direction_no.png,None,Direction,None,Side,2,0.0,0,5.125,0,5.125,0,5.125,0,0.0,0.625,0,0,0,0,0,0,0,0,0,0.0,0,0.0,1,0.5,1,2.125,0,,,,,0,51,51,51,,,,,,,,,462.74084608402336,462.74084608402336,462.74084608402336,462.74084608402336,462.74084608402336,462.74084608402336,462.74084608402336,462.74084608402336,462.6617135003345,462.74084608402336,462.74084608402336,462.74084608402336,462.6617135003345,462.74084608402336,462.74084608402336,462.74084608402336,464.84126275000744,468.87131104202126,462.74084608402336,462.74084608402336,467.9199542920105,462.74084608402336,462.74084608402336,462.74084608402336,462.74084608402336,463.20834520901553,464.2816073750146,463.1781548756737,,464.84126275000744,465.9169585840136,464.8110744586777,,462.74084608402336,467.9199542920105,462.74084608402336,467.9199542920105,467.96113829201204,468.6171463339997,462.74084608402336,2,1,1.4467985829978716,reldom2_s027,001,2025-02-26_16h29.42.702,Aud-B-Scan_AC,2022.2.5,None,
40,First_Order,7.0,audwhere,stimulus/audwhere_stim/dummy.wav,stimulus/audwhere_stim/dummy.wav,stimulus/audwhere_stim/right_away_280h.wav,stimulus/audwhere_stim/right_toward_290h.wav,stimulus/audwhere_stim/blank_white.png,stimulus/audwhere_stim/direction_box.png,stimulus/audwhere_stim/direction_yes.png,stimulus/audwhere_stim/direction_no.png,None,Direction,None,Side,2,0.0,0,5.125,0,5.125,0,5.125,0,0.0,0.625,0,0,0,0,0,0,0,0,0,0.0,0,0.0,1,0.5,1,2.125,0,,,,,0,52,52,52,,,,,,,,,468.87131104202126,468.87131104202126,468.87131104202126,468.87131104202126,468.87131104202126,468.87131104202126,468.87131104202126,468.87131104202126,468.7914798333387,468.87131104202126,468.87131104202126,468.87131104202126,468.7914798333387,468.87131104202126,468.87131104202126,468.87131104202126,470.97132404200966,,468.87131104202126,468.87131104202126,474.0525336250139,468.87131104202126,468.87131104202126,468.87131104202126,468.87131104202126,469.337589458999,470.41157650001696,469.3076361256865,,470.97132404200966,472.04861029199674,470.9411113756689,,468.87131104202126,474.0525336250139,468.87131104202126,474.0525336250139,474.09389783401275,474.75066449999576,468.87131104202126,2,1,1.0443377500050701,reldom2_s027,001,2025-02-26_16h29.42.702,Aud-B-Scan_AC,2022.2.5,None,
0,0.0,None,fixation,stimulus/audwhat_stim/blank_white.png,stimulus/audwhat_stim/blank_white.png,stimulus/audwhere_stim/blank_white.png,stimulus/audwhere_stim/blank_white.png,stimulus/audwhat_stim/blank_white.png,stimulus/audwhat_stim/blank_white.png,stimulus/audwhat_stim/blank_white.png,stimulus/audwhat_stim/blank_white.png,0.0,0.0,0.0,0.0,0,0.0,0,0.0,0,0.0,0,0.0,0,0.0,0.0,0,0,0,0,0,0,0,0,0,0.0,0,0.0,0,0.0,0,0.0,8,,,,,0,53,53,53,,,,,,,,,474.9840221250197,474.9840221250197,474.9840221250197,474.9840221250197,474.9840221250197,474.9840221250197,474.9840221250197,474.9840221250197,474.8839978333291,474.9840221250197,474.9840221250197,474.9840221250197,474.8839978333291,474.9840221250197,474.9840221250197,474.9840221250197,474.9840221250197,474.9840221250197,474.9840221250197,474.9840221250197,474.9840221250197,474.9840221250197,474.9840221250197,474.9840221250197,474.9840221250197,474.9840221250197,474.9840221250197,474.9339978333291,474.9840221250197,474.9840221250197,474.9840221250197,474.9339978333291,474.9840221250197,474.9840221250197,474.9840221250197,474.9840221250197,474.9840221250197,480.190230334003,480.190230334003,483.1216023339948,None,0,,reldom2_s027,001,2025-02-26_16h29.42.702,Aud-B-Scan_AC,2022.2.5,None,
41,Second_Order,7.0,audwhere,stimulus/audwhere_stim/left_toward_300h.wav,stimulus/audwhere_stim/right_toward_280h.wav,stimulus/audwhere_stim/right_toward_270h.wav,stimulus/audwhere_stim/right_away_290h.wav,stimulus/audwhat_stim/match_blank.png,stimulus/audwhat_stim/match_box.png,stimulus/audwhat_stim/match_yes.png,stimulus/audwhat_stim/match_no.png,2.0,Match,Direction,Side,2,5.125,0,5.125,0,5.125,0,5.125,0,0.75,0.75,0,0,0,0,0,0,0,0,1,0.5,1,2.125,1,0.5,1,2.125,0,,,,,0,54,54,54,,,,,,,,,483.1216023339948,488.2460976250004,483.1216023339948,483.1216023339948,483.1216023339948,483.1216023339948,483.57939883400104,484.5689509170188,483.58154295868394,,485.20450066702324,486.20259979201364,485.21685150068174,,488.2460976250004,489.0953456670104,491.1756203340192,495.09213412500685,489.0953456670104,489.0953456670104,494.28020508401096,489.0953456670104,489.0953456670104,489.0953456670104,489.0953456670104,489.51023320900276,490.57512158399913,489.4802113336666,,491.1756203340192,492.24375354201766,491.1458098336627,,489.0953456670104,494.28020508401096,489.0953456670104,494.28020508401096,494.28020508401096,,489.0953456670104,2,1,1.3607109160220716,reldom2_s027,001,2025-02-26_16h29.42.702,Aud-B-Scan_AC,2022.2.5,None,
42,Second_Order,7.0,audwhere,stimulus/audwhere_stim/right_toward_290h.wav,stimulus/audwhere_stim/left_toward_270h.wav,stimulus/audwhere_stim/left_toward_290h.wav,stimulus/audwhere_stim/left_away_280h.wav,stimulus/audwhat_stim/match_blank.png,stimulus/audwhat_stim/match_box.png,stimulus/audwhat_stim/match_yes.png,stimulus/audwhat_stim/match_no.png,2.0,Match,Direction,Side,2,5.125,0,5.125,0,5.125,0,5.125,0,0.625,0.625,0,0,0,0,0,0,0,0,1,0.5,1,2.125,1,0.5,1,2.125,0,,,,,0,55,55,55,,,,,,,,,495.09213412500685,500.20540683402214,495.09213412500685,495.09213412500685,495.09213412500685,495.09213412500685,495.54444383402006,496.54301716701593,495.5572175006712,,497.16603429202223,498.1632351670123,497.178047500671,,500.20540683402214,500.93625529200654,502.9993386249989,,500.93625529200654,500.93625529200654,506.0959205420222,500.93625529200654,500.93625529200654,500.93625529200654,500.93625529200654,501.3924603339983,502.4480585840065,501.36358433368537,,502.9993386249989,504.0634319999954,502.97001170867975,,500.93625529200654,506.0959205420222,500.93625529200654,506.0959205420222,506.0959205420222,506.74575108400313,500.93625529200654,1,0,0.9200592080014758,reldom2_s027,001,2025-02-26_16h29.42.702,Aud-B-Scan_AC,2022.2.5,None,
0,0.0,None,fixation,stimulus/audwhat_stim/blank_white.png,stimulus/audwhat_stim/blank_white.png,stimulus/audwhere_stim/blank_white.png,stimulus/audwhere_stim/blank_white.png,stimulus/audwhat_stim/blank_white.png,stimulus/audwhat_stim/blank_white.png,stimulus/audwhat_stim/blank_white.png,stimulus/audwhat_stim/blank_white.png,0.0,0.0,0.0,0.0,0,0.0,0,0.0,0,0.0,0,0.0,0,0.0,0.0,0,0,0,0,0,0,0,0,0,0.0,0,0.0,0,0.0,0,0.0,10,,,,,0,56,56,56,,,,,,,,,507.01949983401573,507.01949983401573,507.01949983401573,507.01949983401573,507.01949983401573,507.01949983401573,507.01949983401573,507.01949983401573,506.91938783333364,507.01949983401573,507.01949983401573,507.01949983401573,506.91938783333364,507.01949983401573,507.01949983401573,507.01949983401573,507.01949983401573,507.01949983401573,507.01949983401573,507.01949983401573,507.01949983401573,507.01949983401573,507.01949983401573,507.01949983401573,507.01949983401573,507.01949983401573,507.01949983401573,506.96938783333366,507.01949983401573,507.01949983401573,507.01949983401573,506.96938783333366,507.01949983401573,507.01949983401573,507.01949983401573,507.01949983401573,507.01949983401573,512.2366836669971,512.2366836669971,517.2720404590073,None,0,,reldom2_s027,001,2025-02-26_16h29.42.702,Aud-B-Scan_AC,2022.2.5,None,
43,First_Order,8.0,audwhere,stimulus/audwhere_stim/dummy.wav,stimulus/audwhere_stim/dummy.wav,stimulus/audwhere_stim/right_toward_270h.wav,stimulus/audwhere_stim/left_toward_300h.wav,stimulus/audwhere_stim/blank_white.png,stimulus/audwhere_stim/side_box.png,stimulus/audwhere_stim/side_yes.png,stimulus/audwhere_stim/side_no.png,None,Side,None,Direction,2,0.0,0,5.125,0,5.125,0,5.125,0,0.0,0.625,0,0,0,0,0,0,0,0,0,0.0,0,0.0,1,0.5,1,2.125,0,,,,,0,57,57,57,,,,,,,,,517.2720404590073,517.2720404590073,517.2720404590073,517.2720404590073,517.2720404590073,517.2720404590073,517.2720404590073,517.2720404590073,517.2008875006674,517.2720404590073,517.2720404590073,517.2720404590073,517.2008875006674,517.2720404590073,517.2720404590073,517.2720404590073,519.3585615000047,,517.2720404590073,517.2720404590073,522.4215450000193,517.2720404590073,517.2720404590073,517.2720404590073,517.2720404590073,517.7368206249957,518.8031541250239,517.7073195416635,,519.3585615000047,520.4305648340087,519.328792333665,,517.2720404590073,522.4215450000193,517.2720404590073,522.4215450000193,522.4625397089985,523.1150777090224,517.2720404590073,2,1,1.0013848750095349,reldom2_s027,001,2025-02-26_16h29.42.702,Aud-B-Scan_AC,2022.2.5,None,
44,First_Order,8.0,audwhere,stimulus/audwhere_stim/dummy.wav,stimulus/audwhere_stim/dummy.wav,stimulus/audwhere_stim/right_toward_270h.wav,stimulus/audwhere_stim/left_toward_280h.wav,stimulus/audwhere_stim/blank_white.png,stimulus/audwhere_stim/side_box.png,stimulus/audwhere_stim/side_yes.png,stimulus/audwhere_stim/side_no.png,None,Side,None,Direction,2,0.0,0,5.125,0,5.125,0,5.125,0,0.0,0.625,0,0,0,0,0,0,0,0,0,0.0,0,0.0,1,0.5,1,2.125,0,,,,,0,58,58,58,,,,,,,,,523.3677712500212,523.3677712500212,523.3677712500212,523.3677712500212,523.3677712500212,523.3677712500212,523.3677712500212,523.3677712500212,523.2890492503376,523.3677712500212,523.3677712500212,523.3677712500212,523.2890492503376,523.3677712500212,523.3677712500212,523.3677712500212,525.4536929590104,,523.3677712500212,523.3677712500212,528.56203250002,523.3677712500212,523.3677712500212,523.3677712500212,523.3677712500212,523.8323260420002,524.8978822090139,523.8023149166877,,525.4536929590104,526.5240832090203,525.4238075006617,,523.3677712500212,528.56203250002,523.3677712500212,528.56203250002,528.56203250002,529.2184265000105,523.3677712500212,2,1,1.2340375409985427,reldom2_s027,001,2025-02-26_16h29.42.702,Aud-B-Scan_AC,2022.2.5,None,
45,First_Order,8.0,audwhere,stimulus/audwhere_stim/dummy.wav,stimulus/audwhere_stim/dummy.wav,stimulus/audwhere_stim/right_toward_270h.wav,stimulus/audwhere_stim/left_toward_290h.wav,stimulus/audwhere_stim/blank_white.png,stimulus/audwhere_stim/direction_box.png,stimulus/audwhere_stim/direction_yes.png,stimulus/audwhere_stim/direction_no.png,None,Direction,None,Direction,1,0.0,0,5.125,0,5.125,0,5.125,0,0.0,0.625,0,0,0,0,0,0,0,0,0,0.0,0,0.0,1,0.5,1,2.125,0,,,,,0,59,59,59,,,,,,,,,529.4717536249955,529.4717536249955,529.4717536249955,529.4717536249955,529.4717536249955,529.4717536249955,529.4717536249955,529.4717536249955,529.3925477503527,529.4717536249955,529.4717536249955,529.4717536249955,529.3925477503527,529.4717536249955,529.4717536249955,529.4717536249955,531.5705349170021,,529.4717536249955,529.4717536249955,534.6529165840184,529.4717536249955,529.4717536249955,529.4717536249955,529.4717536249955,529.9395648339996,531.0114840840106,529.9094950836773,,531.5705349170021,532.6020689590077,531.539584458664,,529.4717536249955,534.6529165840184,529.4717536249955,534.6529165840184,534.6941922090191,535.3497780000034,529.4717536249955,1,1,1.367844458000036,reldom2_s027,001,2025-02-26_16h29.42.702,Aud-B-Scan_AC,2022.2.5,None,
46,First_Order,8.0,audwhere,stimulus/audwhere_stim/dummy.wav,stimulus/audwhere_stim/dummy.wav,stimulus/audwhere_stim/left_away_300h.wav,stimulus/audwhere_stim/left_toward_300h.wav,stimulus/audwhere_stim/blank_white.png,stimulus/audwhere_stim/side_box.png,stimulus/audwhere_stim/side_yes.png,stimulus/audwhere_stim/side_no.png,None,Side,None,Side,1,0.0,0,5.125,0,5.125,0,5.125,0,0.0,0.625,0,0,0,0,0,0,0,0,0,0.0,0,0.0,1,0.5,1,2.125,0,,,,,0,60,60,60,,,,,,,,,535.5642169589992,535.5642169589992,535.5642169589992,535.5642169589992,535.5642169589992,535.5642169589992,535.5642169589992,535.5642169589992,535.4831113333368,535.5642169589992,535.5642169589992,535.5642169589992,535.4831113333368,535.5642169589992,535.5642169589992,535.5642169589992,537.6541436670232,,535.5642169589992,535.5642169589992,540.7187069590145,535.5642169589992,535.5642169589992,535.5642169589992,535.5642169589992,536.0293763750233,537.0973343340156,535.9994497506743,,537.6541436670232,538.723315167008,537.624436000686,,535.5642169589992,540.7187069590145,535.5642169589992,540.7187069590145,540.7597466669977,541.4154643340153,535.5642169589992,2,0,1.6931429579854012,reldom2_s027,001,2025-02-26_16h29.42.702,Aud-B-Scan_AC,2022.2.5,None,
0,0.0,None,fixation,stimulus/audwhat_stim/blank_white.png,stimulus/audwhat_stim/blank_white.png,stimulus/audwhere_stim/blank_white.png,stimulus/audwhere_stim/blank_white.png,stimulus/audwhat_stim/blank_white.png,stimulus/audwhat_stim/blank_white.png,stimulus/audwhat_stim/blank_white.png,stimulus/audwhat_stim/blank_white.png,0.0,0.0,0.0,0.0,0,0.0,0,0.0,0,0.0,0,0.0,0,0.0,0.0,0,0,0,0,0,0,0,0,0,0.0,0,0.0,0,0.0,0,0.0,9,,,,,0,61,61,61,,,,,,,,,541.6906496250012,541.6906496250012,541.6906496250012,541.6906496250012,541.6906496250012,541.6906496250012,541.6906496250012,541.6906496250012,541.5899445003325,541.6906496250012,541.6906496250012,541.6906496250012,541.5899445003325,541.6906496250012,541.6906496250012,541.6906496250012,541.6906496250012,541.6906496250012,541.6906496250012,541.6906496250012,541.6906496250012,541.6906496250012,541.6906496250012,541.6906496250012,541.6906496250012,541.6906496250012,541.6906496250012,541.6399445003325,541.6906496250012,541.6906496250012,541.6906496250012,541.6399445003325,541.6906496250012,541.6906496250012,541.6906496250012,541.6906496250012,541.6906496250012,546.8829883750004,546.8829883750004,550.837660500023,None,0,,reldom2_s027,001,2025-02-26_16h29.42.702,Aud-B-Scan_AC,2022.2.5,None,
47,Second_Order,8.0,audwhere,stimulus/audwhere_stim/right_away_300h.wav,stimulus/audwhere_stim/right_toward_270h.wav,stimulus/audwhere_stim/left_away_280h.wav,stimulus/audwhere_stim/left_toward_270h.wav,stimulus/audwhat_stim/match_blank.png,stimulus/audwhat_stim/match_box.png,stimulus/audwhat_stim/match_yes.png,stimulus/audwhat_stim/match_no.png,1.0,Match,Side,Side,1,5.125,0,5.125,0,5.125,0,5.125,0,0.75,0.75,0,0,0,0,0,0,0,0,1,0.5,1,2.125,1,0.5,1,2.125,0,,,,,0,62,62,62,,,,,,,,,550.837660500023,555.9515216670115,550.837660500023,550.837660500023,550.837660500023,550.837660500023,551.2884882920189,552.2761131669977,551.3025965416784,,552.911212750012,553.90874850002,552.9235068756718,,555.9515216670115,556.8016349590034,558.8824382500025,562.8039437920088,556.8016349590034,556.8016349590034,561.9936205420236,556.8016349590034,556.8016349590034,556.8016349590034,556.8016349590034,557.2169058340078,558.2821428750176,557.186921375662,,558.8824382500025,559.9512968340132,558.8528610416727,,556.8016349590034,561.9936205420236,556.8016349590034,561.9936205420236,561.9936205420236,,556.8016349590034,1,1,1.186478999996325,reldom2_s027,001,2025-02-26_16h29.42.702,Aud-B-Scan_AC,2022.2.5,None,
48,Second_Order,8.0,audwhere,stimulus/audwhere_stim/right_toward_270h.wav,stimulus/audwhere_stim/right_away_270h.wav,stimulus/audwhere_stim/left_away_280h.wav,stimulus/audwhere_stim/left_toward_290h.wav,stimulus/audwhat_stim/match_blank.png,stimulus/audwhat_stim/match_box.png,stimulus/audwhat_stim/match_yes.png,stimulus/audwhat_stim/match_no.png,1.0,Match,Side,Side,1,5.125,0,5.125,0,5.125,0,5.125,0,0.625,0.625,0,0,0,0,0,0,0,0,1,0.5,1,2.125,1,0.5,1,2.125,0,,,,,0,63,63,63,,,,,,,,,562.8039437920088,567.9300751670089,562.8039437920088,562.8039437920088,562.8039437920088,562.8039437920088,563.2637050420162,564.2531826670165,563.2669520836828,,564.8884678750183,565.886701875017,564.9006696666804,,567.9300751670089,568.6582329170196,570.7281437090132,,568.6582329170196,568.6582329170196,573.8319248750049,568.6582329170196,568.6582329170196,568.6582329170196,568.6582329170196,569.1159236670064,570.1758830420149,569.0862930416808,,570.7281437090132,571.794242834003,570.6987230416892,,568.6582329170196,573.8319248750049,568.6582329170196,573.8319248750049,573.8319248750049,574.4837944589963,568.6582329170196,1,1,1.075340248993598,reldom2_s027,001,2025-02-26_16h29.42.702,Aud-B-Scan_AC,2022.2.5,None,
0,0.0,None,fixation,stimulus/audwhat_stim/blank_white.png,stimulus/audwhat_stim/blank_white.png,stimulus/audwhere_stim/blank_white.png,stimulus/audwhere_stim/blank_white.png,stimulus/audwhat_stim/blank_white.png,stimulus/audwhat_stim/blank_white.png,stimulus/audwhat_stim/blank_white.png,stimulus/audwhat_stim/blank_white.png,0.0,0.0,0.0,0.0,0,0.0,0,0.0,0,0.0,0,0.0,0,0.0,0.0,0,0,0,0,0,0,0,0,0,0.0,0,0.0,0,0.0,0,0.0,16,,,,,0,64,64,64,,,,,,,,,574.7578297500149,574.7578297500149,574.7578297500149,574.7578297500149,574.7578297500149,574.7578297500149,574.7578297500149,574.7578297500149,574.6575459173492,574.7578297500149,574.7578297500149,574.7578297500149,574.6575459173492,574.7578297500149,574.7578297500149,574.7578297500149,574.7578297500149,574.7578297500149,574.7578297500149,574.7578297500149,574.7578297500149,574.7578297500149,574.7578297500149,574.7578297500149,574.7578297500149,574.7578297500149,574.7578297500149,574.7075459173492,574.7578297500149,574.7578297500149,574.7578297500149,574.7075459173492,574.7578297500149,574.7578297500149,574.7578297500149,574.7578297500149,574.7578297500149,579.9803103340091,579.9803103340091,590.8955234170135,None,0,,reldom2_s027,001,2025-02-26_16h29.42.702,Aud-B-Scan_AC,2022.2.5,None,
