Trial,Order,Block,Type,Stimuli_File1,Stimuli_File2,Stimuli_File3,Stimuli_File4,Cue_File1,Cue_File2,Response_File_Yes,Response_File_No,Match,Cue_Dimension,Pair1_Dimension,Pair2_Dimension,Key,Cue1_Duration,Cue1_Onset,Cue2_Duration,Cue2_Onset,ResponseYes_Duration,ResponseYes_Onset,ResponseNo_Duration,ResponseNo_Onset,ITI_Within,ITI_Between,Image1_Duration,Image1_Onset,Image2_Duration,Image2_Onset,Image3_Duration,Image3_Onset,Image4_Duration,Image4_Onset,Sound1_Duration,Sound1_Onset,Sound2_Duration,Sound2_Onset,Sound3_Duration,Sound3_Onset,Sound4_Duration,Sound4_Onset,Fixation_Duration,trials_2.thisRepN,trials_2.thisTrialN,trials_2.thisN,trials_2.thisIndex,trials.thisRepN,trials.thisTrialN,trials.thisN,trials.thisIndex,text_start.started,key_resp_start.started,key_resp_start.keys,key_resp_start.rt,text2.started,key_resp_2.started,key_resp_2.keys,key_resp_2.rt,cue_file1.started,cue_file1.stopped,image_1.started,image_1.stopped,image_2.started,image_2.stopped,sound_icon1.started,sound_icon1.stopped,sound_1.started,sound_1.stopped,sound_icon2.started,sound_icon2.stopped,sound_2.started,sound_2.stopped,image_blank_1.started,image_blank_1.stopped,key_press.started,key_press.stopped,fixation_text.started,cue_file2.started,cue_file2.stopped,image_3.started,image_3.stopped,image_4.started,image_4.stopped,sound_icon3.started,sound_icon3.stopped,sound_3.started,sound_3.stopped,sound_icon4.started,sound_icon4.stopped,sound_4.started,sound_4.stopped,response_yes.started,response_yes.stopped,response_no.started,response_no.stopped,iti_blank.started,iti_blank.stopped,fixation_text.stopped,key_press.keys,key_press.corr,key_press.rt,participant,session,date,expName,psychopyVersion,frameRate,
,,,,,,,,,,,,,,,,,,,,,,,,,,,,,,,,,,,,,,,,,,,,,,,,,,,,8.128867999999784,8.128867999999784,2,1.2425756659940816,,,,,,,,,,,,,,,,,,,,,,,,,,,,,,,,,,,,,,,,,,,,,,,,reldom2_s027,001,2025-02-26_16h18.10.940,Where-B-Scan_AC,2022.2.5,None,
,,,,,,,,,,,,,,,,,,,,,,,,,,,,,,,,,,,,,,,,,,,,0,0,0,0,,,,,,,,,9.405935875023715,9.405935875023715,5,43.211880124988966,,,,,,,,,,,,,,,,,,,,,,,,,,,,,,,,,,,,,,,,,,,,reldom2_s027,001,2025-02-26_16h18.10.940,Where-B-Scan_AC,2022.2.5,None,
,,,,,,,,,,,,,,,,,,,,,,,,,,,,,,,,,,,,,,,,,,,,1,0,1,0,,,,,,,,,52.63115966701298,52.63115966701298,5,1.9855327910045162,,,,,,,,,,,,,,,,,,,,,,,,,,,,,,,,,,,,,,,,,,,,reldom2_s027,001,2025-02-26_16h18.10.940,Where-B-Scan_AC,2022.2.5,None,
,,,,,,,,,,,,,,,,,,,,,,,,,,,,,,,,,,,,,,,,,,,,2,0,2,0,,,,,,,,,54.631606125010876,54.631606125010876,5,1.9861278329917695,,,,,,,,,,,,,,,,,,,,,,,,,,,,,,,,,,,,,,,,,,,,reldom2_s027,001,2025-02-26_16h18.10.940,Where-B-Scan_AC,2022.2.5,None,
,,,,,,,,,,,,,,,,,,,,,,,,,,,,,,,,,,,,,,,,,,,,3,0,3,0,,,,,,,,,56.63303470800747,56.63303470800747,5,1.9835590000147931,,,,,,,,,,,,,,,,,,,,,,,,,,,,,,,,,,,,,,,,,,,,reldom2_s027,001,2025-02-26_16h18.10.940,Where-B-Scan_AC,2022.2.5,None,
0,0.0,None,fixation,stimulus/audwhere_stim/blank_white.png,stimulus/audwhere_stim/blank_white.png,stimulus/viswhere_stim/blank_white.png,stimulus/viswhere_stim/blank_white.png,stimulus/audwhere_stim/blank_white.png,stimulus/audwhere_stim/blank_white.png,stimulus/audwhere_stim/blank_white.png,stimulus/audwhere_stim/blank_white.png,0.0,0.0,0.0,0.0,0,0.0,0,0.0,0,0.0,0,0.0,0,0.0,0.0,0,0.0,0,0.0,0,0.0,0,0.0,0,0.0,0,0.0,0,0.0,0,0.0,16,,,,,0,0,0,0,,,,,,,,,58.82755637500668,58.82755637500668,58.82755637500668,58.82755637500668,58.82755637500668,58.82755637500668,58.82755637500668,58.82755637500668,58.73315337468909,58.82755637500668,58.82755637500668,58.82755637500668,58.73315337468909,58.82755637500668,58.82755637500668,58.82755637500668,58.82755637500668,58.82755637500668,58.82755637500668,58.82755637500668,58.82755637500668,58.82755637500668,58.82755637500668,58.82755637500668,58.82755637500668,58.82755637500668,58.82755637500668,58.783153374689086,58.82755637500668,58.82755637500668,58.82755637500668,58.783153374689086,58.82755637500668,58.82755637500668,58.82755637500668,58.82755637500668,58.82755637500668,64.03906212502625,64.03906212502625,75.0391607080237,None,0,,reldom2_s027,001,2025-02-26_16h18.10.940,Where-B-Scan_AC,2022.2.5,None,
1,First_Order,1.0,audwhere,stimulus/audwhere_stim/dummy.wav,stimulus/audwhere_stim/dummy.wav,stimulus/audwhere_stim/right_away_290h.wav,stimulus/audwhere_stim/right_toward_300h.wav,stimulus/audwhere_stim/blank_white.png,stimulus/audwhere_stim/direction_box.png,stimulus/audwhere_stim/direction_yes.png,stimulus/audwhere_stim/direction_no.png,None,Direction,None,Side,2,0.0,0,5.125,0,5.125,0,5.125,0,0.0,0.625,0,0.0,0,0.0,0,0.0,0,0.0,0,0.0,0,0.0,1,0.5,1,2.125,0,,,,,0,1,1,1,,,,,,,,,75.0391607080237,75.0391607080237,75.0391607080237,75.0391607080237,75.0391607080237,75.0391607080237,75.0391607080237,75.0391607080237,74.97169233300374,75.0391607080237,75.0391607080237,75.0391607080237,74.97169233300374,75.0391607080237,75.0391607080237,75.0391607080237,77.15437379200011,,75.0391607080237,75.0391607080237,80.19233258301392,75.0391607080237,75.0391607080237,75.0391607080237,75.0391607080237,75.52392416700604,76.58032554201782,75.49640024968927,,77.15437379200011,78.21320704201935,77.12690887466694,,75.0391607080237,80.19233258301392,75.0391607080237,80.19233258301392,80.23132220801199,80.8913623750268,75.0391607080237,2,1,1.631535459018778,reldom2_s027,001,2025-02-26_16h18.10.940,Where-B-Scan_AC,2022.2.5,None,
2,First_Order,1.0,audwhere,stimulus/audwhere_stim/dummy.wav,stimulus/audwhere_stim/dummy.wav,stimulus/audwhere_stim/left_toward_290h.wav,stimulus/audwhere_stim/right_toward_280h.wav,stimulus/audwhere_stim/blank_white.png,stimulus/audwhere_stim/side_box.png,stimulus/audwhere_stim/side_yes.png,stimulus/audwhere_stim/side_no.png,None,Side,None,Direction,2,0.0,0,5.125,0,5.125,0,5.125,0,0.0,0.625,0,0.0,0,0.0,0,0.0,0,0.0,0,0.0,0,0.0,1,0.5,1,2.125,0,,,,,0,2,2,2,,,,,,,,,81.13310775000718,81.13310775000718,81.13310775000718,81.13310775000718,81.13310775000718,81.13310775000718,81.13310775000718,81.13310775000718,81.06359454133974,81.13310775000718,81.13310775000718,81.13310775000718,81.06359454133974,81.13310775000718,81.13310775000718,81.13310775000718,83.24255666701356,,81.13310775000718,81.13310775000718,86.27903816700564,81.13310775000718,81.13310775000718,81.13310775000718,81.13310775000718,81.6160327079997,82.67159974999959,81.58877533369038,,83.24255666701356,84.30051091700443,83.21521324967422,,81.13310775000718,86.27903816700564,81.13310775000718,86.27903816700564,86.35664720801287,87.01674295801786,81.13310775000718,2,1,0.6902089999930467,reldom2_s027,001,2025-02-26_16h18.10.940,Where-B-Scan_AC,2022.2.5,None,
3,First_Order,1.0,audwhere,stimulus/audwhere_stim/dummy.wav,stimulus/audwhere_stim/dummy.wav,stimulus/audwhere_stim/right_toward_280h.wav,stimulus/audwhere_stim/right_away_300h.wav,stimulus/audwhere_stim/blank_white.png,stimulus/audwhere_stim/direction_box.png,stimulus/audwhere_stim/direction_yes.png,stimulus/audwhere_stim/direction_no.png,None,Direction,None,Side,2,0.0,0,5.125,0,5.125,0,5.125,0,0.0,0.625,0,0.0,0,0.0,0,0.0,0,0.0,0,0.0,0,0.0,1,0.5,1,2.125,0,,,,,0,3,3,3,,,,,,,,,87.21875383300357,87.21875383300357,87.21875383300357,87.21875383300357,87.21875383300357,87.21875383300357,87.21875383300357,87.21875383300357,87.15007629135118,87.21875383300357,87.21875383300357,87.21875383300357,87.15007629135118,87.21875383300357,87.21875383300357,87.21875383300357,89.30213045800338,,87.21875383300357,87.21875383300357,92.40861412501545,87.21875383300357,87.21875383300357,87.21875383300357,87.21875383300357,87.7062582920189,88.77162570800283,87.67845999967928,,89.30213045800338,90.36775820801267,89.2743116666718,,87.21875383300357,92.40861412501545,87.21875383300357,92.40861412501545,92.44772995801759,93.11173816700466,87.21875383300357,2,1,1.5145047080004588,reldom2_s027,001,2025-02-26_16h18.10.940,Where-B-Scan_AC,2022.2.5,None,
4,First_Order,1.0,audwhere,stimulus/audwhere_stim/dummy.wav,stimulus/audwhere_stim/dummy.wav,stimulus/audwhere_stim/left_toward_270h.wav,stimulus/audwhere_stim/right_toward_300h.wav,stimulus/audwhere_stim/blank_white.png,stimulus/audwhere_stim/direction_box.png,stimulus/audwhere_stim/direction_yes.png,stimulus/audwhere_stim/direction_no.png,None,Direction,None,Direction,1,0.0,0,5.125,0,5.125,0,5.125,0,0.0,0.625,0,0.0,0,0.0,0,0.0,0,0.0,0,0.0,0,0.0,1,0.5,1,2.125,0,,,,,0,4,4,4,,,,,,,,,93.31633450000663,93.31633450000663,93.31633450000663,93.31633450000663,93.31633450000663,93.31633450000663,93.31633450000663,93.31633450000663,93.24507150033799,93.31633450000663,93.31633450000663,93.31633450000663,93.24507150033799,93.31633450000663,93.31633450000663,93.31633450000663,95.4074660000042,99.44722841700423,93.31633450000663,93.31633450000663,98.479955583025,93.31633450000663,93.31633450000663,93.31633450000663,93.31633450000663,93.80546654202044,94.87465883302502,93.7776519586662,,95.4074660000042,96.47587233301601,95.37953624967874,,93.31633450000663,98.479955583025,93.31633450000663,98.479955583025,98.519443666999,99.18561100002262,93.31633450000663,1,1,1.511482458008686,reldom2_s027,001,2025-02-26_16h18.10.940,Where-B-Scan_AC,2022.2.5,None,
0,0.0,None,fixation,stimulus/audwhere_stim/blank_white.png,stimulus/audwhere_stim/blank_white.png,stimulus/viswhere_stim/blank_white.png,stimulus/viswhere_stim/blank_white.png,stimulus/audwhere_stim/blank_white.png,stimulus/audwhere_stim/blank_white.png,stimulus/audwhere_stim/blank_white.png,stimulus/audwhere_stim/blank_white.png,0.0,0.0,0.0,0.0,0,0.0,0,0.0,0,0.0,0,0.0,0,0.0,0.0,0,0.0,0,0.0,0,0.0,0,0.0,0,0.0,0,0.0,0,0.0,0,0.0,10,,,,,0,5,5,5,,,,,,,,,99.44722841700423,99.44722841700423,99.44722841700423,99.44722841700423,99.44722841700423,99.44722841700423,99.44722841700423,99.44722841700423,99.35770554133535,99.44722841700423,99.44722841700423,99.44722841700423,99.35770554133535,99.44722841700423,99.44722841700423,99.44722841700423,99.44722841700423,99.44722841700423,99.44722841700423,99.44722841700423,99.44722841700423,99.44722841700423,99.44722841700423,99.44722841700423,99.44722841700423,99.44722841700423,99.44722841700423,99.40770554133536,99.44722841700423,99.44722841700423,99.44722841700423,99.40770554133536,99.44722841700423,99.44722841700423,99.44722841700423,99.44722841700423,99.44722841700423,104.68034050002461,104.68034050002461,109.60838600000716,None,0,,reldom2_s027,001,2025-02-26_16h18.10.940,Where-B-Scan_AC,2022.2.5,None,
5,Second_Order,1.0,audwhere,stimulus/audwhere_stim/right_toward_300h.wav,stimulus/audwhere_stim/left_toward_280h.wav,stimulus/audwhere_stim/right_toward_280h.wav,stimulus/audwhere_stim/right_away_280h.wav,stimulus/audwhere_stim/match_blank.png,stimulus/audwhere_stim/match_box.png,stimulus/audwhere_stim/match_yes.png,stimulus/audwhere_stim/match_no.png,2.0,Match,Direction,Side,2,5.125,0,5.125,0,5.125,0,5.125,0,0.75,0.75,0,0.0,0,0.0,0,0.0,0,0.0,1,0.5,1,2.125,1,0.5,1,2.125,0,,,,,0,6,6,6,,,,,,,,,109.60838600000716,114.72907158301678,109.60838600000716,109.60838600000716,109.60838600000716,109.60838600000716,110.06426708301296,111.05317100000684,110.06837220868717,,111.68896770800347,112.68679400000838,111.70130837467538,,114.72907158301678,115.58314016700024,117.6251238330151,,115.58314016700024,115.58314016700024,120.73956825002097,115.58314016700024,115.58314016700024,115.58314016700024,115.58314016700024,116.02592033302062,117.09228579202318,115.99801420868995,,117.6251238330151,118.69657600001665,117.59722629166596,,115.58314016700024,120.73956825002097,115.58314016700024,120.73956825002097,120.73956825002097,,115.58314016700024,2,1,1.6762651669851039,reldom2_s027,001,2025-02-26_16h18.10.940,Where-B-Scan_AC,2022.2.5,None,
6,Second_Order,1.0,audwhere,stimulus/audwhere_stim/right_toward_270h.wav,stimulus/audwhere_stim/right_away_290h.wav,stimulus/audwhere_stim/left_toward_300h.wav,stimulus/audwhere_stim/left_away_290h.wav,stimulus/audwhere_stim/match_blank.png,stimulus/audwhere_stim/match_box.png,stimulus/audwhere_stim/match_yes.png,stimulus/audwhere_stim/match_no.png,1.0,Match,Side,Side,1,5.125,0,5.125,0,5.125,0,5.125,0,0.625,0.625,0,0.0,0,0.0,0,0.0,0,0.0,1,0.5,1,2.125,1,0.5,1,2.125,0,,,,,0,7,7,7,,,,,,,,,121.55346495800768,126.67383387501468,121.55346495800768,121.55346495800768,121.55346495800768,121.55346495800768,122.01258233300177,123.0109221250168,122.02503529168122,,123.63377975000185,124.6314282079984,123.64552116668007,,126.67383387501468,127.40548054201645,129.44495966701652,,127.40548054201645,127.40548054201645,132.55779650001205,127.40548054201645,127.40548054201645,127.40548054201645,127.40548054201645,127.84871762502007,128.91344525001477,127.81986745869314,,129.44495966701652,130.51252329201088,129.41739662469288,,127.40548054201645,132.55779650001205,127.40548054201645,132.55779650001205,132.59688350002398,133.2619059580029,127.40548054201645,1,1,1.0578277499880642,reldom2_s027,001,2025-02-26_16h18.10.940,Where-B-Scan_AC,2022.2.5,None,
0,0.0,None,fixation,stimulus/audwhere_stim/blank_white.png,stimulus/audwhere_stim/blank_white.png,stimulus/viswhere_stim/blank_white.png,stimulus/viswhere_stim/blank_white.png,stimulus/audwhere_stim/blank_white.png,stimulus/audwhere_stim/blank_white.png,stimulus/audwhere_stim/blank_white.png,stimulus/audwhere_stim/blank_white.png,0.0,0.0,0.0,0.0,0,0.0,0,0.0,0,0.0,0,0.0,0,0.0,0.0,0,0.0,0,0.0,0,0.0,0,0.0,0,0.0,0,0.0,0,0.0,0,0.0,9,,,,,0,8,8,8,,,,,,,,,133.48407391700312,133.48407391700312,133.48407391700312,133.48407391700312,133.48407391700312,133.48407391700312,133.48407391700312,133.48407391700312,133.39523929133625,133.48407391700312,133.48407391700312,133.48407391700312,133.39523929133625,133.48407391700312,133.48407391700312,133.48407391700312,133.48407391700312,133.48407391700312,133.48407391700312,133.48407391700312,133.48407391700312,133.48407391700312,133.48407391700312,133.48407391700312,133.48407391700312,133.48407391700312,133.48407391700312,133.44523929133624,133.48407391700312,133.48407391700312,133.48407391700312,133.44523929133624,133.48407391700312,133.48407391700312,133.48407391700312,133.48407391700312,133.48407391700312,138.72166358301183,138.72166358301183,142.73991912501515,None,0,,reldom2_s027,001,2025-02-26_16h18.10.940,Where-B-Scan_AC,2022.2.5,None,
7,First_Order,2.0,audwhere,stimulus/audwhere_stim/dummy.wav,stimulus/audwhere_stim/dummy.wav,stimulus/audwhere_stim/left_toward_270h.wav,stimulus/audwhere_stim/right_toward_270h.wav,stimulus/audwhere_stim/blank_white.png,stimulus/audwhere_stim/direction_box.png,stimulus/audwhere_stim/direction_yes.png,stimulus/audwhere_stim/direction_no.png,None,Direction,None,Direction,1,0.0,0,5.125,0,5.125,0,5.125,0,0.0,0.625,0,0.0,0,0.0,0,0.0,0,0.0,0,0.0,0,0.0,1,0.5,1,2.125,0,,,,,0,9,9,9,,,,,,,,,142.73991912501515,142.73991912501515,142.73991912501515,142.73991912501515,142.73991912501515,142.73991912501515,142.73991912501515,142.73991912501515,142.65876379202237,142.73991912501515,142.73991912501515,142.73991912501515,142.65876379202237,142.73991912501515,142.73991912501515,142.73991912501515,144.81621004201588,148.8524280420097,142.73991912501515,142.73991912501515,147.89124020800227,142.73991912501515,142.73991912501515,142.73991912501515,142.73991912501515,143.19074225000804,144.22805674999836,143.16185666667687,,144.81621004201588,145.85824004199822,144.7874543746914,,142.73991912501515,147.89124020800227,142.73991912501515,147.89124020800227,147.93096691701794,148.60525137500372,142.73991912501515,1,1,1.288622457999736,reldom2_s027,001,2025-02-26_16h18.10.940,Where-B-Scan_AC,2022.2.5,None,
8,First_Order,2.0,audwhere,stimulus/audwhere_stim/dummy.wav,stimulus/audwhere_stim/dummy.wav,stimulus/audwhere_stim/left_toward_280h.wav,stimulus/audwhere_stim/right_toward_290h.wav,stimulus/audwhere_stim/blank_white.png,stimulus/audwhere_stim/side_box.png,stimulus/audwhere_stim/side_yes.png,stimulus/audwhere_stim/side_no.png,None,Side,None,Direction,2,0.0,0,5.125,0,5.125,0,5.125,0,0.0,0.625,0,0.0,0,0.0,0,0.0,0,0.0,0,0.0,0,0.0,1,0.5,1,2.125,0,,,,,0,10,10,10,,,,,,,,,148.8524280420097,148.8524280420097,148.8524280420097,148.8524280420097,148.8524280420097,148.8524280420097,148.8524280420097,148.8524280420097,148.77890766633405,148.8524280420097,148.8524280420097,148.8524280420097,148.77890766633405,148.8524280420097,148.8524280420097,148.8524280420097,150.92817508301232,154.9659344580141,148.8524280420097,148.8524280420097,154.04309408302652,148.8524280420097,148.8524280420097,148.8524280420097,148.8524280420097,149.30408112501027,150.34161504200893,149.276036666681,,150.92817508301232,151.9690247500257,150.89956170868052,,148.8524280420097,154.04309408302652,148.8524280420097,154.04309408302652,154.08323645801283,154.75766950001707,148.8524280420097,2,1,0.7026955829933286,reldom2_s027,001,2025-02-26_16h18.10.940,Where-B-Scan_AC,2022.2.5,None,
9,First_Order,2.0,audwhere,stimulus/audwhere_stim/dummy.wav,stimulus/audwhere_stim/dummy.wav,stimulus/audwhere_stim/left_away_270h.wav,stimulus/audwhere_stim/left_toward_290h.wav,stimulus/audwhere_stim/blank_white.png,stimulus/audwhere_stim/side_box.png,stimulus/audwhere_stim/side_yes.png,stimulus/audwhere_stim/side_no.png,None,Side,None,Side,1,0.0,0,5.125,0,5.125,0,5.125,0,0.0,0.625,0,0.0,0,0.0,0,0.0,0,0.0,0,0.0,0,0.0,1,0.5,1,2.125,0,,,,,0,11,11,11,,,,,,,,,154.9659344580141,154.9659344580141,154.9659344580141,154.9659344580141,154.9659344580141,154.9659344580141,154.9659344580141,154.9659344580141,154.89100283335043,154.9659344580141,154.9659344580141,154.9659344580141,154.89100283335043,154.9659344580141,154.9659344580141,154.9659344580141,157.04414537502453,161.08702550001908,154.9659344580141,154.9659344580141,160.11938020802336,154.9659344580141,154.9659344580141,154.9659344580141,154.9659344580141,155.4166712500155,156.4550389580254,155.38815791666664,,157.04414537502453,158.08763154200278,157.01521420869202,158.04261645799852,154.9659344580141,160.11938020802336,154.9659344580141,160.11938020802336,160.1595156250114,160.83958066700143,154.9659344580141,1,1,1.5545073340181261,reldom2_s027,001,2025-02-26_16h18.10.940,Where-B-Scan_AC,2022.2.5,None,
10,First_Order,2.0,audwhere,stimulus/audwhere_stim/dummy.wav,stimulus/audwhere_stim/dummy.wav,stimulus/audwhere_stim/right_away_290h.wav,stimulus/audwhere_stim/right_toward_290h.wav,stimulus/audwhere_stim/blank_white.png,stimulus/audwhere_stim/side_box.png,stimulus/audwhere_stim/side_yes.png,stimulus/audwhere_stim/side_no.png,None,Side,None,Side,1,0.0,0,5.125,0,5.125,0,5.125,0,0.0,0.625,0,0.0,0,0.0,0,0.0,0,0.0,0,0.0,0,0.0,1,0.5,1,2.125,0,,,,,0,12,12,12,,,,,,,,,161.08702550001908,161.08702550001908,161.08702550001908,161.08702550001908,161.08702550001908,161.08702550001908,161.08702550001908,161.08702550001908,161.01281387533723,161.08702550001908,161.08702550001908,161.08702550001908,161.01281387533723,161.08702550001908,161.08702550001908,161.08702550001908,163.17072108300636,,161.08702550001908,161.08702550001908,166.26127970800735,161.08702550001908,161.08702550001908,161.08702550001908,161.08702550001908,161.5405198750086,162.5804449999996,161.5114760416657,,163.17072108300636,164.21912491699914,163.1420562916649,,161.08702550001908,166.26127970800735,161.08702550001908,166.26127970800735,166.30193883299944,166.98107720800908,161.08702550001908,1,1,0.7259703750023618,reldom2_s027,001,2025-02-26_16h18.10.940,Where-B-Scan_AC,2022.2.5,None,
0,0.0,None,fixation,stimulus/audwhere_stim/blank_white.png,stimulus/audwhere_stim/blank_white.png,stimulus/viswhere_stim/blank_white.png,stimulus/viswhere_stim/blank_white.png,stimulus/audwhere_stim/blank_white.png,stimulus/audwhere_stim/blank_white.png,stimulus/audwhere_stim/blank_white.png,stimulus/audwhere_stim/blank_white.png,0.0,0.0,0.0,0.0,0,0.0,0,0.0,0,0.0,0,0.0,0,0.0,0.0,0,0.0,0,0.0,0,0.0,0,0.0,0,0.0,0,0.0,0,0.0,0,0.0,9,,,,,0,13,13,13,,,,,,,,,167.21028116700472,167.21028116700472,167.21028116700472,167.21028116700472,167.21028116700472,167.21028116700472,167.21028116700472,167.21028116700472,167.11441054134244,167.21028116700472,167.21028116700472,167.21028116700472,167.11441054134244,167.21028116700472,167.21028116700472,167.21028116700472,167.21028116700472,167.21028116700472,167.21028116700472,167.21028116700472,167.21028116700472,167.21028116700472,167.21028116700472,167.21028116700472,167.21028116700472,167.21028116700472,167.21028116700472,167.16441054134242,167.21028116700472,167.21028116700472,167.21028116700472,167.16441054134242,167.21028116700472,167.21028116700472,167.21028116700472,167.21028116700472,167.21028116700472,172.4359737500199,172.4359737500199,176.35016933301813,None,0,,reldom2_s027,001,2025-02-26_16h18.10.940,Where-B-Scan_AC,2022.2.5,None,
11,Second_Order,2.0,audwhere,stimulus/audwhere_stim/left_toward_280h.wav,stimulus/audwhere_stim/left_away_290h.wav,stimulus/audwhere_stim/left_away_290h.wav,stimulus/audwhere_stim/right_away_280h.wav,stimulus/audwhere_stim/match_blank.png,stimulus/audwhere_stim/match_box.png,stimulus/audwhere_stim/match_yes.png,stimulus/audwhere_stim/match_no.png,2.0,Match,Side,Direction,2,5.125,0,5.125,0,5.125,0,5.125,0,0.75,0.75,0,0.0,0,0.0,0,0.0,0,0.0,1,0.5,1,2.125,1,0.5,1,2.125,0,,,,,0,14,14,14,,,,,,,,,176.35016933301813,181.4665905420261,176.35016933301813,176.35016933301813,176.35016933301813,176.35016933301813,176.80363008301356,177.79121595801553,176.8180472496645,,178.42645783300395,179.42404316700413,178.43893774968845,,181.4665905420261,182.3144565000257,184.38869550000527,188.30222179202246,182.3144565000257,182.3144565000257,187.47150183300255,182.3144565000257,182.3144565000257,182.3144565000257,182.3144565000257,182.76684779202333,183.80137295799796,182.73810433366842,,184.38869550000527,185.4349282500043,184.3599373746877,185.38965720802662,182.3144565000257,187.47150183300255,182.3144565000257,187.47150183300255,187.5114786250051,,182.3144565000257,2,1,0.7451781250128988,reldom2_s027,001,2025-02-26_16h18.10.940,Where-B-Scan_AC,2022.2.5,None,
12,Second_Order,2.0,audwhere,stimulus/audwhere_stim/left_away_270h.wav,stimulus/audwhere_stim/left_toward_280h.wav,stimulus/audwhere_stim/right_away_280h.wav,stimulus/audwhere_stim/right_toward_300h.wav,stimulus/audwhere_stim/match_blank.png,stimulus/audwhere_stim/match_box.png,stimulus/audwhere_stim/match_yes.png,stimulus/audwhere_stim/match_no.png,1.0,Match,Side,Side,1,5.125,0,5.125,0,5.125,0,5.125,0,0.625,0.625,0,0.0,0,0.0,0,0.0,0,0.0,1,0.5,1,2.125,1,0.5,1,2.125,0,,,,,0,15,15,15,,,,,,,,,188.30222179202246,193.42361858300865,188.30222179202246,188.30222179202246,188.30222179202246,188.30222179202246,188.7629175420152,189.7516761670122,188.76430183367145,189.7516761670122,190.38817204200313,191.38538537500426,190.3996714586722,,193.42361858300865,194.15696920800838,196.22081737502594,,194.15696920800838,194.15696920800838,199.333768875018,194.15696920800838,194.15696920800838,194.15696920800838,194.15696920800838,194.6043620830169,195.6370790420042,194.57610608367057,,196.22081737502594,197.26229037501616,196.19208679168176,,194.15696920800838,199.333768875018,194.15696920800838,199.333768875018,199.333768875018,200.00920595802017,194.15696920800838,1,1,0.8176612910174299,reldom2_s027,001,2025-02-26_16h18.10.940,Where-B-Scan_AC,2022.2.5,None,
0,0.0,None,fixation,stimulus/audwhere_stim/blank_white.png,stimulus/audwhere_stim/blank_white.png,stimulus/viswhere_stim/blank_white.png,stimulus/viswhere_stim/blank_white.png,stimulus/audwhere_stim/blank_white.png,stimulus/audwhere_stim/blank_white.png,stimulus/audwhere_stim/blank_white.png,stimulus/audwhere_stim/blank_white.png,0.0,0.0,0.0,0.0,0,0.0,0,0.0,0,0.0,0,0.0,0,0.0,0.0,0,0.0,0,0.0,0,0.0,0,0.0,0,0.0,0,0.0,0,0.0,0,0.0,8,,,,,0,16,16,16,,,,,,,,,200.23581141702016,200.23581141702016,200.23581141702016,200.23581141702016,200.23581141702016,200.23581141702016,200.23581141702016,200.23581141702016,200.14253929135353,200.23581141702016,200.23581141702016,200.23581141702016,200.14253929135353,200.23581141702016,200.23581141702016,200.23581141702016,200.23581141702016,200.23581141702016,200.23581141702016,200.23581141702016,200.23581141702016,200.23581141702016,200.23581141702016,200.23581141702016,200.23581141702016,200.23581141702016,200.23581141702016,200.1925392913535,200.23581141702016,200.23581141702016,200.23581141702016,200.1925392913535,200.23581141702016,200.23581141702016,200.23581141702016,200.23581141702016,200.23581141702016,205.4243543750199,205.4243543750199,208.42153195801075,None,0,,reldom2_s027,001,2025-02-26_16h18.10.940,Where-B-Scan_AC,2022.2.5,None,
13,First_Order,3.0,viswhere,stimulus/viswhere_stim/blank_white.png,stimulus/viswhere_stim/blank_white.png,stimulus/viswhere_stim/150-deg_dot-left_seagreen.png,stimulus/viswhere_stim/150-deg_dot-right_royalblue.png,stimulus/viswhere_stim/blank_white.png,stimulus/viswhere_stim/line_box.png,stimulus/viswhere_stim/line_yes.png,stimulus/viswhere_stim/line_no.png,None,Line,None,Line,1,0.0,0,5.125,0,5.125,0,5.125,0,0.0,0.625,0,0.0,0,0.0,1,0.5,1,2.125,0,0.0,0,0.0,0,0.0,0,0.0,0,,,,,0,17,17,17,,,,,,,,,208.42153195801075,208.42153195801075,208.42153195801075,208.42153195801075,208.42153195801075,208.42153195801075,208.42153195801075,208.42153195801075,208.40454758367076,208.42153195801075,208.42153195801075,208.42153195801075,208.40454758367076,208.42153195801075,208.42153195801075,208.42153195801075,210.53421250000247,214.48411687501357,208.42153195801075,208.42153195801075,213.55588766702567,208.9030322500039,209.92098779202206,210.53421250000247,211.5393181250256,208.42153195801075,208.42153195801075,208.40454758367076,208.42153195801075,208.42153195801075,208.42153195801075,208.40454758367076,208.42153195801075,208.42153195801075,213.55588766702567,208.42153195801075,213.55588766702567,213.64373170799809,214.27061920802225,208.42153195801075,1,1,0.9017531670106109,reldom2_s027,001,2025-02-26_16h18.10.940,Where-B-Scan_AC,2022.2.5,None,
14,First_Order,3.0,viswhere,stimulus/viswhere_stim/blank_white.png,stimulus/viswhere_stim/blank_white.png,stimulus/viswhere_stim/90-deg_dot-right_cyan.png,stimulus/viswhere_stim/90-deg_dot-left_turquoise.png,stimulus/viswhere_stim/blank_white.png,stimulus/viswhere_stim/line_box.png,stimulus/viswhere_stim/line_yes.png,stimulus/viswhere_stim/line_no.png,None,Line,None,Line,1,0.0,0,5.125,0,5.125,0,5.125,0,0.0,0.625,0,0.0,0,0.0,1,0.5,1,2.125,0,0.0,0,0.0,0,0.0,0,0.0,0,,,,,0,18,18,18,,,,,,,,,214.48411687501357,214.48411687501357,214.48411687501357,214.48411687501357,214.48411687501357,214.48411687501357,214.48411687501357,214.48411687501357,214.4642987913588,214.48411687501357,214.48411687501357,214.48411687501357,214.4642987913588,214.48411687501357,214.48411687501357,214.48411687501357,216.59909212501952,220.55672933300957,214.48411687501357,214.48411687501357,219.62001750001218,214.96139216702431,215.97237108301488,216.59909212501952,217.61699999999837,214.48411687501357,214.48411687501357,214.48096545802548,214.48411687501357,214.48411687501357,214.48411687501357,214.48096545802548,214.48411687501357,214.48411687501357,219.62001750001218,214.48411687501357,219.62001750001218,219.7079430000158,220.33872858301038,214.48411687501357,1,1,0.5071084999945015,reldom2_s027,001,2025-02-26_16h18.10.940,Where-B-Scan_AC,2022.2.5,None,
15,First_Order,3.0,viswhere,stimulus/viswhere_stim/blank_white.png,stimulus/viswhere_stim/blank_white.png,stimulus/viswhere_stim/60-deg_dot-right_salmon.png,stimulus/viswhere_stim/150-deg_dot-right_turquoise.png,stimulus/viswhere_stim/blank_white.png,stimulus/viswhere_stim/dot_box.png,stimulus/viswhere_stim/dot_yes.png,stimulus/viswhere_stim/dot_no.png,None,Dot,None,Dot,1,0.0,0,5.125,0,5.125,0,5.125,0,0.0,0.625,0,0.0,0,0.0,1,0.5,1,2.125,0,0.0,0,0.0,0,0.0,0,0.0,0,,,,,0,19,19,19,,,,,,,,,220.55672933300957,220.55672933300957,220.55672933300957,220.55672933300957,220.55672933300957,220.55672933300957,220.55672933300957,220.55672933300957,220.53493166635357,220.55672933300957,220.55672933300957,220.55672933300957,220.53493166635357,220.55672933300957,220.55672933300957,220.55672933300957,222.66014408299816,226.62446308301878,220.55672933300957,220.55672933300957,225.68055325001478,221.03645000001416,222.04953166699852,222.66014408299816,223.6754647080088,220.55672933300957,220.55672933300957,220.55159833302025,220.55672933300957,220.55672933300957,220.55672933300957,220.55159833302025,220.55672933300957,220.55672933300957,225.68055325001478,220.55672933300957,225.68055325001478,225.77817420801148,226.4055774170265,220.55672933300957,1,1,1.0282519579923246,reldom2_s027,001,2025-02-26_16h18.10.940,Where-B-Scan_AC,2022.2.5,None,
16,First_Order,3.0,viswhere,stimulus/viswhere_stim/blank_white.png,stimulus/viswhere_stim/blank_white.png,stimulus/viswhere_stim/120-deg_dot-left_peru.png,stimulus/viswhere_stim/120-deg_dot-right_royalblue.png,stimulus/viswhere_stim/blank_white.png,stimulus/viswhere_stim/dot_box.png,stimulus/viswhere_stim/dot_yes.png,stimulus/viswhere_stim/dot_no.png,None,Dot,None,Line,2,0.0,0,5.125,0,5.125,0,5.125,0,0.0,0.625,0,0.0,0,0.0,1,0.5,1,2.125,0,0.0,0,0.0,0,0.0,0,0.0,0,,,,,0,20,20,20,,,,,,,,,226.62446308301878,226.62446308301878,226.62446308301878,226.62446308301878,226.62446308301878,226.62446308301878,226.62446308301878,226.62446308301878,226.60296833333754,226.62446308301878,226.62446308301878,226.62446308301878,226.60296833333754,226.62446308301878,226.62446308301878,226.62446308301878,228.72834866700578,232.76845683300053,226.62446308301878,226.62446308301878,231.74832370801596,227.0987872920232,228.10220354201738,228.72834866700578,229.74070066702552,226.62446308301878,226.62446308301878,226.61963500000422,226.62446308301878,226.62446308301878,226.62446308301878,226.61963500000422,226.62446308301878,226.62446308301878,231.74832370801596,226.62446308301878,231.74832370801596,231.84708512501675,232.47610475000693,226.62446308301878,2,1,0.6882421250047628,reldom2_s027,001,2025-02-26_16h18.10.940,Where-B-Scan_AC,2022.2.5,None,
0,0.0,None,fixation,stimulus/audwhere_stim/blank_white.png,stimulus/audwhere_stim/blank_white.png,stimulus/viswhere_stim/blank_white.png,stimulus/viswhere_stim/blank_white.png,stimulus/audwhere_stim/blank_white.png,stimulus/audwhere_stim/blank_white.png,stimulus/audwhere_stim/blank_white.png,stimulus/audwhere_stim/blank_white.png,0.0,0.0,0.0,0.0,0,0.0,0,0.0,0,0.0,0,0.0,0,0.0,0.0,0,0.0,0,0.0,0,0.0,0,0.0,0,0.0,0,0.0,0,0.0,0,0.0,10,,,,,0,21,21,21,,,,,,,,,232.76845683300053,232.76845683300053,232.76845683300053,232.76845683300053,232.76845683300053,232.76845683300053,232.76845683300053,232.76845683300053,232.66934887534202,232.76845683300053,232.76845683300053,232.76845683300053,232.66934887534202,232.76845683300053,232.76845683300053,232.76845683300053,232.76845683300053,232.76845683300053,232.76845683300053,232.76845683300053,232.76845683300053,232.76845683300053,232.76845683300053,232.76845683300053,232.76845683300053,232.76845683300053,232.76845683300053,232.71934887534204,232.76845683300053,232.76845683300053,232.76845683300053,232.71934887534204,232.76845683300053,232.76845683300053,232.76845683300053,232.76845683300053,232.76845683300053,237.9689903750259,237.9689903750259,242.91749870800413,None,0,,reldom2_s027,001,2025-02-26_16h18.10.940,Where-B-Scan_AC,2022.2.5,None,
17,Second_Order,3.0,viswhere,stimulus/viswhere_stim/90-deg_dot-left_lightsseagreen.png,stimulus/viswhere_stim/90-deg_dot-right_lightsseagreen.png,stimulus/viswhere_stim/120-deg_dot-right_cyan.png,stimulus/viswhere_stim/60-deg_dot-right_royalblue.png,stimulus/audwhere_stim/match_blank.png,stimulus/audwhere_stim/match_box.png,stimulus/audwhere_stim/match_yes.png,stimulus/audwhere_stim/match_no.png,2.0,Match,Line,Dot,2,5.125,0,5.125,0,5.125,0,5.125,0,0.75,0.75,1,0.5,1,2.125,1,0.5,1,2.125,0,0.0,0,0.0,0,0.0,0,0.0,0,,,,,0,22,22,22,,,,,,,,,242.91749870800413,248.03726529201958,243.3930390420137,244.39134920801735,245.02612424999825,246.01562587500666,242.91749870800413,242.91749870800413,242.93207587534758,242.91749870800413,242.91749870800413,242.91749870800413,242.93207587534758,242.91749870800413,248.03726529201958,248.826559292007,250.90305154200178,254.77115937499912,248.826559292007,248.826559292007,253.96259954202105,249.28608320801868,250.29513537502498,250.90305154200178,251.91927266700077,248.826559292007,248.826559292007,248.8048518753572,248.826559292007,248.826559292007,248.826559292007,248.8048518753572,248.826559292007,248.826559292007,253.96259954202105,248.826559292007,253.96259954202105,254.03166262499872,254.80748866702197,248.826559292007,2,1,0.7627429999993183,reldom2_s027,001,2025-02-26_16h18.10.940,Where-B-Scan_AC,2022.2.5,None,
18,Second_Order,3.0,viswhere,stimulus/viswhere_stim/90-deg_dot-left_lightsseagreen.png,stimulus/viswhere_stim/60-deg_dot-left_mediumslateblue.png,stimulus/viswhere_stim/60-deg_dot-right_lightsseagreen.png,stimulus/viswhere_stim/30-deg_dot-right_goldenrod.png,stimulus/audwhere_stim/match_blank.png,stimulus/audwhere_stim/match_box.png,stimulus/audwhere_stim/match_yes.png,stimulus/audwhere_stim/match_no.png,1.0,Match,Dot,Dot,1,5.125,0,5.125,0,5.125,0,5.125,0,0.625,0.625,1,0.5,1,2.125,1,0.5,1,2.125,0,0.0,0,0.0,0,0.0,0,0.0,0,,,,,0,23,23,23,,,,,,,,,254.80748866702197,259.9312396250025,255.28485937500955,256.271884708025,256.908356208005,257.90583733300446,254.80748866702197,254.80748866702197,254.82115937499913,254.80748866702197,254.80748866702197,254.80748866702197,254.82115937499913,254.80748866702197,259.9312396250025,260.6003726250201,262.6787325000041,266.71033466700464,260.6003726250201,260.6003726250201,265.73966400002246,261.0614491250017,262.0705427080102,262.6787325000041,263.69205020801746,260.6003726250201,260.6003726250201,260.57808654133305,260.6003726250201,260.6003726250201,260.6003726250201,260.57808654133305,260.6003726250201,260.6003726250201,265.73966400002246,260.6003726250201,265.73966400002246,265.7937462500122,266.414658958005,260.6003726250201,1,1,1.0904813339875545,reldom2_s027,001,2025-02-26_16h18.10.940,Where-B-Scan_AC,2022.2.5,None,
0,0.0,None,fixation,stimulus/audwhere_stim/blank_white.png,stimulus/audwhere_stim/blank_white.png,stimulus/viswhere_stim/blank_white.png,stimulus/viswhere_stim/blank_white.png,stimulus/audwhere_stim/blank_white.png,stimulus/audwhere_stim/blank_white.png,stimulus/audwhere_stim/blank_white.png,stimulus/audwhere_stim/blank_white.png,0.0,0.0,0.0,0.0,0,0.0,0,0.0,0,0.0,0,0.0,0,0.0,0.0,0,0.0,0,0.0,0,0.0,0,0.0,0,0.0,0,0.0,0,0.0,0,0.0,9,,,,,0,24,24,24,,,,,,,,,266.71033466700464,266.71033466700464,266.71033466700464,266.71033466700464,266.71033466700464,266.71033466700464,266.71033466700464,266.71033466700464,266.61175745835254,266.71033466700464,266.71033466700464,266.71033466700464,266.61175745835254,266.71033466700464,266.71033466700464,266.71033466700464,266.71033466700464,266.71033466700464,266.71033466700464,266.71033466700464,266.71033466700464,266.71033466700464,266.71033466700464,266.71033466700464,266.71033466700464,266.71033466700464,266.71033466700464,266.66175745835255,266.71033466700464,266.71033466700464,266.71033466700464,266.66175745835255,266.71033466700464,266.71033466700464,266.71033466700464,266.71033466700464,266.71033466700464,271.9035624579992,271.9035624579992,275.9242207920179,None,0,,reldom2_s027,001,2025-02-26_16h18.10.940,Where-B-Scan_AC,2022.2.5,None,
19,First_Order,4.0,viswhere,stimulus/viswhere_stim/blank_white.png,stimulus/viswhere_stim/blank_white.png,stimulus/viswhere_stim/90-deg_dot-left_seagreen.png,stimulus/viswhere_stim/150-deg_dot-left_lightsseagreen.png,stimulus/viswhere_stim/blank_white.png,stimulus/viswhere_stim/dot_box.png,stimulus/viswhere_stim/dot_yes.png,stimulus/viswhere_stim/dot_no.png,None,Dot,None,Dot,1,0.0,0,5.125,0,5.125,0,5.125,0,0.0,0.625,0,0.0,0,0.0,1,0.5,1,2.125,0,0.0,0,0.0,0,0.0,0,0.0,0,,,,,0,25,25,25,,,,,,,,,275.9242207920179,275.9242207920179,275.9242207920179,275.9242207920179,275.9242207920179,275.9242207920179,275.9242207920179,275.9242207920179,275.9063756666825,275.9242207920179,275.9242207920179,275.9242207920179,275.9063756666825,275.9242207920179,275.9242207920179,275.9242207920179,278.02794633302256,281.98407883301843,275.9242207920179,275.9242207920179,281.0584457500081,276.40282783302246,277.417859875015,278.02794633302256,279.0307075000019,275.9242207920179,275.9242207920179,275.9063756666825,275.9242207920179,275.9242207920179,275.9242207920179,275.9063756666825,275.9242207920179,275.9242207920179,281.0584457500081,275.9242207920179,281.0584457500081,281.14174941700185,281.76723245801986,275.9242207920179,1,1,0.8964477500121575,reldom2_s027,001,2025-02-26_16h18.10.940,Where-B-Scan_AC,2022.2.5,None,
20,First_Order,4.0,viswhere,stimulus/viswhere_stim/blank_white.png,stimulus/viswhere_stim/blank_white.png,stimulus/viswhere_stim/30-deg_dot-left_peru.png,stimulus/viswhere_stim/30-deg_dot-right_salmon.png,stimulus/viswhere_stim/blank_white.png,stimulus/viswhere_stim/dot_box.png,stimulus/viswhere_stim/dot_yes.png,stimulus/viswhere_stim/dot_no.png,None,Dot,None,Line,2,0.0,0,5.125,0,5.125,0,5.125,0,0.0,0.625,0,0.0,0,0.0,1,0.5,1,2.125,0,0.0,0,0.0,0,0.0,0,0.0,0,,,,,0,26,26,26,,,,,,,,,281.98407883301843,281.98407883301843,281.98407883301843,281.98407883301843,281.98407883301843,281.98407883301843,281.98407883301843,281.98407883301843,281.9628960833555,281.98407883301843,281.98407883301843,281.98407883301843,281.9628960833555,281.98407883301843,281.98407883301843,281.98407883301843,284.0950272080081,288.0417050830147,281.98407883301843,281.98407883301843,287.1093082500156,282.4586692080193,283.4679738749983,284.0950272080081,285.111347958009,281.98407883301843,281.98407883301843,281.9795627500221,281.98407883301843,281.98407883301843,281.98407883301843,281.9795627500221,281.98407883301843,281.98407883301843,287.1093082500156,281.98407883301843,287.1093082500156,287.2104738750204,287.837219500012,281.98407883301843,2,1,0.6902232090069447,reldom2_s027,001,2025-02-26_16h18.10.940,Where-B-Scan_AC,2022.2.5,None,
21,First_Order,4.0,viswhere,stimulus/viswhere_stim/blank_white.png,stimulus/viswhere_stim/blank_white.png,stimulus/viswhere_stim/60-deg_dot-left_lightsseagreen.png,stimulus/viswhere_stim/30-deg_dot-left_slateblue.png,stimulus/viswhere_stim/blank_white.png,stimulus/viswhere_stim/line_box.png,stimulus/viswhere_stim/line_yes.png,stimulus/viswhere_stim/line_no.png,None,Line,None,Dot,2,0.0,0,5.125,0,5.125,0,5.125,0,0.0,0.625,0,0.0,0,0.0,1,0.5,1,2.125,0,0.0,0,0.0,0,0.0,0,0.0,0,,,,,0,27,27,27,,,,,,,,,288.0417050830147,288.0417050830147,288.0417050830147,288.0417050830147,288.0417050830147,288.0417050830147,288.0417050830147,288.0417050830147,288.0208384163464,288.0417050830147,288.0417050830147,288.0417050830147,288.0208384163464,288.0417050830147,288.0417050830147,288.0417050830147,290.1575697080116,294.1086302920012,288.0417050830147,288.0417050830147,293.17217258299934,288.5187246670248,289.53153666702565,290.1575697080116,291.1748446249985,288.0417050830147,288.0417050830147,288.03750508301306,288.0417050830147,288.0417050830147,288.0417050830147,288.03750508301306,288.0417050830147,288.0417050830147,293.17217258299934,288.0417050830147,293.17217258299934,293.2866280419985,293.9215383330011,288.0417050830147,2,1,0.6734705000126269,reldom2_s027,001,2025-02-26_16h18.10.940,Where-B-Scan_AC,2022.2.5,None,
22,First_Order,4.0,viswhere,stimulus/viswhere_stim/blank_white.png,stimulus/viswhere_stim/blank_white.png,stimulus/viswhere_stim/120-deg_dot-right_peru.png,stimulus/viswhere_stim/150-deg_dot-right_peru.png,stimulus/viswhere_stim/blank_white.png,stimulus/viswhere_stim/line_box.png,stimulus/viswhere_stim/line_yes.png,stimulus/viswhere_stim/line_no.png,None,Line,None,Dot,2,0.0,0,5.125,0,5.125,0,5.125,0,0.0,0.625,0,0.0,0,0.0,1,0.5,1,2.125,0,0.0,0,0.0,0,0.0,0,0.0,0,,,,,0,28,28,28,,,,,,,,,294.1086302920012,294.1086302920012,294.1086302920012,294.1086302920012,294.1086302920012,294.1086302920012,294.1086302920012,294.1086302920012,294.0882355413535,294.1086302920012,294.1086302920012,294.1086302920012,294.0882355413535,294.1086302920012,294.1086302920012,294.1086302920012,296.2137256670103,300.24805879199994,294.1086302920012,294.1086302920012,299.25075350000407,294.5866434580239,295.6035107500211,296.2137256670103,297.2339993750211,294.1086302920012,294.1086302920012,294.1049022080202,294.1086302920012,294.1086302920012,294.1086302920012,294.1049022080202,294.1086302920012,294.1086302920012,299.25075350000407,294.1086302920012,299.25075350000407,299.3506746670173,299.9822884169989,294.1086302920012,2,1,1.2353828330233227,reldom2_s027,001,2025-02-26_16h18.10.940,Where-B-Scan_AC,2022.2.5,None,
0,0.0,None,fixation,stimulus/audwhere_stim/blank_white.png,stimulus/audwhere_stim/blank_white.png,stimulus/viswhere_stim/blank_white.png,stimulus/viswhere_stim/blank_white.png,stimulus/audwhere_stim/blank_white.png,stimulus/audwhere_stim/blank_white.png,stimulus/audwhere_stim/blank_white.png,stimulus/audwhere_stim/blank_white.png,0.0,0.0,0.0,0.0,0,0.0,0,0.0,0,0.0,0,0.0,0,0.0,0.0,0,0.0,0,0.0,0,0.0,0,0.0,0,0.0,0,0.0,0,0.0,0,0.0,10,,,,,0,29,29,29,,,,,,,,,300.24805879199994,300.24805879199994,300.24805879199994,300.24805879199994,300.24805879199994,300.24805879199994,300.24805879199994,300.24805879199994,300.14912000035594,300.24805879199994,300.24805879199994,300.24805879199994,300.14912000035594,300.24805879199994,300.24805879199994,300.24805879199994,300.24805879199994,300.24805879199994,300.24805879199994,300.24805879199994,300.24805879199994,300.24805879199994,300.24805879199994,300.24805879199994,300.24805879199994,300.24805879199994,300.24805879199994,300.19912000035595,300.24805879199994,300.24805879199994,300.24805879199994,300.19912000035595,300.24805879199994,300.24805879199994,300.24805879199994,300.24805879199994,300.24805879199994,305.47117866700864,305.47117866700864,310.38178358302685,None,0,,reldom2_s027,001,2025-02-26_16h18.10.940,Where-B-Scan_AC,2022.2.5,None,
23,Second_Order,4.0,viswhere,stimulus/viswhere_stim/60-deg_dot-right_peru.png,stimulus/viswhere_stim/60-deg_dot-left_royalblue.png,stimulus/viswhere_stim/90-deg_dot-left_slateblue.png,stimulus/viswhere_stim/90-deg_dot-right_royalblue.png,stimulus/audwhere_stim/match_blank.png,stimulus/audwhere_stim/match_box.png,stimulus/audwhere_stim/match_yes.png,stimulus/audwhere_stim/match_no.png,1.0,Match,Line,Line,1,5.125,0,5.125,0,5.125,0,5.125,0,0.75,0.75,1,0.5,1,2.125,1,0.5,1,2.125,0,0.0,0,0.0,0,0.0,0,0.0,0,,,,,0,30,30,30,,,,,,,,,310.38178358302685,315.5056770420051,310.86511145799886,311.86364799999865,312.4859001250006,313.4841384169995,310.38178358302685,310.38178358302685,310.3966745003437,310.38178358302685,310.38178358302685,310.38178358302685,310.3966745003437,310.38178358302685,315.5056770420051,316.3017389170127,318.3795641250035,322.2693940419995,316.3017389170127,316.3017389170127,321.4250622500258,316.74642475001747,317.7661922080151,318.3795641250035,319.38886737500434,316.3017389170127,316.3017389170127,316.2902484580234,316.3017389170127,316.3017389170127,316.3017389170127,316.2902484580234,316.3017389170127,316.3017389170127,321.4250622500258,316.3017389170127,321.4250622500258,321.49578408300295,322.2693940419995,316.3017389170127,1,1,0.5983531250094529,reldom2_s027,001,2025-02-26_16h18.10.940,Where-B-Scan_AC,2022.2.5,None,
24,Second_Order,4.0,viswhere,stimulus/viswhere_stim/120-deg_dot-left_peru.png,stimulus/viswhere_stim/120-deg_dot-right_peru.png,stimulus/viswhere_stim/30-deg_dot-right_peru.png,stimulus/viswhere_stim/30-deg_dot-left_lightsseagreen.png,stimulus/audwhere_stim/match_blank.png,stimulus/audwhere_stim/match_box.png,stimulus/audwhere_stim/match_yes.png,stimulus/audwhere_stim/match_no.png,1.0,Match,Line,Line,1,5.125,0,5.125,0,5.125,0,5.125,0,0.625,0.625,1,0.5,1,2.125,1,0.5,1,2.125,0,0.0,0,0.0,0,0.0,0,0.0,0,,,,,0,31,31,31,,,,,,,,,322.2693940419995,327.38748979201773,322.75545662501827,323.7445075830037,324.38029945801827,325.378060750023,322.2693940419995,322.2693940419995,322.2836139580002,322.2693940419995,322.2693940419995,322.2693940419995,322.2836139580002,322.2693940419995,327.38748979201773,328.0586706670001,330.14181329202256,334.1783996250015,328.0586706670001,328.0586706670001,333.1956503330148,328.51875795802334,329.5323598330142,330.14181329202256,331.14600516701466,328.0586706670001,328.0586706670001,328.03445920834974,328.0586706670001,328.0586706670001,328.0586706670001,328.03445920834974,328.0586706670001,328.0586706670001,333.1956503330148,328.0586706670001,333.1956503330148,333.25000712502515,333.8828393330041,328.0586706670001,1,1,0.8086537499912083,reldom2_s027,001,2025-02-26_16h18.10.940,Where-B-Scan_AC,2022.2.5,None,
0,0.0,None,fixation,stimulus/audwhere_stim/blank_white.png,stimulus/audwhere_stim/blank_white.png,stimulus/viswhere_stim/blank_white.png,stimulus/viswhere_stim/blank_white.png,stimulus/audwhere_stim/blank_white.png,stimulus/audwhere_stim/blank_white.png,stimulus/audwhere_stim/blank_white.png,stimulus/audwhere_stim/blank_white.png,0.0,0.0,0.0,0.0,0,0.0,0,0.0,0,0.0,0,0.0,0,0.0,0.0,0,0.0,0,0.0,0,0.0,0,0.0,0,0.0,0,0.0,0,0.0,0,0.0,9,,,,,0,32,32,32,,,,,,,,,334.1783996250015,334.1783996250015,334.1783996250015,334.1783996250015,334.1783996250015,334.1783996250015,334.1783996250015,334.1783996250015,334.0806534163324,334.1783996250015,334.1783996250015,334.1783996250015,334.0806534163324,334.1783996250015,334.1783996250015,334.1783996250015,334.1783996250015,334.1783996250015,334.1783996250015,334.1783996250015,334.1783996250015,334.1783996250015,334.1783996250015,334.1783996250015,334.1783996250015,334.1783996250015,334.1783996250015,334.1306534163324,334.1783996250015,334.1783996250015,334.1783996250015,334.1306534163324,334.1783996250015,334.1783996250015,334.1783996250015,334.1783996250015,334.1783996250015,339.3943368750042,339.3943368750042,343.44612975002383,None,0,,reldom2_s027,001,2025-02-26_16h18.10.940,Where-B-Scan_AC,2022.2.5,None,
25,First_Order,5.0,audwhere,stimulus/audwhere_stim/dummy.wav,stimulus/audwhere_stim/dummy.wav,stimulus/audwhere_stim/right_toward_280h.wav,stimulus/audwhere_stim/right_away_290h.wav,stimulus/audwhere_stim/blank_white.png,stimulus/audwhere_stim/side_box.png,stimulus/audwhere_stim/side_yes.png,stimulus/audwhere_stim/side_no.png,None,Side,None,Side,1,0.0,0,5.125,0,5.125,0,5.125,0,0.0,0.625,0,0.0,0,0.0,0,0.0,0,0.0,0,0.0,0,0.0,1,0.5,1,2.125,0,,,,,0,33,33,33,,,,,,,,,343.44612975002383,343.44612975002383,343.44612975002383,343.44612975002383,343.44612975002383,343.44612975002383,343.44612975002383,343.44612975002383,343.3757061246821,343.44612975002383,343.44612975002383,343.44612975002383,343.3757061246821,343.44612975002383,343.44612975002383,343.44612975002383,345.520582541998,,343.44612975002383,343.44612975002383,348.608919833001,343.44612975002383,343.44612975002383,343.44612975002383,343.44612975002383,343.9080584580079,344.96788845802075,343.8785378336654,,345.520582541998,346.5849110830168,345.49071395869055,,343.44612975002383,348.608919833001,343.44612975002383,348.608919833001,348.65126904202043,349.3025138330122,343.44612975002383,1,1,0.9082055420149118,reldom2_s027,001,2025-02-26_16h18.10.940,Where-B-Scan_AC,2022.2.5,None,
26,First_Order,5.0,audwhere,stimulus/audwhere_stim/dummy.wav,stimulus/audwhere_stim/dummy.wav,stimulus/audwhere_stim/right_toward_300h.wav,stimulus/audwhere_stim/left_toward_270h.wav,stimulus/audwhere_stim/blank_white.png,stimulus/audwhere_stim/direction_box.png,stimulus/audwhere_stim/direction_yes.png,stimulus/audwhere_stim/direction_no.png,None,Direction,None,Direction,1,0.0,0,5.125,0,5.125,0,5.125,0,0.0,0.625,0,0.0,0,0.0,0,0.0,0,0.0,0,0.0,0,0.0,1,0.5,1,2.125,0,,,,,0,34,34,34,,,,,,,,,349.554869375017,349.554869375017,349.554869375017,349.554869375017,349.554869375017,349.554869375017,349.554869375017,349.554869375017,349.4766017913372,349.554869375017,349.554869375017,349.554869375017,349.4766017913372,349.554869375017,349.554869375017,349.554869375017,351.6475377920142,,349.554869375017,349.554869375017,354.71683695801767,349.554869375017,349.554869375017,349.554869375017,349.554869375017,350.02128712501144,351.0913895830163,349.99160779168983,,351.6475377920142,352.7187136670109,351.6179593746822,,349.554869375017,354.71683695801767,349.554869375017,354.71683695801767,354.75775504202466,355.4111327920109,349.554869375017,1,1,1.1152939159946982,reldom2_s027,001,2025-02-26_16h18.10.940,Where-B-Scan_AC,2022.2.5,None,
27,First_Order,5.0,audwhere,stimulus/audwhere_stim/dummy.wav,stimulus/audwhere_stim/dummy.wav,stimulus/audwhere_stim/left_toward_290h.wav,stimulus/audwhere_stim/left_away_300h.wav,stimulus/audwhere_stim/blank_white.png,stimulus/audwhere_stim/direction_box.png,stimulus/audwhere_stim/direction_yes.png,stimulus/audwhere_stim/direction_no.png,None,Direction,None,Side,2,0.0,0,5.125,0,5.125,0,5.125,0,0.0,0.625,0,0.0,0,0.0,0,0.0,0,0.0,0,0.0,0,0.0,1,0.5,1,2.125,0,,,,,0,35,35,35,,,,,,,,,355.66469558302197,355.66469558302197,355.66469558302197,355.66469558302197,355.66469558302197,355.66469558302197,355.66469558302197,355.66469558302197,355.5857012913349,355.66469558302197,355.66469558302197,355.66469558302197,355.5857012913349,355.66469558302197,355.66469558302197,355.66469558302197,357.7566912500188,,355.66469558302197,355.66469558302197,360.825508458016,355.66469558302197,355.66469558302197,355.66469558302197,355.66469558302197,356.12967229200876,357.20023095799843,356.0996659166742,,357.7566912500188,358.82717183302157,357.7275902496806,,355.66469558302197,360.825508458016,355.66469558302197,360.825508458016,360.866344708018,361.52043025000603,355.66469558302197,2,1,1.2795807500078809,reldom2_s027,001,2025-02-26_16h18.10.940,Where-B-Scan_AC,2022.2.5,None,
28,First_Order,5.0,audwhere,stimulus/audwhere_stim/dummy.wav,stimulus/audwhere_stim/dummy.wav,stimulus/audwhere_stim/right_away_300h.wav,stimulus/audwhere_stim/right_toward_290h.wav,stimulus/audwhere_stim/blank_white.png,stimulus/audwhere_stim/direction_box.png,stimulus/audwhere_stim/direction_yes.png,stimulus/audwhere_stim/direction_no.png,None,Direction,None,Side,2,0.0,0,5.125,0,5.125,0,5.125,0,0.0,0.625,0,0.0,0,0.0,0,0.0,0,0.0,0,0.0,0,0.0,1,0.5,1,2.125,0,,,,,0,36,36,36,,,,,,,,,361.77396608301206,361.77396608301206,361.77396608301206,361.77396608301206,361.77396608301206,361.77396608301206,361.77396608301206,361.77396608301206,361.6944513333457,361.77396608301206,361.77396608301206,361.77396608301206,361.6944513333457,361.77396608301206,361.77396608301206,361.77396608301206,363.86351575001027,,361.77396608301206,361.77396608301206,366.9328619580192,361.77396608301206,361.77396608301206,361.77396608301206,361.77396608301206,362.2372650420002,363.30742774999817,362.2073197496686,,363.86351575001027,364.93599345799885,363.8337270416707,,361.77396608301206,366.9328619580192,361.77396608301206,366.9328619580192,366.97430816700216,367.63067491701804,361.77396608301206,2,1,3.246192249993328,reldom2_s027,001,2025-02-26_16h18.10.940,Where-B-Scan_AC,2022.2.5,None,
0,0.0,None,fixation,stimulus/audwhere_stim/blank_white.png,stimulus/audwhere_stim/blank_white.png,stimulus/viswhere_stim/blank_white.png,stimulus/viswhere_stim/blank_white.png,stimulus/audwhere_stim/blank_white.png,stimulus/audwhere_stim/blank_white.png,stimulus/audwhere_stim/blank_white.png,stimulus/audwhere_stim/blank_white.png,0.0,0.0,0.0,0.0,0,0.0,0,0.0,0,0.0,0,0.0,0,0.0,0.0,0,0.0,0,0.0,0,0.0,0,0.0,0,0.0,0,0.0,0,0.0,0,0.0,10,,,,,0,37,37,37,,,,,,,,,367.90435016702395,367.90435016702395,367.90435016702395,367.90435016702395,367.90435016702395,367.90435016702395,367.90435016702395,367.90435016702395,367.80450170833694,367.90435016702395,367.90435016702395,367.90435016702395,367.80450170833694,367.90435016702395,367.90435016702395,367.90435016702395,367.90435016702395,367.90435016702395,367.90435016702395,367.90435016702395,367.90435016702395,367.90435016702395,367.90435016702395,367.90435016702395,367.90435016702395,367.90435016702395,367.90435016702395,367.85450170833695,367.90435016702395,367.90435016702395,367.90435016702395,367.85450170833695,367.90435016702395,367.90435016702395,367.90435016702395,367.90435016702395,367.90435016702395,373.13966429201537,373.13966429201537,378.0368500830082,None,0,,reldom2_s027,001,2025-02-26_16h18.10.940,Where-B-Scan_AC,2022.2.5,None,
29,Second_Order,5.0,audwhere,stimulus/audwhere_stim/right_toward_270h.wav,stimulus/audwhere_stim/right_away_280h.wav,stimulus/audwhere_stim/left_away_270h.wav,stimulus/audwhere_stim/right_away_300h.wav,stimulus/audwhere_stim/match_blank.png,stimulus/audwhere_stim/match_box.png,stimulus/audwhere_stim/match_yes.png,stimulus/audwhere_stim/match_no.png,2.0,Match,Side,Direction,2,5.125,0,5.125,0,5.125,0,5.125,0,0.75,0.75,0,0.0,0,0.0,0,0.0,0,0.0,1,0.5,1,2.125,1,0.5,1,2.125,0,,,,,0,38,38,38,,,,,,,,,378.0368500830082,383.14948641700903,378.0368500830082,378.0368500830082,378.0368500830082,378.0368500830082,378.48629004202667,379.4738967080193,378.500679791676,,380.1215213750256,381.1100857920246,380.12476912467196,,383.14948641700903,383.99938387502334,386.063670958014,390.00108287500916,383.99938387502334,383.99938387502334,389.15456595801516,383.99938387502334,383.99938387502334,383.99938387502334,383.99938387502334,384.45662025001366,385.513529458025,384.42727012467026,,386.063670958014,387.12982945801923,386.03385270867534,,383.99938387502334,389.15456595801516,383.99938387502334,389.15456595801516,389.1951850000187,,383.99938387502334,2,1,0.7676537919905968,reldom2_s027,001,2025-02-26_16h18.10.940,Where-B-Scan_AC,2022.2.5,None,
30,Second_Order,5.0,audwhere,stimulus/audwhere_stim/right_away_300h.wav,stimulus/audwhere_stim/right_toward_300h.wav,stimulus/audwhere_stim/left_toward_290h.wav,stimulus/audwhere_stim/left_away_270h.wav,stimulus/audwhere_stim/match_blank.png,stimulus/audwhere_stim/match_box.png,stimulus/audwhere_stim/match_yes.png,stimulus/audwhere_stim/match_no.png,1.0,Match,Side,Side,1,5.125,0,5.125,0,5.125,0,5.125,0,0.625,0.625,0,0.0,0,0.0,0,0.0,0,0.0,1,0.5,1,2.125,1,0.5,1,2.125,0,,,,,0,39,39,39,,,,,,,,,390.00108287500916,395.1225624170038,390.00108287500916,390.00108287500916,390.00108287500916,390.00108287500916,390.46148883301066,391.4511577920057,390.46448904168597,391.4511577920057,392.0871938750206,393.08491437500925,392.0990254166866,,395.1225624170038,395.85652525001206,397.90471733300365,401.9710005829984,395.85652525001206,395.85652525001206,401.01439654201386,395.85652525001206,395.85652525001206,395.85652525001206,395.85652525001206,396.3091215000022,397.35708412501845,396.28011408367115,,397.90471733300365,398.95745454201824,397.8752357496744,,395.85652525001206,401.01439654201386,395.85652525001206,401.01439654201386,401.055688500026,401.73930433302303,395.85652525001206,1,1,2.0906716670142487,reldom2_s027,001,2025-02-26_16h18.10.940,Where-B-Scan_AC,2022.2.5,None,
0,0.0,None,fixation,stimulus/audwhere_stim/blank_white.png,stimulus/audwhere_stim/blank_white.png,stimulus/viswhere_stim/blank_white.png,stimulus/viswhere_stim/blank_white.png,stimulus/audwhere_stim/blank_white.png,stimulus/audwhere_stim/blank_white.png,stimulus/audwhere_stim/blank_white.png,stimulus/audwhere_stim/blank_white.png,0.0,0.0,0.0,0.0,0,0.0,0,0.0,0,0.0,0,0.0,0,0.0,0.0,0,0.0,0,0.0,0,0.0,0,0.0,0,0.0,0,0.0,0,0.0,0,0.0,8,,,,,0,40,40,40,,,,,,,,,401.9710005829984,401.9710005829984,401.9710005829984,401.9710005829984,401.9710005829984,401.9710005829984,401.9710005829984,401.9710005829984,401.87263766635635,401.9710005829984,401.9710005829984,401.9710005829984,401.87263766635635,401.9710005829984,401.9710005829984,401.9710005829984,401.9710005829984,401.9710005829984,401.9710005829984,401.9710005829984,401.9710005829984,401.9710005829984,401.9710005829984,401.9710005829984,401.9710005829984,401.9710005829984,401.9710005829984,401.92263766635637,401.9710005829984,401.9710005829984,401.9710005829984,401.92263766635637,401.9710005829984,401.9710005829984,401.9710005829984,401.9710005829984,401.9710005829984,407.1987829170248,407.1987829170248,410.24191550002433,None,0,,reldom2_s027,001,2025-02-26_16h18.10.940,Where-B-Scan_AC,2022.2.5,None,
31,First_Order,6.0,audwhere,stimulus/audwhere_stim/dummy.wav,stimulus/audwhere_stim/dummy.wav,stimulus/audwhere_stim/left_toward_270h.wav,stimulus/audwhere_stim/right_toward_280h.wav,stimulus/audwhere_stim/blank_white.png,stimulus/audwhere_stim/side_box.png,stimulus/audwhere_stim/side_yes.png,stimulus/audwhere_stim/side_no.png,None,Side,None,Direction,2,0.0,0,5.125,0,5.125,0,5.125,0,0.0,0.625,0,0.0,0,0.0,0,0.0,0,0.0,0,0.0,0,0.0,1,0.5,1,2.125,0,,,,,0,41,41,41,,,,,,,,,410.24191550002433,410.24191550002433,410.24191550002433,410.24191550002433,410.24191550002433,410.24191550002433,410.24191550002433,410.24191550002433,410.1716594586711,410.24191550002433,410.24191550002433,410.24191550002433,410.1716594586711,410.24191550002433,410.24191550002433,410.24191550002433,412.3132044580125,,410.24191550002433,410.24191550002433,415.4023858750006,410.24191550002433,410.24191550002433,410.24191550002433,410.24191550002433,410.7030076670053,411.7615386250254,410.6734788746728,,412.3132044580125,413.37646666701767,412.2837583746916,,410.24191550002433,415.4023858750006,410.24191550002433,415.4023858750006,415.4432150830107,416.09314841701416,410.24191550002433,2,1,1.286374541989062,reldom2_s027,001,2025-02-26_16h18.10.940,Where-B-Scan_AC,2022.2.5,None,
32,First_Order,6.0,audwhere,stimulus/audwhere_stim/dummy.wav,stimulus/audwhere_stim/dummy.wav,stimulus/audwhere_stim/right_toward_280h.wav,stimulus/audwhere_stim/left_toward_290h.wav,stimulus/audwhere_stim/blank_white.png,stimulus/audwhere_stim/direction_box.png,stimulus/audwhere_stim/direction_yes.png,stimulus/audwhere_stim/direction_no.png,None,Direction,None,Direction,1,0.0,0,5.125,0,5.125,0,5.125,0,0.0,0.625,0,0.0,0,0.0,0,0.0,0,0.0,0,0.0,0,0.0,1,0.5,1,2.125,0,,,,,0,42,42,42,,,,,,,,,416.34481037501246,416.34481037501246,416.34481037501246,416.34481037501246,416.34481037501246,416.34481037501246,416.34481037501246,416.34481037501246,416.2667292503485,416.34481037501246,416.34481037501246,416.34481037501246,416.2667292503485,416.34481037501246,416.34481037501246,416.34481037501246,418.4313540420262,,416.34481037501246,416.34481037501246,421.5390047500259,416.34481037501246,416.34481037501246,416.34481037501246,416.34481037501246,416.80872854200425,417.87608945800457,416.7785980836818,,418.4313540420262,419.5017044999986,418.4013394996912,,416.34481037501246,421.5390047500259,416.34481037501246,421.5390047500259,421.5390047500259,422.1900729170011,416.34481037501246,1,1,1.5395645829848945,reldom2_s027,001,2025-02-26_16h18.10.940,Where-B-Scan_AC,2022.2.5,None,
33,First_Order,6.0,audwhere,stimulus/audwhere_stim/dummy.wav,stimulus/audwhere_stim/dummy.wav,stimulus/audwhere_stim/left_toward_270h.wav,stimulus/audwhere_stim/left_away_300h.wav,stimulus/audwhere_stim/blank_white.png,stimulus/audwhere_stim/side_box.png,stimulus/audwhere_stim/side_yes.png,stimulus/audwhere_stim/side_no.png,None,Side,None,Side,1,0.0,0,5.125,0,5.125,0,5.125,0,0.0,0.625,0,0.0,0,0.0,0,0.0,0,0.0,0,0.0,0,0.0,1,0.5,1,2.125,0,,,,,0,43,43,43,,,,,,,,,422.44253795800614,422.44253795800614,422.44253795800614,422.44253795800614,422.44253795800614,422.44253795800614,422.44253795800614,422.44253795800614,422.3642813753414,422.44253795800614,422.44253795800614,422.44253795800614,422.3642813753414,422.44253795800614,422.44253795800614,422.44253795800614,424.53036829200573,,422.44253795800614,422.44253795800614,427.6304526250169,422.44253795800614,422.44253795800614,422.44253795800614,422.44253795800614,422.9135316250031,423.9757406670251,422.88373862469257,,424.53036829200573,425.60035479202634,424.5007852496676,,422.44253795800614,427.6304526250169,422.44253795800614,427.6304526250169,427.671315042011,428.32223312501446,422.44253795800614,1,1,0.8562939169933088,reldom2_s027,001,2025-02-26_16h18.10.940,Where-B-Scan_AC,2022.2.5,None,
34,First_Order,6.0,audwhere,stimulus/audwhere_stim/dummy.wav,stimulus/audwhere_stim/dummy.wav,stimulus/audwhere_stim/right_toward_300h.wav,stimulus/audwhere_stim/left_toward_290h.wav,stimulus/audwhere_stim/blank_white.png,stimulus/audwhere_stim/side_box.png,stimulus/audwhere_stim/side_yes.png,stimulus/audwhere_stim/side_no.png,None,Side,None,Direction,2,0.0,0,5.125,0,5.125,0,5.125,0,0.0,0.625,0,0.0,0,0.0,0,0.0,0,0.0,0,0.0,0,0.0,1,0.5,1,2.125,0,,,,,0,44,44,44,,,,,,,,,428.5329985000135,428.5329985000135,428.5329985000135,428.5329985000135,428.5329985000135,428.5329985000135,428.5329985000135,428.5329985000135,428.4555664583478,428.5329985000135,428.5329985000135,428.5329985000135,428.4555664583478,428.5329985000135,428.5329985000135,428.5329985000135,430.61406908300705,434.68218250002246,428.5329985000135,428.5329985000135,433.71684079201077,428.5329985000135,428.5329985000135,428.5329985000135,428.5329985000135,428.99857079199865,430.0599265420169,428.96867720867544,,430.61406908300705,431.68634095802554,430.58428387466506,,428.5329985000135,433.71684079201077,428.5329985000135,433.71684079201077,433.75729016700643,434.4084865420009,428.5329985000135,2,1,0.8621119580056984,reldom2_s027,001,2025-02-26_16h18.10.940,Where-B-Scan_AC,2022.2.5,None,
0,0.0,None,fixation,stimulus/audwhere_stim/blank_white.png,stimulus/audwhere_stim/blank_white.png,stimulus/viswhere_stim/blank_white.png,stimulus/viswhere_stim/blank_white.png,stimulus/audwhere_stim/blank_white.png,stimulus/audwhere_stim/blank_white.png,stimulus/audwhere_stim/blank_white.png,stimulus/audwhere_stim/blank_white.png,0.0,0.0,0.0,0.0,0,0.0,0,0.0,0,0.0,0,0.0,0,0.0,0.0,0,0.0,0,0.0,0,0.0,0,0.0,0,0.0,0,0.0,0,0.0,0,0.0,8,,,,,0,45,45,45,,,,,,,,,434.68218250002246,434.68218250002246,434.68218250002246,434.68218250002246,434.68218250002246,434.68218250002246,434.68218250002246,434.68218250002246,434.582342083335,434.68218250002246,434.68218250002246,434.68218250002246,434.582342083335,434.68218250002246,434.68218250002246,434.68218250002246,434.68218250002246,434.68218250002246,434.68218250002246,434.68218250002246,434.68218250002246,434.68218250002246,434.68218250002246,434.68218250002246,434.68218250002246,434.68218250002246,434.68218250002246,434.632342083335,434.68218250002246,434.68218250002246,434.68218250002246,434.632342083335,434.68218250002246,434.68218250002246,434.68218250002246,434.68218250002246,434.68218250002246,439.9106546250114,439.9106546250114,442.8286157080147,None,0,,reldom2_s027,001,2025-02-26_16h18.10.940,Where-B-Scan_AC,2022.2.5,None,
35,Second_Order,6.0,audwhere,stimulus/audwhere_stim/left_toward_280h.wav,stimulus/audwhere_stim/right_toward_270h.wav,stimulus/audwhere_stim/left_away_300h.wav,stimulus/audwhere_stim/right_away_280h.wav,stimulus/audwhere_stim/match_blank.png,stimulus/audwhere_stim/match_box.png,stimulus/audwhere_stim/match_yes.png,stimulus/audwhere_stim/match_no.png,1.0,Match,Direction,Direction,1,5.125,0,5.125,0,5.125,0,5.125,0,0.75,0.75,0,0.0,0,0.0,0,0.0,0,0.0,1,0.5,1,2.125,1,0.5,1,2.125,0,,,,,0,46,46,46,,,,,,,,,442.8286157080147,447.9488236250181,442.8286157080147,442.8286157080147,442.8286157080147,442.8286157080147,443.2884343750193,444.28596537502017,443.3010149996883,,444.9088102079986,445.90685516700614,444.92104454167225,,447.9488236250181,448.79687558300793,450.8638254170073,,448.79687558300793,448.79687558300793,453.9558522500156,448.79687558300793,448.79687558300793,448.79687558300793,448.79687558300793,449.2545838750084,450.3114415000018,449.22495233366885,,450.8638254170073,451.92538016699837,450.83488695868095,,448.79687558300793,453.9558522500156,448.79687558300793,453.9558522500156,453.9967786670022,,448.79687558300793,1,1,0.948491124989232,reldom2_s027,001,2025-02-26_16h18.10.940,Where-B-Scan_AC,2022.2.5,None,
36,Second_Order,6.0,audwhere,stimulus/audwhere_stim/left_toward_300h.wav,stimulus/audwhere_stim/right_toward_280h.wav,stimulus/audwhere_stim/left_away_300h.wav,stimulus/audwhere_stim/right_away_300h.wav,stimulus/audwhere_stim/match_blank.png,stimulus/audwhere_stim/match_box.png,stimulus/audwhere_stim/match_yes.png,stimulus/audwhere_stim/match_no.png,1.0,Match,Direction,Direction,1,5.125,0,5.125,0,5.125,0,5.125,0,0.625,0.625,0,0.0,0,0.0,0,0.0,0,0.0,1,0.5,1,2.125,1,0.5,1,2.125,0,,,,,0,47,47,47,,,,,,,,,454.7648391670082,459.8778450420068,454.7648391670082,454.7648391670082,454.7648391670082,454.7648391670082,455.2137467080029,456.20054158300627,455.2276991246656,,456.8483721250086,457.83771779201925,456.8516988746744,,459.8778450420068,460.604756833025,462.66197279200424,,460.604756833025,460.604756833025,465.7739484170161,460.604756833025,460.604756833025,460.604756833025,460.604756833025,461.06144787502126,462.11222745801206,461.0319596666707,,462.66197279200424,463.71687241701875,462.63154266667357,,460.604756833025,465.7739484170161,460.604756833025,465.7739484170161,465.7739484170161,466.4608747920138,460.604756833025,1,1,0.8594879579904955,reldom2_s027,001,2025-02-26_16h18.10.940,Where-B-Scan_AC,2022.2.5,None,
0,0.0,None,fixation,stimulus/audwhere_stim/blank_white.png,stimulus/audwhere_stim/blank_white.png,stimulus/viswhere_stim/blank_white.png,stimulus/viswhere_stim/blank_white.png,stimulus/audwhere_stim/blank_white.png,stimulus/audwhere_stim/blank_white.png,stimulus/audwhere_stim/blank_white.png,stimulus/audwhere_stim/blank_white.png,0.0,0.0,0.0,0.0,0,0.0,0,0.0,0,0.0,0,0.0,0,0.0,0.0,0,0.0,0,0.0,0,0.0,0,0.0,0,0.0,0,0.0,0,0.0,0,0.0,10,,,,,0,48,48,48,,,,,,,,,466.69411358301295,466.69411358301295,466.69411358301295,466.69411358301295,466.69411358301295,466.69411358301295,466.69411358301295,466.69411358301295,466.5942081253471,466.69411358301295,466.69411358301295,466.69411358301295,466.5942081253471,466.69411358301295,466.69411358301295,466.69411358301295,466.69411358301295,466.69411358301295,466.69411358301295,466.69411358301295,466.69411358301295,466.69411358301295,466.69411358301295,466.69411358301295,466.69411358301295,466.69411358301295,466.69411358301295,466.6442081253471,466.69411358301295,466.69411358301295,466.69411358301295,466.6442081253471,466.69411358301295,466.69411358301295,466.69411358301295,466.69411358301295,466.69411358301295,471.8764342080103,471.8764342080103,476.8935047920095,None,0,,reldom2_s027,001,2025-02-26_16h18.10.940,Where-B-Scan_AC,2022.2.5,None,
37,First_Order,7.0,viswhere,stimulus/viswhere_stim/blank_white.png,stimulus/viswhere_stim/blank_white.png,stimulus/viswhere_stim/150-deg_dot-left_turquoise.png,stimulus/viswhere_stim/120-deg_dot-left_mediumslateblue.png,stimulus/viswhere_stim/blank_white.png,stimulus/viswhere_stim/line_box.png,stimulus/viswhere_stim/line_yes.png,stimulus/viswhere_stim/line_no.png,None,Line,None,Dot,2,0.0,0,5.125,0,5.125,0,5.125,0,0.0,0.625,0,0.0,0,0.0,1,0.5,1,2.125,0,0.0,0,0.0,0,0.0,0,0.0,0,,,,,0,49,49,49,,,,,,,,,476.8935047920095,476.8935047920095,476.8935047920095,476.8935047920095,476.8935047920095,476.8935047920095,476.8935047920095,476.8935047920095,476.8729914996753,476.8935047920095,476.8935047920095,476.8935047920095,476.8729914996753,476.8935047920095,476.8935047920095,476.8935047920095,478.99916866701096,482.95839966702624,476.8935047920095,476.8935047920095,482.033093792008,477.37185737502296,478.3866844580043,478.99916866701096,480.0023446670093,476.8935047920095,476.8935047920095,476.88965816634203,476.8935047920095,476.8935047920095,476.8935047920095,476.88965816634203,476.8935047920095,476.8935047920095,482.033093792008,476.8935047920095,482.033093792008,482.11671295799897,482.7434303330083,476.8935047920095,2,1,0.7561912089877296,reldom2_s027,001,2025-02-26_16h18.10.940,Where-B-Scan_AC,2022.2.5,None,
38,First_Order,7.0,viswhere,stimulus/viswhere_stim/blank_white.png,stimulus/viswhere_stim/blank_white.png,stimulus/viswhere_stim/120-deg_dot-left_mediumslateblue.png,stimulus/viswhere_stim/120-deg_dot-right_seagreen.png,stimulus/viswhere_stim/blank_white.png,stimulus/viswhere_stim/dot_box.png,stimulus/viswhere_stim/dot_yes.png,stimulus/viswhere_stim/dot_no.png,None,Dot,None,Line,2,0.0,0,5.125,0,5.125,0,5.125,0,0.0,0.625,0,0.0,0,0.0,1,0.5,1,2.125,0,0.0,0,0.0,0,0.0,0,0.0,0,,,,,0,50,50,50,,,,,,,,,482.95839966702624,482.95839966702624,482.95839966702624,482.95839966702624,482.95839966702624,482.95839966702624,482.95839966702624,482.95839966702624,482.93804875035613,482.95839966702624,482.95839966702624,482.95839966702624,482.93804875035613,482.95839966702624,482.95839966702624,482.95839966702624,485.0694390000135,489.0250922080013,482.95839966702624,482.95839966702624,488.0979314580036,483.4344365830184,484.4414814170159,485.0694390000135,486.0822010830161,482.95839966702624,482.95839966702624,482.9547154170228,482.95839966702624,482.95839966702624,482.95839966702624,482.9547154170228,482.95839966702624,482.95839966702624,488.0979314580036,482.95839966702624,488.0979314580036,488.1808166250121,488.8087460829993,482.95839966702624,2,1,0.619054541020887,reldom2_s027,001,2025-02-26_16h18.10.940,Where-B-Scan_AC,2022.2.5,None,
39,First_Order,7.0,viswhere,stimulus/viswhere_stim/blank_white.png,stimulus/viswhere_stim/blank_white.png,stimulus/viswhere_stim/60-deg_dot-right_salmon.png,stimulus/viswhere_stim/60-deg_dot-left_peru.png,stimulus/viswhere_stim/blank_white.png,stimulus/viswhere_stim/line_box.png,stimulus/viswhere_stim/line_yes.png,stimulus/viswhere_stim/line_no.png,None,Line,None,Line,1,0.0,0,5.125,0,5.125,0,5.125,0,0.0,0.625,0,0.0,0,0.0,1,0.5,1,2.125,0,0.0,0,0.0,0,0.0,0,0.0,0,,,,,0,51,51,51,,,,,,,,,489.0250922080013,489.0250922080013,489.0250922080013,489.0250922080013,489.0250922080013,489.0250922080013,489.0250922080013,489.0250922080013,489.0052798753507,489.0250922080013,489.0250922080013,489.0250922080013,489.0052798753507,489.0250922080013,489.0250922080013,489.0250922080013,491.13945679200697,495.08902354200836,489.0250922080013,489.0250922080013,494.1574611670221,489.50123545801034,490.5109556670068,491.13945679200697,492.1554240420228,489.0250922080013,489.0250922080013,489.02194654201736,489.0250922080013,489.0250922080013,489.0250922080013,489.02194654201736,489.0250922080013,489.0250922080013,494.1574611670221,489.0250922080013,494.1574611670221,494.24497337502544,494.8728398329986,489.0250922080013,1,1,0.9139116249862127,reldom2_s027,001,2025-02-26_16h18.10.940,Where-B-Scan_AC,2022.2.5,None,
40,First_Order,7.0,viswhere,stimulus/viswhere_stim/blank_white.png,stimulus/viswhere_stim/blank_white.png,stimulus/viswhere_stim/60-deg_dot-right_slateblue.png,stimulus/viswhere_stim/90-deg_dot-right_royalblue.png,stimulus/viswhere_stim/blank_white.png,stimulus/viswhere_stim/dot_box.png,stimulus/viswhere_stim/dot_yes.png,stimulus/viswhere_stim/dot_no.png,None,Dot,None,Dot,1,0.0,0,5.125,0,5.125,0,5.125,0,0.0,0.625,0,0.0,0,0.0,1,0.5,1,2.125,0,0.0,0,0.0,0,0.0,0,0.0,0,,,,,0,52,52,52,,,,,,,,,495.08902354200836,495.08902354200836,495.08902354200836,495.08902354200836,495.08902354200836,495.08902354200836,495.08902354200836,495.08902354200836,495.06922133335803,495.08902354200836,495.08902354200836,495.08902354200836,495.06922133335803,495.08902354200836,495.08902354200836,495.08902354200836,497.18744954201975,501.23315312500927,495.08902354200836,495.08902354200836,500.2268940830254,495.5659106670064,496.57685979202506,497.18744954201975,498.2036353330186,495.08902354200836,495.08902354200836,495.0858880000247,495.08902354200836,495.08902354200836,495.08902354200836,495.0858880000247,495.08902354200836,495.08902354200836,500.2268940830254,495.08902354200836,500.2268940830254,500.30869037500815,500.9402086670161,495.08902354200836,1,1,0.865907208994031,reldom2_s027,001,2025-02-26_16h18.10.940,Where-B-Scan_AC,2022.2.5,None,
0,0.0,None,fixation,stimulus/audwhere_stim/blank_white.png,stimulus/audwhere_stim/blank_white.png,stimulus/viswhere_stim/blank_white.png,stimulus/viswhere_stim/blank_white.png,stimulus/audwhere_stim/blank_white.png,stimulus/audwhere_stim/blank_white.png,stimulus/audwhere_stim/blank_white.png,stimulus/audwhere_stim/blank_white.png,0.0,0.0,0.0,0.0,0,0.0,0,0.0,0,0.0,0,0.0,0,0.0,0.0,0,0.0,0,0.0,0,0.0,0,0.0,0,0.0,0,0.0,0,0.0,0,0.0,8,,,,,0,53,53,53,,,,,,,,,501.23315312500927,501.23315312500927,501.23315312500927,501.23315312500927,501.23315312500927,501.23315312500927,501.23315312500927,501.23315312500927,501.13608087534277,501.23315312500927,501.23315312500927,501.23315312500927,501.13608087534277,501.23315312500927,501.23315312500927,501.23315312500927,501.23315312500927,501.23315312500927,501.23315312500927,501.23315312500927,501.23315312500927,501.23315312500927,501.23315312500927,501.23315312500927,501.23315312500927,501.23315312500927,501.23315312500927,501.1860808753428,501.23315312500927,501.23315312500927,501.23315312500927,501.1860808753428,501.23315312500927,501.23315312500927,501.23315312500927,501.23315312500927,501.23315312500927,506.4167956250021,506.4167956250021,509.36872550001135,None,0,,reldom2_s027,001,2025-02-26_16h18.10.940,Where-B-Scan_AC,2022.2.5,None,
41,Second_Order,7.0,viswhere,stimulus/viswhere_stim/60-deg_dot-right_seagreen.png,stimulus/viswhere_stim/30-deg_dot-right_mediumslateblue.png,stimulus/viswhere_stim/60-deg_dot-left_mediumslateblue.png,stimulus/viswhere_stim/150-deg_dot-left_salmon.png,stimulus/audwhere_stim/match_blank.png,stimulus/audwhere_stim/match_box.png,stimulus/audwhere_stim/match_yes.png,stimulus/audwhere_stim/match_no.png,1.0,Match,Dot,Dot,1,5.125,0,5.125,0,5.125,0,5.125,0,0.75,0.75,1,0.5,1,2.125,1,0.5,1,2.125,0,0.0,0,0.0,0,0.0,0,0.0,0,,,,,0,54,54,54,,,,,,,,,509.36872550001135,514.4855929580226,509.84058966700104,510.8268923750147,511.4792389170034,512.47693325,509.36872550001135,509.36872550001135,509.3673194996935,509.36872550001135,509.36872550001135,509.36872550001135,509.3673194996935,509.36872550001135,514.4855929580226,515.2820502500108,517.3637432079995,521.2457450420188,515.2820502500108,515.2820502500108,520.4112017920124,515.7301886670175,516.7317543750105,517.3637432079995,518.3686719170073,515.2820502500108,515.2820502500108,515.2546739583563,515.2820502500108,515.2820502500108,515.2820502500108,515.2546739583563,515.2820502500108,515.2820502500108,520.4112017920124,515.2820502500108,520.4112017920124,520.4809082080028,,515.2820502500108,1,1,1.006276333995629,reldom2_s027,001,2025-02-26_16h18.10.940,Where-B-Scan_AC,2022.2.5,None,
42,Second_Order,7.0,viswhere,stimulus/viswhere_stim/90-deg_dot-right_goldenrod.png,stimulus/viswhere_stim/120-deg_dot-right_mediumslateblue.png,stimulus/viswhere_stim/60-deg_dot-right_peru.png,stimulus/viswhere_stim/60-deg_dot-left_mediumslateblue.png,stimulus/audwhere_stim/match_blank.png,stimulus/audwhere_stim/match_box.png,stimulus/audwhere_stim/match_yes.png,stimulus/audwhere_stim/match_no.png,2.0,Match,Dot,Line,2,5.125,0,5.125,0,5.125,0,5.125,0,0.625,0.625,1,0.5,1,2.125,1,0.5,1,2.125,0,0.0,0,0.0,0,0.0,0,0.0,0,,,,,0,55,55,55,,,,,,,,,521.2457450420188,526.3643123330257,521.7318573330122,522.7209468330257,523.3566181250208,524.3546914170147,521.2457450420188,521.2457450420188,521.2598246250243,521.2457450420188,521.2457450420188,521.2457450420188,521.2598246250243,521.2457450420188,526.3643123330257,527.0335053750023,529.1167579170142,533.1561687080248,527.0335053750023,527.0335053750023,532.1611919170246,527.4944320000068,528.5063911670004,529.1167579170142,530.1356926250155,527.0335053750023,527.0335053750023,527.010522166333,527.0335053750023,527.0335053750023,527.0335053750023,527.010522166333,527.0335053750023,527.0335053750023,532.1611919170246,527.0335053750023,532.1611919170246,532.2294360420201,532.8608041670232,527.0335053750023,2,1,0.8092918339825701,reldom2_s027,001,2025-02-26_16h18.10.940,Where-B-Scan_AC,2022.2.5,None,
0,0.0,None,fixation,stimulus/audwhere_stim/blank_white.png,stimulus/audwhere_stim/blank_white.png,stimulus/viswhere_stim/blank_white.png,stimulus/viswhere_stim/blank_white.png,stimulus/audwhere_stim/blank_white.png,stimulus/audwhere_stim/blank_white.png,stimulus/audwhere_stim/blank_white.png,stimulus/audwhere_stim/blank_white.png,0.0,0.0,0.0,0.0,0,0.0,0,0.0,0,0.0,0,0.0,0,0.0,0.0,0,0.0,0,0.0,0,0.0,0,0.0,0,0.0,0,0.0,0,0.0,0,0.0,8,,,,,0,56,56,56,,,,,,,,,533.1561687080248,533.1561687080248,533.1561687080248,533.1561687080248,533.1561687080248,533.1561687080248,533.1561687080248,533.1561687080248,533.0570424163501,533.1561687080248,533.1561687080248,533.1561687080248,533.0570424163501,533.1561687080248,533.1561687080248,533.1561687080248,533.1561687080248,533.1561687080248,533.1561687080248,533.1561687080248,533.1561687080248,533.1561687080248,533.1561687080248,533.1561687080248,533.1561687080248,533.1561687080248,533.1561687080248,533.10704241635,533.1561687080248,533.1561687080248,533.1561687080248,533.10704241635,533.1561687080248,533.1561687080248,533.1561687080248,533.1561687080248,533.1561687080248,538.3703747500258,538.3703747500258,541.3272632920125,None,0,,reldom2_s027,001,2025-02-26_16h18.10.940,Where-B-Scan_AC,2022.2.5,None,
43,First_Order,8.0,viswhere,stimulus/viswhere_stim/blank_white.png,stimulus/viswhere_stim/blank_white.png,stimulus/viswhere_stim/120-deg_dot-left_lightsseagreen.png,stimulus/viswhere_stim/120-deg_dot-right_royalblue.png,stimulus/viswhere_stim/blank_white.png,stimulus/viswhere_stim/line_box.png,stimulus/viswhere_stim/line_yes.png,stimulus/viswhere_stim/line_no.png,None,Line,None,Line,1,0.0,0,5.125,0,5.125,0,5.125,0,0.0,0.625,0,0.0,0,0.0,1,0.5,1,2.125,0,0.0,0,0.0,0,0.0,0,0.0,0,,,,,0,57,57,57,,,,,,,,,541.3272632920125,541.3272632920125,541.3272632920125,541.3272632920125,541.3272632920125,541.3272632920125,541.3272632920125,541.3272632920125,541.3089202496727,541.3272632920125,541.3272632920125,541.3272632920125,541.3089202496727,541.3272632920125,541.3272632920125,541.3272632920125,543.4243015829998,547.3908408330171,541.3272632920125,541.3272632920125,546.459093042009,541.8041082080163,542.8162019170122,543.4243015829998,544.4397288750042,541.3272632920125,541.3272632920125,541.3089202496727,541.3272632920125,541.3272632920125,541.3272632920125,541.3089202496727,541.3272632920125,541.3272632920125,546.459093042009,541.3272632920125,546.459093042009,546.5424228750053,547.1730934170191,541.3272632920125,1,1,0.7814349159889389,reldom2_s027,001,2025-02-26_16h18.10.940,Where-B-Scan_AC,2022.2.5,None,
44,First_Order,8.0,viswhere,stimulus/viswhere_stim/blank_white.png,stimulus/viswhere_stim/blank_white.png,stimulus/viswhere_stim/60-deg_dot-right_peru.png,stimulus/viswhere_stim/90-deg_dot-right_turquoise.png,stimulus/viswhere_stim/blank_white.png,stimulus/viswhere_stim/dot_box.png,stimulus/viswhere_stim/dot_yes.png,stimulus/viswhere_stim/dot_no.png,None,Dot,None,Dot,1,0.0,0,5.125,0,5.125,0,5.125,0,0.0,0.625,0,0.0,0,0.0,1,0.5,1,2.125,0,0.0,0,0.0,0,0.0,0,0.0,0,,,,,0,58,58,58,,,,,,,,,547.3908408330171,547.3908408330171,547.3908408330171,547.3908408330171,547.3908408330171,547.3908408330171,547.3908408330171,547.3908408330171,547.3704228333567,547.3908408330171,547.3908408330171,547.3908408330171,547.3704228333567,547.3908408330171,547.3908408330171,547.3908408330171,549.4883003750001,553.4554330420215,547.3908408330171,547.3908408330171,552.5296900420217,547.8691633330018,548.8808061669988,549.4883003750001,550.5043996669992,547.3908408330171,547.3908408330171,547.3870895000233,547.3908408330171,547.3908408330171,547.3908408330171,547.3870895000233,547.3908408330171,547.3908408330171,552.5296900420217,547.3908408330171,552.5296900420217,552.6131500420161,553.2397873330046,547.3908408330171,1,1,0.7122247090155724,reldom2_s027,001,2025-02-26_16h18.10.940,Where-B-Scan_AC,2022.2.5,None,
45,First_Order,8.0,viswhere,stimulus/viswhere_stim/blank_white.png,stimulus/viswhere_stim/blank_white.png,stimulus/viswhere_stim/150-deg_dot-right_lightsseagreen.png,stimulus/viswhere_stim/150-deg_dot-left_royalblue.png,stimulus/viswhere_stim/blank_white.png,stimulus/viswhere_stim/dot_box.png,stimulus/viswhere_stim/dot_yes.png,stimulus/viswhere_stim/dot_no.png,None,Dot,None,Line,2,0.0,0,5.125,0,5.125,0,5.125,0,0.0,0.625,0,0.0,0,0.0,1,0.5,1,2.125,0,0.0,0,0.0,0,0.0,0,0.0,0,,,,,0,59,59,59,,,,,,,,,553.4554330420215,553.4554330420215,553.4554330420215,553.4554330420215,553.4554330420215,553.4554330420215,553.4554330420215,553.4554330420215,553.4339834583419,553.4554330420215,553.4554330420215,553.4554330420215,553.4339834583419,553.4554330420215,553.4554330420215,553.4554330420215,555.5560925830214,559.5125686670071,553.4554330420215,553.4554330420215,558.5897880830162,553.9372150420095,554.9414712080033,555.5560925830214,556.5637223330268,553.4554330420215,553.4554330420215,553.4506501250086,553.4554330420215,553.4554330420215,553.4554330420215,553.4506501250086,553.4554330420215,553.4554330420215,558.5897880830162,553.4554330420215,558.5897880830162,558.6831243330089,559.3118467500026,553.4554330420215,2,1,0.7127150000014808,reldom2_s027,001,2025-02-26_16h18.10.940,Where-B-Scan_AC,2022.2.5,None,
46,First_Order,8.0,viswhere,stimulus/viswhere_stim/blank_white.png,stimulus/viswhere_stim/blank_white.png,stimulus/viswhere_stim/30-deg_dot-left_salmon.png,stimulus/viswhere_stim/150-deg_dot-left_turquoise.png,stimulus/viswhere_stim/blank_white.png,stimulus/viswhere_stim/line_box.png,stimulus/viswhere_stim/line_yes.png,stimulus/viswhere_stim/line_no.png,None,Line,None,Dot,2,0.0,0,5.125,0,5.125,0,5.125,0,0.0,0.625,0,0.0,0,0.0,1,0.5,1,2.125,0,0.0,0,0.0,0,0.0,0,0.0,0,,,,,0,60,60,60,,,,,,,,,559.5125686670071,559.5125686670071,559.5125686670071,559.5125686670071,559.5125686670071,559.5125686670071,559.5125686670071,559.5125686670071,559.4922129583332,559.5125686670071,559.5125686670071,559.5125686670071,559.4922129583332,559.5125686670071,559.5125686670071,559.5125686670071,561.627401375008,565.65693633302,559.5125686670071,559.5125686670071,564.6404743750172,559.9938857080124,561.0140882920241,561.627401375008,562.6338434170175,559.5125686670071,559.5125686670071,559.5088796249998,559.5125686670071,559.5125686670071,559.5125686670071,559.5088796249998,559.5125686670071,559.5125686670071,564.6404743750172,559.5125686670071,564.6404743750172,564.7381012080004,565.3651708750112,559.5125686670071,2,1,0.9916747910028789,reldom2_s027,001,2025-02-26_16h18.10.940,Where-B-Scan_AC,2022.2.5,None,
0,0.0,None,fixation,stimulus/audwhere_stim/blank_white.png,stimulus/audwhere_stim/blank_white.png,stimulus/viswhere_stim/blank_white.png,stimulus/viswhere_stim/blank_white.png,stimulus/audwhere_stim/blank_white.png,stimulus/audwhere_stim/blank_white.png,stimulus/audwhere_stim/blank_white.png,stimulus/audwhere_stim/blank_white.png,0.0,0.0,0.0,0.0,0,0.0,0,0.0,0,0.0,0,0.0,0,0.0,0.0,0,0.0,0,0.0,0,0.0,0,0.0,0,0.0,0,0.0,0,0.0,0,0.0,9,,,,,0,61,61,61,,,,,,,,,565.65693633302,565.65693633302,565.65693633302,565.65693633302,565.65693633302,565.65693633302,565.65693633302,565.65693633302,565.5590259583454,565.65693633302,565.65693633302,565.65693633302,565.5590259583454,565.65693633302,565.65693633302,565.65693633302,565.65693633302,565.65693633302,565.65693633302,565.65693633302,565.65693633302,565.65693633302,565.65693633302,565.65693633302,565.65693633302,565.65693633302,565.65693633302,565.6090259583453,565.65693633302,565.65693633302,565.65693633302,565.6090259583453,565.65693633302,565.65693633302,565.65693633302,565.65693633302,565.65693633302,570.8505272080074,570.8505272080074,574.771404375002,None,0,,reldom2_s027,001,2025-02-26_16h18.10.940,Where-B-Scan_AC,2022.2.5,None,
47,Second_Order,8.0,viswhere,stimulus/viswhere_stim/90-deg_dot-left_lightsseagreen.png,stimulus/viswhere_stim/120-deg_dot-left_royalblue.png,stimulus/viswhere_stim/30-deg_dot-right_mediumslateblue.png,stimulus/viswhere_stim/60-deg_dot-right_lightsseagreen.png,stimulus/audwhere_stim/match_blank.png,stimulus/audwhere_stim/match_box.png,stimulus/audwhere_stim/match_yes.png,stimulus/audwhere_stim/match_no.png,1.0,Match,Dot,Dot,1,5.125,0,5.125,0,5.125,0,5.125,0,0.75,0.75,1,0.5,1,2.125,1,0.5,1,2.125,0,0.0,0,0.0,0,0.0,0,0.0,0,,,,,0,62,62,62,,,,,,,,,574.771404375002,579.8877250830119,575.2554647500219,576.2452426670061,576.8800163750129,577.8781417080027,574.771404375002,574.771404375002,574.7852616253386,574.771404375002,574.771404375002,574.771404375002,574.7852616253386,574.771404375002,579.8877250830119,580.6826244170079,582.7542827080179,,580.6826244170079,580.6826244170079,585.8125542920025,581.127001417015,582.141640833026,582.7542827080179,583.7579745000112,580.6826244170079,580.6826244170079,580.6552307913448,580.6826244170079,580.6826244170079,580.6826244170079,580.6552307913448,580.6826244170079,580.6826244170079,585.8125542920025,580.6826244170079,585.8125542920025,585.8818665830186,,580.6826244170079,1,1,0.6935099170077592,reldom2_s027,001,2025-02-26_16h18.10.940,Where-B-Scan_AC,2022.2.5,None,
48,Second_Order,8.0,viswhere,stimulus/viswhere_stim/60-deg_dot-left_seagreen.png,stimulus/viswhere_stim/90-deg_dot-left_peru.png,stimulus/viswhere_stim/30-deg_dot-right_turquoise.png,stimulus/viswhere_stim/30-deg_dot-left_lightsseagreen.png,stimulus/audwhere_stim/match_blank.png,stimulus/audwhere_stim/match_box.png,stimulus/audwhere_stim/match_yes.png,stimulus/audwhere_stim/match_no.png,2.0,Match,Dot,Line,2,5.125,0,5.125,0,5.125,0,5.125,0,0.625,0.625,1,0.5,1,2.125,1,0.5,1,2.125,0,0.0,0,0.0,0,0.0,0,0.0,0,,,,,0,63,63,63,,,,,,,,,586.6663701250218,591.7814008750138,587.1496549170115,588.1384437080123,588.7758617500076,589.7721714580257,586.6663701250218,586.6663701250218,586.6745094163538,586.6663701250218,586.6663701250218,586.6663701250218,586.6745094163538,586.6663701250218,591.7814008750138,592.4504216670175,594.5406015830231,598.5680524170166,592.4504216670175,592.4504216670175,597.5768033750064,592.9161354580137,593.9297812080185,594.5406015830231,595.5454829580267,592.4504216670175,592.4504216670175,592.4285817503483,592.4504216670175,592.4504216670175,592.4504216670175,592.4285817503483,592.4504216670175,592.4504216670175,597.5768033750064,592.4504216670175,597.5768033750064,597.6472887920099,598.2744544580055,592.4504216670175,2,1,0.7128159589774441,reldom2_s027,001,2025-02-26_16h18.10.940,Where-B-Scan_AC,2022.2.5,None,
0,0.0,None,fixation,stimulus/audwhere_stim/blank_white.png,stimulus/audwhere_stim/blank_white.png,stimulus/viswhere_stim/blank_white.png,stimulus/viswhere_stim/blank_white.png,stimulus/audwhere_stim/blank_white.png,stimulus/audwhere_stim/blank_white.png,stimulus/audwhere_stim/blank_white.png,stimulus/audwhere_stim/blank_white.png,0.0,0.0,0.0,0.0,0,0.0,0,0.0,0,0.0,0,0.0,0,0.0,0.0,0,0.0,0,0.0,0,0.0,0,0.0,0,0.0,0,0.0,0,0.0,0,0.0,16,,,,,0,64,64,64,,,,,,,,,598.5680524170166,598.5680524170166,598.5680524170166,598.5680524170166,598.5680524170166,598.5680524170166,598.5680524170166,598.5680524170166,598.4680927503408,598.5680524170166,598.5680524170166,598.5680524170166,598.4680927503408,598.5680524170166,598.5680524170166,598.5680524170166,598.5680524170166,598.5680524170166,598.5680524170166,598.5680524170166,598.5680524170166,598.5680524170166,598.5680524170166,598.5680524170166,598.5680524170166,598.5680524170166,598.5680524170166,598.5180927503408,598.5680524170166,598.5680524170166,598.5680524170166,598.5180927503408,598.5680524170166,598.5680524170166,598.5680524170166,598.5680524170166,598.5680524170166,603.7891297500173,603.7891297500173,614.7105150830175,None,0,,reldom2_s027,001,2025-02-26_16h18.10.940,Where-B-Scan_AC,2022.2.5,None,
