Trial,Order,Block,Type,Stimuli_File1,Stimuli_File2,Stimuli_File3,Stimuli_File4,Cue_File1,Cue_File2,Response_File_Yes,Response_File_No,Match,Cue_Dimension,Pair1_Dimension,Pair2_Dimension,Key,Cue1_Duration,Cue1_Onset,Cue2_Duration,Cue2_Onset,ResponseYes_Duration,ResponseYes_Onset,ResponseNo_Duration,ResponseNo_Onset,ITI_Within,ITI_Between,Image1_Duration,Image1_Onset,Image2_Duration,Image2_Onset,Image3_Duration,Image3_Onset,Image4_Duration,Image4_Onset,Sound1_Duration,Sound1_Onset,Sound2_Duration,Sound2_Onset,Sound3_Duration,Sound3_Onset,Sound4_Duration,Sound4_Onset,Fixation_Duration,trials_2.thisRepN,trials_2.thisTrialN,trials_2.thisN,trials_2.thisIndex,trials.thisRepN,trials.thisTrialN,trials.thisN,trials.thisIndex,text_start.started,key_resp_start.started,key_resp_start.keys,key_resp_start.rt,text2.started,key_resp_2.started,key_resp_2.keys,key_resp_2.rt,cue_file1.started,cue_file1.stopped,image_1.started,image_1.stopped,image_2.started,image_2.stopped,sound_icon1.started,sound_icon1.stopped,sound_1.started,sound_1.stopped,sound_icon2.started,sound_icon2.stopped,sound_2.started,sound_2.stopped,image_blank_1.started,image_blank_1.stopped,key_press.started,key_press.stopped,fixation_text.started,cue_file2.started,cue_file2.stopped,image_3.started,image_3.stopped,image_4.started,image_4.stopped,sound_icon3.started,sound_icon3.stopped,sound_3.started,sound_3.stopped,sound_icon4.started,sound_icon4.stopped,sound_4.started,sound_4.stopped,response_yes.started,response_yes.stopped,response_no.started,response_no.stopped,iti_blank.started,iti_blank.stopped,fixation_text.stopped,key_press.keys,key_press.corr,key_press.rt,participant,session,date,expName,psychopyVersion,frameRate,
,,,,,,,,,,,,,,,,,,,,,,,,,,,,,,,,,,,,,,,,,,,,,,,,,,,,9.424906166997971,9.424906166997971,2,1.488533958006883,,,,,,,,,,,,,,,,,,,,,,,,,,,,,,,,,,,,,,,,,,,,,,,,reldom2_s027,001,2025-02-26_15h55.45.472,What-B-Scan_AC,2022.2.5,None,
,,,,,,,,,,,,,,,,,,,,,,,,,,,,,,,,,,,,,,,,,,,,0,0,0,0,,,,,,,,,10.95599454198964,10.95599454198964,5,17.92965166599606,,,,,,,,,,,,,,,,,,,,,,,,,,,,,,,,,,,,,,,,,,,,reldom2_s027,001,2025-02-26_15h55.45.472,What-B-Scan_AC,2022.2.5,None,
,,,,,,,,,,,,,,,,,,,,,,,,,,,,,,,,,,,,,,,,,,,,1,0,1,0,,,,,,,,,28.902219625015277,28.902219625015277,5,1.9843084999884013,,,,,,,,,,,,,,,,,,,,,,,,,,,,,,,,,,,,,,,,,,,,reldom2_s027,001,2025-02-26_15h55.45.472,What-B-Scan_AC,2022.2.5,None,
,,,,,,,,,,,,,,,,,,,,,,,,,,,,,,,,,,,,,,,,,,,,2,0,2,0,,,,,,,,,30.914859082986368,30.914859082986368,5,1.9736097500135656,,,,,,,,,,,,,,,,,,,,,,,,,,,,,,,,,,,,,,,,,,,,reldom2_s027,001,2025-02-26_15h55.45.472,What-B-Scan_AC,2022.2.5,None,
,,,,,,,,,,,,,,,,,,,,,,,,,,,,,,,,,,,,,,,,,,,,3,0,3,0,,,,,,,,,32.901883000013186,32.901883000013186,5,1.984300959011307,,,,,,,,,,,,,,,,,,,,,,,,,,,,,,,,,,,,,,,,,,,,reldom2_s027,001,2025-02-26_15h55.45.472,What-B-Scan_AC,2022.2.5,None,
0,0.0,None,fixation,stimulus/viswhat_stim/blank_white.png,stimulus/viswhat_stim/blank_white.png,stimulus/audwhat_stim/blank_white.png,stimulus/audwhat_stim/blank_white.png,stimulus/viswhat_stim/blank_white.png,stimulus/viswhat_stim/blank_white.png,stimulus/viswhat_stim/blank_white.png,stimulus/viswhat_stim/blank_white.png,0.0,0.0,0.0,0.0,0,0.0,0,0.0,0,0.0,0,0.0,0,0.0,0.0,0,0.0,0,0.0,0,0.0,0,0.0,0,0.0,0,0.0,0,0.0,0,0.0,16,,,,,0,0,0,0,,,,,,,,,35.108882958011236,35.108882958011236,35.108882958011236,35.108882958011236,35.108882958011236,35.108882958011236,35.108882958011236,35.108882958011236,35.006372249654184,35.108882958011236,35.108882958011236,35.108882958011236,35.006372249654184,35.108882958011236,35.108882958011236,35.108882958011236,35.108882958011236,35.108882958011236,35.108882958011236,35.108882958011236,35.108882958011236,35.108882958011236,35.108882958011236,35.108882958011236,35.108882958011236,35.108882958011236,35.108882958011236,35.07303891632085,35.108882958011236,35.108882958011236,35.108882958011236,35.07303891632085,35.108882958011236,35.108882958011236,35.108882958011236,35.108882958011236,35.108882958011236,40.28410629200516,40.28410629200516,51.568225166993216,None,0,,reldom2_s027,001,2025-02-26_15h55.45.472,What-B-Scan_AC,2022.2.5,None,
1,First_Order,1.0,viswhat,stimulus/viswhat_stim/blank_white.png,stimulus/viswhat_stim/blank_white.png,stimulus/viswhat_stim/water_vehicle-pirateship.png,stimulus/viswhat_stim/water_animal-lobster.png,stimulus/viswhat_stim/blank_white.png,stimulus/viswhat_stim/location_box.png,stimulus/viswhat_stim/location_yes.png,stimulus/viswhat_stim/location_no.png,None,Location,None,Location,1,0.0,0,5.125,0,5.125,0,5.125,0,0.0,0.625,0,0.0,0,0.0,1,0.5,1,2.125,0,0.0,0,0.0,0,0.0,0,0.0,0,,,,,0,1,1,1,,,,,,,,,51.568225166993216,51.568225166993216,51.568225166993216,51.568225166993216,51.568225166993216,51.568225166993216,51.568225166993216,51.568225166993216,51.27717675001477,51.568225166993216,51.568225166993216,51.568225166993216,51.27717675001477,51.568225166993216,51.568225166993216,51.568225166993216,53.606925625004806,,51.568225166993216,51.568225166993216,56.9623515830026,52.004887666989816,53.170530917006545,53.606925625004806,54.774747166986344,51.568225166993216,51.568225166993216,51.427176750014766,51.568225166993216,51.568225166993216,51.568225166993216,51.427176750014766,51.568225166993216,51.568225166993216,56.9623515830026,51.568225166993216,56.9623515830026,56.67503729200689,,51.568225166993216,1,1,0.8006499169860035,reldom2_s027,001,2025-02-26_15h55.45.472,What-B-Scan_AC,2022.2.5,None,
2,First_Order,1.0,viswhat,stimulus/viswhat_stim/blank_white.png,stimulus/viswhat_stim/blank_white.png,stimulus/viswhat_stim/land_vehicle-firetruck.png,stimulus/viswhat_stim/water_vehicle-jetski.png,stimulus/viswhat_stim/blank_white.png,stimulus/viswhat_stim/location_box.png,stimulus/viswhat_stim/location_yes.png,stimulus/viswhat_stim/location_no.png,None,Location,None,Type,2,0.0,0,5.125,0,5.125,0,5.125,0,0.0,0.625,0,0.0,0,0.0,1,0.5,1,2.125,0,0.0,0,0.0,0,0.0,0,0.0,0,,,,,0,2,2,2,,,,,,,,,57.6126473750046,57.6126473750046,57.6126473750046,57.6126473750046,57.6126473750046,57.6126473750046,57.6126473750046,57.6126473750046,57.57611004134136,57.6126473750046,57.6126473750046,57.6126473750046,57.57611004134136,57.6126473750046,57.6126473750046,57.6126473750046,59.70951325001079,63.76513258300838,57.6126473750046,57.6126473750046,62.74809654199635,58.0819149579911,59.093936499994015,59.70951325001079,60.72622158299782,57.6126473750046,57.6126473750046,57.592776708008024,57.6126473750046,57.6126473750046,57.6126473750046,57.592776708008024,57.6126473750046,57.6126473750046,62.74809654199635,57.6126473750046,62.74809654199635,62.82435737500782,63.45342958299443,57.6126473750046,2,1,0.7114557909953874,reldom2_s027,001,2025-02-26_15h55.45.472,What-B-Scan_AC,2022.2.5,None,
3,First_Order,1.0,viswhat,stimulus/viswhat_stim/blank_white.png,stimulus/viswhat_stim/blank_white.png,stimulus/viswhat_stim/land_animal-moose.png,stimulus/viswhat_stim/water_animal-jellyfish.png,stimulus/viswhat_stim/blank_white.png,stimulus/viswhat_stim/type_box.png,stimulus/viswhat_stim/type_yes.png,stimulus/viswhat_stim/type_no.png,None,Type,None,Type,1,0.0,0,5.125,0,5.125,0,5.125,0,0.0,0.625,0,0.0,0,0.0,1,0.5,1,2.125,0,0.0,0,0.0,0,0.0,0,0.0,0,,,,,0,3,3,3,,,,,,,,,63.76513258300838,63.76513258300838,63.76513258300838,63.76513258300838,63.76513258300838,63.76513258300838,63.76513258300838,63.76513258300838,63.66705562499701,63.76513258300838,63.76513258300838,63.76513258300838,63.66705562499701,63.76513258300838,63.76513258300838,63.76513258300838,65.85984883300262,,63.76513258300838,63.76513258300838,68.96963095798856,64.24444170799688,65.32364879199304,65.85984883300262,66.93850541699794,63.76513258300838,63.76513258300838,63.71705562499701,63.76513258300838,63.76513258300838,63.76513258300838,63.71705562499701,63.76513258300838,63.76513258300838,68.96963095798856,63.76513258300838,68.96963095798856,68.96963095798856,69.8391859169933,63.76513258300838,1,1,0.5958423749834765,reldom2_s027,001,2025-02-26_15h55.45.472,What-B-Scan_AC,2022.2.5,None,
4,First_Order,1.0,viswhat,stimulus/viswhat_stim/blank_white.png,stimulus/viswhat_stim/blank_white.png,stimulus/viswhat_stim/land_animal-tiger.png,stimulus/viswhat_stim/land_vehicle-rv.png,stimulus/viswhat_stim/blank_white.png,stimulus/viswhat_stim/type_box.png,stimulus/viswhat_stim/type_yes.png,stimulus/viswhat_stim/type_no.png,None,Type,None,Location,2,0.0,0,5.125,0,5.125,0,5.125,0,0.0,0.625,0,0.0,0,0.0,1,0.5,1,2.125,0,0.0,0,0.0,0,0.0,0,0.0,0,,,,,0,4,4,4,,,,,,,,,69.8391859169933,69.8391859169933,69.8391859169933,69.8391859169933,69.8391859169933,69.8391859169933,69.8391859169933,69.8391859169933,69.78759708367095,69.8391859169933,69.8391859169933,69.8391859169933,69.78759708367095,69.8391859169933,69.8391859169933,69.8391859169933,71.92338812499656,75.9809444170096,69.8391859169933,69.8391859169933,74.9825309579901,70.32532075000927,71.3680600830121,71.92338812499656,72.96800116699887,69.8391859169933,69.8391859169933,69.82093041700428,69.8391859169933,69.8391859169933,69.8391859169933,69.82093041700428,69.8391859169933,69.8391859169933,74.9825309579901,69.8391859169933,74.9825309579901,75.04116250001243,75.68327979199239,69.8391859169933,2,1,0.758153750008205,reldom2_s027,001,2025-02-26_15h55.45.472,What-B-Scan_AC,2022.2.5,None,
0,0.0,None,fixation,stimulus/viswhat_stim/blank_white.png,stimulus/viswhat_stim/blank_white.png,stimulus/audwhat_stim/blank_white.png,stimulus/audwhat_stim/blank_white.png,stimulus/viswhat_stim/blank_white.png,stimulus/viswhat_stim/blank_white.png,stimulus/viswhat_stim/blank_white.png,stimulus/viswhat_stim/blank_white.png,0.0,0.0,0.0,0.0,0,0.0,0,0.0,0,0.0,0,0.0,0,0.0,0.0,0,0.0,0,0.0,0,0.0,0,0.0,0,0.0,0,0.0,0,0.0,0,0.0,9,,,,,0,5,5,5,,,,,,,,,75.9809444170096,75.9809444170096,75.9809444170096,75.9809444170096,75.9809444170096,75.9809444170096,75.9809444170096,75.9809444170096,75.88622154167193,75.9809444170096,75.9809444170096,75.9809444170096,75.88622154167193,75.9809444170096,75.9809444170096,75.9809444170096,75.9809444170096,75.9809444170096,75.9809444170096,75.9809444170096,75.9809444170096,75.9809444170096,75.9809444170096,75.9809444170096,75.9809444170096,75.9809444170096,75.9809444170096,75.93622154167194,75.9809444170096,75.9809444170096,75.9809444170096,75.93622154167194,75.9809444170096,75.9809444170096,75.9809444170096,75.9809444170096,75.9809444170096,81.20484625000972,81.20484625000972,85.16184899999644,None,0,,reldom2_s027,001,2025-02-26_15h55.45.472,What-B-Scan_AC,2022.2.5,None,
5,Second_Order,1.0,viswhat,stimulus/viswhat_stim/land_animal-bunny.png,stimulus/viswhat_stim/land_vehicle-motorcycle.png,stimulus/viswhat_stim/water_animal-octopus.png,stimulus/viswhat_stim/land_animal-fox.png,stimulus/viswhat_stim/match_blank.png,stimulus/viswhat_stim/match_box.png,stimulus/viswhat_stim/match_yes.png,stimulus/viswhat_stim/match_no.png,2.0,Match,Location,Type,2,5.125,0,5.125,0,5.125,0,5.125,0,0.75,0.75,1,0.5,1,2.125,1,0.5,1,2.125,0,0.0,0,0.0,0,0.0,0,0.0,0,,,,,0,6,6,6,,,,,,,,,85.16184899999644,90.28456420800649,85.60635387498769,86.59598112499225,87.23322537500644,88.22981937500299,85.16184899999644,85.16184899999644,85.17295258368055,85.16184899999644,85.16184899999644,85.16184899999644,85.17295258368055,85.16184899999644,90.28456420800649,91.10694391699508,93.16729574999772,97.07852025001193,91.10694391699508,91.10694391699508,96.26747441699263,91.54100020800252,92.57161937499768,93.16729574999772,94.20338720799191,91.10694391699508,91.10694391699508,91.08578666667842,91.10694391699508,91.10694391699508,91.10694391699508,91.08578666667842,91.10694391699508,91.10694391699508,96.26747441699263,91.10694391699508,96.26747441699263,96.29349754200666,,91.10694391699508,2,1,0.6294164579885546,reldom2_s027,001,2025-02-26_15h55.45.472,What-B-Scan_AC,2022.2.5,None,
6,Second_Order,1.0,viswhat,stimulus/viswhat_stim/land_vehicle-tank.png,stimulus/viswhat_stim/land_animal-wolf.png,stimulus/viswhat_stim/water_vehicle-motorboatraft.png,stimulus/viswhat_stim/water_animal-squid.png,stimulus/viswhat_stim/match_blank.png,stimulus/viswhat_stim/match_box.png,stimulus/viswhat_stim/match_yes.png,stimulus/viswhat_stim/match_no.png,1.0,Match,Location,Location,1,5.125,0,5.125,0,5.125,0,5.125,0,0.625,0.625,1,0.5,1,2.125,1,0.5,1,2.125,0,0.0,0,0.0,0,0.0,0,0.0,0,,,,,0,7,7,7,,,,,,,,,97.07852025001193,102.1997510830115,97.55467262500315,98.55332408301183,99.17591266700765,100.17386954199173,97.07852025001193,97.07852025001193,97.08026691667425,97.07852025001193,97.07852025001193,97.07852025001193,97.08026691667425,97.07852025001193,102.1997510830115,102.896152833011,104.95362187499995,109.01452691698796,102.896152833011,102.896152833011,108.04370333300903,103.33645462500863,104.36463279201416,104.95362187499995,105.99265770800412,102.896152833011,102.896152833011,102.86333287499728,102.896152833011,102.896152833011,102.896152833011,102.86333287499728,102.896152833011,102.896152833011,108.04370333300903,102.896152833011,108.04370333300903,108.09211108300951,108.73842166698887,102.896152833011,1,1,0.7708018340053968,reldom2_s027,001,2025-02-26_15h55.45.472,What-B-Scan_AC,2022.2.5,None,
0,0.0,None,fixation,stimulus/viswhat_stim/blank_white.png,stimulus/viswhat_stim/blank_white.png,stimulus/audwhat_stim/blank_white.png,stimulus/audwhat_stim/blank_white.png,stimulus/viswhat_stim/blank_white.png,stimulus/viswhat_stim/blank_white.png,stimulus/viswhat_stim/blank_white.png,stimulus/viswhat_stim/blank_white.png,0.0,0.0,0.0,0.0,0,0.0,0,0.0,0,0.0,0,0.0,0,0.0,0.0,0,0.0,0,0.0,0,0.0,0,0.0,0,0.0,0,0.0,0,0.0,0,0.0,9,,,,,0,8,8,8,,,,,,,,,109.01452691698796,109.01452691698796,109.01452691698796,109.01452691698796,109.01452691698796,109.01452691698796,109.01452691698796,109.01452691698796,108.91055970801389,109.01452691698796,109.01452691698796,109.01452691698796,108.91055970801389,109.01452691698796,109.01452691698796,109.01452691698796,109.01452691698796,109.01452691698796,109.01452691698796,109.01452691698796,109.01452691698796,109.01452691698796,109.01452691698796,109.01452691698796,109.01452691698796,109.01452691698796,109.01452691698796,108.9605597080139,109.01452691698796,109.01452691698796,109.01452691698796,108.9605597080139,109.01452691698796,109.01452691698796,109.01452691698796,109.01452691698796,109.01452691698796,114.21054433300742,114.21054433300742,118.49434791700332,None,0,,reldom2_s027,001,2025-02-26_15h55.45.472,What-B-Scan_AC,2022.2.5,None,
7,First_Order,2.0,viswhat,stimulus/viswhat_stim/blank_white.png,stimulus/viswhat_stim/blank_white.png,stimulus/viswhat_stim/water_animal-lobster.png,stimulus/viswhat_stim/water_vehicle-canoe.png,stimulus/viswhat_stim/blank_white.png,stimulus/viswhat_stim/location_box.png,stimulus/viswhat_stim/location_yes.png,stimulus/viswhat_stim/location_no.png,None,Location,None,Location,1,0.0,0,5.125,0,5.125,0,5.125,0,0.0,0.625,0,0.0,0,0.0,1,0.5,1,2.125,0,0.0,0,0.0,0,0.0,0,0.0,0,,,,,0,9,9,9,,,,,,,,,118.49434791700332,118.49434791700332,118.49434791700332,118.49434791700332,118.49434791700332,118.49434791700332,118.49434791700332,118.49434791700332,118.2148387086733,118.49434791700332,118.49434791700332,118.49434791700332,118.2148387086733,118.49434791700332,118.49434791700332,118.49434791700332,120.59009895799682,,118.49434791700332,118.49434791700332,123.88017187500373,118.94452104199445,120.14078987500397,120.59009895799682,121.78924045799067,118.49434791700332,118.49434791700332,118.34817204200662,118.49434791700332,118.49434791700332,118.49434791700332,118.34817204200662,118.49434791700332,118.49434791700332,123.88017187500373,118.49434791700332,123.88017187500373,123.58636033299263,,118.49434791700332,1,1,0.7693282079999335,reldom2_s027,001,2025-02-26_15h55.45.472,What-B-Scan_AC,2022.2.5,None,
8,First_Order,2.0,viswhat,stimulus/viswhat_stim/blank_white.png,stimulus/viswhat_stim/blank_white.png,stimulus/viswhat_stim/water_animal-jellyfish.png,stimulus/viswhat_stim/land_animal-bunny.png,stimulus/viswhat_stim/blank_white.png,stimulus/viswhat_stim/type_box.png,stimulus/viswhat_stim/type_yes.png,stimulus/viswhat_stim/type_no.png,None,Type,None,Type,1,0.0,0,5.125,0,5.125,0,5.125,0,0.0,0.625,0,0.0,0,0.0,1,0.5,1,2.125,0,0.0,0,0.0,0,0.0,0,0.0,0,,,,,0,10,10,10,,,,,,,,,124.6000452080043,124.6000452080043,124.6000452080043,124.6000452080043,124.6000452080043,124.6000452080043,124.6000452080043,124.6000452080043,124.51784041700884,124.6000452080043,124.6000452080043,124.6000452080043,124.51784041700884,124.6000452080043,124.6000452080043,124.6000452080043,126.69563912501326,130.68801104198792,124.6000452080043,124.6000452080043,129.78887058299733,125.07271804200718,126.12019854199025,126.69563912501326,127.75059562499519,124.6000452080043,124.6000452080043,124.55117375034217,124.6000452080043,124.6000452080043,124.6000452080043,124.55117375034217,124.6000452080043,124.6000452080043,129.78887058299733,124.6000452080043,129.78887058299733,129.78887058299733,130.48818287500762,124.6000452080043,1,1,0.5754819159919862,reldom2_s027,001,2025-02-26_15h55.45.472,What-B-Scan_AC,2022.2.5,None,
9,First_Order,2.0,viswhat,stimulus/viswhat_stim/blank_white.png,stimulus/viswhat_stim/blank_white.png,stimulus/viswhat_stim/land_animal-cat.png,stimulus/viswhat_stim/water_animal-whale (1).png,stimulus/viswhat_stim/blank_white.png,stimulus/viswhat_stim/location_box.png,stimulus/viswhat_stim/location_yes.png,stimulus/viswhat_stim/location_no.png,None,Location,None,Type,2,0.0,0,5.125,0,5.125,0,5.125,0,0.0,0.625,0,0.0,0,0.0,1,0.5,1,2.125,0,0.0,0,0.0,0,0.0,0,0.0,0,,,,,0,11,11,11,,,,,,,,,130.68801104198792,130.68801104198792,130.68801104198792,130.68801104198792,130.68801104198792,130.68801104198792,130.68801104198792,130.68801104198792,130.63818287500763,130.68801104198792,130.68801104198792,130.68801104198792,130.63818287500763,130.68801104198792,130.68801104198792,130.68801104198792,132.79512208301458,136.81396887500887,130.68801104198792,130.68801104198792,135.85458470799495,131.1761152500112,132.21276887500426,132.79512208301458,133.8401479999884,130.68801104198792,130.68801104198792,130.67151620834096,130.68801104198792,130.68801104198792,130.68801104198792,130.67151620834096,130.68801104198792,130.68801104198792,135.85458470799495,130.68801104198792,135.85458470799495,135.90833279199433,136.55019154198817,130.68801104198792,2,1,1.0917509169958066,reldom2_s027,001,2025-02-26_15h55.45.472,What-B-Scan_AC,2022.2.5,None,
10,First_Order,2.0,viswhat,stimulus/viswhat_stim/blank_white.png,stimulus/viswhat_stim/blank_white.png,stimulus/viswhat_stim/water_animal-shark.png,stimulus/viswhat_stim/water_vehicle-yacht.png,stimulus/viswhat_stim/blank_white.png,stimulus/viswhat_stim/type_box.png,stimulus/viswhat_stim/type_yes.png,stimulus/viswhat_stim/type_no.png,None,Type,None,Location,2,0.0,0,5.125,0,5.125,0,5.125,0,0.0,0.625,0,0.0,0,0.0,1,0.5,1,2.125,0,0.0,0,0.0,0,0.0,0,0.0,0,,,,,0,12,12,12,,,,,,,,,136.81396887500887,136.81396887500887,136.81396887500887,136.81396887500887,136.81396887500887,136.81396887500887,136.81396887500887,136.81396887500887,136.7468059166548,136.81396887500887,136.81396887500887,136.81396887500887,136.7468059166548,136.81396887500887,136.81396887500887,136.81396887500887,138.9198597499926,142.94595704201492,136.81396887500887,136.81396887500887,141.96900566699333,137.28743491700152,138.31855370799894,138.9198597499926,139.95537829201203,136.81396887500887,136.81396887500887,136.78013924998814,136.81396887500887,136.81396887500887,136.81396887500887,136.78013924998814,136.81396887500887,136.81396887500887,141.96900566699333,136.81396887500887,141.96900566699333,142.00665604200913,142.67754966698703,136.81396887500887,2,1,0.7668873749789782,reldom2_s027,001,2025-02-26_15h55.45.472,What-B-Scan_AC,2022.2.5,None,
0,0.0,None,fixation,stimulus/viswhat_stim/blank_white.png,stimulus/viswhat_stim/blank_white.png,stimulus/audwhat_stim/blank_white.png,stimulus/audwhat_stim/blank_white.png,stimulus/viswhat_stim/blank_white.png,stimulus/viswhat_stim/blank_white.png,stimulus/viswhat_stim/blank_white.png,stimulus/viswhat_stim/blank_white.png,0.0,0.0,0.0,0.0,0,0.0,0,0.0,0,0.0,0,0.0,0,0.0,0.0,0,0.0,0,0.0,0,0.0,0,0.0,0,0.0,0,0.0,0,0.0,0,0.0,10,,,,,0,13,13,13,,,,,,,,,142.94595704201492,142.94595704201492,142.94595704201492,142.94595704201492,142.94595704201492,142.94595704201492,142.94595704201492,142.94595704201492,142.84803995833695,142.94595704201492,142.94595704201492,142.94595704201492,142.84803995833695,142.94595704201492,142.94595704201492,142.94595704201492,142.94595704201492,142.94595704201492,142.94595704201492,142.94595704201492,142.94595704201492,142.94595704201492,142.94595704201492,142.94595704201492,142.94595704201492,142.94595704201492,142.94595704201492,142.89803995833694,142.94595704201492,142.94595704201492,142.94595704201492,142.89803995833694,142.94595704201492,142.94595704201492,142.94595704201492,142.94595704201492,142.94595704201492,148.16367949999403,148.16367949999403,153.08018779198756,None,0,,reldom2_s027,001,2025-02-26_15h55.45.472,What-B-Scan_AC,2022.2.5,None,
11,Second_Order,2.0,viswhat,stimulus/viswhat_stim/land_animal-ostrich.png,stimulus/viswhat_stim/water_animal-stingray.png,stimulus/viswhat_stim/water_vehicle-cruiseship.png,stimulus/viswhat_stim/water_animal-seaturtle.png,stimulus/viswhat_stim/match_blank.png,stimulus/viswhat_stim/match_box.png,stimulus/viswhat_stim/match_yes.png,stimulus/viswhat_stim/match_no.png,2.0,Match,Type,Location,2,5.125,0,5.125,0,5.125,0,5.125,0,0.75,0.75,1,0.5,1,2.125,1,0.5,1,2.125,0,0.0,0,0.0,0,0.0,0,0.0,0,,,,,0,14,14,14,,,,,,,,,153.08018779198756,158.19627083299565,153.5506905830116,154.5494020000042,155.1843702920014,156.17439270799514,153.08018779198756,153.08018779198756,153.09162262533405,153.08018779198756,153.08018779198756,153.08018779198756,153.09162262533405,153.08018779198756,158.19627083299565,159.16526412501116,161.18095195799833,,159.16526412501116,159.16526412501116,164.40379258300527,159.5675726250047,160.67599858299945,161.18095195799833,162.29196054200293,159.16526412501116,159.16526412501116,159.06429491634677,159.16526412501116,159.16526412501116,159.16526412501116,159.06429491634677,159.16526412501116,159.16526412501116,164.40379258300527,159.16526412501116,164.40379258300527,164.3087284170033,,159.16526412501116,2,1,0.6117405830009375,reldom2_s027,001,2025-02-26_15h55.45.472,What-B-Scan_AC,2022.2.5,None,
12,Second_Order,2.0,viswhat,stimulus/viswhat_stim/land_animal-ostrich.png,stimulus/viswhat_stim/land_vehicle-oldcar.png,stimulus/viswhat_stim/water_vehicle-ship.png,stimulus/viswhat_stim/land_vehicle-vespa.png,stimulus/viswhat_stim/match_blank.png,stimulus/viswhat_stim/match_box.png,stimulus/viswhat_stim/match_yes.png,stimulus/viswhat_stim/match_no.png,2.0,Match,Location,Type,2,5.125,0,5.125,0,5.125,0,5.125,0,0.625,0.625,1,0.5,1,2.125,1,0.5,1,2.125,0,0.0,0,0.0,0,0.0,0,0.0,0,,,,,0,15,15,15,,,,,,,,,165.1046043749957,170.22514525000588,165.56286433301284,166.560410917009,167.18363954199594,168.18084166699555,165.1046043749957,165.1046043749957,165.1124561253198,165.1046043749957,165.1046043749957,165.1046043749957,165.1124561253198,165.1046043749957,170.22514525000588,171.00213633300154,173.0515986669925,177.11583279201295,171.00213633300154,171.00213633300154,176.20175379200373,171.40781875001267,172.50290074999793,173.0515986669925,174.15069254199625,171.00213633300154,171.00213633300154,170.93711675001543,171.00213633300154,171.00213633300154,171.00213633300154,170.93711675001543,171.00213633300154,171.00213633300154,176.20175379200373,171.00213633300154,176.20175379200373,176.20175379200373,177.11583279201295,171.00213633300154,2,1,0.696244624996325,reldom2_s027,001,2025-02-26_15h55.45.472,What-B-Scan_AC,2022.2.5,None,
0,0.0,None,fixation,stimulus/viswhat_stim/blank_white.png,stimulus/viswhat_stim/blank_white.png,stimulus/audwhat_stim/blank_white.png,stimulus/audwhat_stim/blank_white.png,stimulus/viswhat_stim/blank_white.png,stimulus/viswhat_stim/blank_white.png,stimulus/viswhat_stim/blank_white.png,stimulus/viswhat_stim/blank_white.png,0.0,0.0,0.0,0.0,0,0.0,0,0.0,0,0.0,0,0.0,0,0.0,0.0,0,0.0,0,0.0,0,0.0,0,0.0,0,0.0,0,0.0,0,0.0,0,0.0,9,,,,,0,16,16,16,,,,,,,,,177.11583279201295,177.11583279201295,177.11583279201295,177.11583279201295,177.11583279201295,177.11583279201295,177.11583279201295,177.11583279201295,177.01496895834765,177.11583279201295,177.11583279201295,177.11583279201295,177.01496895834765,177.11583279201295,177.11583279201295,177.11583279201295,177.11583279201295,177.11583279201295,177.11583279201295,177.11583279201295,177.11583279201295,177.11583279201295,177.11583279201295,177.11583279201295,177.11583279201295,177.11583279201295,177.11583279201295,177.06496895834766,177.11583279201295,177.11583279201295,177.11583279201295,177.06496895834766,177.11583279201295,177.11583279201295,177.11583279201295,177.11583279201295,177.11583279201295,182.34390270800213,182.34390270800213,186.34449600000517,None,0,,reldom2_s027,001,2025-02-26_15h55.45.472,What-B-Scan_AC,2022.2.5,None,
13,First_Order,3.0,audwhat,stimulus/audwhat_stim/dummy.wav,stimulus/audwhat_stim/dummy.wav,stimulus/audwhat_stim/percussion mallet_low-pitch_Ftri_loud.wav,stimulus/audwhat_stim/percussion xylophone_high-pitch_Dtri_loud.wav,stimulus/audwhat_stim/blank_white.png,stimulus/audwhat_stim/pitch_box.png,stimulus/audwhat_stim/pitch_yes.png,stimulus/audwhat_stim/pitch_no.png,None,Pitch,None,Category,2,0.0,0,5.125,0,5.125,0,5.125,0,0.0,0.625,0,0.0,0,0.0,0,0.0,0,0.0,0,0.0,0,0.0,1,0.5,1,2.125,0,,,,,0,17,17,17,,,,,,,,,186.34449600000517,186.34449600000517,186.34449600000517,186.34449600000517,186.34449600000517,186.34449600000517,186.34449600000517,186.34449600000517,186.27249741665827,186.34449600000517,186.34449600000517,186.34449600000517,186.27249741665827,186.34449600000517,186.34449600000517,186.34449600000517,188.4211656670086,192.45985824998934,186.34449600000517,186.34449600000517,191.51641087498865,186.34449600000517,186.34449600000517,186.34449600000517,186.34449600000517,186.80732704201364,187.86971195798833,186.77772799967013,,188.4211656670086,189.48486116700224,188.39146374966757,189.43869733301108,186.34449600000517,191.51641087498865,186.34449600000517,191.51641087498865,191.55720379200648,192.2064181670139,186.34449600000517,2,1,2.421651875018142,reldom2_s027,001,2025-02-26_15h55.45.472,What-B-Scan_AC,2022.2.5,None,
14,First_Order,3.0,audwhat,stimulus/audwhat_stim/dummy.wav,stimulus/audwhat_stim/dummy.wav,stimulus/audwhat_stim/string cello_low-pitch_D_loud.wav,stimulus/audwhat_stim/percussion mallet_low-pitch_D_loud.wav,stimulus/audwhat_stim/blank_white.png,stimulus/audwhat_stim/pitch_box.png,stimulus/audwhat_stim/pitch_yes.png,stimulus/audwhat_stim/pitch_no.png,None,Pitch,None,Pitch,1,0.0,0,5.125,0,5.125,0,5.125,0,0.0,0.625,0,0.0,0,0.0,0,0.0,0,0.0,0,0.0,0,0.0,1,0.5,1,2.125,0,,,,,0,18,18,18,,,,,,,,,192.45985824998934,192.45985824998934,192.45985824998934,192.45985824998934,192.45985824998934,192.45985824998934,192.45985824998934,192.45985824998934,192.38034804133545,192.45985824998934,192.45985824998934,192.45985824998934,192.38034804133545,192.45985824998934,192.45985824998934,192.45985824998934,194.54149150001467,,192.45985824998934,192.45985824998934,197.6480772079958,192.45985824998934,192.45985824998934,192.45985824998934,192.45985824998934,192.92375137499766,193.98640291701304,192.89288812465773,,194.54149150001467,195.61574258300243,194.51143895867088,,192.45985824998934,197.6480772079958,192.45985824998934,197.6480772079958,197.68882708300953,198.3390369169938,192.45985824998934,2,0,0.4446210419991985,reldom2_s027,001,2025-02-26_15h55.45.472,What-B-Scan_AC,2022.2.5,None,
15,First_Order,3.0,audwhat,stimulus/audwhat_stim/dummy.wav,stimulus/audwhat_stim/dummy.wav,stimulus/audwhat_stim/string cello_high-pitch_D_loud.wav,stimulus/audwhat_stim/string cello_low-pitch_Ftri_loud.wav,stimulus/audwhat_stim/blank_white.png,stimulus/audwhat_stim/category_box.png,stimulus/audwhat_stim/category_yes.png,stimulus/audwhat_stim/category_no.png,None,Category,None,Category,1,0.0,0,5.125,0,5.125,0,5.125,0,0.0,0.625,0,0.0,0,0.0,0,0.0,0,0.0,0,0.0,0,0.0,1,0.5,1,2.125,0,,,,,0,19,19,19,,,,,,,,,198.55241750000278,198.55241750000278,198.55241750000278,198.55241750000278,198.55241750000278,198.55241750000278,198.55241750000278,198.55241750000278,198.47237025032715,198.55241750000278,198.55241750000278,198.55241750000278,198.47237025032715,198.55241750000278,198.55241750000278,198.55241750000278,200.6494708750106,204.67251062500873,198.55241750000278,198.55241750000278,203.72318670799723,198.55241750000278,198.55241750000278,198.55241750000278,198.55241750000278,199.01919179200195,200.0898674170021,198.98914458367315,,200.6494708750106,201.72487237499445,200.61941466667147,,198.55241750000278,203.72318670799723,198.55241750000278,203.72318670799723,203.76463854199392,204.41890812499332,198.55241750000278,1,1,0.9515777909837198,reldom2_s027,001,2025-02-26_15h55.45.472,What-B-Scan_AC,2022.2.5,None,
16,First_Order,3.0,audwhat,stimulus/audwhat_stim/dummy.wav,stimulus/audwhat_stim/dummy.wav,stimulus/audwhat_stim/string viola_low-pitch_F_loud.wav,stimulus/audwhat_stim/percussion mallet_low-pitch_F_loud.wav,stimulus/audwhat_stim/blank_white.png,stimulus/audwhat_stim/category_box.png,stimulus/audwhat_stim/category_yes.png,stimulus/audwhat_stim/category_no.png,None,Category,None,Pitch,2,0.0,0,5.125,0,5.125,0,5.125,0,0.0,0.625,0,0.0,0,0.0,0,0.0,0,0.0,0,0.0,0,0.0,1,0.5,1,2.125,0,,,,,0,20,20,20,,,,,,,,,204.67251062500873,204.67251062500873,204.67251062500873,204.67251062500873,204.67251062500873,204.67251062500873,204.67251062500873,204.67251062500873,204.5931848333295,204.67251062500873,204.67251062500873,204.67251062500873,204.5931848333295,204.67251062500873,204.67251062500873,204.67251062500873,206.76578341700952,210.81514679201064,204.67251062500873,204.67251062500873,209.84292937500868,204.67251062500873,204.67251062500873,204.67251062500873,204.67251062500873,205.13827904200298,206.20852070799447,205.1083602916663,,206.76578341700952,207.7961502080143,206.73580554165918,,204.67251062500873,209.84292937500868,204.67251062500873,209.84292937500868,209.8842308750027,210.53965462499764,204.67251062500873,2,1,0.8919978329795413,reldom2_s027,001,2025-02-26_15h55.45.472,What-B-Scan_AC,2022.2.5,None,
0,0.0,None,fixation,stimulus/viswhat_stim/blank_white.png,stimulus/viswhat_stim/blank_white.png,stimulus/audwhat_stim/blank_white.png,stimulus/audwhat_stim/blank_white.png,stimulus/viswhat_stim/blank_white.png,stimulus/viswhat_stim/blank_white.png,stimulus/viswhat_stim/blank_white.png,stimulus/viswhat_stim/blank_white.png,0.0,0.0,0.0,0.0,0,0.0,0,0.0,0,0.0,0,0.0,0,0.0,0.0,0,0.0,0,0.0,0,0.0,0,0.0,0,0.0,0,0.0,0,0.0,0,0.0,9,,,,,0,21,21,21,,,,,,,,,210.81514679201064,210.81514679201064,210.81514679201064,210.81514679201064,210.81514679201064,210.81514679201064,210.81514679201064,210.81514679201064,210.71361029133746,210.81514679201064,210.81514679201064,210.81514679201064,210.71361029133746,210.81514679201064,210.81514679201064,210.81514679201064,210.81514679201064,210.81514679201064,210.81514679201064,210.81514679201064,210.81514679201064,210.81514679201064,210.81514679201064,210.81514679201064,210.81514679201064,210.81514679201064,210.81514679201064,210.76361029133744,210.81514679201064,210.81514679201064,210.81514679201064,210.76361029133744,210.81514679201064,210.81514679201064,210.81514679201064,210.81514679201064,210.81514679201064,215.99812870801543,215.99812870801543,219.9454356250062,None,0,,reldom2_s027,001,2025-02-26_15h55.45.472,What-B-Scan_AC,2022.2.5,None,
17,Second_Order,3.0,audwhat,stimulus/audwhat_stim/percussion mallet_high-pitch_Ftri_loud.wav,stimulus/audwhat_stim/string cello_high-pitch_Ftri_loud.wav,stimulus/audwhat_stim/percussion mallet_low-pitch_D_loud.wav,stimulus/audwhat_stim/string viola_low-pitch_D_loud.wav,stimulus/viswhat_stim/match_blank.png,stimulus/viswhat_stim/match_box.png,stimulus/viswhat_stim/match_yes.png,stimulus/viswhat_stim/match_no.png,1.0,Match,Pitch,Pitch,1,5.125,0,5.125,0,5.125,0,5.125,0,0.75,0.75,0,0.0,0,0.0,0,0.0,0,0.0,1,0.5,1,2.125,1,0.5,1,2.125,0,,,,,0,22,22,22,,,,,,,,,219.9454356250062,225.06679687500582,219.9454356250062,219.9454356250062,219.9454356250062,219.9454356250062,220.40111341699958,221.39099104198976,220.40344149966066,,222.02587087498978,223.0239889580116,222.03848591665545,,225.06679687500582,225.91875849998905,227.98784124999656,,225.91875849998905,225.91875849998905,231.08730054201442,225.91875849998905,225.91875849998905,225.91875849998905,225.91875849998905,226.37684174999595,227.43629916699138,226.34712887465528,,227.98784124999656,229.05532874999335,227.95801379165303,,225.91875849998905,231.08730054201442,225.91875849998905,231.08730054201442,231.08730054201442,,225.91875849998905,1,1,1.014715208002599,reldom2_s027,001,2025-02-26_15h55.45.472,What-B-Scan_AC,2022.2.5,None,
18,Second_Order,3.0,audwhat,stimulus/audwhat_stim/percussion mallet_high-pitch_Dtri_loud.wav,stimulus/audwhat_stim/string cello_high-pitch_Dtri_loud.wav,stimulus/audwhat_stim/string viola_low-pitch_Ftri_loud.wav,stimulus/audwhat_stim/percussion mallet_low-pitch_Ftri_loud.wav,stimulus/viswhat_stim/match_blank.png,stimulus/viswhat_stim/match_box.png,stimulus/viswhat_stim/match_yes.png,stimulus/viswhat_stim/match_no.png,1.0,Match,Pitch,Pitch,1,5.125,0,5.125,0,5.125,0,5.125,0,0.625,0.625,0,0.0,0,0.0,0,0.0,0,0.0,1,0.5,1,2.125,1,0.5,1,2.125,0,,,,,0,23,23,23,,,,,,,,,231.89605004200712,237.01155945801293,231.89605004200712,231.89605004200712,231.89605004200712,231.89605004200712,232.34809454198694,233.3346047080122,232.3622416666806,,233.97065241698874,234.9683082079864,233.98331399966654,,237.01155945801293,237.74237525000353,239.79642641701503,,237.74237525000353,237.74237525000353,242.91959120798856,237.74237525000353,237.74237525000353,237.74237525000353,237.74237525000353,238.1960070829955,239.24677170801442,238.1671388746802,,239.79642641701503,240.8534084999992,239.7667593336703,,237.74237525000353,242.91959120798856,237.74237525000353,242.91959120798856,242.91959120798856,243.60738529200898,237.74237525000353,1,1,1.0854325410036836,reldom2_s027,001,2025-02-26_15h55.45.472,What-B-Scan_AC,2022.2.5,None,
0,0.0,None,fixation,stimulus/viswhat_stim/blank_white.png,stimulus/viswhat_stim/blank_white.png,stimulus/audwhat_stim/blank_white.png,stimulus/audwhat_stim/blank_white.png,stimulus/viswhat_stim/blank_white.png,stimulus/viswhat_stim/blank_white.png,stimulus/viswhat_stim/blank_white.png,stimulus/viswhat_stim/blank_white.png,0.0,0.0,0.0,0.0,0,0.0,0,0.0,0,0.0,0,0.0,0,0.0,0.0,0,0.0,0,0.0,0,0.0,0,0.0,0,0.0,0,0.0,0,0.0,0,0.0,8,,,,,0,24,24,24,,,,,,,,,243.83860983300838,243.83860983300838,243.83860983300838,243.83860983300838,243.83860983300838,243.83860983300838,243.83860983300838,243.83860983300838,243.74071862534234,243.83860983300838,243.83860983300838,243.83860983300838,243.74071862534234,243.83860983300838,243.83860983300838,243.83860983300838,243.83860983300838,243.83860983300838,243.83860983300838,243.83860983300838,243.83860983300838,243.83860983300838,243.83860983300838,243.83860983300838,243.83860983300838,243.83860983300838,243.83860983300838,243.79071862534232,243.83860983300838,243.83860983300838,243.83860983300838,243.79071862534232,243.83860983300838,243.83860983300838,243.83860983300838,243.83860983300838,243.83860983300838,249.0287172080134,249.0287172080134,252.07846049999353,None,0,,reldom2_s027,001,2025-02-26_15h55.45.472,What-B-Scan_AC,2022.2.5,None,
19,First_Order,4.0,audwhat,stimulus/audwhat_stim/dummy.wav,stimulus/audwhat_stim/dummy.wav,stimulus/audwhat_stim/percussion mallet_low-pitch_Ftri_loud.wav,stimulus/audwhat_stim/string viola_low-pitch_Ftri_loud.wav,stimulus/audwhat_stim/blank_white.png,stimulus/audwhat_stim/pitch_box.png,stimulus/audwhat_stim/pitch_yes.png,stimulus/audwhat_stim/pitch_no.png,None,Pitch,None,Pitch,1,0.0,0,5.125,0,5.125,0,5.125,0,0.0,0.625,0,0.0,0,0.0,0,0.0,0,0.0,0,0.0,0,0.0,1,0.5,1,2.125,0,,,,,0,25,25,25,,,,,,,,,252.07846049999353,252.07846049999353,252.07846049999353,252.07846049999353,252.07846049999353,252.07846049999353,252.07846049999353,252.07846049999353,252.0080768746654,252.07846049999353,252.07846049999353,252.07846049999353,252.0080768746654,252.07846049999353,252.07846049999353,252.07846049999353,254.16034891700838,258.2068513749982,252.07846049999353,252.07846049999353,257.2618599169946,252.07846049999353,252.07846049999353,252.07846049999353,252.07846049999353,252.539957083005,253.60674291700707,252.51017195865668,,254.16034891700838,255.226033791987,254.1306193746607,,252.07846049999353,257.2618599169946,252.07846049999353,257.2618599169946,257.30318024998996,257.9538035829901,252.07846049999353,2,0,1.1428252909972798,reldom2_s027,001,2025-02-26_15h55.45.472,What-B-Scan_AC,2022.2.5,None,
20,First_Order,4.0,audwhat,stimulus/audwhat_stim/dummy.wav,stimulus/audwhat_stim/dummy.wav,stimulus/audwhat_stim/string viola_low-pitch_F_loud.wav,stimulus/audwhat_stim/string cello_high-pitch_Ftri_loud.wav,stimulus/audwhat_stim/blank_white.png,stimulus/audwhat_stim/category_box.png,stimulus/audwhat_stim/category_yes.png,stimulus/audwhat_stim/category_no.png,None,Category,None,Category,1,0.0,0,5.125,0,5.125,0,5.125,0,0.0,0.625,0,0.0,0,0.0,0,0.0,0,0.0,0,0.0,0,0.0,1,0.5,1,2.125,0,,,,,0,26,26,26,,,,,,,,,258.2068513749982,258.2068513749982,258.2068513749982,258.2068513749982,258.2068513749982,258.2068513749982,258.2068513749982,258.2068513749982,258.1276736253368,258.2068513749982,258.2068513749982,258.2068513749982,258.1276736253368,258.2068513749982,258.2068513749982,258.2068513749982,260.30420487499214,,258.2068513749982,258.2068513749982,263.3657279580075,258.2068513749982,258.2068513749982,258.2068513749982,258.2068513749982,258.6720493329922,259.74664166700677,258.64116920865877,,260.30420487499214,261.3775497919996,260.27402258367897,,258.2068513749982,263.3657279580075,258.2068513749982,263.3657279580075,263.4071701669891,264.0579911250097,258.2068513749982,1,1,1.0249925829994027,reldom2_s027,001,2025-02-26_15h55.45.472,What-B-Scan_AC,2022.2.5,None,
21,First_Order,4.0,audwhat,stimulus/audwhat_stim/dummy.wav,stimulus/audwhat_stim/dummy.wav,stimulus/audwhat_stim/string viola_high-pitch_F_loud.wav,stimulus/audwhat_stim/percussion mallet_high-pitch_F_loud.wav,stimulus/audwhat_stim/blank_white.png,stimulus/audwhat_stim/category_box.png,stimulus/audwhat_stim/category_yes.png,stimulus/audwhat_stim/category_no.png,None,Category,None,Pitch,2,0.0,0,5.125,0,5.125,0,5.125,0,0.0,0.625,0,0.0,0,0.0,0,0.0,0,0.0,0,0.0,0,0.0,1,0.5,1,2.125,0,,,,,0,27,27,27,,,,,,,,,264.31056704200455,264.31056704200455,264.31056704200455,264.31056704200455,264.31056704200455,264.31056704200455,264.31056704200455,264.31056704200455,264.2314157083475,264.31056704200455,264.31056704200455,264.31056704200455,264.2314157083475,264.31056704200455,264.31056704200455,264.31056704200455,266.403681833006,270.4299614999909,264.31056704200455,264.31056704200455,269.4815076669911,264.31056704200455,264.31056704200455,264.31056704200455,264.31056704200455,264.77345862501534,265.8457906669937,264.7436962496761,,266.403681833006,267.4781407499977,266.3737352916544,,264.31056704200455,269.4815076669911,264.31056704200455,269.4815076669911,269.522260208003,270.176234707993,264.31056704200455,2,1,0.6932060830004048,reldom2_s027,001,2025-02-26_15h55.45.472,What-B-Scan_AC,2022.2.5,None,
22,First_Order,4.0,audwhat,stimulus/audwhat_stim/dummy.wav,stimulus/audwhat_stim/dummy.wav,stimulus/audwhat_stim/percussion xylophone_high-pitch_D_loud.wav,stimulus/audwhat_stim/percussion mallet_low-pitch_F_loud.wav,stimulus/audwhat_stim/blank_white.png,stimulus/audwhat_stim/pitch_box.png,stimulus/audwhat_stim/pitch_yes.png,stimulus/audwhat_stim/pitch_no.png,None,Pitch,None,Category,2,0.0,0,5.125,0,5.125,0,5.125,0,0.0,0.625,0,0.0,0,0.0,0,0.0,0,0.0,0,0.0,0,0.0,1,0.5,1,2.125,0,,,,,0,28,28,28,,,,,,,,,270.4299614999909,270.4299614999909,270.4299614999909,270.4299614999909,270.4299614999909,270.4299614999909,270.4299614999909,270.4299614999909,270.35068650034566,270.4299614999909,270.4299614999909,270.4299614999909,270.35068650034566,270.4299614999909,270.4299614999909,270.4299614999909,272.5183520420105,,270.4299614999909,270.4299614999909,275.58033608298865,270.4299614999909,270.4299614999909,270.4299614999909,270.4299614999909,270.8960942919948,271.9615757080028,270.8648178336773,271.91514825000195,272.5183520420105,273.5865890000132,272.4884202916621,,270.4299614999909,275.58033608298865,270.4299614999909,275.58033608298865,275.6213513330149,276.274726750009,270.4299614999909,2,1,1.1459754579991568,reldom2_s027,001,2025-02-26_15h55.45.472,What-B-Scan_AC,2022.2.5,None,
0,0.0,None,fixation,stimulus/viswhat_stim/blank_white.png,stimulus/viswhat_stim/blank_white.png,stimulus/audwhat_stim/blank_white.png,stimulus/audwhat_stim/blank_white.png,stimulus/viswhat_stim/blank_white.png,stimulus/viswhat_stim/blank_white.png,stimulus/viswhat_stim/blank_white.png,stimulus/viswhat_stim/blank_white.png,0.0,0.0,0.0,0.0,0,0.0,0,0.0,0,0.0,0,0.0,0,0.0,0.0,0,0.0,0,0.0,0,0.0,0,0.0,0,0.0,0,0.0,0,0.0,0,0.0,10,,,,,0,29,29,29,,,,,,,,,276.54810579199693,276.54810579199693,276.54810579199693,276.54810579199693,276.54810579199693,276.54810579199693,276.54810579199693,276.54810579199693,276.4485850003276,276.54810579199693,276.54810579199693,276.54810579199693,276.4485850003276,276.54810579199693,276.54810579199693,276.54810579199693,276.54810579199693,276.54810579199693,276.54810579199693,276.54810579199693,276.54810579199693,276.54810579199693,276.54810579199693,276.54810579199693,276.54810579199693,276.54810579199693,276.54810579199693,276.49858500032764,276.54810579199693,276.54810579199693,276.54810579199693,276.49858500032764,276.54810579199693,276.54810579199693,276.54810579199693,276.54810579199693,276.54810579199693,281.7829441250069,281.7829441250069,286.68569091698737,None,0,,reldom2_s027,001,2025-02-26_15h55.45.472,What-B-Scan_AC,2022.2.5,None,
23,Second_Order,4.0,audwhat,stimulus/audwhat_stim/percussion mallet_high-pitch_Ftri_loud.wav,stimulus/audwhat_stim/percussion mallet_low-pitch_Dtri_loud.wav,stimulus/audwhat_stim/percussion mallet_high-pitch_D_loud.wav,stimulus/audwhat_stim/string viola_high-pitch_D_loud.wav,stimulus/viswhat_stim/match_blank.png,stimulus/viswhat_stim/match_box.png,stimulus/viswhat_stim/match_yes.png,stimulus/viswhat_stim/match_no.png,2.0,Match,Category,Pitch,2,5.125,0,5.125,0,5.125,0,5.125,0,0.75,0.75,0,0.0,0,0.0,0,0.0,0,0.0,1,0.5,1,2.125,1,0.5,1,2.125,0,,,,,0,30,30,30,,,,,,,,,286.68569091698737,291.80558174999896,286.68569091698737,286.68569091698737,286.68569091698737,286.68569091698737,287.1428124580125,288.1416010830144,287.15561112467935,,288.76463691701065,289.7619714169996,288.77641324967067,,291.80558174999896,292.65868862500065,294.73754974998883,298.6486856669944,292.65868862500065,292.65868862500065,297.83942904201103,292.65868862500065,292.65868862500065,292.65868862500065,292.65868862500065,293.07283691701014,294.1375470829953,293.0435116666815,,294.73754974998883,295.80669175001094,294.7083211666652,,292.65868862500065,297.83942904201103,292.65868862500065,297.83942904201103,297.83942904201103,,292.65868862500065,2,1,0.7371235830069054,reldom2_s027,001,2025-02-26_15h55.45.472,What-B-Scan_AC,2022.2.5,None,
24,Second_Order,4.0,audwhat,stimulus/audwhat_stim/string viola_high-pitch_Dtri_loud.wav,stimulus/audwhat_stim/percussion mallet_high-pitch_Dtri_loud.wav,stimulus/audwhat_stim/string cello_low-pitch_Dtri_loud.wav,stimulus/audwhat_stim/string viola_high-pitch_Ftri_loud.wav,stimulus/viswhat_stim/match_blank.png,stimulus/viswhat_stim/match_box.png,stimulus/viswhat_stim/match_yes.png,stimulus/viswhat_stim/match_no.png,2.0,Match,Pitch,Category,2,5.125,0,5.125,0,5.125,0,5.125,0,0.625,0.625,0,0.0,0,0.0,0,0.0,0,0.0,1,0.5,1,2.125,1,0.5,1,2.125,0,,,,,0,31,31,31,,,,,,,,,298.6486856669944,303.76489979200414,298.6486856669944,298.6486856669944,298.6486856669944,298.6486856669944,299.10382841699175,300.10253554201336,299.117341416659,,300.7246427079954,301.72266337499605,300.7372465836563,,303.76489979200414,304.49426741700154,306.55887633300154,310.6054000419972,304.49426741700154,304.49426741700154,309.6431321669952,304.49426741700154,304.49426741700154,304.49426741700154,304.49426741700154,304.9514131670003,306.007834582997,304.9214444996653,,306.55887633300154,307.6191827080038,306.52927995866435,,304.49426741700154,309.6431321669952,304.49426741700154,309.6431321669952,309.6840644580079,310.3321246250125,304.49426741700154,1,0,1.331487624993315,reldom2_s027,001,2025-02-26_15h55.45.472,What-B-Scan_AC,2022.2.5,None,
0,0.0,None,fixation,stimulus/viswhat_stim/blank_white.png,stimulus/viswhat_stim/blank_white.png,stimulus/audwhat_stim/blank_white.png,stimulus/audwhat_stim/blank_white.png,stimulus/viswhat_stim/blank_white.png,stimulus/viswhat_stim/blank_white.png,stimulus/viswhat_stim/blank_white.png,stimulus/viswhat_stim/blank_white.png,0.0,0.0,0.0,0.0,0,0.0,0,0.0,0,0.0,0,0.0,0,0.0,0.0,0,0.0,0,0.0,0,0.0,0,0.0,0,0.0,0,0.0,0,0.0,0,0.0,9,,,,,0,32,32,32,,,,,,,,,310.6054000419972,310.6054000419972,310.6054000419972,310.6054000419972,310.6054000419972,310.6054000419972,310.6054000419972,310.6054000419972,310.50598020834343,310.6054000419972,310.6054000419972,310.6054000419972,310.50598020834343,310.6054000419972,310.6054000419972,310.6054000419972,310.6054000419972,310.6054000419972,310.6054000419972,310.6054000419972,310.6054000419972,310.6054000419972,310.6054000419972,310.6054000419972,310.6054000419972,310.6054000419972,310.6054000419972,310.55598020834344,310.6054000419972,310.6054000419972,310.6054000419972,310.55598020834344,310.6054000419972,310.6054000419972,310.6054000419972,310.6054000419972,310.6054000419972,315.8029562080046,315.8029562080046,319.89954033299,None,0,,reldom2_s027,001,2025-02-26_15h55.45.472,What-B-Scan_AC,2022.2.5,None,
25,First_Order,5.0,viswhat,stimulus/viswhat_stim/blank_white.png,stimulus/viswhat_stim/blank_white.png,stimulus/viswhat_stim/land_animal-elephant.png,stimulus/viswhat_stim/land_vehicle-firetruck.png,stimulus/viswhat_stim/blank_white.png,stimulus/viswhat_stim/location_box.png,stimulus/viswhat_stim/location_yes.png,stimulus/viswhat_stim/location_no.png,None,Location,None,Location,1,0.0,0,5.125,0,5.125,0,5.125,0,0.0,0.625,0,0.0,0,0.0,1,0.5,1,2.125,0,0.0,0,0.0,0,0.0,0,0.0,0,,,,,0,33,33,33,,,,,,,,,319.89954033299,319.89954033299,319.89954033299,319.89954033299,319.89954033299,319.89954033299,319.89954033299,319.89954033299,319.79692274967476,319.89954033299,319.89954033299,319.89954033299,319.79692274967476,319.89954033299,319.89954033299,319.89954033299,321.98376837500837,325.96791141701397,319.89954033299,319.89954033299,325.07894687500084,320.37531933299033,321.4494477499975,321.98376837500837,323.0589691250061,319.89954033299,319.89954033299,319.8469227496748,319.89954033299,319.89954033299,319.89954033299,319.8469227496748,319.89954033299,319.89954033299,325.07894687500084,319.89954033299,325.07894687500084,325.07894687500084,325.7769529999932,319.89954033299,1,1,0.9856892910029273,reldom2_s027,001,2025-02-26_15h55.45.472,What-B-Scan_AC,2022.2.5,None,
26,First_Order,5.0,viswhat,stimulus/viswhat_stim/blank_white.png,stimulus/viswhat_stim/blank_white.png,stimulus/viswhat_stim/land_vehicle-tank.png,stimulus/viswhat_stim/land_animal-pig.png,stimulus/viswhat_stim/blank_white.png,stimulus/viswhat_stim/type_box.png,stimulus/viswhat_stim/type_yes.png,stimulus/viswhat_stim/type_no.png,None,Type,None,Location,2,0.0,0,5.125,0,5.125,0,5.125,0,0.0,0.625,0,0.0,0,0.0,1,0.5,1,2.125,0,0.0,0,0.0,0,0.0,0,0.0,0,,,,,0,34,34,34,,,,,,,,,325.96791141701397,325.96791141701397,325.96791141701397,325.96791141701397,325.96791141701397,325.96791141701397,325.96791141701397,325.96791141701397,325.94361966665986,325.96791141701397,325.96791141701397,325.96791141701397,325.94361966665986,325.96791141701397,325.96791141701397,325.96791141701397,328.0748970829882,332.13341304200003,325.96791141701397,325.96791141701397,331.0963945830008,326.45028300001286,327.46277199999895,328.0748970829882,329.09576850000303,325.96791141701397,325.96791141701397,325.96028633332656,325.96791141701397,325.96791141701397,325.96791141701397,325.96028633332656,325.96791141701397,325.96791141701397,331.0963945830008,325.96791141701397,331.0963945830008,331.1947716670111,331.8273562079994,325.96791141701397,2,1,0.723372082982678,reldom2_s027,001,2025-02-26_15h55.45.472,What-B-Scan_AC,2022.2.5,None,
27,First_Order,5.0,viswhat,stimulus/viswhat_stim/blank_white.png,stimulus/viswhat_stim/blank_white.png,stimulus/viswhat_stim/land_animal-moose.png,stimulus/viswhat_stim/land_vehicle-vespa.png,stimulus/viswhat_stim/blank_white.png,stimulus/viswhat_stim/location_box.png,stimulus/viswhat_stim/location_yes.png,stimulus/viswhat_stim/location_no.png,None,Location,None,Location,1,0.0,0,5.125,0,5.125,0,5.125,0,0.0,0.625,0,0.0,0,0.0,1,0.5,1,2.125,0,0.0,0,0.0,0,0.0,0,0.0,0,,,,,0,35,35,35,,,,,,,,,332.13341304200003,332.13341304200003,332.13341304200003,332.13341304200003,332.13341304200003,332.13341304200003,332.13341304200003,332.13341304200003,332.0110425833457,332.13341304200003,332.13341304200003,332.13341304200003,332.0110425833457,332.13341304200003,332.13341304200003,332.13341304200003,334.213930124999,,332.13341304200003,332.13341304200003,337.36570562500856,332.6029743330146,333.6780377920077,334.213930124999,335.29099054200924,332.13341304200003,332.13341304200003,332.0777092500124,332.13341304200003,332.13341304200003,332.13341304200003,332.0777092500124,332.13341304200003,332.13341304200003,337.36570562500856,332.13341304200003,337.36570562500856,337.36570562500856,338.2511185420153,332.13341304200003,1,1,0.6217966249969322,reldom2_s027,001,2025-02-26_15h55.45.472,What-B-Scan_AC,2022.2.5,None,
28,First_Order,5.0,viswhat,stimulus/viswhat_stim/blank_white.png,stimulus/viswhat_stim/blank_white.png,stimulus/viswhat_stim/land_animal-giraffe.png,stimulus/viswhat_stim/water_animal-squid.png,stimulus/viswhat_stim/blank_white.png,stimulus/viswhat_stim/location_box.png,stimulus/viswhat_stim/location_yes.png,stimulus/viswhat_stim/location_no.png,None,Location,None,Type,2,0.0,0,5.125,0,5.125,0,5.125,0,0.0,0.625,0,0.0,0,0.0,1,0.5,1,2.125,0,0.0,0,0.0,0,0.0,0,0.0,0,,,,,0,36,36,36,,,,,,,,,338.2511185420153,338.2511185420153,338.2511185420153,338.2511185420153,338.2511185420153,338.2511185420153,338.2511185420153,338.2511185420153,338.1612934163267,338.2511185420153,338.2511185420153,338.2511185420153,338.1612934163267,338.2511185420153,338.2511185420153,338.2511185420153,340.36382666698773,,338.2511185420153,338.2511185420153,343.41880345801474,338.69575887499377,339.75298366701463,340.36382666698773,341.4225817080005,338.2511185420153,338.2511185420153,338.21129341632667,338.2511185420153,338.2511185420153,338.2511185420153,338.21129341632667,338.2511185420153,338.2511185420153,343.41880345801474,338.2511185420153,343.41880345801474,343.4687824579887,344.36930279200897,338.2511185420153,2,1,1.0218077499885112,reldom2_s027,001,2025-02-26_15h55.45.472,What-B-Scan_AC,2022.2.5,None,
0,0.0,None,fixation,stimulus/viswhat_stim/blank_white.png,stimulus/viswhat_stim/blank_white.png,stimulus/audwhat_stim/blank_white.png,stimulus/audwhat_stim/blank_white.png,stimulus/viswhat_stim/blank_white.png,stimulus/viswhat_stim/blank_white.png,stimulus/viswhat_stim/blank_white.png,stimulus/viswhat_stim/blank_white.png,0.0,0.0,0.0,0.0,0,0.0,0,0.0,0,0.0,0,0.0,0,0.0,0.0,0,0.0,0,0.0,0,0.0,0,0.0,0,0.0,0,0.0,0,0.0,0,0.0,9,,,,,0,37,37,37,,,,,,,,,344.36930279200897,344.36930279200897,344.36930279200897,344.36930279200897,344.36930279200897,344.36930279200897,344.36930279200897,344.36930279200897,344.26600016700684,344.36930279200897,344.36930279200897,344.36930279200897,344.26600016700684,344.36930279200897,344.36930279200897,344.36930279200897,344.36930279200897,344.36930279200897,344.36930279200897,344.36930279200897,344.36930279200897,344.36930279200897,344.36930279200897,344.36930279200897,344.36930279200897,344.36930279200897,344.36930279200897,344.31600016700685,344.36930279200897,344.36930279200897,344.36930279200897,344.31600016700685,344.36930279200897,344.36930279200897,344.36930279200897,344.36930279200897,344.36930279200897,349.56406604198855,349.56406604198855,353.49200699999346,None,0,,reldom2_s027,001,2025-02-26_15h55.45.472,What-B-Scan_AC,2022.2.5,None,
29,Second_Order,5.0,viswhat,stimulus/viswhat_stim/water_vehicle-pirateship.png,stimulus/viswhat_stim/land_vehicle-schoolbus.png,stimulus/viswhat_stim/water_animal-dolphin.png,stimulus/viswhat_stim/land_animal-cat.png,stimulus/viswhat_stim/match_blank.png,stimulus/viswhat_stim/match_box.png,stimulus/viswhat_stim/match_yes.png,stimulus/viswhat_stim/match_no.png,1.0,Match,Type,Type,1,5.125,0,5.125,0,5.125,0,5.125,0,0.75,0.75,1,0.5,1,2.125,1,0.5,1,2.125,0,0.0,0,0.0,0,0.0,0,0.0,0,,,,,0,38,38,38,,,,,,,,,353.49200699999346,358.6092579170072,353.963959124987,354.96262475001276,355.5854255000013,356.5829770829878,353.49200699999346,353.49200699999346,353.49787050034695,353.49200699999346,353.49200699999346,353.49200699999346,353.49787050034695,353.49200699999346,358.6092579170072,359.4335175419983,361.5031110830023,365.4643750830146,359.4335175419983,359.4335175419983,364.579997791996,359.88596049998887,360.9226716250123,361.5031110830023,362.5446274999995,359.4335175419983,359.4335175419983,359.41029987465396,359.4335175419983,359.4335175419983,359.4335175419983,359.41029987465396,359.4335175419983,359.4335175419983,364.579997791996,359.4335175419983,364.579997791996,364.6070608749869,,359.4335175419983,1,1,0.6664832500100601,reldom2_s027,001,2025-02-26_15h55.45.472,What-B-Scan_AC,2022.2.5,None,
30,Second_Order,5.0,viswhat,stimulus/viswhat_stim/water_animal-orka.png,stimulus/viswhat_stim/land_animal-bunny.png,stimulus/viswhat_stim/land_vehicle-motorcycle.png,stimulus/viswhat_stim/water_vehicle-motorboatraft.png,stimulus/viswhat_stim/match_blank.png,stimulus/viswhat_stim/match_box.png,stimulus/viswhat_stim/match_yes.png,stimulus/viswhat_stim/match_no.png,1.0,Match,Type,Type,1,5.125,0,5.125,0,5.125,0,5.125,0,0.625,0.625,1,0.5,1,2.125,1,0.5,1,2.125,0,0.0,0,0.0,0,0.0,0,0.0,0,,,,,0,39,39,39,,,,,,,,,365.4643750830146,370.5860598750005,365.8732313750079,366.85978791699745,367.4976884580101,368.4939783329901,365.4643750830146,365.4643750830146,365.47864858300306,365.4643750830146,365.4643750830146,365.4643750830146,365.47864858300306,365.4643750830146,370.5860598750005,371.282090416993,373.36610024998663,377.4048802079924,371.282090416993,371.282090416993,376.4424030419905,371.72680787500576,372.740697583009,373.36610024998663,374.38434054199024,371.282090416993,371.282090416993,371.2501365420001,371.282090416993,371.282090416993,371.282090416993,371.2501365420001,371.282090416993,371.282090416993,376.4424030419905,371.282090416993,376.4424030419905,376.46705333300633,377.101814958005,371.282090416993,1,1,0.6561386249959469,reldom2_s027,001,2025-02-26_15h55.45.472,What-B-Scan_AC,2022.2.5,None,
0,0.0,None,fixation,stimulus/viswhat_stim/blank_white.png,stimulus/viswhat_stim/blank_white.png,stimulus/audwhat_stim/blank_white.png,stimulus/audwhat_stim/blank_white.png,stimulus/viswhat_stim/blank_white.png,stimulus/viswhat_stim/blank_white.png,stimulus/viswhat_stim/blank_white.png,stimulus/viswhat_stim/blank_white.png,0.0,0.0,0.0,0.0,0,0.0,0,0.0,0,0.0,0,0.0,0,0.0,0.0,0,0.0,0,0.0,0,0.0,0,0.0,0,0.0,0,0.0,0,0.0,0,0.0,9,,,,,0,40,40,40,,,,,,,,,377.4048802079924,377.4048802079924,377.4048802079924,377.4048802079924,377.4048802079924,377.4048802079924,377.4048802079924,377.4048802079924,377.3149279996559,377.4048802079924,377.4048802079924,377.4048802079924,377.3149279996559,377.4048802079924,377.4048802079924,377.4048802079924,377.4048802079924,377.4048802079924,377.4048802079924,377.4048802079924,377.4048802079924,377.4048802079924,377.4048802079924,377.4048802079924,377.4048802079924,377.4048802079924,377.4048802079924,377.36492799965583,377.4048802079924,377.4048802079924,377.4048802079924,377.36492799965583,377.4048802079924,377.4048802079924,377.4048802079924,377.4048802079924,377.4048802079924,382.6172177499975,382.6172177499975,386.66083454201,None,0,,reldom2_s027,001,2025-02-26_15h55.45.472,What-B-Scan_AC,2022.2.5,None,
31,First_Order,6.0,viswhat,stimulus/viswhat_stim/blank_white.png,stimulus/viswhat_stim/blank_white.png,stimulus/viswhat_stim/water_vehicle-ship.png,stimulus/viswhat_stim/land_vehicle-schoolbus.png,stimulus/viswhat_stim/blank_white.png,stimulus/viswhat_stim/location_box.png,stimulus/viswhat_stim/location_yes.png,stimulus/viswhat_stim/location_no.png,None,Location,None,Type,2,0.0,0,5.125,0,5.125,0,5.125,0,0.0,0.625,0,0.0,0,0.0,1,0.5,1,2.125,0,0.0,0,0.0,0,0.0,0,0.0,0,,,,,0,41,41,41,,,,,,,,,386.66083454201,386.66083454201,386.66083454201,386.66083454201,386.66083454201,386.66083454201,386.66083454201,386.66083454201,386.55935662467766,386.66083454201,386.66083454201,386.66083454201,386.55935662467766,386.66083454201,386.66083454201,386.66083454201,388.7703109169961,,386.66083454201,386.66083454201,391.84477666701423,387.144677083008,388.22885799998767,388.7703109169961,389.858037375001,386.66083454201,386.66083454201,386.6093566246777,386.66083454201,386.66083454201,386.66083454201,386.6093566246777,386.66083454201,386.66083454201,391.84477666701423,386.66083454201,391.84477666701423,391.84477666701423,392.70740483299596,386.66083454201,2,1,0.8135059580090456,reldom2_s027,001,2025-02-26_15h55.45.472,What-B-Scan_AC,2022.2.5,None,
32,First_Order,6.0,viswhat,stimulus/viswhat_stim/blank_white.png,stimulus/viswhat_stim/blank_white.png,stimulus/viswhat_stim/land_vehicle-bus.png,stimulus/viswhat_stim/water_vehicle-jetski.png,stimulus/viswhat_stim/blank_white.png,stimulus/viswhat_stim/type_box.png,stimulus/viswhat_stim/type_yes.png,stimulus/viswhat_stim/type_no.png,None,Type,None,Type,1,0.0,0,5.125,0,5.125,0,5.125,0,0.0,0.625,0,0.0,0,0.0,1,0.5,1,2.125,0,0.0,0,0.0,0,0.0,0,0.0,0,,,,,0,42,42,42,,,,,,,,,392.70740483299596,392.70740483299596,392.70740483299596,392.70740483299596,392.70740483299596,392.70740483299596,392.70740483299596,392.70740483299596,392.6661141666797,392.70740483299596,392.70740483299596,392.70740483299596,392.6661141666797,392.70740483299596,392.70740483299596,392.70740483299596,394.8135938750056,398.79696141701424,392.70740483299596,392.70740483299596,397.86382458300795,393.17722179199336,394.2001857080031,394.8135938750056,395.84569091699086,392.70740483299596,392.70740483299596,392.6827808333464,392.70740483299596,392.70740483299596,392.70740483299596,392.6827808333464,392.70740483299596,392.70740483299596,397.86382458300795,392.70740483299596,397.86382458300795,397.93432450000546,398.5717630829895,392.70740483299596,1,1,0.6769815830048174,reldom2_s027,001,2025-02-26_15h55.45.472,What-B-Scan_AC,2022.2.5,None,
33,First_Order,6.0,viswhat,stimulus/viswhat_stim/blank_white.png,stimulus/viswhat_stim/blank_white.png,stimulus/viswhat_stim/water_animal-seahorse.png,stimulus/viswhat_stim/water_vehicle-cabincruiser.png,stimulus/viswhat_stim/blank_white.png,stimulus/viswhat_stim/type_box.png,stimulus/viswhat_stim/type_yes.png,stimulus/viswhat_stim/type_no.png,None,Type,None,Location,2,0.0,0,5.125,0,5.125,0,5.125,0,0.0,0.625,0,0.0,0,0.0,1,0.5,1,2.125,0,0.0,0,0.0,0,0.0,0,0.0,0,,,,,0,43,43,43,,,,,,,,,398.79696141701424,398.79696141701424,398.79696141701424,398.79696141701424,398.79696141701424,398.79696141701424,398.79696141701424,398.79696141701424,398.7416703329887,398.79696141701424,398.79696141701424,398.79696141701424,398.7416703329887,398.79696141701424,398.79696141701424,398.79696141701424,400.914356082998,,398.79696141701424,398.79696141701424,403.9661482920055,399.2842841249949,400.324184416997,400.914356082998,401.9583720419905,398.79696141701424,398.79696141701424,398.77500366632205,398.79696141701424,398.79696141701424,398.79696141701424,398.77500366632205,398.79696141701424,398.79696141701424,403.9661482920055,398.79696141701424,403.9661482920055,404.024482000008,404.68902637501014,398.79696141701424,2,1,0.8233664580038749,reldom2_s027,001,2025-02-26_15h55.45.472,What-B-Scan_AC,2022.2.5,None,
34,First_Order,6.0,viswhat,stimulus/viswhat_stim/blank_white.png,stimulus/viswhat_stim/blank_white.png,stimulus/viswhat_stim/land_animal-tiger.png,stimulus/viswhat_stim/water_animal-octopus.png,stimulus/viswhat_stim/blank_white.png,stimulus/viswhat_stim/type_box.png,stimulus/viswhat_stim/type_yes.png,stimulus/viswhat_stim/type_no.png,None,Type,None,Type,1,0.0,0,5.125,0,5.125,0,5.125,0,0.0,0.625,0,0.0,0,0.0,1,0.5,1,2.125,0,0.0,0,0.0,0,0.0,0,0.0,0,,,,,0,44,44,44,,,,,,,,,404.90346795800724,404.90346795800724,404.90346795800724,404.90346795800724,404.90346795800724,404.90346795800724,404.90346795800724,404.90346795800724,404.83471570868085,404.90346795800724,404.90346795800724,404.90346795800724,404.83471570868085,404.90346795800724,404.90346795800724,404.90346795800724,406.9843495830137,411.0369326249929,404.90346795800724,404.90346795800724,410.05661266698735,405.37980270799017,406.4195985000115,406.9843495830137,408.02716104200226,404.90346795800724,404.90346795800724,404.86804904201415,404.90346795800724,404.90346795800724,404.90346795800724,404.86804904201415,404.90346795800724,404.90346795800724,410.05661266698735,404.90346795800724,410.05661266698735,410.09459554200293,410.76956020799116,404.90346795800724,1,1,0.7624105830036569,reldom2_s027,001,2025-02-26_15h55.45.472,What-B-Scan_AC,2022.2.5,None,
0,0.0,None,fixation,stimulus/viswhat_stim/blank_white.png,stimulus/viswhat_stim/blank_white.png,stimulus/audwhat_stim/blank_white.png,stimulus/audwhat_stim/blank_white.png,stimulus/viswhat_stim/blank_white.png,stimulus/viswhat_stim/blank_white.png,stimulus/viswhat_stim/blank_white.png,stimulus/viswhat_stim/blank_white.png,0.0,0.0,0.0,0.0,0,0.0,0,0.0,0,0.0,0,0.0,0,0.0,0.0,0,0.0,0,0.0,0,0.0,0,0.0,0,0.0,0,0.0,0,0.0,0,0.0,8,,,,,0,45,45,45,,,,,,,,,411.0369326249929,411.0369326249929,411.0369326249929,411.0369326249929,411.0369326249929,411.0369326249929,411.0369326249929,411.0369326249929,410.9401255413269,411.0369326249929,411.0369326249929,411.0369326249929,410.9401255413269,411.0369326249929,411.0369326249929,411.0369326249929,411.0369326249929,411.0369326249929,411.0369326249929,411.0369326249929,411.0369326249929,411.0369326249929,411.0369326249929,411.0369326249929,411.0369326249929,411.0369326249929,411.0369326249929,410.9901255413269,411.0369326249929,411.0369326249929,411.0369326249929,410.9901255413269,411.0369326249929,411.0369326249929,411.0369326249929,411.0369326249929,411.0369326249929,416.22980841700337,416.22980841700337,419.18943462500465,None,0,,reldom2_s027,001,2025-02-26_15h55.45.472,What-B-Scan_AC,2022.2.5,None,
35,Second_Order,6.0,viswhat,stimulus/viswhat_stim/land_animal-wolf.png,stimulus/viswhat_stim/land_vehicle-schoolbus.png,stimulus/viswhat_stim/water_animal-shark.png,stimulus/viswhat_stim/water_vehicle-ship.png,stimulus/viswhat_stim/match_blank.png,stimulus/viswhat_stim/match_box.png,stimulus/viswhat_stim/match_yes.png,stimulus/viswhat_stim/match_no.png,1.0,Match,Location,Location,1,5.125,0,5.125,0,5.125,0,5.125,0,0.75,0.75,1,0.5,1,2.125,1,0.5,1,2.125,0,0.0,0,0.0,0,0.0,0,0.0,0,,,,,0,46,46,46,,,,,,,,,419.18943462500465,424.3124371249869,419.6660182919877,420.6643790829985,421.2871497499873,422.28450341700227,419.18943462500465,419.18943462500465,419.1969822913253,419.18943462500465,419.18943462500465,419.18943462500465,419.1969822913253,419.18943462500465,424.3124371249869,425.2175265419937,427.24123383298866,,425.2175265419937,425.2175265419937,430.4517259999993,425.6339552080026,426.7504910000134,427.24123383298866,428.3610948330024,425.2175265419937,425.2175265419937,425.1577221669955,425.2175265419937,425.2175265419937,425.2175265419937,425.1577221669955,425.2175265419937,425.2175265419937,430.4517259999993,425.2175265419937,430.4517259999993,430.38709441700485,,425.2175265419937,1,1,0.7615914579946548,reldom2_s027,001,2025-02-26_15h55.45.472,What-B-Scan_AC,2022.2.5,None,
36,Second_Order,6.0,viswhat,stimulus/viswhat_stim/land_vehicle-oldcar.png,stimulus/viswhat_stim/land_animal-cat.png,stimulus/viswhat_stim/water_vehicle-cargoboat.png,stimulus/viswhat_stim/water_animal-orka.png,stimulus/viswhat_stim/match_blank.png,stimulus/viswhat_stim/match_box.png,stimulus/viswhat_stim/match_yes.png,stimulus/viswhat_stim/match_no.png,1.0,Match,Location,Location,1,5.125,0,5.125,0,5.125,0,5.125,0,0.625,0.625,1,0.5,1,2.125,1,0.5,1,2.125,0,0.0,0,0.0,0,0.0,0,0.0,0,,,,,0,47,47,47,,,,,,,,,431.19669325000723,436.32216637500096,431.64264566698694,432.64175812501344,433.2766157499864,434.26612650000607,431.19669325000723,431.19669325000723,431.19708816667355,431.19669325000723,431.19669325000723,431.19669325000723,431.19708816667355,431.19669325000723,436.32216637500096,437.0924087500025,439.1345365419984,,437.0924087500025,437.0924087500025,442.29828487499617,437.4847590420104,438.53891100001056,439.1345365419984,440.19526412501,437.0924087500025,437.0924087500025,437.0350656250026,437.0924087500025,437.0924087500025,437.0924087500025,437.0350656250026,437.0924087500025,437.0924087500025,442.29828487499617,437.0924087500025,442.29828487499617,442.23878849999164,443.1809649170027,437.0924087500025,1,1,0.5552918750036042,reldom2_s027,001,2025-02-26_15h55.45.472,What-B-Scan_AC,2022.2.5,None,
0,0.0,None,fixation,stimulus/viswhat_stim/blank_white.png,stimulus/viswhat_stim/blank_white.png,stimulus/audwhat_stim/blank_white.png,stimulus/audwhat_stim/blank_white.png,stimulus/viswhat_stim/blank_white.png,stimulus/viswhat_stim/blank_white.png,stimulus/viswhat_stim/blank_white.png,stimulus/viswhat_stim/blank_white.png,0.0,0.0,0.0,0.0,0,0.0,0,0.0,0,0.0,0,0.0,0,0.0,0.0,0,0.0,0,0.0,0,0.0,0,0.0,0,0.0,0,0.0,0,0.0,0,0.0,10,,,,,0,48,48,48,,,,,,,,,443.1809649170027,443.1809649170027,443.1809649170027,443.1809649170027,443.1809649170027,443.1809649170027,443.1809649170027,443.1809649170027,443.08462408334793,443.1809649170027,443.1809649170027,443.1809649170027,443.08462408334793,443.1809649170027,443.1809649170027,443.1809649170027,443.1809649170027,443.1809649170027,443.1809649170027,443.1809649170027,443.1809649170027,443.1809649170027,443.1809649170027,443.1809649170027,443.1809649170027,443.1809649170027,443.1809649170027,443.1346240833479,443.1809649170027,443.1809649170027,443.1809649170027,443.1346240833479,443.1809649170027,443.1809649170027,443.1809649170027,443.1809649170027,443.1809649170027,448.39550716700614,448.39550716700614,453.4241764170001,None,0,,reldom2_s027,001,2025-02-26_15h55.45.472,What-B-Scan_AC,2022.2.5,None,
37,First_Order,7.0,audwhat,stimulus/audwhat_stim/dummy.wav,stimulus/audwhat_stim/dummy.wav,stimulus/audwhat_stim/string viola_low-pitch_Ftri_loud.wav,stimulus/audwhat_stim/string viola_high-pitch_Dtri_loud.wav,stimulus/audwhat_stim/blank_white.png,stimulus/audwhat_stim/category_box.png,stimulus/audwhat_stim/category_yes.png,stimulus/audwhat_stim/category_no.png,None,Category,None,Category,1,0.0,0,5.125,0,5.125,0,5.125,0,0.0,0.625,0,0.0,0,0.0,0,0.0,0,0.0,0,0.0,0,0.0,1,0.5,1,2.125,0,,,,,0,49,49,49,,,,,,,,,453.4241764170001,453.4241764170001,453.4241764170001,453.4241764170001,453.4241764170001,453.4241764170001,453.4241764170001,453.4241764170001,453.3526014166806,453.4241764170001,453.4241764170001,453.4241764170001,453.3526014166806,453.4241764170001,453.4241764170001,453.4241764170001,455.5160971250152,459.5413866250019,453.4241764170001,453.4241764170001,458.5889750419883,453.4241764170001,453.4241764170001,453.4241764170001,453.4241764170001,453.8889615419903,454.9606364580104,453.8589722086656,,455.5160971250152,456.5878001670062,455.4860185416803,,453.4241764170001,458.5889750419883,453.4241764170001,458.5889750419883,458.63017458299873,459.28740945798927,453.4241764170001,1,1,1.0915337089973036,reldom2_s027,001,2025-02-26_15h55.45.472,What-B-Scan_AC,2022.2.5,None,
38,First_Order,7.0,audwhat,stimulus/audwhat_stim/dummy.wav,stimulus/audwhat_stim/dummy.wav,stimulus/audwhat_stim/percussion mallet_high-pitch_D_loud.wav,stimulus/audwhat_stim/string viola_high-pitch_D_loud.wav,stimulus/audwhat_stim/blank_white.png,stimulus/audwhat_stim/pitch_box.png,stimulus/audwhat_stim/pitch_yes.png,stimulus/audwhat_stim/pitch_no.png,None,Pitch,None,Pitch,1,0.0,0,5.125,0,5.125,0,5.125,0,0.0,0.625,0,0.0,0,0.0,0,0.0,0,0.0,0,0.0,0,0.0,1,0.5,1,2.125,0,,,,,0,50,50,50,,,,,,,,,459.5413866250019,459.5413866250019,459.5413866250019,459.5413866250019,459.5413866250019,459.5413866250019,459.5413866250019,459.5413866250019,459.46168429134025,459.5413866250019,459.5413866250019,459.5413866250019,459.46168429134025,459.5413866250019,459.5413866250019,459.5413866250019,461.6320291669981,,459.5413866250019,459.5413866250019,464.69244091698783,459.5413866250019,459.5413866250019,459.5413866250019,459.5413866250019,460.00510637499974,461.0743064999988,459.97511045867964,,461.6320291669981,462.7034394580114,461.6022584166533,,459.5413866250019,464.69244091698783,459.5413866250019,464.69244091698783,464.7338064170035,465.3902576249966,459.5413866250019,1,1,0.7929917089932133,reldom2_s027,001,2025-02-26_15h55.45.472,What-B-Scan_AC,2022.2.5,None,
39,First_Order,7.0,audwhat,stimulus/audwhat_stim/dummy.wav,stimulus/audwhat_stim/dummy.wav,stimulus/audwhat_stim/string viola_low-pitch_Dtri_loud.wav,stimulus/audwhat_stim/percussion mallet_low-pitch_Dtri_loud.wav,stimulus/audwhat_stim/blank_white.png,stimulus/audwhat_stim/category_box.png,stimulus/audwhat_stim/category_yes.png,stimulus/audwhat_stim/category_no.png,None,Category,None,Pitch,2,0.0,0,5.125,0,5.125,0,5.125,0,0.0,0.625,0,0.0,0,0.0,0,0.0,0,0.0,0,0.0,0,0.0,1,0.5,1,2.125,0,,,,,0,51,51,51,,,,,,,,,465.6460149580089,465.6460149580089,465.6460149580089,465.6460149580089,465.6460149580089,465.6460149580089,465.6460149580089,465.6460149580089,465.56460758333753,465.6460149580089,465.6460149580089,465.6460149580089,465.56460758333753,465.6460149580089,465.6460149580089,465.6460149580089,467.74537462499575,,465.6460149580089,465.6460149580089,470.82611299998825,465.6460149580089,465.6460149580089,465.6460149580089,465.6460149580089,466.11304708299576,467.1880804579996,466.08279066667114,,467.74537462499575,468.7767710000044,467.7158451246544,,465.6460149580089,470.82611299998825,465.6460149580089,470.82611299998825,470.8681845829997,471.52512912498787,465.6460149580089,2,1,0.6685682919924147,reldom2_s027,001,2025-02-26_15h55.45.472,What-B-Scan_AC,2022.2.5,None,
40,First_Order,7.0,audwhat,stimulus/audwhat_stim/dummy.wav,stimulus/audwhat_stim/dummy.wav,stimulus/audwhat_stim/string viola_high-pitch_F_loud.wav,stimulus/audwhat_stim/string viola_low-pitch_Ftri_loud.wav,stimulus/audwhat_stim/blank_white.png,stimulus/audwhat_stim/pitch_box.png,stimulus/audwhat_stim/pitch_yes.png,stimulus/audwhat_stim/pitch_no.png,None,Pitch,None,Category,2,0.0,0,5.125,0,5.125,0,5.125,0,0.0,0.625,0,0.0,0,0.0,0,0.0,0,0.0,0,0.0,0,0.0,1,0.5,1,2.125,0,,,,,0,52,52,52,,,,,,,,,471.7388627080072,471.7388627080072,471.7388627080072,471.7388627080072,471.7388627080072,471.7388627080072,471.7388627080072,471.7388627080072,471.6584624583212,471.7388627080072,471.7388627080072,471.7388627080072,471.6584624583212,471.7388627080072,471.7388627080072,471.7388627080072,473.82973075000336,,471.7388627080072,471.7388627080072,476.8990029169945,471.7388627080072,471.7388627080072,471.7388627080072,471.7388627080072,472.2040505000041,473.2733555829909,472.1740969996647,,473.82973075000336,474.90138495800784,473.799932499682,,471.7388627080072,476.8990029169945,471.7388627080072,476.8990029169945,476.9402495420072,477.59518887501326,471.7388627080072,1,0,1.5689498750143684,reldom2_s027,001,2025-02-26_15h55.45.472,What-B-Scan_AC,2022.2.5,None,
0,0.0,None,fixation,stimulus/viswhat_stim/blank_white.png,stimulus/viswhat_stim/blank_white.png,stimulus/audwhat_stim/blank_white.png,stimulus/audwhat_stim/blank_white.png,stimulus/viswhat_stim/blank_white.png,stimulus/viswhat_stim/blank_white.png,stimulus/viswhat_stim/blank_white.png,stimulus/viswhat_stim/blank_white.png,0.0,0.0,0.0,0.0,0,0.0,0,0.0,0,0.0,0,0.0,0,0.0,0.0,0,0.0,0,0.0,0,0.0,0,0.0,0,0.0,0,0.0,0,0.0,0,0.0,9,,,,,0,53,53,53,,,,,,,,,477.86948316701455,477.86948316701455,477.86948316701455,477.86948316701455,477.86948316701455,477.86948316701455,477.86948316701455,477.86948316701455,477.7693509163238,477.86948316701455,477.86948316701455,477.86948316701455,477.7693509163238,477.86948316701455,477.86948316701455,477.86948316701455,477.86948316701455,477.86948316701455,477.86948316701455,477.86948316701455,477.86948316701455,477.86948316701455,477.86948316701455,477.86948316701455,477.86948316701455,477.86948316701455,477.86948316701455,477.8193509163238,477.86948316701455,477.86948316701455,477.86948316701455,477.8193509163238,477.86948316701455,477.86948316701455,477.86948316701455,477.86948316701455,477.86948316701455,483.0595431670081,483.0595431670081,487.0507757079904,None,0,,reldom2_s027,001,2025-02-26_15h55.45.472,What-B-Scan_AC,2022.2.5,None,
41,Second_Order,7.0,audwhat,stimulus/audwhat_stim/percussion mallet_low-pitch_F_loud.wav,stimulus/audwhat_stim/percussion mallet_high-pitch_D_loud.wav,stimulus/audwhat_stim/string cello_low-pitch_Dtri_loud.wav,stimulus/audwhat_stim/string viola_high-pitch_F_loud.wav,stimulus/viswhat_stim/match_blank.png,stimulus/viswhat_stim/match_box.png,stimulus/viswhat_stim/match_yes.png,stimulus/viswhat_stim/match_no.png,1.0,Match,Category,Category,1,5.125,0,5.125,0,5.125,0,5.125,0,0.75,0.75,0,0.0,0,0.0,0,0.0,0,0.0,1,0.5,1,2.125,1,0.5,1,2.125,0,,,,,0,54,54,54,,,,,,,,,487.0507757079904,492.16856937500415,487.0507757079904,487.0507757079904,487.0507757079904,487.0507757079904,487.5051969579945,488.5042114579992,487.51852908367096,,489.1268883330049,490.12478612500126,489.13935924967905,,492.16856937500415,493.0195499169931,495.1016827500134,499.0225946250139,493.0195499169931,493.0195499169931,498.2090315000096,493.0195499169931,493.0195499169931,493.0195499169931,493.0195499169931,493.4806424579874,494.54538683299324,493.4510097496716,,495.1016827500134,496.1711054169864,495.0715956246752,,493.0195499169931,498.2090315000096,493.0195499169931,498.2090315000096,498.2090315000096,,493.0195499169931,1,1,0.6846045420097653,reldom2_s027,001,2025-02-26_15h55.45.472,What-B-Scan_AC,2022.2.5,None,
42,Second_Order,7.0,audwhat,stimulus/audwhat_stim/percussion mallet_high-pitch_Ftri_loud.wav,stimulus/audwhat_stim/percussion mallet_low-pitch_F_loud.wav,stimulus/audwhat_stim/percussion mallet_low-pitch_Dtri_loud.wav,stimulus/audwhat_stim/string viola_low-pitch_Dtri_loud.wav,stimulus/viswhat_stim/match_blank.png,stimulus/viswhat_stim/match_box.png,stimulus/viswhat_stim/match_yes.png,stimulus/viswhat_stim/match_no.png,2.0,Match,Category,Pitch,2,5.125,0,5.125,0,5.125,0,5.125,0,0.625,0.625,0,0.0,0,0.0,0,0.0,0,0.0,1,0.5,1,2.125,1,0.5,1,2.125,0,,,,,0,55,55,55,,,,,,,,,499.0225946250139,504.14525187498657,499.0225946250139,499.0225946250139,499.0225946250139,499.0225946250139,499.48386145799304,500.48207391699543,499.4965196246669,,501.105037041998,502.10231341701,501.1167859586751,,504.14525187498657,504.87588962499285,506.94268812501105,,504.87588962499285,504.87588962499285,510.0353400830063,504.87588962499285,504.87588962499285,504.87588962499285,504.87588962499285,505.2893235000083,506.3448513750045,505.2598097916673,,506.94268812501105,508.00588341700495,506.91242349966,,504.87588962499285,510.0353400830063,504.87588962499285,510.0353400830063,510.0353400830063,510.68674174998887,504.87588962499285,2,1,0.5879132089903578,reldom2_s027,001,2025-02-26_15h55.45.472,What-B-Scan_AC,2022.2.5,None,
0,0.0,None,fixation,stimulus/viswhat_stim/blank_white.png,stimulus/viswhat_stim/blank_white.png,stimulus/audwhat_stim/blank_white.png,stimulus/audwhat_stim/blank_white.png,stimulus/viswhat_stim/blank_white.png,stimulus/viswhat_stim/blank_white.png,stimulus/viswhat_stim/blank_white.png,stimulus/viswhat_stim/blank_white.png,0.0,0.0,0.0,0.0,0,0.0,0,0.0,0,0.0,0,0.0,0,0.0,0.0,0,0.0,0,0.0,0,0.0,0,0.0,0,0.0,0,0.0,0,0.0,0,0.0,9,,,,,0,56,56,56,,,,,,,,,510.9605771249917,510.9605771249917,510.9605771249917,510.9605771249917,510.9605771249917,510.9605771249917,510.9605771249917,510.9605771249917,510.86027987534374,510.9605771249917,510.9605771249917,510.9605771249917,510.86027987534374,510.9605771249917,510.9605771249917,510.9605771249917,510.9605771249917,510.9605771249917,510.9605771249917,510.9605771249917,510.9605771249917,510.9605771249917,510.9605771249917,510.9605771249917,510.9605771249917,510.9605771249917,510.9605771249917,510.91027987534375,510.9605771249917,510.9605771249917,510.9605771249917,510.91027987534375,510.9605771249917,510.9605771249917,510.9605771249917,510.9605771249917,510.9605771249917,516.1743782919948,516.1743782919948,520.1937485419912,None,0,,reldom2_s027,001,2025-02-26_15h55.45.472,What-B-Scan_AC,2022.2.5,None,
43,First_Order,8.0,audwhat,stimulus/audwhat_stim/dummy.wav,stimulus/audwhat_stim/dummy.wav,stimulus/audwhat_stim/string cello_high-pitch_D_loud.wav,stimulus/audwhat_stim/string cello_low-pitch_F_loud.wav,stimulus/audwhat_stim/blank_white.png,stimulus/audwhat_stim/pitch_box.png,stimulus/audwhat_stim/pitch_yes.png,stimulus/audwhat_stim/pitch_no.png,None,Pitch,None,Category,2,0.0,0,5.125,0,5.125,0,5.125,0,0.0,0.625,0,0.0,0,0.0,0,0.0,0,0.0,0,0.0,0,0.0,1,0.5,1,2.125,0,,,,,0,57,57,57,,,,,,,,,520.1937485419912,520.1937485419912,520.1937485419912,520.1937485419912,520.1937485419912,520.1937485419912,520.1937485419912,520.1937485419912,520.1219971666675,520.1937485419912,520.1937485419912,520.1937485419912,520.1219971666675,520.1937485419912,520.1937485419912,520.1937485419912,522.2815863330034,,520.1937485419912,520.1937485419912,525.3864148329885,520.1937485419912,520.1937485419912,520.1937485419912,520.1937485419912,520.6578211669985,521.7249545420054,520.6279577496791,,522.2815863330034,523.3522689169913,522.2519569586768,,520.1937485419912,525.3864148329885,520.1937485419912,525.3864148329885,525.3864148329885,526.0391192499956,520.1937485419912,2,1,0.7474610409990419,reldom2_s027,001,2025-02-26_15h55.45.472,What-B-Scan_AC,2022.2.5,None,
44,First_Order,8.0,audwhat,stimulus/audwhat_stim/dummy.wav,stimulus/audwhat_stim/dummy.wav,stimulus/audwhat_stim/percussion mallet_low-pitch_F_loud.wav,stimulus/audwhat_stim/string cello_low-pitch_F_loud.wav,stimulus/audwhat_stim/blank_white.png,stimulus/audwhat_stim/pitch_box.png,stimulus/audwhat_stim/pitch_yes.png,stimulus/audwhat_stim/pitch_no.png,None,Pitch,None,Pitch,1,0.0,0,5.125,0,5.125,0,5.125,0,0.0,0.625,0,0.0,0,0.0,0,0.0,0,0.0,0,0.0,0,0.0,1,0.5,1,2.125,0,,,,,0,58,58,58,,,,,,,,,526.2926601670042,526.2926601670042,526.2926601670042,526.2926601670042,526.2926601670042,526.2926601670042,526.2926601670042,526.2926601670042,526.2134486663291,526.2926601670042,526.2926601670042,526.2926601670042,526.2134486663291,526.2926601670042,526.2926601670042,526.2926601670042,528.3810161669971,,526.2926601670042,526.2926601670042,531.4453641670116,526.2926601670042,526.2926601670042,526.2926601670042,526.2926601670042,526.7545354999893,527.8235672920127,526.7246458336633,,528.3810161669971,529.452756957995,528.3507789586768,,526.2926601670042,531.4453641670116,526.2926601670042,531.4453641670116,531.4865864999883,532.1391995830054,526.2926601670042,1,1,0.6898944999848027,reldom2_s027,001,2025-02-26_15h55.45.472,What-B-Scan_AC,2022.2.5,None,
45,First_Order,8.0,audwhat,stimulus/audwhat_stim/dummy.wav,stimulus/audwhat_stim/dummy.wav,stimulus/audwhat_stim/string viola_low-pitch_Dtri_loud.wav,stimulus/audwhat_stim/string cello_high-pitch_Ftri_loud.wav,stimulus/audwhat_stim/blank_white.png,stimulus/audwhat_stim/category_box.png,stimulus/audwhat_stim/category_yes.png,stimulus/audwhat_stim/category_no.png,None,Category,None,Category,1,0.0,0,5.125,0,5.125,0,5.125,0,0.0,0.625,0,0.0,0,0.0,0,0.0,0,0.0,0,0.0,0,0.0,1,0.5,1,2.125,0,,,,,0,59,59,59,,,,,,,,,532.3924577920116,532.3924577920116,532.3924577920116,532.3924577920116,532.3924577920116,532.3924577920116,532.3924577920116,532.3924577920116,532.3129641253346,532.3924577920116,532.3924577920116,532.3924577920116,532.3129641253346,532.3924577920116,532.3924577920116,532.3924577920116,534.490835500008,538.5220202920027,532.3924577920116,532.3924577920116,537.5717727919982,532.3924577920116,532.3924577920116,532.3924577920116,532.3924577920116,532.858800957998,533.9314049170061,532.8286944996546,,534.490835500008,535.5209182499966,534.4609268336537,,532.3924577920116,537.5717727919982,532.3924577920116,537.5717727919982,537.61311866701,538.2681541249913,532.3924577920116,1,1,0.5991441670048516,reldom2_s027,001,2025-02-26_15h55.45.472,What-B-Scan_AC,2022.2.5,None,
46,First_Order,8.0,audwhat,stimulus/audwhat_stim/dummy.wav,stimulus/audwhat_stim/dummy.wav,stimulus/audwhat_stim/string viola_high-pitch_Ftri_loud.wav,stimulus/audwhat_stim/percussion xylophone_high-pitch_Ftri_loud.wav,stimulus/audwhat_stim/blank_white.png,stimulus/audwhat_stim/category_box.png,stimulus/audwhat_stim/category_yes.png,stimulus/audwhat_stim/category_no.png,None,Category,None,Pitch,2,0.0,0,5.125,0,5.125,0,5.125,0,0.0,0.625,0,0.0,0,0.0,0,0.0,0,0.0,0,0.0,0,0.0,1,0.5,1,2.125,0,,,,,0,60,60,60,,,,,,,,,538.5220202920027,538.5220202920027,538.5220202920027,538.5220202920027,538.5220202920027,538.5220202920027,538.5220202920027,538.5220202920027,538.4423763333199,538.5220202920027,538.5220202920027,538.5220202920027,538.4423763333199,538.5220202920027,538.5220202920027,538.5220202920027,540.6227157080139,,538.5220202920027,538.5220202920027,543.7061033330101,538.5220202920027,538.5220202920027,538.5220202920027,538.5220202920027,538.9900605420116,540.0625837499974,538.9596576666556,,540.6227157080139,541.6538377499965,540.5927630416738,541.6538377499965,538.5220202920027,543.7061033330101,538.5220202920027,543.7061033330101,543.7475860000122,544.4041954170098,538.5220202920027,2,1,0.8367638750059996,reldom2_s027,001,2025-02-26_15h55.45.472,What-B-Scan_AC,2022.2.5,None,
0,0.0,None,fixation,stimulus/viswhat_stim/blank_white.png,stimulus/viswhat_stim/blank_white.png,stimulus/audwhat_stim/blank_white.png,stimulus/audwhat_stim/blank_white.png,stimulus/viswhat_stim/blank_white.png,stimulus/viswhat_stim/blank_white.png,stimulus/viswhat_stim/blank_white.png,stimulus/viswhat_stim/blank_white.png,0.0,0.0,0.0,0.0,0,0.0,0,0.0,0,0.0,0,0.0,0,0.0,0.0,0,0.0,0,0.0,0,0.0,0,0.0,0,0.0,0,0.0,0,0.0,0,0.0,8,,,,,0,61,61,61,,,,,,,,,544.638640707999,544.638640707999,544.638640707999,544.638640707999,544.638640707999,544.638640707999,544.638640707999,544.638640707999,544.5375287503431,544.638640707999,544.638640707999,544.638640707999,544.5375287503431,544.638640707999,544.638640707999,544.638640707999,544.638640707999,544.638640707999,544.638640707999,544.638640707999,544.638640707999,544.638640707999,544.638640707999,544.638640707999,544.638640707999,544.638640707999,544.638640707999,544.587528750343,544.638640707999,544.638640707999,544.638640707999,544.587528750343,544.638640707999,544.638640707999,544.638640707999,544.638640707999,544.638640707999,549.8312251250027,549.8312251250027,552.8119582500076,None,0,,reldom2_s027,001,2025-02-26_15h55.45.472,What-B-Scan_AC,2022.2.5,None,
47,Second_Order,8.0,audwhat,stimulus/audwhat_stim/string cello_low-pitch_Dtri_loud.wav,stimulus/audwhat_stim/string viola_high-pitch_D_loud.wav,stimulus/audwhat_stim/percussion xylophone_high-pitch_F_loud.wav,stimulus/audwhat_stim/percussion mallet_low-pitch_D_loud.wav,stimulus/viswhat_stim/match_blank.png,stimulus/viswhat_stim/match_box.png,stimulus/viswhat_stim/match_yes.png,stimulus/viswhat_stim/match_no.png,1.0,Match,Category,Category,1,5.125,0,5.125,0,5.125,0,5.125,0,0.75,0.75,0,0.0,0,0.0,0,0.0,0,0.0,1,0.5,1,2.125,1,0.5,1,2.125,0,,,,,0,62,62,62,,,,,,,,,552.8119582500076,557.9378563330101,552.8119582500076,552.8119582500076,552.8119582500076,552.8119582500076,553.2707210420049,554.2613751250028,553.2730863336803,,554.8984769580129,555.896390208014,554.9077990836561,,557.9378563330101,558.7981212919985,560.8822114169889,,558.7981212919985,558.7981212919985,563.9928182919975,558.7981212919985,558.7981212919985,558.7981212919985,558.7981212919985,559.2140587499889,560.2799359580094,559.1845701666646,560.2337315829936,560.8822114169889,561.9550790830108,560.8522517086569,,558.7981212919985,563.9928182919975,558.7981212919985,563.9928182919975,563.9928182919975,,558.7981212919985,1,1,0.5863124169991352,reldom2_s027,001,2025-02-26_15h55.45.472,What-B-Scan_AC,2022.2.5,None,
48,Second_Order,8.0,audwhat,stimulus/audwhat_stim/percussion mallet_high-pitch_D_loud.wav,stimulus/audwhat_stim/percussion mallet_low-pitch_Dtri_loud.wav,stimulus/audwhat_stim/string viola_high-pitch_F_loud.wav,stimulus/audwhat_stim/string viola_low-pitch_Dtri_loud.wav,stimulus/viswhat_stim/match_blank.png,stimulus/viswhat_stim/match_box.png,stimulus/viswhat_stim/match_yes.png,stimulus/viswhat_stim/match_no.png,1.0,Match,Category,Category,1,5.125,0,5.125,0,5.125,0,5.125,0,0.625,0.625,0,0.0,0,0.0,0,0.0,0,0.0,1,0.5,1,2.125,1,0.5,1,2.125,0,,,,,0,63,63,63,,,,,,,,,564.7628884580045,569.8805454169924,564.7628884580045,564.7628884580045,564.7628884580045,564.7628884580045,565.2168581250007,566.204795083002,565.2312804996657,566.2207340830064,566.8404383749876,567.8376406249881,566.851900208658,,569.8805454169924,570.6119138330105,572.678206667013,,570.6119138330105,570.6119138330105,575.7753107080061,570.6119138330105,570.6119138330105,570.6119138330105,570.6119138330105,571.0248994170106,572.0828132079914,570.9954974586765,,572.678206667013,573.7432682919898,572.6489300836731,,570.6119138330105,575.7753107080061,570.6119138330105,575.7753107080061,575.7753107080061,576.4239474580099,570.6119138330105,1,1,0.5485157090006396,reldom2_s027,001,2025-02-26_15h55.45.472,What-B-Scan_AC,2022.2.5,None,
0,0.0,None,fixation,stimulus/viswhat_stim/blank_white.png,stimulus/viswhat_stim/blank_white.png,stimulus/audwhat_stim/blank_white.png,stimulus/audwhat_stim/blank_white.png,stimulus/viswhat_stim/blank_white.png,stimulus/viswhat_stim/blank_white.png,stimulus/viswhat_stim/blank_white.png,stimulus/viswhat_stim/blank_white.png,0.0,0.0,0.0,0.0,0,0.0,0,0.0,0,0.0,0,0.0,0,0.0,0.0,0,0.0,0,0.0,0,0.0,0,0.0,0,0.0,0,0.0,0,0.0,0,0.0,16,,,,,0,64,64,64,,,,,,,,,576.6974325829942,576.6974325829942,576.6974325829942,576.6974325829942,576.6974325829942,576.6974325829942,576.6974325829942,576.6974325829942,576.5971035413405,576.6974325829942,576.6974325829942,576.6974325829942,576.5971035413405,576.6974325829942,576.6974325829942,576.6974325829942,576.6974325829942,576.6974325829942,576.6974325829942,576.6974325829942,576.6974325829942,576.6974325829942,576.6974325829942,576.6974325829942,576.6974325829942,576.6974325829942,576.6974325829942,576.6471035413405,576.6974325829942,576.6974325829942,576.6974325829942,576.6471035413405,576.6974325829942,576.6974325829942,576.6974325829942,576.6974325829942,576.6974325829942,581.9160480829887,581.9160480829887,592.8245532920118,None,0,,reldom2_s027,001,2025-02-26_15h55.45.472,What-B-Scan_AC,2022.2.5,None,
