Trial,Order,Block,Type,Stimuli_File1,Stimuli_File2,Stimuli_File3,Stimuli_File4,Cue_File1,Cue_File2,Response_File_Yes,Response_File_No,Match,Cue_Dimension,Pair1_Dimension,Pair2_Dimension,Key,Cue1_Duration,Cue1_Onset,Cue2_Duration,Cue2_Onset,ResponseYes_Duration,ResponseYes_Onset,ResponseNo_Duration,ResponseNo_Onset,ITI_Within,ITI_Between,Image1_Duration,Image1_Onset,Image2_Duration,Image2_Onset,Image3_Duration,Image3_Onset,Image4_Duration,Image4_Onset,Sound1_Duration,Sound1_Onset,Sound2_Duration,Sound2_Onset,Sound3_Duration,Sound3_Onset,Sound4_Duration,Sound4_Onset,Fixation_Duration,trials_2.thisRepN,trials_2.thisTrialN,trials_2.thisN,trials_2.thisIndex,trials.thisRepN,trials.thisTrialN,trials.thisN,trials.thisIndex,text_start.started,key_resp_start.started,key_resp_start.keys,key_resp_start.rt,text2.started,key_resp_2.started,key_resp_2.keys,key_resp_2.rt,cue_file1.started,cue_file1.stopped,image_1.started,image_1.stopped,image_2.started,image_2.stopped,sound_icon1.started,sound_icon1.stopped,sound_1.started,sound_1.stopped,sound_icon2.started,sound_icon2.stopped,sound_2.started,sound_2.stopped,image_blank_1.started,image_blank_1.stopped,key_press.started,key_press.stopped,fixation_text.started,cue_file2.started,cue_file2.stopped,image_3.started,image_3.stopped,image_4.started,image_4.stopped,sound_icon3.started,sound_icon3.stopped,sound_3.started,sound_3.stopped,sound_icon4.started,sound_icon4.stopped,sound_4.started,sound_4.stopped,response_yes.started,response_yes.stopped,response_no.started,response_no.stopped,iti_blank.started,iti_blank.stopped,fixation_text.stopped,key_press.keys,key_press.corr,key_press.rt,participant,session,date,expName,psychopyVersion,frameRate,
,,,,,,,,,,,,,,,,,,,,,,,,,,,,,,,,,,,,,,,,,,,,,,,,,,,,9.175209750013892,9.175209750013892,2,6.9397234589851,,,,,,,,,,,,,,,,,,,,,,,,,,,,,,,,,,,,,,,,,,,,,,,,reldom2_s031,001,2025-02-25_12h07.37.904,Vis-B-Scan_AC,2022.2.5,None,
,,,,,,,,,,,,,,,,,,,,,,,,,,,,,,,,,,,,,,,,,,,,0,0,0,0,,,,,,,,,16.157971417007502,16.157971417007502,5,17.40531445798115,,,,,,,,,,,,,,,,,,,,,,,,,,,,,,,,,,,,,,,,,,,,reldom2_s031,001,2025-02-25_12h07.37.904,Vis-B-Scan_AC,2022.2.5,None,
,,,,,,,,,,,,,,,,,,,,,,,,,,,,,,,,,,,,,,,,,,,,1,0,1,0,,,,,,,,,33.57188337499974,33.57188337499974,5,1.9894242089940235,,,,,,,,,,,,,,,,,,,,,,,,,,,,,,,,,,,,,,,,,,,,reldom2_s031,001,2025-02-25_12h07.37.904,Vis-B-Scan_AC,2022.2.5,None,
,,,,,,,,,,,,,,,,,,,,,,,,,,,,,,,,,,,,,,,,,,,,2,0,2,0,,,,,,,,,35.58562179200817,35.58562179200817,5,1.9760108329937793,,,,,,,,,,,,,,,,,,,,,,,,,,,,,,,,,,,,,,,,,,,,reldom2_s031,001,2025-02-25_12h07.37.904,Vis-B-Scan_AC,2022.2.5,None,
,,,,,,,,,,,,,,,,,,,,,,,,,,,,,,,,,,,,,,,,,,,,3,0,3,0,,,,,,,,,37.57446525001433,37.57446525001433,5,1.9899904160120059,,,,,,,,,,,,,,,,,,,,,,,,,,,,,,,,,,,,,,,,,,,,reldom2_s031,001,2025-02-25_12h07.37.904,Vis-B-Scan_AC,2022.2.5,None,
0,0.0,None,fixation,stimulus/viswhere_stim/blank_white.png,stimulus/viswhere_stim/blank_white.png,stimulus/viswhat_stim/blank_white.png,stimulus/viswhat_stim/blank_white.png,stimulus/viswhere_stim/blank_white.png,stimulus/viswhere_stim/blank_white.png,stimulus/viswhere_stim/blank_white.png,stimulus/viswhere_stim/blank_white.png,0.0,0.0,0.0,0.0,0,0.0,0,0.0,0,0.0,0,0.0,0,0.0,0.0,0,0.0,0,0.0,0,0.0,0,0.0,0,0,0,0,0,0,0,0,16,,,,,0,0,0,0,,,,,,,,,39.77666333402158,39.77666333402158,39.77666333402158,39.77666333402158,39.77666333402158,39.77666333402158,39.77666333402158,39.77666333402158,39.68284437566569,39.77666333402158,39.77666333402158,39.77666333402158,39.68284437566569,39.77666333402158,39.77666333402158,39.77666333402158,39.77666333402158,39.77666333402158,39.77666333402158,39.77666333402158,39.77666333402158,39.77666333402158,39.77666333402158,39.77666333402158,39.77666333402158,39.77666333402158,39.77666333402158,39.732844375665685,39.77666333402158,39.77666333402158,39.77666333402158,39.732844375665685,39.77666333402158,39.77666333402158,39.77666333402158,39.77666333402158,39.77666333402158,44.96178700000746,44.96178700000746,55.934128791996045,None,0,,reldom2_s031,001,2025-02-25_12h07.37.904,Vis-B-Scan_AC,2022.2.5,None,
1,First_Order,1.0,viswhere,stimulus/viswhere_stim/blank_white.png,stimulus/viswhere_stim/blank_white.png,stimulus/viswhere_stim/150-deg_dot-left_royalblue.png,stimulus/viswhere_stim/150-deg_dot-right_peru.png,stimulus/viswhere_stim/blank_white.png,stimulus/viswhere_stim/dot_box.png,stimulus/viswhere_stim/dot_yes.png,stimulus/viswhere_stim/dot_no.png,None,Dot,None,Line,2,0.0,0,5.125,0,5.125,0,5.125,0,0.0,0.625,0,0.0,0,0.0,1,0.5,1,2.125,0,0,0,0,0,0,0,0,0,,,,,0,1,1,1,,,,,,,,,55.934128791996045,55.934128791996045,55.934128791996045,55.934128791996045,55.934128791996045,55.934128791996045,55.934128791996045,55.934128791996045,55.914177459001074,55.934128791996045,55.934128791996045,55.934128791996045,55.914177459001074,55.934128791996045,55.934128791996045,55.934128791996045,58.03163933401811,61.990609458996914,55.934128791996045,55.934128791996045,61.05689308399451,56.41212666701176,57.42335508399992,58.03163933401811,59.05059841700131,55.934128791996045,55.934128791996045,55.93084412566774,55.934128791996045,55.934128791996045,55.934128791996045,55.93084412566774,55.934128791996045,55.934128791996045,61.05689308399451,55.934128791996045,61.05689308399451,61.150596292020055,61.77188375001424,55.934128791996045,None,0,,reldom2_s031,001,2025-02-25_12h07.37.904,Vis-B-Scan_AC,2022.2.5,None,
2,First_Order,1.0,viswhere,stimulus/viswhere_stim/blank_white.png,stimulus/viswhere_stim/blank_white.png,stimulus/viswhere_stim/30-deg_dot-left_salmon.png,stimulus/viswhere_stim/30-deg_dot-right_seagreen.png,stimulus/viswhere_stim/blank_white.png,stimulus/viswhere_stim/dot_box.png,stimulus/viswhere_stim/dot_yes.png,stimulus/viswhere_stim/dot_no.png,None,Dot,None,Line,2,0.0,0,5.125,0,5.125,0,5.125,0,0.0,0.625,0,0.0,0,0.0,1,0.5,1,2.125,0,0,0,0,0,0,0,0,0,,,,,0,2,2,2,,,,,,,,,61.990609458996914,61.990609458996914,61.990609458996914,61.990609458996914,61.990609458996914,61.990609458996914,61.990609458996914,61.990609458996914,61.975642500348236,61.990609458996914,61.990609458996914,61.990609458996914,61.975642500348236,61.990609458996914,61.990609458996914,61.990609458996914,64.09192837501178,68.05566191699472,61.990609458996914,61.990609458996914,67.12717208400136,62.46487429199624,63.47014433401637,64.09192837501178,65.10538295900915,61.990609458996914,61.990609458996914,61.975642500348236,61.990609458996914,61.990609458996914,61.990609458996914,61.975642500348236,61.990609458996914,61.990609458996914,67.12717208400136,61.990609458996914,67.12717208400136,67.22154920900357,67.8487385000044,61.990609458996914,2,1,1.0014432499883696,reldom2_s031,001,2025-02-25_12h07.37.904,Vis-B-Scan_AC,2022.2.5,None,
3,First_Order,1.0,viswhere,stimulus/viswhere_stim/blank_white.png,stimulus/viswhere_stim/blank_white.png,stimulus/viswhere_stim/120-deg_dot-left_goldenrod.png,stimulus/viswhere_stim/30-deg_dot-left_slateblue.png,stimulus/viswhere_stim/blank_white.png,stimulus/viswhere_stim/dot_box.png,stimulus/viswhere_stim/dot_yes.png,stimulus/viswhere_stim/dot_no.png,None,Dot,None,Dot,1,0.0,0,5.125,0,5.125,0,5.125,0,0.0,0.625,0,0.0,0,0.0,1,0.5,1,2.125,0,0,0,0,0,0,0,0,0,,,,,0,3,3,3,,,,,,,,,68.05566191699472,68.05566191699472,68.05566191699472,68.05566191699472,68.05566191699472,68.05566191699472,68.05566191699472,68.05566191699472,68.03971470833251,68.05566191699472,68.05566191699472,68.05566191699472,68.03971470833251,68.05566191699472,68.05566191699472,68.05566191699472,70.17104195899446,74.11327262502164,68.05566191699472,68.05566191699472,73.19111025001621,68.53397033401416,69.54417354200268,70.17104195899446,71.19083562502055,68.05566191699472,68.05566191699472,68.03971470833251,68.05566191699472,68.05566191699472,68.05566191699472,68.03971470833251,68.05566191699472,68.05566191699472,73.19111025001621,68.05566191699472,73.19111025001621,73.28558799999882,73.90741725001135,68.05566191699472,1,1,0.8316760419984348,reldom2_s031,001,2025-02-25_12h07.37.904,Vis-B-Scan_AC,2022.2.5,None,
4,First_Order,1.0,viswhere,stimulus/viswhere_stim/blank_white.png,stimulus/viswhere_stim/blank_white.png,stimulus/viswhere_stim/150-deg_dot-right_royalblue.png,stimulus/viswhere_stim/30-deg_dot-right_salmon.png,stimulus/viswhere_stim/blank_white.png,stimulus/viswhere_stim/line_box.png,stimulus/viswhere_stim/line_yes.png,stimulus/viswhere_stim/line_no.png,None,Line,None,Dot,2,0.0,0,5.125,0,5.125,0,5.125,0,0.0,0.625,0,0.0,0,0.0,1,0.5,1,2.125,0,0,0,0,0,0,0,0,0,,,,,0,4,4,4,,,,,,,,,74.11327262502164,74.11327262502164,74.11327262502164,74.11327262502164,74.11327262502164,74.11327262502164,74.11327262502164,74.11327262502164,74.09612145835611,74.11327262502164,74.11327262502164,74.11327262502164,74.09612145835611,74.11327262502164,74.11327262502164,74.11327262502164,76.21290558401961,80.25215879202005,74.11327262502164,74.11327262502164,79.23918304199469,74.60075199999847,75.6104489590216,76.21290558401961,77.23005225000088,74.11327262502164,74.11327262502164,74.09612145835611,74.11327262502164,74.11327262502164,74.11327262502164,74.09612145835611,74.11327262502164,74.11327262502164,79.23918304199469,74.11327262502164,79.23918304199469,79.33302849999745,79.95769624999957,74.11327262502164,2,1,1.239325833012117,reldom2_s031,001,2025-02-25_12h07.37.904,Vis-B-Scan_AC,2022.2.5,None,
0,0.0,None,fixation,stimulus/viswhere_stim/blank_white.png,stimulus/viswhere_stim/blank_white.png,stimulus/viswhat_stim/blank_white.png,stimulus/viswhat_stim/blank_white.png,stimulus/viswhere_stim/blank_white.png,stimulus/viswhere_stim/blank_white.png,stimulus/viswhere_stim/blank_white.png,stimulus/viswhere_stim/blank_white.png,0.0,0.0,0.0,0.0,0,0.0,0,0.0,0,0.0,0,0.0,0,0.0,0.0,0,0.0,0,0.0,0,0.0,0,0.0,0,0,0,0,0,0,0,0,9,,,,,0,5,5,5,,,,,,,,,80.25215879202005,80.25215879202005,80.25215879202005,80.25215879202005,80.25215879202005,80.25215879202005,80.25215879202005,80.25215879202005,80.1611356253464,80.25215879202005,80.25215879202005,80.25215879202005,80.1611356253464,80.25215879202005,80.25215879202005,80.25215879202005,80.25215879202005,80.25215879202005,80.25215879202005,80.25215879202005,80.25215879202005,80.25215879202005,80.25215879202005,80.25215879202005,80.25215879202005,80.25215879202005,80.25215879202005,80.2111356253464,80.25215879202005,80.25215879202005,80.25215879202005,80.2111356253464,80.25215879202005,80.25215879202005,80.25215879202005,80.25215879202005,80.25215879202005,85.43584966700291,85.43584966700291,89.38160220900318,None,0,,reldom2_s031,001,2025-02-25_12h07.37.904,Vis-B-Scan_AC,2022.2.5,None,
5,Second_Order,1.0,viswhere,stimulus/viswhere_stim/90-deg_dot-left_mediumslateblue.png,stimulus/viswhere_stim/30-deg_dot-left_slateblue.png,stimulus/viswhere_stim/90-deg_dot-left_royalblue.png,stimulus/viswhere_stim/90-deg_dot-right_goldenrod.png,stimulus/viswhere_stim/match_blank.png,stimulus/viswhere_stim/match_box.png,stimulus/viswhere_stim/match_yes.png,stimulus/viswhere_stim/match_no.png,2.0,Match,Dot,Line,2,5.125,0,5.125,0,5.125,0,5.125,0,0.75,0.75,1,0.5,1,2.125,1,0.5,1,2.125,0,0,0,0,0,0,0,0,0,,,,,0,6,6,6,,,,,,,,,89.38160220900318,94.50555025000358,89.86556554201525,90.86351716701756,91.4883252090076,92.48412366700359,89.38160220900318,89.38160220900318,89.38315283367216,89.38160220900318,89.38160220900318,89.38160220900318,89.38315283367216,89.38160220900318,94.50555025000358,95.30344350001542,97.37365670900908,101.27300658400054,95.30344350001542,95.30344350001542,100.43503462499939,95.75906625000061,96.77294399999664,97.37365670900908,98.37834291701438,95.30344350001542,95.30344350001542,95.29059900001157,95.30344350001542,95.30344350001542,95.30344350001542,95.29059900001157,95.30344350001542,95.30344350001542,100.43503462499939,95.30344350001542,100.43503462499939,100.48864341701847,101.23693995899521,95.30344350001542,1,0,0.9684460830176249,reldom2_s031,001,2025-02-25_12h07.37.904,Vis-B-Scan_AC,2022.2.5,None,
6,Second_Order,1.0,viswhere,stimulus/viswhere_stim/30-deg_dot-right_turquoise.png,stimulus/viswhere_stim/30-deg_dot-left_goldenrod.png,stimulus/viswhere_stim/60-deg_dot-left_salmon.png,stimulus/viswhere_stim/60-deg_dot-right_slateblue.png,stimulus/viswhere_stim/match_blank.png,stimulus/viswhere_stim/match_box.png,stimulus/viswhere_stim/match_yes.png,stimulus/viswhere_stim/match_no.png,1.0,Match,Line,Line,1,5.125,0,5.125,0,5.125,0,5.125,0,0.625,0.625,1,0.5,1,2.125,1,0.5,1,2.125,0,0,0,0,0,0,0,0,0,,,,,0,7,7,7,,,,,,,,,101.27300658400054,106.38824200001545,101.75777258400922,102.74549308401765,103.38042583400966,104.37824304201058,101.27300658400054,101.27300658400054,101.2869399589952,101.27300658400054,101.27300658400054,101.27300658400054,101.2869399589952,101.27300658400054,106.38824200001545,107.05853779200697,109.1304479590035,113.16585079202196,107.05853779200697,107.05853779200697,112.18267579202075,107.5082575000124,108.51642054200056,109.1304479590035,110.14326454201364,107.05853779200697,107.05853779200697,107.03456950034209,107.05853779200697,107.05853779200697,107.05853779200697,107.03456950034209,107.05853779200697,107.05853779200697,112.18267579202075,107.05853779200697,112.18267579202075,112.25583545901463,112.88348987500649,107.05853779200697,1,1,1.0462763750110753,reldom2_s031,001,2025-02-25_12h07.37.904,Vis-B-Scan_AC,2022.2.5,None,
0,0.0,None,fixation,stimulus/viswhere_stim/blank_white.png,stimulus/viswhere_stim/blank_white.png,stimulus/viswhat_stim/blank_white.png,stimulus/viswhat_stim/blank_white.png,stimulus/viswhere_stim/blank_white.png,stimulus/viswhere_stim/blank_white.png,stimulus/viswhere_stim/blank_white.png,stimulus/viswhere_stim/blank_white.png,0.0,0.0,0.0,0.0,0,0.0,0,0.0,0,0.0,0,0.0,0,0.0,0.0,0,0.0,0,0.0,0,0.0,0,0.0,0,0,0,0,0,0,0,0,9,,,,,0,8,8,8,,,,,,,,,113.16585079202196,113.16585079202196,113.16585079202196,113.16585079202196,113.16585079202196,113.16585079202196,113.16585079202196,113.16585079202196,113.0736549583283,113.16585079202196,113.16585079202196,113.16585079202196,113.0736549583283,113.16585079202196,113.16585079202196,113.16585079202196,113.16585079202196,113.16585079202196,113.16585079202196,113.16585079202196,113.16585079202196,113.16585079202196,113.16585079202196,113.16585079202196,113.16585079202196,113.16585079202196,113.16585079202196,113.1236549583283,113.16585079202196,113.16585079202196,113.16585079202196,113.1236549583283,113.16585079202196,113.16585079202196,113.16585079202196,113.16585079202196,113.16585079202196,118.37844458399923,118.37844458399923,122.35417800000869,None,0,,reldom2_s031,001,2025-02-25_12h07.37.904,Vis-B-Scan_AC,2022.2.5,None,
7,First_Order,2.0,viswhere,stimulus/viswhere_stim/blank_white.png,stimulus/viswhere_stim/blank_white.png,stimulus/viswhere_stim/60-deg_dot-right_peru.png,stimulus/viswhere_stim/120-deg_dot-right_goldenrod.png,stimulus/viswhere_stim/blank_white.png,stimulus/viswhere_stim/line_box.png,stimulus/viswhere_stim/line_yes.png,stimulus/viswhere_stim/line_no.png,None,Line,None,Dot,2,0.0,0,5.125,0,5.125,0,5.125,0,0.0,0.625,0,0.0,0,0.0,1,0.5,1,2.125,0,0,0,0,0,0,0,0,0,,,,,0,9,9,9,,,,,,,,,122.35417800000869,122.35417800000869,122.35417800000869,122.35417800000869,122.35417800000869,122.35417800000869,122.35417800000869,122.35417800000869,122.32378862501938,122.35417800000869,122.35417800000869,122.35417800000869,122.32378862501938,122.35417800000869,122.35417800000869,122.35417800000869,124.45745329200872,128.40738429201883,122.35417800000869,122.35417800000869,127.49175283400109,122.84162658400601,123.85723845902248,124.45745329200872,125.47716020900407,122.35417800000869,122.35417800000869,122.34045529168604,122.35417800000869,122.35417800000869,122.35417800000869,122.34045529168604,122.35417800000869,122.35417800000869,127.49175283400109,122.35417800000869,127.49175283400109,127.57934762499644,128.21241649999865,122.35417800000869,2,1,1.0289660830167122,reldom2_s031,001,2025-02-25_12h07.37.904,Vis-B-Scan_AC,2022.2.5,None,
8,First_Order,2.0,viswhere,stimulus/viswhere_stim/blank_white.png,stimulus/viswhere_stim/blank_white.png,stimulus/viswhere_stim/90-deg_dot-left_turquoise.png,stimulus/viswhere_stim/90-deg_dot-right_peru.png,stimulus/viswhere_stim/blank_white.png,stimulus/viswhere_stim/line_box.png,stimulus/viswhere_stim/line_yes.png,stimulus/viswhere_stim/line_no.png,None,Line,None,Line,1,0.0,0,5.125,0,5.125,0,5.125,0,0.0,0.625,0,0.0,0,0.0,1,0.5,1,2.125,0,0,0,0,0,0,0,0,0,,,,,0,10,10,10,,,,,,,,,128.40738429201883,128.40738429201883,128.40738429201883,128.40738429201883,128.40738429201883,128.40738429201883,128.40738429201883,128.40738429201883,128.38928491734745,128.40738429201883,128.40738429201883,128.40738429201883,128.38928491734745,128.40738429201883,128.40738429201883,128.40738429201883,130.50710012501804,134.46512308399542,128.40738429201883,128.40738429201883,133.53243458401994,128.8979820840177,129.90298158401856,130.50710012501804,131.51828058401588,128.40738429201883,128.40738429201883,128.38928491734745,128.40738429201883,128.40738429201883,128.40738429201883,128.38928491734745,128.40738429201883,128.40738429201883,133.53243458401994,128.40738429201883,133.53243458401994,133.630795709003,134.2803941250022,128.40738429201883,1,1,0.8058021670149174,reldom2_s031,001,2025-02-25_12h07.37.904,Vis-B-Scan_AC,2022.2.5,None,
9,First_Order,2.0,viswhere,stimulus/viswhere_stim/blank_white.png,stimulus/viswhere_stim/blank_white.png,stimulus/viswhere_stim/60-deg_dot-right_seagreen.png,stimulus/viswhere_stim/120-deg_dot-right_salmon.png,stimulus/viswhere_stim/blank_white.png,stimulus/viswhere_stim/dot_box.png,stimulus/viswhere_stim/dot_yes.png,stimulus/viswhere_stim/dot_no.png,None,Dot,None,Dot,1,0.0,0,5.125,0,5.125,0,5.125,0,0.0,0.625,0,0.0,0,0.0,1,0.5,1,2.125,0,0,0,0,0,0,0,0,0,,,,,0,11,11,11,,,,,,,,,134.46512308399542,134.46512308399542,134.46512308399542,134.46512308399542,134.46512308399542,134.46512308399542,134.46512308399542,134.46512308399542,134.44685575033267,134.46512308399542,134.46512308399542,134.46512308399542,134.44685575033267,134.46512308399542,134.46512308399542,134.46512308399542,136.58010266700876,140.53233941699727,134.46512308399542,134.46512308399542,139.5998424590216,134.95493404200533,135.95889008400263,136.58010266700876,137.5856617920217,134.46512308399542,134.46512308399542,134.44685575033267,134.46512308399542,134.46512308399542,134.46512308399542,134.44685575033267,134.46512308399542,134.46512308399542,139.5998424590216,134.46512308399542,139.5998424590216,139.68228591702064,140.31055729201762,134.46512308399542,1,1,1.8981508330034558,reldom2_s031,001,2025-02-25_12h07.37.904,Vis-B-Scan_AC,2022.2.5,None,
10,First_Order,2.0,viswhere,stimulus/viswhere_stim/blank_white.png,stimulus/viswhere_stim/blank_white.png,stimulus/viswhere_stim/120-deg_dot-right_cyan.png,stimulus/viswhere_stim/120-deg_dot-left_turquoise.png,stimulus/viswhere_stim/blank_white.png,stimulus/viswhere_stim/line_box.png,stimulus/viswhere_stim/line_yes.png,stimulus/viswhere_stim/line_no.png,None,Line,None,Line,1,0.0,0,5.125,0,5.125,0,5.125,0,0.0,0.625,0,0.0,0,0.0,1,0.5,1,2.125,0,0,0,0,0,0,0,0,0,,,,,0,12,12,12,,,,,,,,,140.53233941699727,140.53233941699727,140.53233941699727,140.53233941699727,140.53233941699727,140.53233941699727,140.53233941699727,140.53233941699727,140.51375841735475,140.53233941699727,140.53233941699727,140.53233941699727,140.51375841735475,140.53233941699727,140.53233941699727,140.53233941699727,142.63875491701765,146.6747790420195,140.53233941699727,140.53233941699727,145.65619179201894,141.0214649590198,142.038283959002,142.63875491701765,143.6473068750056,140.53233941699727,140.53233941699727,140.51375841735475,140.53233941699727,140.53233941699727,140.53233941699727,140.51375841735475,140.53233941699727,140.53233941699727,145.65619179201894,140.53233941699727,145.65619179201894,145.75658304200624,146.38455779201468,140.53233941699727,1,1,1.7615556250093505,reldom2_s031,001,2025-02-25_12h07.37.904,Vis-B-Scan_AC,2022.2.5,None,
0,0.0,None,fixation,stimulus/viswhere_stim/blank_white.png,stimulus/viswhere_stim/blank_white.png,stimulus/viswhat_stim/blank_white.png,stimulus/viswhat_stim/blank_white.png,stimulus/viswhere_stim/blank_white.png,stimulus/viswhere_stim/blank_white.png,stimulus/viswhere_stim/blank_white.png,stimulus/viswhere_stim/blank_white.png,0.0,0.0,0.0,0.0,0,0.0,0,0.0,0,0.0,0,0.0,0,0.0,0.0,0,0.0,0,0.0,0,0.0,0,0.0,0,0,0,0,0,0,0,0,8,,,,,0,13,13,13,,,,,,,,,146.6747790420195,146.6747790420195,146.6747790420195,146.6747790420195,146.6747790420195,146.6747790420195,146.6747790420195,146.6747790420195,146.58120437532975,146.6747790420195,146.6747790420195,146.6747790420195,146.58120437532975,146.6747790420195,146.6747790420195,146.6747790420195,146.6747790420195,146.6747790420195,146.6747790420195,146.6747790420195,146.6747790420195,146.6747790420195,146.6747790420195,146.6747790420195,146.6747790420195,146.6747790420195,146.6747790420195,146.63120437532976,146.6747790420195,146.6747790420195,146.6747790420195,146.63120437532976,146.6747790420195,146.6747790420195,146.6747790420195,146.6747790420195,146.6747790420195,151.9082144999993,151.9082144999993,154.80569629199454,None,0,,reldom2_s031,001,2025-02-25_12h07.37.904,Vis-B-Scan_AC,2022.2.5,None,
11,Second_Order,2.0,viswhere,stimulus/viswhere_stim/120-deg_dot-left_slateblue.png,stimulus/viswhere_stim/60-deg_dot-left_seagreen.png,stimulus/viswhere_stim/90-deg_dot-right_seagreen.png,stimulus/viswhere_stim/30-deg_dot-right_mediumslateblue.png,stimulus/viswhere_stim/match_blank.png,stimulus/viswhere_stim/match_box.png,stimulus/viswhere_stim/match_yes.png,stimulus/viswhere_stim/match_no.png,1.0,Match,Dot,Dot,1,5.125,0,5.125,0,5.125,0,5.125,0,0.75,0.75,1,0.5,1,2.125,1,0.5,1,2.125,0,0,0,0,0,0,0,0,0,,,,,0,14,14,14,,,,,,,,,154.80569629199454,159.92876804200932,155.28300579200732,156.28163037501508,156.9042288339988,157.9021618750121,154.80569629199454,154.80569629199454,154.80444454168708,154.80569629199454,154.80569629199454,154.80569629199454,154.80444454168708,154.80569629199454,159.92876804200932,160.72106012501172,162.79250033400604,166.6879401250044,160.72106012501172,160.72106012501172,165.86010425002314,161.1776690420229,162.18501558402204,162.79250033400604,163.80564825001056,160.72106012501172,160.72106012501172,160.695894333338,160.72106012501172,160.72106012501172,160.72106012501172,160.695894333338,160.72106012501172,160.72106012501172,165.86010425002314,160.72106012501172,165.86010425002314,165.91961650000303,,160.72106012501172,1,1,1.6764419999963138,reldom2_s031,001,2025-02-25_12h07.37.904,Vis-B-Scan_AC,2022.2.5,None,
12,Second_Order,2.0,viswhere,stimulus/viswhere_stim/90-deg_dot-right_cyan.png,stimulus/viswhere_stim/90-deg_dot-left_salmon.png,stimulus/viswhere_stim/30-deg_dot-left_goldenrod.png,stimulus/viswhere_stim/60-deg_dot-left_turquoise.png,stimulus/viswhere_stim/match_blank.png,stimulus/viswhere_stim/match_box.png,stimulus/viswhere_stim/match_yes.png,stimulus/viswhere_stim/match_no.png,2.0,Match,Line,Dot,2,5.125,0,5.125,0,5.125,0,5.125,0,0.625,0.625,1,0.5,1,2.125,1,0.5,1,2.125,0,0,0,0,0,0,0,0,0,,,,,0,15,15,15,,,,,,,,,166.6879401250044,171.80449658399448,167.17350670901942,168.16234775001067,168.79869612501352,169.79632850000053,166.6879401250044,166.6879401250044,166.70141583399965,166.6879401250044,166.6879401250044,166.6879401250044,166.70141583399965,166.6879401250044,171.80449658399448,172.4757055840164,174.55779362501926,178.5864054170088,172.4757055840164,172.4757055840164,177.61604362502112,172.93272854201496,173.9360092499992,174.55779362501926,175.5620441250212,172.4757055840164,172.4757055840164,172.45259708332793,172.4757055840164,172.4757055840164,172.4757055840164,172.45259708332793,172.4757055840164,172.4757055840164,177.61604362502112,172.4757055840164,177.61604362502112,177.6707845000201,178.29512824999983,172.4757055840164,1,0,1.7338225830171723,reldom2_s031,001,2025-02-25_12h07.37.904,Vis-B-Scan_AC,2022.2.5,None,
0,0.0,None,fixation,stimulus/viswhere_stim/blank_white.png,stimulus/viswhere_stim/blank_white.png,stimulus/viswhat_stim/blank_white.png,stimulus/viswhat_stim/blank_white.png,stimulus/viswhere_stim/blank_white.png,stimulus/viswhere_stim/blank_white.png,stimulus/viswhere_stim/blank_white.png,stimulus/viswhere_stim/blank_white.png,0.0,0.0,0.0,0.0,0,0.0,0,0.0,0,0.0,0,0.0,0,0.0,0.0,0,0.0,0,0.0,0,0.0,0,0.0,0,0,0,0,0,0,0,0,10,,,,,0,16,16,16,,,,,,,,,178.5864054170088,178.5864054170088,178.5864054170088,178.5864054170088,178.5864054170088,178.5864054170088,178.5864054170088,178.5864054170088,178.49177958335108,178.5864054170088,178.5864054170088,178.5864054170088,178.49177958335108,178.5864054170088,178.5864054170088,178.5864054170088,178.5864054170088,178.5864054170088,178.5864054170088,178.5864054170088,178.5864054170088,178.5864054170088,178.5864054170088,178.5864054170088,178.5864054170088,178.5864054170088,178.5864054170088,178.5417795833511,178.5864054170088,178.5864054170088,178.5864054170088,178.5417795833511,178.5864054170088,178.5864054170088,178.5864054170088,178.5864054170088,178.5864054170088,183.77336049999576,183.77336049999576,188.8805181250209,None,0,,reldom2_s031,001,2025-02-25_12h07.37.904,Vis-B-Scan_AC,2022.2.5,None,
13,First_Order,3.0,viswhat,stimulus/viswhat_stim/blank_white.png,stimulus/viswhat_stim/blank_white.png,stimulus/viswhat_stim/land_animal-moose.png,stimulus/viswhat_stim/water_animal-whale (1).png,stimulus/viswhat_stim/blank_white.png,stimulus/viswhat_stim/type_box.png,stimulus/viswhat_stim/type_yes.png,stimulus/viswhat_stim/type_no.png,None,Type,None,Type,1,0.0,0,5.125,0,5.125,0,5.125,0,0.0,0.625,0,0.0,0,0.0,1,0.5,1,2.125,0,0,0,0,0,0,0,0,0,,,,,0,17,17,17,,,,,,,,,188.8805181250209,188.8805181250209,188.8805181250209,188.8805181250209,188.8805181250209,188.8805181250209,188.8805181250209,188.8805181250209,188.76674812500133,188.8805181250209,188.8805181250209,188.8805181250209,188.76674812500133,188.8805181250209,188.8805181250209,188.8805181250209,190.9550512499991,194.95299262501067,188.8805181250209,188.8805181250209,194.08128066701465,189.34135250002146,190.43852675001835,190.9550512499991,192.00220008401084,188.8805181250209,188.8805181250209,188.833414791668,188.8805181250209,188.8805181250209,188.8805181250209,188.833414791668,188.8805181250209,188.8805181250209,194.08128066701465,188.8805181250209,194.08128066701465,194.08128066701465,194.75800820899894,188.8805181250209,1,1,0.8665984170220327,reldom2_s031,001,2025-02-25_12h07.37.904,Vis-B-Scan_AC,2022.2.5,None,
14,First_Order,3.0,viswhat,stimulus/viswhat_stim/blank_white.png,stimulus/viswhat_stim/blank_white.png,stimulus/viswhat_stim/land_vehicle-trolley.png,stimulus/viswhat_stim/water_vehicle-jetski.png,stimulus/viswhat_stim/blank_white.png,stimulus/viswhat_stim/location_box.png,stimulus/viswhat_stim/location_yes.png,stimulus/viswhat_stim/location_no.png,None,Location,None,Type,2,0.0,0,5.125,0,5.125,0,5.125,0,0.0,0.625,0,0.0,0,0.0,1,0.5,1,2.125,0,0,0,0,0,0,0,0,0,,,,,0,18,18,18,,,,,,,,,194.95299262501067,194.95299262501067,194.95299262501067,194.95299262501067,194.95299262501067,194.95299262501067,194.95299262501067,194.95299262501067,194.90800820899895,194.95299262501067,194.95299262501067,194.95299262501067,194.90800820899895,194.95299262501067,194.95299262501067,194.95299262501067,197.0523362920212,201.0320852920122,194.95299262501067,194.95299262501067,200.0810595000221,195.42811083400738,196.45403220900334,197.0523362920212,198.08086325001204,194.95299262501067,194.95299262501067,194.94134154233228,194.95299262501067,194.95299262501067,194.95299262501067,194.94134154233228,194.95299262501067,194.95299262501067,200.0810595000221,194.95299262501067,200.0810595000221,200.17738579201978,200.81236979199457,194.95299262501067,2,1,0.9941871249757241,reldom2_s031,001,2025-02-25_12h07.37.904,Vis-B-Scan_AC,2022.2.5,None,
15,First_Order,3.0,viswhat,stimulus/viswhat_stim/blank_white.png,stimulus/viswhat_stim/blank_white.png,stimulus/viswhat_stim/land_animal-ostrich.png,stimulus/viswhat_stim/land_vehicle-train.png,stimulus/viswhat_stim/blank_white.png,stimulus/viswhat_stim/location_box.png,stimulus/viswhat_stim/location_yes.png,stimulus/viswhat_stim/location_no.png,None,Location,None,Location,1,0.0,0,5.125,0,5.125,0,5.125,0,0.0,0.625,0,0.0,0,0.0,1,0.5,1,2.125,0,0,0,0,0,0,0,0,0,,,,,0,19,19,19,,,,,,,,,201.0320852920122,201.0320852920122,201.0320852920122,201.0320852920122,201.0320852920122,201.0320852920122,201.0320852920122,201.0320852920122,201.008234750008,201.0320852920122,201.0320852920122,201.0320852920122,201.008234750008,201.0320852920122,201.0320852920122,201.0320852920122,203.13624512500246,207.43582149999565,201.0320852920122,201.0320852920122,206.1609596250055,201.51057500002207,202.5183925839956,203.13624512500246,204.14899470901582,201.0320852920122,201.0320852920122,201.02490141667465,201.0320852920122,201.0320852920122,201.0320852920122,201.02490141667465,201.0320852920122,201.0320852920122,206.1609596250055,201.0320852920122,206.1609596250055,206.26562829202157,206.9030179590045,201.0320852920122,1,1,0.8462833329977002,reldom2_s031,001,2025-02-25_12h07.37.904,Vis-B-Scan_AC,2022.2.5,None,
16,First_Order,3.0,viswhat,stimulus/viswhat_stim/blank_white.png,stimulus/viswhat_stim/blank_white.png,stimulus/viswhat_stim/water_animal-lobster.png,stimulus/viswhat_stim/land_animal-moose.png,stimulus/viswhat_stim/blank_white.png,stimulus/viswhat_stim/location_box.png,stimulus/viswhat_stim/location_yes.png,stimulus/viswhat_stim/location_no.png,None,Location,None,Type,2,0.0,0,5.125,0,5.125,0,5.125,0,0.0,0.625,0,0.0,0,0.0,1,0.5,1,2.125,0,0,0,0,0,0,0,0,0,,,,,0,20,20,20,,,,,,,,,207.43582149999565,207.43582149999565,207.43582149999565,207.43582149999565,207.43582149999565,207.43582149999565,207.43582149999565,207.43582149999565,207.0717435423479,207.43582149999565,207.43582149999565,207.43582149999565,207.0717435423479,207.43582149999565,207.43582149999565,207.43582149999565,209.3996907090186,,207.43582149999565,207.43582149999565,212.7901447089971,207.79459241701989,209.04311837500427,209.3996907090186,210.65088616701541,207.43582149999565,207.43582149999565,207.25507687568123,207.43582149999565,207.43582149999565,207.43582149999565,207.25507687568123,207.43582149999565,207.43582149999565,212.7901447089971,207.43582149999565,212.7901447089971,212.61727112499648,,207.43582149999565,2,1,1.075849874992855,reldom2_s031,001,2025-02-25_12h07.37.904,Vis-B-Scan_AC,2022.2.5,None,
0,0.0,None,fixation,stimulus/viswhere_stim/blank_white.png,stimulus/viswhere_stim/blank_white.png,stimulus/viswhat_stim/blank_white.png,stimulus/viswhat_stim/blank_white.png,stimulus/viswhere_stim/blank_white.png,stimulus/viswhere_stim/blank_white.png,stimulus/viswhere_stim/blank_white.png,stimulus/viswhere_stim/blank_white.png,0.0,0.0,0.0,0.0,0,0.0,0,0.0,0,0.0,0,0.0,0,0.0,0.0,0,0.0,0,0.0,0,0.0,0,0.0,0,0,0,0,0,0,0,0,8,,,,,0,21,21,21,,,,,,,,,213.46159054202144,213.46159054202144,213.46159054202144,213.46159054202144,213.46159054202144,213.46159054202144,213.46159054202144,213.46159054202144,213.363078959001,213.46159054202144,213.46159054202144,213.46159054202144,213.363078959001,213.46159054202144,213.46159054202144,213.46159054202144,213.46159054202144,213.46159054202144,213.46159054202144,213.46159054202144,213.46159054202144,213.46159054202144,213.46159054202144,213.46159054202144,213.46159054202144,213.46159054202144,213.46159054202144,213.413078959001,213.46159054202144,213.46159054202144,213.46159054202144,213.413078959001,213.46159054202144,213.46159054202144,213.46159054202144,213.46159054202144,213.46159054202144,218.69286804200965,218.69286804200965,221.59745558400755,None,0,,reldom2_s031,001,2025-02-25_12h07.37.904,Vis-B-Scan_AC,2022.2.5,None,
17,Second_Order,3.0,viswhat,stimulus/viswhat_stim/land_animal-giraffe.png,stimulus/viswhat_stim/water_animal-stingray.png,stimulus/viswhat_stim/water_animal-squid.png,stimulus/viswhat_stim/water_vehicle-yacht.png,stimulus/viswhere_stim/match_blank.png,stimulus/viswhere_stim/match_box.png,stimulus/viswhere_stim/match_yes.png,stimulus/viswhere_stim/match_no.png,2.0,Match,Type,Location,2,5.125,0,5.125,0,5.125,0,5.125,0,0.75,0.75,1,0.5,1,2.125,1,0.5,1,2.125,0,0,0,0,0,0,0,0,0,,,,,0,22,22,22,,,,,,,,,221.59745558400755,226.7156337920169,222.05006237499765,223.03976687500835,223.6747100840148,224.6731427500199,221.59745558400755,221.59745558400755,221.599952459021,221.59745558400755,221.59745558400755,221.59745558400755,221.599952459021,221.59745558400755,226.7156337920169,227.5508559170121,229.59685979201458,,227.5508559170121,227.5508559170121,232.69326445899787,227.99647658399772,229.03697904202272,229.59685979201458,230.64307166700019,227.5508559170121,227.5508559170121,227.51550075067016,227.5508559170121,227.5508559170121,227.5508559170121,227.51550075067016,227.5508559170121,227.5508559170121,232.69326445899787,227.5508559170121,232.69326445899787,232.72529645901523,,227.5508559170121,1,0,0.9002980419900268,reldom2_s031,001,2025-02-25_12h07.37.904,Vis-B-Scan_AC,2022.2.5,None,
18,Second_Order,3.0,viswhat,stimulus/viswhat_stim/water_animal-whale (1).png,stimulus/viswhat_stim/land_animal-tiger.png,stimulus/viswhat_stim/water_animal-orka.png,stimulus/viswhat_stim/water_vehicle-cargoboat.png,stimulus/viswhere_stim/match_blank.png,stimulus/viswhere_stim/match_box.png,stimulus/viswhere_stim/match_yes.png,stimulus/viswhere_stim/match_no.png,2.0,Match,Type,Location,2,5.125,0,5.125,0,5.125,0,5.125,0,0.625,0.625,1,0.5,1,2.125,1,0.5,1,2.125,0,0,0,0,0,0,0,0,0,,,,,0,23,23,23,,,,,,,,,233.5176772499981,238.63834116701037,233.9801008750219,234.96653529201285,235.60457983400556,236.60022683400894,233.5176772499981,233.5176772499981,233.5235210840125,233.5176772499981,233.5176772499981,233.5176772499981,233.5235210840125,233.5176772499981,238.63834116701037,239.4141134590027,241.47816983400844,,239.4141134590027,239.4141134590027,244.5858920000028,239.86434520900366,240.96224108399474,241.47816983400844,242.58160812500864,239.4141134590027,239.4141134590027,239.35691075000216,239.4141134590027,239.4141134590027,239.4141134590027,239.35691075000216,239.4141134590027,239.4141134590027,244.5858920000028,239.4141134590027,244.5858920000028,244.5858920000028,245.50773279200075,239.4141134590027,1,0,0.9454693750012666,reldom2_s031,001,2025-02-25_12h07.37.904,Vis-B-Scan_AC,2022.2.5,None,
0,0.0,None,fixation,stimulus/viswhere_stim/blank_white.png,stimulus/viswhere_stim/blank_white.png,stimulus/viswhat_stim/blank_white.png,stimulus/viswhat_stim/blank_white.png,stimulus/viswhere_stim/blank_white.png,stimulus/viswhere_stim/blank_white.png,stimulus/viswhere_stim/blank_white.png,stimulus/viswhere_stim/blank_white.png,0.0,0.0,0.0,0.0,0,0.0,0,0.0,0,0.0,0,0.0,0,0.0,0.0,0,0.0,0,0.0,0,0.0,0,0.0,0,0,0,0,0,0,0,0,9,,,,,0,24,24,24,,,,,,,,,245.50773279200075,245.50773279200075,245.50773279200075,245.50773279200075,245.50773279200075,245.50773279200075,245.50773279200075,245.50773279200075,245.41794950033267,245.50773279200075,245.50773279200075,245.50773279200075,245.41794950033267,245.50773279200075,245.50773279200075,245.50773279200075,245.50773279200075,245.50773279200075,245.50773279200075,245.50773279200075,245.50773279200075,245.50773279200075,245.50773279200075,245.50773279200075,245.50773279200075,245.50773279200075,245.50773279200075,245.46794950033268,245.50773279200075,245.50773279200075,245.50773279200075,245.46794950033268,245.50773279200075,245.50773279200075,245.50773279200075,245.50773279200075,245.50773279200075,250.72857541701524,250.72857541701524,254.69825754201156,None,0,,reldom2_s031,001,2025-02-25_12h07.37.904,Vis-B-Scan_AC,2022.2.5,None,
19,First_Order,4.0,viswhat,stimulus/viswhat_stim/blank_white.png,stimulus/viswhat_stim/blank_white.png,stimulus/viswhat_stim/water_animal-dolphin.png,stimulus/viswhat_stim/water_vehicle-canoe.png,stimulus/viswhat_stim/blank_white.png,stimulus/viswhat_stim/type_box.png,stimulus/viswhat_stim/type_yes.png,stimulus/viswhat_stim/type_no.png,None,Type,None,Location,2,0.0,0,5.125,0,5.125,0,5.125,0,0.0,0.625,0,0.0,0,0.0,1,0.5,1,2.125,0,0,0,0,0,0,0,0,0,,,,,0,25,25,25,,,,,,,,,254.69825754201156,254.69825754201156,254.69825754201156,254.69825754201156,254.69825754201156,254.69825754201156,254.69825754201156,254.69825754201156,254.66023479167296,254.69825754201156,254.69825754201156,254.69825754201156,254.66023479167296,254.69825754201156,254.69825754201156,254.69825754201156,256.79664045901154,260.845586542011,254.69825754201156,254.69825754201156,259.84789041700424,255.15790791701875,256.1951663340151,256.79664045901154,257.8341555420193,254.69825754201156,254.69825754201156,254.67690145833961,254.69825754201156,254.69825754201156,254.69825754201156,254.67690145833961,254.69825754201156,254.69825754201156,259.84789041700424,254.69825754201156,259.84789041700424,259.91748837500927,260.5692053750099,254.69825754201156,2,1,1.4909617500088643,reldom2_s031,001,2025-02-25_12h07.37.904,Vis-B-Scan_AC,2022.2.5,None,
20,First_Order,4.0,viswhat,stimulus/viswhat_stim/blank_white.png,stimulus/viswhat_stim/blank_white.png,stimulus/viswhat_stim/land_animal-elephant.png,stimulus/viswhat_stim/land_vehicle-pickuptruck.png,stimulus/viswhat_stim/blank_white.png,stimulus/viswhat_stim/type_box.png,stimulus/viswhat_stim/type_yes.png,stimulus/viswhat_stim/type_no.png,None,Type,None,Location,2,0.0,0,5.125,0,5.125,0,5.125,0,0.0,0.625,0,0.0,0,0.0,1,0.5,1,2.125,0,0,0,0,0,0,0,0,0,,,,,0,26,26,26,,,,,,,,,260.845586542011,260.845586542011,260.845586542011,260.845586542011,260.845586542011,260.845586542011,260.845586542011,260.845586542011,260.7388164590171,260.845586542011,260.845586542011,260.845586542011,260.7388164590171,260.845586542011,260.845586542011,260.845586542011,262.91558454200276,,260.845586542011,260.845586542011,266.052327042009,261.31864333400154,262.38393329200335,262.91558454200276,263.98381058400264,260.845586542011,260.845586542011,260.7888164590171,260.845586542011,260.845586542011,260.845586542011,260.7888164590171,260.845586542011,260.845586542011,266.052327042009,260.845586542011,266.052327042009,266.052327042009,267.0906979170104,260.845586542011,2,1,0.7298521249904297,reldom2_s031,001,2025-02-25_12h07.37.904,Vis-B-Scan_AC,2022.2.5,None,
21,First_Order,4.0,viswhat,stimulus/viswhat_stim/blank_white.png,stimulus/viswhat_stim/blank_white.png,stimulus/viswhat_stim/water_vehicle-cruiseship.png,stimulus/viswhat_stim/land_vehicle-oldcar.png,stimulus/viswhat_stim/blank_white.png,stimulus/viswhat_stim/type_box.png,stimulus/viswhat_stim/type_yes.png,stimulus/viswhat_stim/type_no.png,None,Type,None,Type,1,0.0,0,5.125,0,5.125,0,5.125,0,0.0,0.625,0,0.0,0,0.0,1,0.5,1,2.125,0,0,0,0,0,0,0,0,0,,,,,0,27,27,27,,,,,,,,,267.0906979170104,267.0906979170104,267.0906979170104,267.0906979170104,267.0906979170104,267.0906979170104,267.0906979170104,267.0906979170104,266.8641764586888,267.0906979170104,267.0906979170104,267.0906979170104,266.8641764586888,267.0906979170104,267.0906979170104,267.0906979170104,269.1639398340194,,267.0906979170104,267.0906979170104,272.3829899590055,267.55164737501764,268.7046849170001,269.1639398340194,270.3169394590077,267.0906979170104,267.0906979170104,266.9808431253555,267.0906979170104,267.0906979170104,267.0906979170104,266.9808431253555,267.0906979170104,267.0906979170104,272.3829899590055,267.0906979170104,272.3829899590055,272.27334625000367,,267.0906979170104,1,1,0.7023432079877239,reldom2_s031,001,2025-02-25_12h07.37.904,Vis-B-Scan_AC,2022.2.5,None,
22,First_Order,4.0,viswhat,stimulus/viswhat_stim/blank_white.png,stimulus/viswhat_stim/blank_white.png,stimulus/viswhat_stim/water_vehicle-pirateship.png,stimulus/viswhat_stim/water_animal-orka.png,stimulus/viswhat_stim/blank_white.png,stimulus/viswhat_stim/location_box.png,stimulus/viswhat_stim/location_yes.png,stimulus/viswhat_stim/location_no.png,None,Location,None,Location,1,0.0,0,5.125,0,5.125,0,5.125,0,0.0,0.625,0,0.0,0,0.0,1,0.5,1,2.125,0,0,0,0,0,0,0,0,0,,,,,0,28,28,28,,,,,,,,,273.22118154200143,273.22118154200143,273.22118154200143,273.22118154200143,273.22118154200143,273.22118154200143,273.22118154200143,273.22118154200143,273.10428945834474,273.22118154200143,273.22118154200143,273.22118154200143,273.10428945834474,273.22118154200143,273.22118154200143,273.22118154200143,275.29144233401166,,273.22118154200143,273.22118154200143,278.43401762499707,273.6896399590187,274.75525145902066,275.29144233401166,276.36770850000903,273.22118154200143,273.22118154200143,273.15428945834475,273.22118154200143,273.22118154200143,273.22118154200143,273.15428945834475,273.22118154200143,273.22118154200143,278.43401762499707,273.22118154200143,278.43401762499707,278.43401762499707,279.32048412499717,273.22118154200143,1,1,0.6886444170086179,reldom2_s031,001,2025-02-25_12h07.37.904,Vis-B-Scan_AC,2022.2.5,None,
0,0.0,None,fixation,stimulus/viswhere_stim/blank_white.png,stimulus/viswhere_stim/blank_white.png,stimulus/viswhat_stim/blank_white.png,stimulus/viswhat_stim/blank_white.png,stimulus/viswhere_stim/blank_white.png,stimulus/viswhere_stim/blank_white.png,stimulus/viswhere_stim/blank_white.png,stimulus/viswhere_stim/blank_white.png,0.0,0.0,0.0,0.0,0,0.0,0,0.0,0,0.0,0,0.0,0,0.0,0.0,0,0.0,0,0.0,0,0.0,0,0.0,0,0,0,0,0,0,0,0,10,,,,,0,29,29,29,,,,,,,,,279.32048412499717,279.32048412499717,279.32048412499717,279.32048412499717,279.32048412499717,279.32048412499717,279.32048412499717,279.32048412499717,279.22653037535105,279.32048412499717,279.32048412499717,279.32048412499717,279.22653037535105,279.32048412499717,279.32048412499717,279.32048412499717,279.32048412499717,279.32048412499717,279.32048412499717,279.32048412499717,279.32048412499717,279.32048412499717,279.32048412499717,279.32048412499717,279.32048412499717,279.32048412499717,279.32048412499717,279.276530375351,279.32048412499717,279.32048412499717,279.32048412499717,279.276530375351,279.32048412499717,279.32048412499717,279.32048412499717,279.32048412499717,279.32048412499717,284.5209804170008,284.5209804170008,289.4812868340232,None,0,,reldom2_s031,001,2025-02-25_12h07.37.904,Vis-B-Scan_AC,2022.2.5,None,
23,Second_Order,4.0,viswhat,stimulus/viswhat_stim/land_vehicle-pickuptruck.png,stimulus/viswhat_stim/land_animal-lion.png,stimulus/viswhat_stim/water_animal-jellyfish.png,stimulus/viswhat_stim/water_vehicle-cabincruiser.png,stimulus/viswhere_stim/match_blank.png,stimulus/viswhere_stim/match_box.png,stimulus/viswhere_stim/match_yes.png,stimulus/viswhere_stim/match_no.png,1.0,Match,Location,Location,1,5.125,0,5.125,0,5.125,0,5.125,0,0.75,0.75,1,0.5,1,2.125,1,0.5,1,2.125,0,0,0,0,0,0,0,0,0,,,,,0,30,30,30,,,,,,,,,289.4812868340232,294.6013617920107,289.9441572500218,290.9431370840175,291.56672533400706,292.5627998750133,289.4812868340232,289.4812868340232,289.48041650033167,289.4812868340232,289.4812868340232,289.4812868340232,289.48041650033167,289.4812868340232,294.6013617920107,295.4400572089944,297.4903975420166,301.4283133750141,295.4400572089944,295.4400572089944,300.6148990000074,295.8726117089973,296.89972787501756,297.4903975420166,298.52305833401624,295.4400572089944,295.4400572089944,295.4029481666667,295.4400572089944,295.4400572089944,295.4400572089944,295.4029481666667,295.4400572089944,295.4400572089944,300.6148990000074,295.4400572089944,300.6148990000074,300.6148990000074,,295.4400572089944,1,1,0.7736121249909047,reldom2_s031,001,2025-02-25_12h07.37.904,Vis-B-Scan_AC,2022.2.5,None,
24,Second_Order,4.0,viswhat,stimulus/viswhat_stim/water_vehicle-pirateship.png,stimulus/viswhat_stim/land_vehicle-oldcar.png,stimulus/viswhat_stim/land_animal-zebra.png,stimulus/viswhat_stim/water_animal-seahorse.png,stimulus/viswhere_stim/match_blank.png,stimulus/viswhere_stim/match_box.png,stimulus/viswhere_stim/match_yes.png,stimulus/viswhere_stim/match_no.png,1.0,Match,Type,Type,1,5.125,0,5.125,0,5.125,0,5.125,0,0.625,0.625,1,0.5,1,2.125,1,0.5,1,2.125,0,0,0,0,0,0,0,0,0,,,,,0,31,31,31,,,,,,,,,301.4283133750141,306.5490757920197,301.888214000006,302.8868132500211,303.51023400001577,304.5074869999953,301.4283133750141,301.4283133750141,301.42774858400804,301.4283133750141,301.4283133750141,301.4283133750141,301.42774858400804,301.4283133750141,306.5490757920197,307.23728904200834,309.3064294170181,313.3543218340201,307.23728904200834,307.23728904200834,312.38415595900733,307.67342479201034,308.6811656670179,309.3064294170181,310.3281005000172,307.23728904200834,307.23728904200834,307.2137736670091,307.23728904200834,307.23728904200834,307.23728904200834,307.2137736670091,307.23728904200834,307.23728904200834,312.38415595900733,307.23728904200834,312.38415595900733,312.42133987499983,313.0530536250153,307.23728904200834,1,1,0.7822664160048589,reldom2_s031,001,2025-02-25_12h07.37.904,Vis-B-Scan_AC,2022.2.5,None,
0,0.0,None,fixation,stimulus/viswhere_stim/blank_white.png,stimulus/viswhere_stim/blank_white.png,stimulus/viswhat_stim/blank_white.png,stimulus/viswhat_stim/blank_white.png,stimulus/viswhere_stim/blank_white.png,stimulus/viswhere_stim/blank_white.png,stimulus/viswhere_stim/blank_white.png,stimulus/viswhere_stim/blank_white.png,0.0,0.0,0.0,0.0,0,0.0,0,0.0,0,0.0,0,0.0,0,0.0,0.0,0,0.0,0,0.0,0,0.0,0,0.0,0,0,0,0,0,0,0,0,9,,,,,0,32,32,32,,,,,,,,,313.3543218340201,313.3543218340201,313.3543218340201,313.3543218340201,313.3543218340201,313.3543218340201,313.3543218340201,313.3543218340201,313.26409258401833,313.3543218340201,313.3543218340201,313.3543218340201,313.26409258401833,313.3543218340201,313.3543218340201,313.3543218340201,313.3543218340201,313.3543218340201,313.3543218340201,313.3543218340201,313.3543218340201,313.3543218340201,313.3543218340201,313.3543218340201,313.3543218340201,313.3543218340201,313.3543218340201,313.31409258401834,313.3543218340201,313.3543218340201,313.3543218340201,313.31409258401834,313.3543218340201,313.3543218340201,313.3543218340201,313.3543218340201,313.3543218340201,318.54060341700097,318.54060341700097,322.56270879201475,None,0,,reldom2_s031,001,2025-02-25_12h07.37.904,Vis-B-Scan_AC,2022.2.5,None,
25,First_Order,5.0,viswhere,stimulus/viswhere_stim/blank_white.png,stimulus/viswhere_stim/blank_white.png,stimulus/viswhere_stim/90-deg_dot-right_seagreen.png,stimulus/viswhere_stim/150-deg_dot-right_turquoise.png,stimulus/viswhere_stim/blank_white.png,stimulus/viswhere_stim/line_box.png,stimulus/viswhere_stim/line_yes.png,stimulus/viswhere_stim/line_no.png,None,Line,None,Dot,2,0.0,0,5.125,0,5.125,0,5.125,0,0.0,0.625,0,0.0,0,0.0,1,0.5,1,2.125,0,0,0,0,0,0,0,0,0,,,,,0,33,33,33,,,,,,,,,322.56270879201475,322.56270879201475,322.56270879201475,322.56270879201475,322.56270879201475,322.56270879201475,322.56270879201475,322.56270879201475,322.5455082916693,322.56270879201475,322.56270879201475,322.56270879201475,322.5455082916693,322.56270879201475,322.56270879201475,322.56270879201475,324.67340862500714,328.6234776250203,322.56270879201475,322.56270879201475,327.6858977920201,323.04333650000626,324.06182191701373,324.67340862500714,325.675400084001,322.56270879201475,322.56270879201475,322.5455082916693,322.56270879201475,322.56270879201475,322.56270879201475,322.5455082916693,322.56270879201475,322.56270879201475,327.6858977920201,322.56270879201475,327.6858977920201,327.7818429170002,328.4087383340229,322.56270879201475,2,1,0.9401893749891315,reldom2_s031,001,2025-02-25_12h07.37.904,Vis-B-Scan_AC,2022.2.5,None,
26,First_Order,5.0,viswhere,stimulus/viswhere_stim/blank_white.png,stimulus/viswhere_stim/blank_white.png,stimulus/viswhere_stim/150-deg_dot-left_seagreen.png,stimulus/viswhere_stim/150-deg_dot-right_seagreen.png,stimulus/viswhere_stim/blank_white.png,stimulus/viswhere_stim/dot_box.png,stimulus/viswhere_stim/dot_yes.png,stimulus/viswhere_stim/dot_no.png,None,Dot,None,Line,2,0.0,0,5.125,0,5.125,0,5.125,0,0.0,0.625,0,0.0,0,0.0,1,0.5,1,2.125,0,0,0,0,0,0,0,0,0,,,,,0,34,34,34,,,,,,,,,328.6234776250203,328.6234776250203,328.6234776250203,328.6234776250203,328.6234776250203,328.6234776250203,328.6234776250203,328.6234776250203,328.60217108334956,328.6234776250203,328.6234776250203,328.6234776250203,328.60217108334956,328.6234776250203,328.6234776250203,328.6234776250203,330.7327952090127,334.69336958401254,328.6234776250203,328.6234776250203,333.77428379200865,329.1032503750175,330.1208107090206,330.7327952090127,331.736972542014,328.6234776250203,328.6234776250203,328.6188377500162,328.6234776250203,328.6234776250203,328.6234776250203,328.6188377500162,328.6234776250203,328.6234776250203,333.77428379200865,328.6234776250203,333.77428379200865,333.8459113750141,334.47841270899517,328.6234776250203,2,1,1.0342119169945363,reldom2_s031,001,2025-02-25_12h07.37.904,Vis-B-Scan_AC,2022.2.5,None,
27,First_Order,5.0,viswhere,stimulus/viswhere_stim/blank_white.png,stimulus/viswhere_stim/blank_white.png,stimulus/viswhere_stim/90-deg_dot-left_turquoise.png,stimulus/viswhere_stim/90-deg_dot-right_seagreen.png,stimulus/viswhere_stim/blank_white.png,stimulus/viswhere_stim/line_box.png,stimulus/viswhere_stim/line_yes.png,stimulus/viswhere_stim/line_no.png,None,Line,None,Line,1,0.0,0,5.125,0,5.125,0,5.125,0,0.0,0.625,0,0.0,0,0.0,1,0.5,1,2.125,0,0,0,0,0,0,0,0,0,,,,,0,35,35,35,,,,,,,,,334.69336958401254,334.69336958401254,334.69336958401254,334.69336958401254,334.69336958401254,334.69336958401254,334.69336958401254,334.69336958401254,334.67292783335625,334.69336958401254,334.69336958401254,334.69336958401254,334.67292783335625,334.69336958401254,334.69336958401254,334.69336958401254,336.79647670901613,340.76263616699725,334.69336958401254,334.69336958401254,339.82369700001436,335.17115045900573,336.1859626250225,336.79647670901613,337.8166618340183,334.69336958401254,334.69336958401254,334.6895945000229,334.69336958401254,334.69336958401254,334.69336958401254,334.6895945000229,334.69336958401254,334.69336958401254,339.82369700001436,334.69336958401254,339.82369700001436,339.9215376250213,340.54736654201406,334.69336958401254,1,1,0.851701209001476,reldom2_s031,001,2025-02-25_12h07.37.904,Vis-B-Scan_AC,2022.2.5,None,
28,First_Order,5.0,viswhere,stimulus/viswhere_stim/blank_white.png,stimulus/viswhere_stim/blank_white.png,stimulus/viswhere_stim/120-deg_dot-right_mediumslateblue.png,stimulus/viswhere_stim/90-deg_dot-right_lightsseagreen.png,stimulus/viswhere_stim/blank_white.png,stimulus/viswhere_stim/dot_box.png,stimulus/viswhere_stim/dot_yes.png,stimulus/viswhere_stim/dot_no.png,None,Dot,None,Dot,1,0.0,0,5.125,0,5.125,0,5.125,0,0.0,0.625,0,0.0,0,0.0,1,0.5,1,2.125,0,0,0,0,0,0,0,0,0,,,,,0,36,36,36,,,,,,,,,340.76263616699725,340.76263616699725,340.76263616699725,340.76263616699725,340.76263616699725,340.76263616699725,340.76263616699725,340.76263616699725,340.74255654235213,340.76263616699725,340.76263616699725,340.76263616699725,340.74255654235213,340.76263616699725,340.76263616699725,340.76263616699725,342.8762681670196,346.9050985840149,340.76263616699725,340.76263616699725,345.89546358402004,341.23833158399793,342.2489169590117,342.8762681670196,343.89425087501877,340.76263616699725,340.76263616699725,340.7592232090188,340.76263616699725,340.76263616699725,340.76263616699725,340.7592232090188,340.76263616699725,340.76263616699725,345.89546358402004,340.76263616699725,345.89546358402004,345.9833134590008,346.61480495901196,340.76263616699725,1,1,1.4342437080049422,reldom2_s031,001,2025-02-25_12h07.37.904,Vis-B-Scan_AC,2022.2.5,None,
0,0.0,None,fixation,stimulus/viswhere_stim/blank_white.png,stimulus/viswhere_stim/blank_white.png,stimulus/viswhat_stim/blank_white.png,stimulus/viswhat_stim/blank_white.png,stimulus/viswhere_stim/blank_white.png,stimulus/viswhere_stim/blank_white.png,stimulus/viswhere_stim/blank_white.png,stimulus/viswhere_stim/blank_white.png,0.0,0.0,0.0,0.0,0,0.0,0,0.0,0,0.0,0,0.0,0,0.0,0.0,0,0.0,0,0.0,0,0.0,0,0.0,0,0,0,0,0,0,0,0,10,,,,,0,37,37,37,,,,,,,,,346.9050985840149,346.9050985840149,346.9050985840149,346.9050985840149,346.9050985840149,346.9050985840149,346.9050985840149,346.9050985840149,346.8077060423287,346.9050985840149,346.9050985840149,346.9050985840149,346.8077060423287,346.9050985840149,346.9050985840149,346.9050985840149,346.9050985840149,346.9050985840149,346.9050985840149,346.9050985840149,346.9050985840149,346.9050985840149,346.9050985840149,346.9050985840149,346.9050985840149,346.9050985840149,346.9050985840149,346.8577060423287,346.9050985840149,346.9050985840149,346.9050985840149,346.8577060423287,346.9050985840149,346.9050985840149,346.9050985840149,346.9050985840149,346.9050985840149,352.12608445901424,352.12608445901424,357.03179470900795,None,0,,reldom2_s031,001,2025-02-25_12h07.37.904,Vis-B-Scan_AC,2022.2.5,None,
29,Second_Order,5.0,viswhere,stimulus/viswhere_stim/30-deg_dot-right_peru.png,stimulus/viswhere_stim/120-deg_dot-right_royalblue.png,stimulus/viswhere_stim/120-deg_dot-left_lightsseagreen.png,stimulus/viswhere_stim/90-deg_dot-left_seagreen.png,stimulus/viswhere_stim/match_blank.png,stimulus/viswhere_stim/match_box.png,stimulus/viswhere_stim/match_yes.png,stimulus/viswhere_stim/match_no.png,1.0,Match,Dot,Dot,1,5.125,0,5.125,0,5.125,0,5.125,0,0.75,0.75,1,0.5,1,2.125,1,0.5,1,2.125,0,0,0,0,0,0,0,0,0,,,,,0,38,38,38,,,,,,,,,357.03179470900795,362.14525995901204,357.5128567920183,358.50239233401953,359.1381025839946,360.13577424999676,357.03179470900795,357.03179470900795,357.0465879173445,357.03179470900795,357.03179470900795,357.03179470900795,357.0465879173445,357.03179470900795,362.14525995901204,362.94035462499596,365.00656366700423,368.87578925001435,362.94035462499596,362.94035462499596,368.07712433399865,363.38255383400247,364.3959866670193,365.00656366700423,366.0100043750135,362.94035462499596,362.94035462499596,362.9287523340143,362.94035462499596,362.94035462499596,362.94035462499596,362.9287523340143,362.94035462499596,362.94035462499596,368.07712433399865,362.94035462499596,368.07712433399865,368.1340037090122,368.91190941701643,362.94035462499596,1,1,0.8569258749776054,reldom2_s031,001,2025-02-25_12h07.37.904,Vis-B-Scan_AC,2022.2.5,None,
30,Second_Order,5.0,viswhere,stimulus/viswhere_stim/60-deg_dot-right_seagreen.png,stimulus/viswhere_stim/60-deg_dot-left_slateblue.png,stimulus/viswhere_stim/120-deg_dot-left_seagreen.png,stimulus/viswhere_stim/30-deg_dot-left_cyan.png,stimulus/viswhere_stim/match_blank.png,stimulus/viswhere_stim/match_box.png,stimulus/viswhere_stim/match_yes.png,stimulus/viswhere_stim/match_no.png,2.0,Match,Line,Dot,2,5.125,0,5.125,0,5.125,0,5.125,0,0.625,0.625,1,0.5,1,2.125,1,0.5,1,2.125,0,0,0,0,0,0,0,0,0,,,,,0,39,39,39,,,,,,,,,368.91190941701643,374.03478612500476,369.3952114590211,370.39307304201066,371.01559637501487,372.01339958401513,368.91190941701643,368.91190941701643,368.92578925001436,368.91190941701643,368.91190941701643,368.91190941701643,368.92578925001436,368.91190941701643,374.03478612500476,374.70908841700293,376.7854764170188,380.8298829590203,374.70908841700293,374.70908841700293,379.84176070900867,375.1680545840063,376.1795513340039,376.7854764170188,377.80243191702175,374.70908841700293,374.70908841700293,374.68615270834607,374.70908841700293,374.70908841700293,374.70908841700293,374.68615270834607,374.70908841700293,374.70908841700293,379.84176070900867,374.70908841700293,379.84176070900867,379.9112475840084,380.53564466701937,374.70908841700293,1,0,0.8063897909887601,reldom2_s031,001,2025-02-25_12h07.37.904,Vis-B-Scan_AC,2022.2.5,None,
0,0.0,None,fixation,stimulus/viswhere_stim/blank_white.png,stimulus/viswhere_stim/blank_white.png,stimulus/viswhat_stim/blank_white.png,stimulus/viswhat_stim/blank_white.png,stimulus/viswhere_stim/blank_white.png,stimulus/viswhere_stim/blank_white.png,stimulus/viswhere_stim/blank_white.png,stimulus/viswhere_stim/blank_white.png,0.0,0.0,0.0,0.0,0,0.0,0,0.0,0,0.0,0,0.0,0,0.0,0.0,0,0.0,0,0.0,0,0.0,0,0.0,0,0,0,0,0,0,0,0,9,,,,,0,40,40,40,,,,,,,,,380.8298829590203,380.8298829590203,380.8298829590203,380.8298829590203,380.8298829590203,380.8298829590203,380.8298829590203,380.8298829590203,380.7324518333383,380.8298829590203,380.8298829590203,380.8298829590203,380.7324518333383,380.8298829590203,380.8298829590203,380.8298829590203,380.8298829590203,380.8298829590203,380.8298829590203,380.8298829590203,380.8298829590203,380.8298829590203,380.8298829590203,380.8298829590203,380.8298829590203,380.8298829590203,380.8298829590203,380.7824518333383,380.8298829590203,380.8298829590203,380.8298829590203,380.7824518333383,380.8298829590203,380.8298829590203,380.8298829590203,380.8298829590203,380.8298829590203,386.03986479202285,386.03986479202285,390.0284588750219,None,0,,reldom2_s031,001,2025-02-25_12h07.37.904,Vis-B-Scan_AC,2022.2.5,None,
31,First_Order,6.0,viswhere,stimulus/viswhere_stim/blank_white.png,stimulus/viswhere_stim/blank_white.png,stimulus/viswhere_stim/120-deg_dot-left_royalblue.png,stimulus/viswhere_stim/30-deg_dot-left_goldenrod.png,stimulus/viswhere_stim/blank_white.png,stimulus/viswhere_stim/dot_box.png,stimulus/viswhere_stim/dot_yes.png,stimulus/viswhere_stim/dot_no.png,None,Dot,None,Dot,1,0.0,0,5.125,0,5.125,0,5.125,0,0.0,0.625,0,0.0,0,0.0,1,0.5,1,2.125,0,0,0,0,0,0,0,0,0,,,,,0,41,41,41,,,,,,,,,390.0284588750219,390.0284588750219,390.0284588750219,390.0284588750219,390.0284588750219,390.0284588750219,390.0284588750219,390.0284588750219,390.01040920866456,390.0284588750219,390.0284588750219,390.0284588750219,390.01040920866456,390.0284588750219,390.0284588750219,390.0284588750219,392.13605595901026,396.0924780839996,390.0284588750219,390.0284588750219,395.15849200001685,390.503259500023,391.50884158400004,392.13605595901026,393.1478527500003,390.0284588750219,390.0284588750219,390.01040920866456,390.0284588750219,390.0284588750219,390.0284588750219,390.01040920866456,390.0284588750219,390.0284588750219,395.15849200001685,390.0284588750219,395.15849200001685,395.2536837500229,395.8810777920007,390.0284588750219,1,1,0.6999793330032844,reldom2_s031,001,2025-02-25_12h07.37.904,Vis-B-Scan_AC,2022.2.5,None,
32,First_Order,6.0,viswhere,stimulus/viswhere_stim/blank_white.png,stimulus/viswhere_stim/blank_white.png,stimulus/viswhere_stim/150-deg_dot-left_salmon.png,stimulus/viswhere_stim/150-deg_dot-right_salmon.png,stimulus/viswhere_stim/blank_white.png,stimulus/viswhere_stim/dot_box.png,stimulus/viswhere_stim/dot_yes.png,stimulus/viswhere_stim/dot_no.png,None,Dot,None,Line,2,0.0,0,5.125,0,5.125,0,5.125,0,0.0,0.625,0,0.0,0,0.0,1,0.5,1,2.125,0,0,0,0,0,0,0,0,0,,,,,0,42,42,42,,,,,,,,,396.0924780839996,396.0924780839996,396.0924780839996,396.0924780839996,396.0924780839996,396.0924780839996,396.0924780839996,396.0924780839996,396.0712834173367,396.0924780839996,396.0924780839996,396.0924780839996,396.0712834173367,396.0924780839996,396.0924780839996,396.0924780839996,398.2047837919963,402.1604581249994,396.0924780839996,396.0924780839996,401.2301459170121,396.5726687500137,397.5913879169966,398.2047837919963,399.2070639170124,396.0924780839996,396.0924780839996,396.08795008400335,396.0924780839996,396.0924780839996,396.0924780839996,396.08795008400335,396.0924780839996,396.0924780839996,401.2301459170121,396.0924780839996,401.2301459170121,401.3134363749996,401.9449504590011,396.0924780839996,2,1,1.3036837080144323,reldom2_s031,001,2025-02-25_12h07.37.904,Vis-B-Scan_AC,2022.2.5,None,
33,First_Order,6.0,viswhere,stimulus/viswhere_stim/blank_white.png,stimulus/viswhere_stim/blank_white.png,stimulus/viswhere_stim/150-deg_dot-left_cyan.png,stimulus/viswhere_stim/150-deg_dot-right_seagreen.png,stimulus/viswhere_stim/blank_white.png,stimulus/viswhere_stim/line_box.png,stimulus/viswhere_stim/line_yes.png,stimulus/viswhere_stim/line_no.png,None,Line,None,Line,1,0.0,0,5.125,0,5.125,0,5.125,0,0.0,0.625,0,0.0,0,0.0,1,0.5,1,2.125,0,0,0,0,0,0,0,0,0,,,,,0,43,43,43,,,,,,,,,402.1604581249994,402.1604581249994,402.1604581249994,402.1604581249994,402.1604581249994,402.1604581249994,402.1604581249994,402.1604581249994,402.1389238753375,402.1604581249994,402.1604581249994,402.1604581249994,402.1389238753375,402.1604581249994,402.1604581249994,402.1604581249994,404.2596277090197,408.2210185000149,402.1604581249994,402.1604581249994,407.2905874590215,402.6424709999992,403.64528920900193,404.2596277090197,405.2677064590098,402.1604581249994,402.1604581249994,402.1555905420042,402.1604581249994,402.1604581249994,402.1604581249994,402.1555905420042,402.1604581249994,402.1604581249994,407.2905874590215,402.1604581249994,407.2905874590215,407.38831337500596,408.01980916701723,402.1604581249994,1,1,0.7868615000043064,reldom2_s031,001,2025-02-25_12h07.37.904,Vis-B-Scan_AC,2022.2.5,None,
34,First_Order,6.0,viswhere,stimulus/viswhere_stim/blank_white.png,stimulus/viswhere_stim/blank_white.png,stimulus/viswhere_stim/150-deg_dot-right_cyan.png,stimulus/viswhere_stim/120-deg_dot-right_cyan.png,stimulus/viswhere_stim/blank_white.png,stimulus/viswhere_stim/line_box.png,stimulus/viswhere_stim/line_yes.png,stimulus/viswhere_stim/line_no.png,None,Line,None,Dot,2,0.0,0,5.125,0,5.125,0,5.125,0,0.0,0.625,0,0.0,0,0.0,1,0.5,1,2.125,0,0,0,0,0,0,0,0,0,,,,,0,44,44,44,,,,,,,,,408.2210185000149,408.2210185000149,408.2210185000149,408.2210185000149,408.2210185000149,408.2210185000149,408.2210185000149,408.2210185000149,408.2000293333452,408.2210185000149,408.2210185000149,408.2210185000149,408.2000293333452,408.2210185000149,408.2210185000149,408.2210185000149,410.32577799999854,414.3644574590144,408.2210185000149,408.2210185000149,413.3581072500092,408.6995426250214,409.7154865000048,410.32577799999854,411.3429374170082,408.2210185000149,408.2210185000149,408.21669600001184,408.2210185000149,408.2210185000149,408.2210185000149,408.21669600001184,408.2210185000149,408.2210185000149,413.3581072500092,408.2210185000149,413.3581072500092,413.4415332500066,414.07302441701177,408.2210185000149,2,1,1.2537576670001727,reldom2_s031,001,2025-02-25_12h07.37.904,Vis-B-Scan_AC,2022.2.5,None,
0,0.0,None,fixation,stimulus/viswhere_stim/blank_white.png,stimulus/viswhere_stim/blank_white.png,stimulus/viswhat_stim/blank_white.png,stimulus/viswhat_stim/blank_white.png,stimulus/viswhere_stim/blank_white.png,stimulus/viswhere_stim/blank_white.png,stimulus/viswhere_stim/blank_white.png,stimulus/viswhere_stim/blank_white.png,0.0,0.0,0.0,0.0,0,0.0,0,0.0,0,0.0,0,0.0,0,0.0,0.0,0,0.0,0,0.0,0,0.0,0,0.0,0,0,0,0,0,0,0,0,8,,,,,0,45,45,45,,,,,,,,,414.3644574590144,414.3644574590144,414.3644574590144,414.3644574590144,414.3644574590144,414.3644574590144,414.3644574590144,414.3644574590144,414.26728287533234,414.3644574590144,414.3644574590144,414.3644574590144,414.26728287533234,414.3644574590144,414.3644574590144,414.3644574590144,414.3644574590144,414.3644574590144,414.3644574590144,414.3644574590144,414.3644574590144,414.3644574590144,414.3644574590144,414.3644574590144,414.3644574590144,414.3644574590144,414.3644574590144,414.31728287533235,414.3644574590144,414.3644574590144,414.3644574590144,414.31728287533235,414.3644574590144,414.3644574590144,414.3644574590144,414.3644574590144,414.3644574590144,419.59117012500064,419.59117012500064,422.4789315420203,None,0,,reldom2_s031,001,2025-02-25_12h07.37.904,Vis-B-Scan_AC,2022.2.5,None,
35,Second_Order,6.0,viswhere,stimulus/viswhere_stim/60-deg_dot-right_cyan.png,stimulus/viswhere_stim/60-deg_dot-left_goldenrod.png,stimulus/viswhere_stim/150-deg_dot-left_salmon.png,stimulus/viswhere_stim/150-deg_dot-right_goldenrod.png,stimulus/viswhere_stim/match_blank.png,stimulus/viswhere_stim/match_box.png,stimulus/viswhere_stim/match_yes.png,stimulus/viswhere_stim/match_no.png,1.0,Match,Line,Line,1,5.125,0,5.125,0,5.125,0,5.125,0,0.75,0.75,1,0.5,1,2.125,1,0.5,1,2.125,0,0,0,0,0,0,0,0,0,,,,,0,46,46,46,,,,,,,,,422.4789315420203,427.5968160420016,422.9523703340092,423.94991391702206,424.58537358400645,425.5794135000033,422.4789315420203,422.4789315420203,422.4923414583337,422.4789315420203,422.4789315420203,422.4789315420203,422.4923414583337,422.4789315420203,427.5968160420016,428.3885729589965,430.4579947919992,434.3281014590175,428.3885729589965,428.3885729589965,433.5108683340077,428.836293417,429.8415051670163,430.4579947919992,431.4747658749984,428.3885729589965,428.3885729589965,428.36342970835585,428.3885729589965,428.3885729589965,428.3885729589965,428.36342970835585,428.3885729589965,428.3885729589965,433.5108683340077,428.3885729589965,433.5108683340077,433.58573491699644,434.36508883401984,428.3885729589965,1,1,1.2678450829989742,reldom2_s031,001,2025-02-25_12h07.37.904,Vis-B-Scan_AC,2022.2.5,None,
36,Second_Order,6.0,viswhere,stimulus/viswhere_stim/120-deg_dot-right_slateblue.png,stimulus/viswhere_stim/120-deg_dot-left_royalblue.png,stimulus/viswhere_stim/150-deg_dot-right_royalblue.png,stimulus/viswhere_stim/150-deg_dot-left_salmon.png,stimulus/viswhere_stim/match_blank.png,stimulus/viswhere_stim/match_box.png,stimulus/viswhere_stim/match_yes.png,stimulus/viswhere_stim/match_no.png,1.0,Match,Line,Line,1,5.125,0,5.125,0,5.125,0,5.125,0,0.625,0.625,1,0.5,1,2.125,1,0.5,1,2.125,0,0,0,0,0,0,0,0,0,,,,,0,47,47,47,,,,,,,,,434.36508883401984,439.48601187500753,434.84536879201187,435.8441359590215,436.4665076250094,437.46443250001175,434.36508883401984,434.36508883401984,434.3781014590175,434.36508883401984,434.36508883401984,434.36508883401984,434.3781014590175,434.36508883401984,439.48601187500753,440.1607242920145,442.2438945840113,446.27848750000703,440.1607242920145,440.1607242920145,445.3013002500229,440.6070785000047,441.62835970902233,442.2438945840113,443.2517717500159,440.1607242920145,440.1607242920145,440.13745216735015,440.1607242920145,440.1607242920145,440.1607242920145,440.13745216735015,440.1607242920145,440.1607242920145,445.3013002500229,440.1607242920145,445.3013002500229,445.356712000008,445.9857721250155,440.1607242920145,1,1,1.2195584999863058,reldom2_s031,001,2025-02-25_12h07.37.904,Vis-B-Scan_AC,2022.2.5,None,
0,0.0,None,fixation,stimulus/viswhere_stim/blank_white.png,stimulus/viswhere_stim/blank_white.png,stimulus/viswhat_stim/blank_white.png,stimulus/viswhat_stim/blank_white.png,stimulus/viswhere_stim/blank_white.png,stimulus/viswhere_stim/blank_white.png,stimulus/viswhere_stim/blank_white.png,stimulus/viswhere_stim/blank_white.png,0.0,0.0,0.0,0.0,0,0.0,0,0.0,0,0.0,0,0.0,0,0.0,0.0,0,0.0,0,0.0,0,0.0,0,0.0,0,0,0,0,0,0,0,0,10,,,,,0,48,48,48,,,,,,,,,446.27848750000703,446.27848750000703,446.27848750000703,446.27848750000703,446.27848750000703,446.27848750000703,446.27848750000703,446.27848750000703,446.18063370833016,446.27848750000703,446.27848750000703,446.27848750000703,446.18063370833016,446.27848750000703,446.27848750000703,446.27848750000703,446.27848750000703,446.27848750000703,446.27848750000703,446.27848750000703,446.27848750000703,446.27848750000703,446.27848750000703,446.27848750000703,446.27848750000703,446.27848750000703,446.27848750000703,446.2306337083302,446.27848750000703,446.27848750000703,446.27848750000703,446.2306337083302,446.27848750000703,446.27848750000703,446.27848750000703,446.27848750000703,446.27848750000703,451.5011886249995,451.5011886249995,456.52447750000283,None,0,,reldom2_s031,001,2025-02-25_12h07.37.904,Vis-B-Scan_AC,2022.2.5,None,
37,First_Order,7.0,viswhat,stimulus/viswhat_stim/blank_white.png,stimulus/viswhat_stim/blank_white.png,stimulus/viswhat_stim/water_vehicle-sailboat.png,stimulus/viswhat_stim/land_vehicle-bus.png,stimulus/viswhat_stim/blank_white.png,stimulus/viswhat_stim/location_box.png,stimulus/viswhat_stim/location_yes.png,stimulus/viswhat_stim/location_no.png,None,Location,None,Type,2,0.0,0,5.125,0,5.125,0,5.125,0,0.0,0.625,0,0.0,0,0.0,1,0.5,1,2.125,0,0,0,0,0,0,0,0,0,,,,,0,49,49,49,,,,,,,,,456.52447750000283,456.52447750000283,456.52447750000283,456.52447750000283,456.52447750000283,456.52447750000283,456.52447750000283,456.52447750000283,456.43255750067567,456.52447750000283,456.52447750000283,456.52447750000283,456.43255750067567,456.52447750000283,456.52447750000283,456.52447750000283,458.59159212501254,,456.52447750000283,456.52447750000283,461.7161402920028,457.00225091702305,458.0632116670022,458.59159212501254,459.65568450000137,456.52447750000283,456.52447750000283,456.4825575006757,456.52447750000283,456.52447750000283,456.52447750000283,456.4825575006757,456.52447750000283,456.52447750000283,461.7161402920028,456.52447750000283,461.7161402920028,461.7161402920028,462.3796073750127,456.52447750000283,2,1,0.980818417010596,reldom2_s031,001,2025-02-25_12h07.37.904,Vis-B-Scan_AC,2022.2.5,None,
38,First_Order,7.0,viswhat,stimulus/viswhat_stim/blank_white.png,stimulus/viswhat_stim/blank_white.png,stimulus/viswhat_stim/land_vehicle-tank.png,stimulus/viswhat_stim/land_animal-elephant.png,stimulus/viswhat_stim/blank_white.png,stimulus/viswhat_stim/type_box.png,stimulus/viswhat_stim/type_yes.png,stimulus/viswhat_stim/type_no.png,None,Type,None,Location,2,0.0,0,5.125,0,5.125,0,5.125,0,0.0,0.625,0,0.0,0,0.0,1,0.5,1,2.125,0,0,0,0,0,0,0,0,0,,,,,0,50,50,50,,,,,,,,,462.63079708401347,462.63079708401347,462.63079708401347,462.63079708401347,462.63079708401347,462.63079708401347,462.63079708401347,462.63079708401347,462.5296073750127,462.63079708401347,462.63079708401347,462.63079708401347,462.5296073750127,462.63079708401347,462.63079708401347,462.63079708401347,464.70520500000566,,462.63079708401347,462.63079708401347,467.8218068749993,463.09047579200706,464.1864435840107,464.70520500000566,465.7494713750202,462.63079708401347,462.63079708401347,462.5796073750127,462.63079708401347,462.63079708401347,462.63079708401347,462.5796073750127,462.63079708401347,462.63079708401347,467.8218068749993,462.63079708401347,467.8218068749993,467.8218068749993,468.49718624999514,462.63079708401347,2,1,0.800524416990811,reldom2_s031,001,2025-02-25_12h07.37.904,Vis-B-Scan_AC,2022.2.5,None,
39,First_Order,7.0,viswhat,stimulus/viswhat_stim/blank_white.png,stimulus/viswhat_stim/blank_white.png,stimulus/viswhat_stim/land_animal-ostrich.png,stimulus/viswhat_stim/water_animal-whale.png,stimulus/viswhat_stim/blank_white.png,stimulus/viswhat_stim/location_box.png,stimulus/viswhat_stim/location_yes.png,stimulus/viswhat_stim/location_no.png,None,Location,None,Type,2,0.0,0,5.125,0,5.125,0,5.125,0,0.0,0.625,0,0.0,0,0.0,1,0.5,1,2.125,0,0,0,0,0,0,0,0,0,,,,,0,51,51,51,,,,,,,,,468.6971338750154,468.6971338750154,468.6971338750154,468.6971338750154,468.6971338750154,468.6971338750154,468.6971338750154,468.6971338750154,468.66385291666177,468.6971338750154,468.6971338750154,468.6971338750154,468.66385291666177,468.6971338750154,468.6971338750154,468.6971338750154,470.79219608401763,474.78068441699725,468.6971338750154,468.6971338750154,473.84617216701736,469.1716367500194,470.18941474999883,470.79219608401763,471.8146735840128,468.6971338750154,468.6971338750154,468.6805195833285,468.6971338750154,468.6971338750154,468.6971338750154,468.6805195833285,468.6971338750154,468.6971338750154,473.84617216701736,468.6971338750154,473.84617216701736,473.91201374999946,474.5414135000028,468.6971338750154,2,1,0.8796733750205021,reldom2_s031,001,2025-02-25_12h07.37.904,Vis-B-Scan_AC,2022.2.5,None,
40,First_Order,7.0,viswhat,stimulus/viswhat_stim/blank_white.png,stimulus/viswhat_stim/blank_white.png,stimulus/viswhat_stim/land_vehicle-truck.png,stimulus/viswhat_stim/land_animal-fox.png,stimulus/viswhat_stim/blank_white.png,stimulus/viswhat_stim/location_box.png,stimulus/viswhat_stim/location_yes.png,stimulus/viswhat_stim/location_no.png,None,Location,None,Location,1,0.0,0,5.125,0,5.125,0,5.125,0,0.0,0.625,0,0.0,0,0.0,1,0.5,1,2.125,0,0,0,0,0,0,0,0,0,,,,,0,52,52,52,,,,,,,,,474.78068441699725,474.78068441699725,474.78068441699725,474.78068441699725,474.78068441699725,474.78068441699725,474.78068441699725,474.78068441699725,474.74920183402133,474.78068441699725,474.78068441699725,474.78068441699725,474.74920183402133,474.78068441699725,474.78068441699725,474.78068441699725,476.8800268339983,480.91736087499885,474.78068441699725,474.78068441699725,479.91661908401875,475.2696794170188,476.2979052500159,476.8800268339983,477.88908358401386,474.78068441699725,474.78068441699725,474.76586850068804,474.78068441699725,474.78068441699725,474.78068441699725,474.76586850068804,474.78068441699725,474.78068441699725,479.91661908401875,474.78068441699725,479.91661908401875,480.0043333340145,480.6404259590199,474.78068441699725,1,1,0.7006963750172872,reldom2_s031,001,2025-02-25_12h07.37.904,Vis-B-Scan_AC,2022.2.5,None,
0,0.0,None,fixation,stimulus/viswhere_stim/blank_white.png,stimulus/viswhere_stim/blank_white.png,stimulus/viswhat_stim/blank_white.png,stimulus/viswhat_stim/blank_white.png,stimulus/viswhere_stim/blank_white.png,stimulus/viswhere_stim/blank_white.png,stimulus/viswhere_stim/blank_white.png,stimulus/viswhere_stim/blank_white.png,0.0,0.0,0.0,0.0,0,0.0,0,0.0,0,0.0,0,0.0,0,0.0,0.0,0,0.0,0,0.0,0,0.0,0,0.0,0,0,0,0,0,0,0,0,8,,,,,0,53,53,53,,,,,,,,,480.91736087499885,480.91736087499885,480.91736087499885,480.91736087499885,480.91736087499885,480.91736087499885,480.91736087499885,480.91736087499885,480.8105349173323,480.91736087499885,480.91736087499885,480.91736087499885,480.8105349173323,480.91736087499885,480.91736087499885,480.91736087499885,480.91736087499885,480.91736087499885,480.91736087499885,480.91736087499885,480.91736087499885,480.91736087499885,480.91736087499885,480.91736087499885,480.91736087499885,480.91736087499885,480.91736087499885,480.87720158399895,480.91736087499885,480.91736087499885,480.91736087499885,480.87720158399895,480.91736087499885,480.91736087499885,480.91736087499885,480.91736087499885,480.91736087499885,486.1022607500199,486.1022607500199,489.06263529200805,None,0,,reldom2_s031,001,2025-02-25_12h07.37.904,Vis-B-Scan_AC,2022.2.5,None,
41,Second_Order,7.0,viswhat,stimulus/viswhat_stim/water_animal-whale (1).png,stimulus/viswhat_stim/water_vehicle-canoe(1).png,stimulus/viswhat_stim/land_animal-tiger.png,stimulus/viswhat_stim/land_vehicle-train.png,stimulus/viswhere_stim/match_blank.png,stimulus/viswhere_stim/match_box.png,stimulus/viswhere_stim/match_yes.png,stimulus/viswhere_stim/match_no.png,1.0,Match,Location,Location,1,5.125,0,5.125,0,5.125,0,5.125,0,0.75,0.75,1,0.5,1,2.125,1,0.5,1,2.125,0,0,0,0,0,0,0,0,0,,,,,0,54,54,54,,,,,,,,,489.06263529200805,494.1838531670219,489.53903050001827,490.5372402089997,491.1602693750174,492.1574264999945,489.06263529200805,489.06263529200805,489.06972912533286,489.06263529200805,489.06263529200805,489.06263529200805,489.06972912533286,489.06263529200805,494.1838531670219,495.01070716700633,497.0839572920231,,495.01070716700633,495.01070716700633,500.17338445901987,495.4436151670234,496.4824770000123,497.0839572920231,498.1280916670221,495.01070716700633,495.01070716700633,494.9848338336897,495.01070716700633,495.01070716700633,495.01070716700633,494.9848338336897,495.01070716700633,495.01070716700633,500.17338445901987,495.01070716700633,500.17338445901987,500.20163433402195,,495.01070716700633,1,1,1.1747979999927338,reldom2_s031,001,2025-02-25_12h07.37.904,Vis-B-Scan_AC,2022.2.5,None,
42,Second_Order,7.0,viswhat,stimulus/viswhat_stim/land_vehicle-buldozer.png,stimulus/viswhat_stim/water_vehicle-jetski.png,stimulus/viswhat_stim/water_animal-whale.png,stimulus/viswhat_stim/land_animal-fox.png,stimulus/viswhere_stim/match_blank.png,stimulus/viswhere_stim/match_box.png,stimulus/viswhere_stim/match_yes.png,stimulus/viswhere_stim/match_no.png,1.0,Match,Type,Type,1,5.125,0,5.125,0,5.125,0,5.125,0,0.625,0.625,1,0.5,1,2.125,1,0.5,1,2.125,0,0,0,0,0,0,0,0,0,,,,,0,55,55,55,,,,,,,,,500.9814432919957,506.0957584590069,501.4497041669965,502.4481209590158,503.0714442089957,504.068454125023,500.9814432919957,500.9814432919957,500.98089787534747,500.9814432919957,500.9814432919957,500.9814432919957,500.98089787534747,500.9814432919957,506.0957584590069,506.7850793340185,508.84635091701057,,506.7850793340185,506.7850793340185,511.93108854201273,507.2289950000122,508.2484088750207,508.84635091701057,509.8669995840173,506.7850793340185,506.7850793340185,506.75780983401347,506.7850793340185,506.7850793340185,506.7850793340185,506.75780983401347,506.7850793340185,506.7850793340185,511.93108854201273,506.7850793340185,511.93108854201273,511.97234529201523,512.6087980000011,506.7850793340185,1,1,1.5502738750074059,reldom2_s031,001,2025-02-25_12h07.37.904,Vis-B-Scan_AC,2022.2.5,None,
0,0.0,None,fixation,stimulus/viswhere_stim/blank_white.png,stimulus/viswhere_stim/blank_white.png,stimulus/viswhat_stim/blank_white.png,stimulus/viswhat_stim/blank_white.png,stimulus/viswhere_stim/blank_white.png,stimulus/viswhere_stim/blank_white.png,stimulus/viswhere_stim/blank_white.png,stimulus/viswhere_stim/blank_white.png,0.0,0.0,0.0,0.0,0,0.0,0,0.0,0,0.0,0,0.0,0,0.0,0.0,0,0.0,0,0.0,0,0.0,0,0.0,0,0,0,0,0,0,0,0,9,,,,,0,56,56,56,,,,,,,,,512.888293459022,512.888293459022,512.888293459022,512.888293459022,512.888293459022,512.888293459022,512.888293459022,512.888293459022,512.7905140420131,512.888293459022,512.888293459022,512.888293459022,512.7905140420131,512.888293459022,512.888293459022,512.888293459022,512.888293459022,512.888293459022,512.888293459022,512.888293459022,512.888293459022,512.888293459022,512.888293459022,512.888293459022,512.888293459022,512.888293459022,512.888293459022,512.8405140420131,512.888293459022,512.888293459022,512.888293459022,512.8405140420131,512.888293459022,512.888293459022,512.888293459022,512.888293459022,512.888293459022,518.0715310000232,518.0715310000232,522.094440875022,None,0,,reldom2_s031,001,2025-02-25_12h07.37.904,Vis-B-Scan_AC,2022.2.5,None,
43,First_Order,8.0,viswhat,stimulus/viswhat_stim/blank_white.png,stimulus/viswhat_stim/blank_white.png,stimulus/viswhat_stim/land_animal-fox.png,stimulus/viswhat_stim/land_vehicle-motorcycle.png,stimulus/viswhat_stim/blank_white.png,stimulus/viswhat_stim/type_box.png,stimulus/viswhat_stim/type_yes.png,stimulus/viswhat_stim/type_no.png,None,Type,None,Location,2,0.0,0,5.125,0,5.125,0,5.125,0,0.0,0.625,0,0.0,0,0.0,1,0.5,1,2.125,0,0,0,0,0,0,0,0,0,,,,,0,57,57,57,,,,,,,,,522.094440875022,522.094440875022,522.094440875022,522.094440875022,522.094440875022,522.094440875022,522.094440875022,522.094440875022,522.051877291679,522.094440875022,522.094440875022,522.094440875022,522.051877291679,522.094440875022,522.094440875022,522.094440875022,524.1975521249988,528.1663539170113,522.094440875022,522.094440875022,527.2424924590159,522.5749903749966,523.5982707500225,524.1975521249988,525.2233659590129,522.094440875022,522.094440875022,522.0685439583457,522.094440875022,522.094440875022,522.094440875022,522.0685439583457,522.094440875022,522.094440875022,527.2424924590159,522.094440875022,527.2424924590159,527.3162970840058,527.9558030000189,522.094440875022,2,1,1.2428217080014292,reldom2_s031,001,2025-02-25_12h07.37.904,Vis-B-Scan_AC,2022.2.5,None,
44,First_Order,8.0,viswhat,stimulus/viswhat_stim/blank_white.png,stimulus/viswhat_stim/blank_white.png,stimulus/viswhat_stim/land_animal-pig.png,stimulus/viswhat_stim/land_vehicle-firetruck.png,stimulus/viswhat_stim/blank_white.png,stimulus/viswhat_stim/location_box.png,stimulus/viswhat_stim/location_yes.png,stimulus/viswhat_stim/location_no.png,None,Location,None,Location,1,0.0,0,5.125,0,5.125,0,5.125,0,0.0,0.625,0,0.0,0,0.0,1,0.5,1,2.125,0,0,0,0,0,0,0,0,0,,,,,0,58,58,58,,,,,,,,,528.1663539170113,528.1663539170113,528.1663539170113,528.1663539170113,528.1663539170113,528.1663539170113,528.1663539170113,528.1663539170113,528.1293215840066,528.1663539170113,528.1663539170113,528.1663539170113,528.1293215840066,528.1663539170113,528.1663539170113,528.1663539170113,530.269688750006,534.2867667500104,528.1663539170113,528.1663539170113,533.3129666669993,528.6332760420046,529.6616583750001,530.269688750006,531.2802987500036,528.1663539170113,528.1663539170113,528.1459882506732,528.1663539170113,528.1663539170113,528.1663539170113,528.1459882506732,528.1663539170113,528.1663539170113,533.3129666669993,528.1663539170113,533.3129666669993,533.3830733340001,534.0239105420187,528.1663539170113,1,1,0.6461668330011889,reldom2_s031,001,2025-02-25_12h07.37.904,Vis-B-Scan_AC,2022.2.5,None,
45,First_Order,8.0,viswhat,stimulus/viswhat_stim/blank_white.png,stimulus/viswhat_stim/blank_white.png,stimulus/viswhat_stim/land_vehicle-trolley.png,stimulus/viswhat_stim/water_vehicle-sailboat.png,stimulus/viswhat_stim/blank_white.png,stimulus/viswhat_stim/type_box.png,stimulus/viswhat_stim/type_yes.png,stimulus/viswhat_stim/type_no.png,None,Type,None,Type,1,0.0,0,5.125,0,5.125,0,5.125,0,0.0,0.625,0,0.0,0,0.0,1,0.5,1,2.125,0,0,0,0,0,0,0,0,0,,,,,0,59,59,59,,,,,,,,,534.2867667500104,534.2867667500104,534.2867667500104,534.2867667500104,534.2867667500104,534.2867667500104,534.2867667500104,534.2867667500104,534.1953399583484,534.2867667500104,534.2867667500104,534.2867667500104,534.1953399583484,534.2867667500104,534.2867667500104,534.2867667500104,536.3734600839962,,534.2867667500104,534.2867667500104,539.4800169999944,534.7728124170098,535.8404631669982,536.3734600839962,537.4458190840087,534.2867667500104,534.2867667500104,534.2453399583484,534.2867667500104,534.2867667500104,534.2867667500104,534.2453399583484,534.2867667500104,534.2867667500104,539.4800169999944,534.2867667500104,539.4800169999944,539.4800169999944,540.1712270420103,534.2867667500104,1,1,0.5832593750092201,reldom2_s031,001,2025-02-25_12h07.37.904,Vis-B-Scan_AC,2022.2.5,None,
46,First_Order,8.0,viswhat,stimulus/viswhat_stim/blank_white.png,stimulus/viswhat_stim/blank_white.png,stimulus/viswhat_stim/water_vehicle-canoe(1).png,stimulus/viswhat_stim/land_vehicle-truck.png,stimulus/viswhat_stim/blank_white.png,stimulus/viswhat_stim/type_box.png,stimulus/viswhat_stim/type_yes.png,stimulus/viswhat_stim/type_no.png,None,Type,None,Type,1,0.0,0,5.125,0,5.125,0,5.125,0,0.0,0.625,0,0.0,0,0.0,1,0.5,1,2.125,0,0,0,0,0,0,0,0,0,,,,,0,60,60,60,,,,,,,,,540.3406665000075,540.3406665000075,540.3406665000075,540.3406665000075,540.3406665000075,540.3406665000075,540.3406665000075,540.3406665000075,540.3045603753436,540.3406665000075,540.3406665000075,540.3406665000075,540.3045603753436,540.3406665000075,540.3406665000075,540.3406665000075,542.4349929169985,546.4874394170183,540.3406665000075,540.3406665000075,545.4708355000184,540.8197277500003,541.8255345420039,542.4349929169985,543.4447652090166,540.3406665000075,540.3406665000075,540.3212270420103,540.3406665000075,540.3406665000075,540.3406665000075,540.3212270420103,540.3406665000075,540.3406665000075,545.4708355000184,540.3406665000075,545.4708355000184,545.5681573750044,546.2006758339994,540.3406665000075,1,1,0.49702441701083444,reldom2_s031,001,2025-02-25_12h07.37.904,Vis-B-Scan_AC,2022.2.5,None,
0,0.0,None,fixation,stimulus/viswhere_stim/blank_white.png,stimulus/viswhere_stim/blank_white.png,stimulus/viswhat_stim/blank_white.png,stimulus/viswhat_stim/blank_white.png,stimulus/viswhere_stim/blank_white.png,stimulus/viswhere_stim/blank_white.png,stimulus/viswhere_stim/blank_white.png,stimulus/viswhere_stim/blank_white.png,0.0,0.0,0.0,0.0,0,0.0,0,0.0,0,0.0,0,0.0,0,0.0,0.0,0,0.0,0,0.0,0,0.0,0,0.0,0,0,0,0,0,0,0,0,9,,,,,0,61,61,61,,,,,,,,,546.4874394170183,546.4874394170183,546.4874394170183,546.4874394170183,546.4874394170183,546.4874394170183,546.4874394170183,546.4874394170183,546.3841523333298,546.4874394170183,546.4874394170183,546.4874394170183,546.3841523333298,546.4874394170183,546.4874394170183,546.4874394170183,546.4874394170183,546.4874394170183,546.4874394170183,546.4874394170183,546.4874394170183,546.4874394170183,546.4874394170183,546.4874394170183,546.4874394170183,546.4874394170183,546.4874394170183,546.4341523333297,546.4874394170183,546.4874394170183,546.4874394170183,546.4341523333297,546.4874394170183,546.4874394170183,546.4874394170183,546.4874394170183,546.4874394170183,551.6683644590084,551.6683644590084,555.641879917006,None,0,,reldom2_s031,001,2025-02-25_12h07.37.904,Vis-B-Scan_AC,2022.2.5,None,
47,Second_Order,8.0,viswhat,stimulus/viswhat_stim/water_animal-seaturtle.png,stimulus/viswhat_stim/water_vehicle-kayak.png,stimulus/viswhat_stim/water_vehicle-motorboatraft.png,stimulus/viswhat_stim/land_vehicle-tank.png,stimulus/viswhere_stim/match_blank.png,stimulus/viswhere_stim/match_box.png,stimulus/viswhere_stim/match_yes.png,stimulus/viswhere_stim/match_no.png,2.0,Match,Location,Type,2,5.125,0,5.125,0,5.125,0,5.125,0,0.75,0.75,1,0.5,1,2.125,1,0.5,1,2.125,0,0,0,0,0,0,0,0,0,,,,,0,62,62,62,,,,,,,,,555.641879917006,560.7547641670099,556.1094891249959,557.1075781670224,557.7302871670108,558.7277176670032,555.641879917006,555.641879917006,555.6435700423336,555.641879917006,555.641879917006,555.641879917006,555.6435700423336,555.641879917006,560.7547641670099,561.5521987090178,563.6208254590165,567.5202984170173,561.5521987090178,561.5521987090178,566.6789077499998,562.0058812090138,563.02805308401,563.6208254590165,564.6272710839985,561.5521987090178,561.5521987090178,561.5378450420219,561.5521987090178,561.5521987090178,561.5521987090178,561.5378450420219,561.5521987090178,561.5521987090178,566.6789077499998,561.5521987090178,566.6789077499998,566.7383392500051,567.5202984170173,561.5521987090178,1,0,1.1559057910053525,reldom2_s031,001,2025-02-25_12h07.37.904,Vis-B-Scan_AC,2022.2.5,None,
48,Second_Order,8.0,viswhat,stimulus/viswhat_stim/land_vehicle-rv.png,stimulus/viswhat_stim/water_vehicle-cargoboat.png,stimulus/viswhat_stim/water_animal-squid.png,stimulus/viswhat_stim/land_animal-dog.png,stimulus/viswhere_stim/match_blank.png,stimulus/viswhere_stim/match_box.png,stimulus/viswhere_stim/match_yes.png,stimulus/viswhere_stim/match_no.png,1.0,Match,Type,Type,1,5.125,0,5.125,0,5.125,0,5.125,0,0.625,0.625,1,0.5,1,2.125,1,0.5,1,2.125,0,0,0,0,0,0,0,0,0,,,,,0,63,63,63,,,,,,,,,567.5202984170173,572.6435687500052,567.9992465420219,568.988392416999,569.6240388340084,570.6224100420077,567.5202984170173,567.5202984170173,567.5252141250064,567.5202984170173,567.5202984170173,567.5202984170173,567.5252141250064,567.5202984170173,572.6435687500052,573.3495083340094,575.4126974590181,579.4670079589996,573.3495083340094,573.3495083340094,578.5041111250175,573.7816532920115,574.7979454169981,575.4126974590181,576.436967000016,573.3495083340094,573.3495083340094,573.3284255416811,573.3495083340094,573.3495083340094,573.3495083340094,573.3284255416811,573.3495083340094,573.3495083340094,578.5041111250175,573.3495083340094,578.5041111250175,578.5294658750063,579.1852201250149,573.3495083340094,1,1,0.8099521249823738,reldom2_s031,001,2025-02-25_12h07.37.904,Vis-B-Scan_AC,2022.2.5,None,
0,0.0,None,fixation,stimulus/viswhere_stim/blank_white.png,stimulus/viswhere_stim/blank_white.png,stimulus/viswhat_stim/blank_white.png,stimulus/viswhat_stim/blank_white.png,stimulus/viswhere_stim/blank_white.png,stimulus/viswhere_stim/blank_white.png,stimulus/viswhere_stim/blank_white.png,stimulus/viswhere_stim/blank_white.png,0.0,0.0,0.0,0.0,0,0.0,0,0.0,0,0.0,0,0.0,0,0.0,0.0,0,0.0,0,0.0,0,0.0,0,0.0,0,0,0,0,0,0,0,0,16,,,,,0,64,64,64,,,,,,,,,579.4670079589996,579.4670079589996,579.4670079589996,579.4670079589996,579.4670079589996,579.4670079589996,579.4670079589996,579.4670079589996,579.3772753336797,579.4670079589996,579.4670079589996,579.4670079589996,579.3772753336797,579.4670079589996,579.4670079589996,579.4670079589996,579.4670079589996,579.4670079589996,579.4670079589996,579.4670079589996,579.4670079589996,579.4670079589996,579.4670079589996,579.4670079589996,579.4670079589996,579.4670079589996,579.4670079589996,579.4272753336796,579.4670079589996,579.4670079589996,579.4670079589996,579.4272753336796,579.4670079589996,579.4670079589996,579.4670079589996,579.4670079589996,579.4670079589996,584.6533597499947,584.6533597499947,595.631532667001,None,0,,reldom2_s031,001,2025-02-25_12h07.37.904,Vis-B-Scan_AC,2022.2.5,None,
