Trial,Order,Block,Type,Stimuli_File1,Stimuli_File2,Stimuli_File3,Stimuli_File4,Cue_File1,Cue_File2,Response_File_Yes,Response_File_No,Match,Cue_Dimension,Pair1_Dimension,Pair2_Dimension,Key,Cue1_Duration,Cue1_Onset,Cue2_Duration,Cue2_Onset,ResponseYes_Duration,ResponseYes_Onset,ResponseNo_Duration,ResponseNo_Onset,ITI_Within,ITI_Between,Image1_Duration,Image1_Onset,Image2_Duration,Image2_Onset,Image3_Duration,Image3_Onset,Image4_Duration,Image4_Onset,Sound1_Duration,Sound1_Onset,Sound2_Duration,Sound2_Onset,Sound3_Duration,Sound3_Onset,Sound4_Duration,Sound4_Onset,Fixation_Duration,trials_2.thisRepN,trials_2.thisTrialN,trials_2.thisN,trials_2.thisIndex,trials.thisRepN,trials.thisTrialN,trials.thisN,trials.thisIndex,text_start.started,key_resp_start.started,key_resp_start.keys,key_resp_start.rt,text2.started,key_resp_2.started,key_resp_2.keys,key_resp_2.rt,cue_file1.started,cue_file1.stopped,image_1.started,image_1.stopped,image_2.started,image_2.stopped,sound_icon1.started,sound_icon1.stopped,sound_1.started,sound_1.stopped,sound_icon2.started,sound_icon2.stopped,sound_2.started,sound_2.stopped,image_blank_1.started,image_blank_1.stopped,key_press.started,key_press.stopped,fixation_text.started,cue_file2.started,cue_file2.stopped,image_3.started,image_3.stopped,image_4.started,image_4.stopped,sound_icon3.started,sound_icon3.stopped,sound_3.started,sound_3.stopped,sound_icon4.started,sound_icon4.stopped,sound_4.started,sound_4.stopped,response_yes.started,response_yes.stopped,response_no.started,response_no.stopped,iti_blank.started,iti_blank.stopped,fixation_text.stopped,key_press.keys,key_press.corr,key_press.rt,participant,session,date,expName,psychopyVersion,frameRate,
,,,,,,,,,,,,,,,,,,,,,,,,,,,,,,,,,,,,,,,,,,,,,,,,,,,,8.05103279199102,8.05103279199102,2,2.4489724580198526,,,,,,,,,,,,,,,,,,,,,,,,,,,,,,,,,,,,,,,,,,,,,,,,reldom2_s031,001,2025-02-25_12h20.18.399,What-B-Scan_AC,2022.2.5,None,
,,,,,,,,,,,,,,,,,,,,,,,,,,,,,,,,,,,,,,,,,,,,0,0,0,0,,,,,,,,,10.541614083980676,10.541614083980676,5,17.068103875004454,,,,,,,,,,,,,,,,,,,,,,,,,,,,,,,,,,,,,,,,,,,,reldom2_s031,001,2025-02-25_12h20.18.399,What-B-Scan_AC,2022.2.5,None,
,,,,,,,,,,,,,,,,,,,,,,,,,,,,,,,,,,,,,,,,,,,,1,0,1,0,,,,,,,,,27.626459083985537,27.626459083985537,5,1.9836243750178255,,,,,,,,,,,,,,,,,,,,,,,,,,,,,,,,,,,,,,,,,,,,reldom2_s031,001,2025-02-25_12h20.18.399,What-B-Scan_AC,2022.2.5,None,
,,,,,,,,,,,,,,,,,,,,,,,,,,,,,,,,,,,,,,,,,,,,2,0,2,0,,,,,,,,,29.637255541980267,29.637255541980267,5,1.9744090409949422,,,,,,,,,,,,,,,,,,,,,,,,,,,,,,,,,,,,,,,,,,,,reldom2_s031,001,2025-02-25_12h20.18.399,What-B-Scan_AC,2022.2.5,None,
,,,,,,,,,,,,,,,,,,,,,,,,,,,,,,,,,,,,,,,,,,,,3,0,3,0,,,,,,,,,31.625648416986223,31.625648416986223,5,1.9839132909837645,,,,,,,,,,,,,,,,,,,,,,,,,,,,,,,,,,,,,,,,,,,,reldom2_s031,001,2025-02-25_12h20.18.399,What-B-Scan_AC,2022.2.5,None,
0,0.0,None,fixation,stimulus/viswhat_stim/blank_white.png,stimulus/viswhat_stim/blank_white.png,stimulus/audwhat_stim/blank_white.png,stimulus/audwhat_stim/blank_white.png,stimulus/viswhat_stim/blank_white.png,stimulus/viswhat_stim/blank_white.png,stimulus/viswhat_stim/blank_white.png,stimulus/viswhat_stim/blank_white.png,0.0,0.0,0.0,0.0,0,0.0,0,0.0,0,0.0,0,0.0,0,0.0,0.0,0,0.0,0,0.0,0,0.0,0,0.0,0,0.0,0,0.0,0,0.0,0,0.0,16,,,,,0,0,0,0,,,,,,,,,33.82467383399489,33.82467383399489,33.82467383399489,33.82467383399489,33.82467383399489,33.82467383399489,33.82467383399489,33.82467383399489,33.730787500649846,33.82467383399489,33.82467383399489,33.82467383399489,33.730787500649846,33.82467383399489,33.82467383399489,33.82467383399489,33.82467383399489,33.82467383399489,33.82467383399489,33.82467383399489,33.82467383399489,33.82467383399489,33.82467383399489,33.82467383399489,33.82467383399489,33.82467383399489,33.82467383399489,33.78078750064984,33.82467383399489,33.82467383399489,33.82467383399489,33.78078750064984,33.82467383399489,33.82467383399489,33.82467383399489,33.82467383399489,33.82467383399489,39.047327042004326,39.047327042004326,50.26940945899696,None,0,,reldom2_s031,001,2025-02-25_12h20.18.399,What-B-Scan_AC,2022.2.5,None,
1,First_Order,1.0,viswhat,stimulus/viswhat_stim/blank_white.png,stimulus/viswhat_stim/blank_white.png,stimulus/viswhat_stim/water_vehicle-pirateship.png,stimulus/viswhat_stim/water_animal-lobster.png,stimulus/viswhat_stim/blank_white.png,stimulus/viswhat_stim/location_box.png,stimulus/viswhat_stim/location_yes.png,stimulus/viswhat_stim/location_no.png,None,Location,None,Location,1,0.0,0,5.125,0,5.125,0,5.125,0,0.0,0.625,0,0.0,0,0.0,1,0.5,1,2.125,0,0.0,0,0.0,0,0.0,0,0.0,0,,,,,0,1,1,1,,,,,,,,,50.26940945899696,50.26940945899696,50.26940945899696,50.26940945899696,50.26940945899696,50.26940945899696,50.26940945899696,50.26940945899696,49.99265929198591,50.26940945899696,50.26940945899696,50.26940945899696,49.99265929198591,50.26940945899696,50.26940945899696,50.26940945899696,52.24041224998655,,50.26940945899696,50.26940945899696,55.63261329199304,50.69036079198122,51.81788299998152,52.24041224998655,53.37015466700541,50.26940945899696,50.26940945899696,50.14265929198591,50.26940945899696,50.26940945899696,50.26940945899696,50.14265929198591,50.26940945899696,50.26940945899696,55.63261329199304,50.26940945899696,55.63261329199304,55.496193375001894,,50.26940945899696,1,1,1.4628876250062604,reldom2_s031,001,2025-02-25_12h20.18.399,What-B-Scan_AC,2022.2.5,None,
2,First_Order,1.0,viswhat,stimulus/viswhat_stim/blank_white.png,stimulus/viswhat_stim/blank_white.png,stimulus/viswhat_stim/land_vehicle-firetruck.png,stimulus/viswhat_stim/water_vehicle-jetski.png,stimulus/viswhat_stim/blank_white.png,stimulus/viswhat_stim/location_box.png,stimulus/viswhat_stim/location_yes.png,stimulus/viswhat_stim/location_no.png,None,Location,None,Type,2,0.0,0,5.125,0,5.125,0,5.125,0,0.0,0.625,0,0.0,0,0.0,1,0.5,1,2.125,0,0.0,0,0.0,0,0.0,0,0.0,0,,,,,0,2,2,2,,,,,,,,,56.2654322499875,56.2654322499875,56.2654322499875,56.2654322499875,56.2654322499875,56.2654322499875,56.2654322499875,56.2654322499875,56.23864750033439,56.2654322499875,56.2654322499875,56.2654322499875,56.23864750033439,56.2654322499875,56.2654322499875,56.2654322499875,58.37698375000036,62.40241325000534,56.2654322499875,56.2654322499875,61.40723629199783,56.74765637499513,57.776411625003675,58.37698375000036,59.397619333991315,56.2654322499875,56.2654322499875,56.25531416700105,56.2654322499875,56.2654322499875,56.2654322499875,56.25531416700105,56.2654322499875,56.2654322499875,61.40723629199783,56.2654322499875,61.40723629199783,61.48166641697753,62.11662441698718,56.2654322499875,2,1,0.8102050829911605,reldom2_s031,001,2025-02-25_12h20.18.399,What-B-Scan_AC,2022.2.5,None,
3,First_Order,1.0,viswhat,stimulus/viswhat_stim/blank_white.png,stimulus/viswhat_stim/blank_white.png,stimulus/viswhat_stim/land_animal-moose.png,stimulus/viswhat_stim/water_animal-jellyfish.png,stimulus/viswhat_stim/blank_white.png,stimulus/viswhat_stim/type_box.png,stimulus/viswhat_stim/type_yes.png,stimulus/viswhat_stim/type_no.png,None,Type,None,Type,1,0.0,0,5.125,0,5.125,0,5.125,0,0.0,0.625,0,0.0,0,0.0,1,0.5,1,2.125,0,0.0,0,0.0,0,0.0,0,0.0,0,,,,,0,3,3,3,,,,,,,,,62.40241325000534,62.40241325000534,62.40241325000534,62.40241325000534,62.40241325000534,62.40241325000534,62.40241325000534,62.40241325000534,62.29273537533785,62.40241325000534,62.40241325000534,62.40241325000534,62.29273537533785,62.40241325000534,62.40241325000534,62.40241325000534,64.5078294169798,,62.40241325000534,62.40241325000534,67.61414900000091,62.870299749978585,63.924409166997066,64.5078294169798,65.56510604199138,62.40241325000534,62.40241325000534,62.35940204200451,62.40241325000534,62.40241325000534,62.40241325000534,62.35940204200451,62.40241325000534,62.40241325000534,67.61414900000091,62.40241325000534,67.61414900000091,67.61414900000091,68.46560837500147,62.40241325000534,1,1,0.5781774169881828,reldom2_s031,001,2025-02-25_12h20.18.399,What-B-Scan_AC,2022.2.5,None,
4,First_Order,1.0,viswhat,stimulus/viswhat_stim/blank_white.png,stimulus/viswhat_stim/blank_white.png,stimulus/viswhat_stim/land_animal-tiger.png,stimulus/viswhat_stim/land_vehicle-rv.png,stimulus/viswhat_stim/blank_white.png,stimulus/viswhat_stim/type_box.png,stimulus/viswhat_stim/type_yes.png,stimulus/viswhat_stim/type_no.png,None,Type,None,Location,2,0.0,0,5.125,0,5.125,0,5.125,0,0.0,0.625,0,0.0,0,0.0,1,0.5,1,2.125,0,0.0,0,0.0,0,0.0,0,0.0,0,,,,,0,4,4,4,,,,,,,,,68.46560837500147,68.46560837500147,68.46560837500147,68.46560837500147,68.46560837500147,68.46560837500147,68.46560837500147,68.46560837500147,68.42090325067208,68.46560837500147,68.46560837500147,68.46560837500147,68.42090325067208,68.46560837500147,68.46560837500147,68.46560837500147,70.57898587497766,74.60036300000502,68.46560837500147,68.46560837500147,73.62415745898033,68.94285495899385,69.96730612497777,70.57898587497766,71.60526962499716,68.46560837500147,68.46560837500147,68.43756991733875,68.46560837500147,68.46560837500147,68.46560837500147,68.43756991733875,68.46560837500147,68.46560837500147,73.62415745898033,68.46560837500147,73.62415745898033,73.68133091699565,74.33697829200537,68.46560837500147,2,1,1.0604815000260714,reldom2_s031,001,2025-02-25_12h20.18.399,What-B-Scan_AC,2022.2.5,None,
0,0.0,None,fixation,stimulus/viswhat_stim/blank_white.png,stimulus/viswhat_stim/blank_white.png,stimulus/audwhat_stim/blank_white.png,stimulus/audwhat_stim/blank_white.png,stimulus/viswhat_stim/blank_white.png,stimulus/viswhat_stim/blank_white.png,stimulus/viswhat_stim/blank_white.png,stimulus/viswhat_stim/blank_white.png,0.0,0.0,0.0,0.0,0,0.0,0,0.0,0,0.0,0,0.0,0,0.0,0.0,0,0.0,0,0.0,0,0.0,0,0.0,0,0.0,0,0.0,0,0.0,0,0.0,9,,,,,0,5,5,5,,,,,,,,,74.60036300000502,74.60036300000502,74.60036300000502,74.60036300000502,74.60036300000502,74.60036300000502,74.60036300000502,74.60036300000502,74.51065541666854,74.60036300000502,74.60036300000502,74.60036300000502,74.51065541666854,74.60036300000502,74.60036300000502,74.60036300000502,74.60036300000502,74.60036300000502,74.60036300000502,74.60036300000502,74.60036300000502,74.60036300000502,74.60036300000502,74.60036300000502,74.60036300000502,74.60036300000502,74.60036300000502,74.56065541666855,74.60036300000502,74.60036300000502,74.60036300000502,74.56065541666855,74.60036300000502,74.60036300000502,74.60036300000502,74.60036300000502,74.60036300000502,79.7902448340028,79.7902448340028,83.78928066699882,None,0,,reldom2_s031,001,2025-02-25_12h20.18.399,What-B-Scan_AC,2022.2.5,None,
5,Second_Order,1.0,viswhat,stimulus/viswhat_stim/land_animal-bunny.png,stimulus/viswhat_stim/land_vehicle-motorcycle.png,stimulus/viswhat_stim/water_animal-octopus.png,stimulus/viswhat_stim/land_animal-fox.png,stimulus/viswhat_stim/match_blank.png,stimulus/viswhat_stim/match_box.png,stimulus/viswhat_stim/match_yes.png,stimulus/viswhat_stim/match_no.png,2.0,Match,Location,Type,2,5.125,0,5.125,0,5.125,0,5.125,0,0.75,0.75,1,0.5,1,2.125,1,0.5,1,2.125,0,0.0,0,0.0,0,0.0,0,0.0,0,,,,,0,6,6,6,,,,,,,,,83.78928066699882,88.91306629197788,84.23310650000349,85.2191536249884,85.8560147919925,86.85323370900005,83.78928066699882,83.78928066699882,83.80156983366275,83.78928066699882,83.78928066699882,83.78928066699882,83.80156983366275,83.78928066699882,88.91306629197788,89.73134454200044,91.79044083398185,95.70512341699214,89.73134454200044,89.73134454200044,94.87955287500517,90.19127012498211,91.20526550000068,91.79044083398185,92.81306033398141,89.73134454200044,89.73134454200044,89.69814470900455,89.73134454200044,89.73134454200044,89.73134454200044,89.69814470900455,89.73134454200044,89.73134454200044,94.87955287500517,89.73134454200044,94.87955287500517,94.9307082919986,,89.73134454200044,1,0,0.7277562920062337,reldom2_s031,001,2025-02-25_12h20.18.399,What-B-Scan_AC,2022.2.5,None,
6,Second_Order,1.0,viswhat,stimulus/viswhat_stim/land_vehicle-tank.png,stimulus/viswhat_stim/land_animal-wolf.png,stimulus/viswhat_stim/water_vehicle-motorboatraft.png,stimulus/viswhat_stim/water_animal-squid.png,stimulus/viswhat_stim/match_blank.png,stimulus/viswhat_stim/match_box.png,stimulus/viswhat_stim/match_yes.png,stimulus/viswhat_stim/match_no.png,1.0,Match,Location,Location,1,5.125,0,5.125,0,5.125,0,5.125,0,0.625,0.625,1,0.5,1,2.125,1,0.5,1,2.125,0,0.0,0,0.0,0,0.0,0,0.0,0,,,,,0,7,7,7,,,,,,,,,95.70512341699214,100.82322416699026,96.17857870899024,97.17710404199897,97.81183204200352,98.80097387498245,95.70512341699214,95.70512341699214,95.70750366665112,95.70512341699214,95.70512341699214,95.70512341699214,95.70750366665112,95.70512341699214,100.82322416699026,101.52064395899652,103.58473562498693,107.63694087500335,101.52064395899652,101.52064395899652,106.65690787500353,101.95770729199285,102.97440704199835,103.58473562498693,104.61340162498527,101.52064395899652,101.52064395899652,101.48675737499143,101.52064395899652,101.52064395899652,101.52064395899652,101.48675737499143,101.52064395899652,101.52064395899652,106.65690787500353,101.52064395899652,106.65690787500353,106.70405433399719,107.34200341699761,101.52064395899652,1,1,0.575858167023398,reldom2_s031,001,2025-02-25_12h20.18.399,What-B-Scan_AC,2022.2.5,None,
0,0.0,None,fixation,stimulus/viswhat_stim/blank_white.png,stimulus/viswhat_stim/blank_white.png,stimulus/audwhat_stim/blank_white.png,stimulus/audwhat_stim/blank_white.png,stimulus/viswhat_stim/blank_white.png,stimulus/viswhat_stim/blank_white.png,stimulus/viswhat_stim/blank_white.png,stimulus/viswhat_stim/blank_white.png,0.0,0.0,0.0,0.0,0,0.0,0,0.0,0,0.0,0,0.0,0,0.0,0.0,0,0.0,0,0.0,0,0.0,0,0.0,0,0.0,0,0.0,0,0.0,0,0.0,9,,,,,0,8,8,8,,,,,,,,,107.63694087500335,107.63694087500335,107.63694087500335,107.63694087500335,107.63694087500335,107.63694087500335,107.63694087500335,107.63694087500335,107.53614187499042,107.63694087500335,107.63694087500335,107.63694087500335,107.53614187499042,107.63694087500335,107.63694087500335,107.63694087500335,107.63694087500335,107.63694087500335,107.63694087500335,107.63694087500335,107.63694087500335,107.63694087500335,107.63694087500335,107.63694087500335,107.63694087500335,107.63694087500335,107.63694087500335,107.58614187499043,107.63694087500335,107.63694087500335,107.63694087500335,107.58614187499043,107.63694087500335,107.63694087500335,107.63694087500335,107.63694087500335,107.63694087500335,112.86926599999424,112.86926599999424,117.109488416987,None,0,,reldom2_s031,001,2025-02-25_12h20.18.399,What-B-Scan_AC,2022.2.5,None,
7,First_Order,2.0,viswhat,stimulus/viswhat_stim/blank_white.png,stimulus/viswhat_stim/blank_white.png,stimulus/viswhat_stim/water_animal-lobster.png,stimulus/viswhat_stim/water_vehicle-canoe.png,stimulus/viswhat_stim/blank_white.png,stimulus/viswhat_stim/location_box.png,stimulus/viswhat_stim/location_yes.png,stimulus/viswhat_stim/location_no.png,None,Location,None,Location,1,0.0,0,5.125,0,5.125,0,5.125,0,0.0,0.625,0,0.0,0,0.0,1,0.5,1,2.125,0,0.0,0,0.0,0,0.0,0,0.0,0,,,,,0,9,9,9,,,,,,,,,117.109488416987,117.109488416987,117.109488416987,117.109488416987,117.109488416987,117.109488416987,117.109488416987,117.109488416987,116.83228441666385,117.109488416987,117.109488416987,117.109488416987,116.83228441666385,117.109488416987,117.109488416987,117.109488416987,119.18536441700417,,117.109488416987,117.109488416987,122.45740112499334,117.5529157090059,118.74051316699479,119.18536441700417,120.38061058399035,117.109488416987,117.109488416987,116.96561774999718,117.109488416987,117.109488416987,117.109488416987,116.96561774999718,117.109488416987,117.109488416987,122.45740112499334,117.109488416987,122.45740112499334,122.31398158398224,,117.109488416987,1,1,0.633394959004363,reldom2_s031,001,2025-02-25_12h20.18.399,What-B-Scan_AC,2022.2.5,None,
8,First_Order,2.0,viswhat,stimulus/viswhat_stim/blank_white.png,stimulus/viswhat_stim/blank_white.png,stimulus/viswhat_stim/water_animal-jellyfish.png,stimulus/viswhat_stim/land_animal-bunny.png,stimulus/viswhat_stim/blank_white.png,stimulus/viswhat_stim/type_box.png,stimulus/viswhat_stim/type_yes.png,stimulus/viswhat_stim/type_no.png,None,Type,None,Type,1,0.0,0,5.125,0,5.125,0,5.125,0,0.0,0.625,0,0.0,0,0.0,1,0.5,1,2.125,0,0.0,0,0.0,0,0.0,0,0.0,0,,,,,0,10,10,10,,,,,,,,,123.17324345899397,123.17324345899397,123.17324345899397,123.17324345899397,123.17324345899397,123.17324345899397,123.17324345899397,123.17324345899397,123.07704379233958,123.17324345899397,123.17324345899397,123.17324345899397,123.07704379233958,123.17324345899397,123.17324345899397,123.17324345899397,125.25082337498316,129.2613784589921,123.17324345899397,123.17324345899397,128.37064104198362,123.63996654198854,124.67996495898115,125.25082337498316,126.29411441698903,123.17324345899397,123.17324345899397,123.12704379233958,123.17324345899397,123.17324345899397,123.17324345899397,123.12704379233958,123.17324345899397,123.17324345899397,128.37064104198362,123.17324345899397,128.37064104198362,128.37064104198362,129.06468691700138,123.17324345899397,1,1,0.5062067910039332,reldom2_s031,001,2025-02-25_12h20.18.399,What-B-Scan_AC,2022.2.5,None,
9,First_Order,2.0,viswhat,stimulus/viswhat_stim/blank_white.png,stimulus/viswhat_stim/blank_white.png,stimulus/viswhat_stim/land_animal-cat.png,stimulus/viswhat_stim/water_animal-whale (1).png,stimulus/viswhat_stim/blank_white.png,stimulus/viswhat_stim/location_box.png,stimulus/viswhat_stim/location_yes.png,stimulus/viswhat_stim/location_no.png,None,Location,None,Type,2,0.0,0,5.125,0,5.125,0,5.125,0,0.0,0.625,0,0.0,0,0.0,1,0.5,1,2.125,0,0.0,0,0.0,0,0.0,0,0.0,0,,,,,0,11,11,11,,,,,,,,,129.2613784589921,129.2613784589921,129.2613784589921,129.2613784589921,129.2613784589921,129.2613784589921,129.2613784589921,129.2613784589921,129.2146869170014,129.2613784589921,129.2613784589921,129.2613784589921,129.2146869170014,129.2613784589921,129.2613784589921,129.2613784589921,131.34417549998034,135.36865870899055,129.2613784589921,129.2613784589921,134.39779012498911,129.7429429589829,130.76809050000156,131.34417549998034,132.37927391700214,129.2613784589921,129.2613784589921,129.23135358366807,129.2613784589921,129.2613784589921,129.2613784589921,129.23135358366807,129.2613784589921,129.2613784589921,134.39779012498911,129.2613784589921,134.39779012498911,134.47691841699998,135.13540808399557,129.2613784589921,2,1,0.7815945830079727,reldom2_s031,001,2025-02-25_12h20.18.399,What-B-Scan_AC,2022.2.5,None,
10,First_Order,2.0,viswhat,stimulus/viswhat_stim/blank_white.png,stimulus/viswhat_stim/blank_white.png,stimulus/viswhat_stim/water_animal-shark.png,stimulus/viswhat_stim/water_vehicle-yacht.png,stimulus/viswhat_stim/blank_white.png,stimulus/viswhat_stim/type_box.png,stimulus/viswhat_stim/type_yes.png,stimulus/viswhat_stim/type_no.png,None,Type,None,Location,2,0.0,0,5.125,0,5.125,0,5.125,0,0.0,0.625,0,0.0,0,0.0,1,0.5,1,2.125,0,0.0,0,0.0,0,0.0,0,0.0,0,,,,,0,12,12,12,,,,,,,,,135.36865870899055,135.36865870899055,135.36865870899055,135.36865870899055,135.36865870899055,135.36865870899055,135.36865870899055,135.36865870899055,135.28802379199772,135.36865870899055,135.36865870899055,135.36865870899055,135.28802379199772,135.36865870899055,135.36865870899055,135.36865870899055,137.46390691699344,141.50755304199993,135.36865870899055,135.36865870899055,140.5386312920018,135.83997304199147,136.86600670899497,137.46390691699344,138.49375720898388,135.36865870899055,135.36865870899055,135.3380237919977,135.36865870899055,135.36865870899055,135.36865870899055,135.3380237919977,135.36865870899055,135.36865870899055,140.5386312920018,135.36865870899055,140.5386312920018,140.57599883398507,141.24272700000438,135.36865870899055,2,1,0.6683408330136444,reldom2_s031,001,2025-02-25_12h20.18.399,What-B-Scan_AC,2022.2.5,None,
0,0.0,None,fixation,stimulus/viswhat_stim/blank_white.png,stimulus/viswhat_stim/blank_white.png,stimulus/audwhat_stim/blank_white.png,stimulus/audwhat_stim/blank_white.png,stimulus/viswhat_stim/blank_white.png,stimulus/viswhat_stim/blank_white.png,stimulus/viswhat_stim/blank_white.png,stimulus/viswhat_stim/blank_white.png,0.0,0.0,0.0,0.0,0,0.0,0,0.0,0,0.0,0,0.0,0,0.0,0.0,0,0.0,0,0.0,0,0.0,0,0.0,0,0.0,0,0.0,0,0.0,0,0.0,10,,,,,0,13,13,13,,,,,,,,,141.50755304199993,141.50755304199993,141.50755304199993,141.50755304199993,141.50755304199993,141.50755304199993,141.50755304199993,141.50755304199993,141.41289408333446,141.50755304199993,141.50755304199993,141.50755304199993,141.41289408333446,141.50755304199993,141.50755304199993,141.50755304199993,141.50755304199993,141.50755304199993,141.50755304199993,141.50755304199993,141.50755304199993,141.50755304199993,141.50755304199993,141.50755304199993,141.50755304199993,141.50755304199993,141.50755304199993,141.46289408333445,141.50755304199993,141.50755304199993,141.50755304199993,141.46289408333445,141.50755304199993,141.50755304199993,141.50755304199993,141.50755304199993,141.50755304199993,146.7036405839899,146.7036405839899,151.65503016699222,None,0,,reldom2_s031,001,2025-02-25_12h20.18.399,What-B-Scan_AC,2022.2.5,None,
11,Second_Order,2.0,viswhat,stimulus/viswhat_stim/land_animal-ostrich.png,stimulus/viswhat_stim/water_animal-stingray.png,stimulus/viswhat_stim/water_vehicle-cruiseship.png,stimulus/viswhat_stim/water_animal-seaturtle.png,stimulus/viswhat_stim/match_blank.png,stimulus/viswhat_stim/match_box.png,stimulus/viswhat_stim/match_yes.png,stimulus/viswhat_stim/match_no.png,2.0,Match,Type,Location,2,5.125,0,5.125,0,5.125,0,5.125,0,0.75,0.75,1,0.5,1,2.125,1,0.5,1,2.125,0,0.0,0,0.0,0,0.0,0,0.0,0,,,,,0,14,14,14,,,,,,,,,151.65503016699222,156.7705169999972,152.12424841697793,153.12278754200088,153.75773041698267,154.74681916699046,151.65503016699222,151.65503016699222,151.66604920831938,151.65503016699222,151.65503016699222,151.65503016699222,151.66604920831938,151.65503016699222,156.7705169999972,157.7442262090044,159.75904470900423,,157.7442262090044,157.7442262090044,162.97966474998975,158.14638925000327,159.25426841698936,159.75904470900423,160.86567720898893,157.7442262090044,157.7442262090044,157.65312483398012,157.7442262090044,157.7442262090044,157.7442262090044,157.65312483398012,157.7442262090044,157.7442262090044,162.97966474998975,157.7442262090044,162.97966474998975,162.88354541698936,,157.7442262090044,1,0,1.1508652080083266,reldom2_s031,001,2025-02-25_12h20.18.399,What-B-Scan_AC,2022.2.5,None,
12,Second_Order,2.0,viswhat,stimulus/viswhat_stim/land_animal-ostrich.png,stimulus/viswhat_stim/land_vehicle-oldcar.png,stimulus/viswhat_stim/water_vehicle-ship.png,stimulus/viswhat_stim/land_vehicle-vespa.png,stimulus/viswhat_stim/match_blank.png,stimulus/viswhat_stim/match_box.png,stimulus/viswhat_stim/match_yes.png,stimulus/viswhat_stim/match_no.png,2.0,Match,Location,Type,2,5.125,0,5.125,0,5.125,0,5.125,0,0.625,0.625,1,0.5,1,2.125,1,0.5,1,2.125,0,0.0,0,0.0,0,0.0,0,0.0,0,,,,,0,15,15,15,,,,,,,,,163.67979983400437,168.797928666987,164.1336543749785,165.1210011249932,165.75732887498452,166.75458449998405,163.67979983400437,163.67979983400437,163.68896741731055,163.67979983400437,163.67979983400437,163.67979983400437,163.68896741731055,163.67979983400437,168.797928666987,169.57476566699916,171.59884254197823,175.69305829200312,169.57476566699916,169.57476566699916,174.7905437919835,169.97942162500112,171.05883454199648,171.59884254197823,172.68602799999644,169.57476566699916,169.57476566699916,169.51042041699986,169.57476566699916,169.57476566699916,169.57476566699916,169.51042041699986,169.57476566699916,169.57476566699916,174.7905437919835,169.57476566699916,174.7905437919835,174.72805866698036,175.41199987498112,169.57476566699916,1,0,1.8698032920074183,reldom2_s031,001,2025-02-25_12h20.18.399,What-B-Scan_AC,2022.2.5,None,
0,0.0,None,fixation,stimulus/viswhat_stim/blank_white.png,stimulus/viswhat_stim/blank_white.png,stimulus/audwhat_stim/blank_white.png,stimulus/audwhat_stim/blank_white.png,stimulus/viswhat_stim/blank_white.png,stimulus/viswhat_stim/blank_white.png,stimulus/viswhat_stim/blank_white.png,stimulus/viswhat_stim/blank_white.png,0.0,0.0,0.0,0.0,0,0.0,0,0.0,0,0.0,0,0.0,0,0.0,0.0,0,0.0,0,0.0,0,0.0,0,0.0,0,0.0,0,0.0,0,0.0,0,0.0,9,,,,,0,16,16,16,,,,,,,,,175.69305829200312,175.69305829200312,175.69305829200312,175.69305829200312,175.69305829200312,175.69305829200312,175.69305829200312,175.69305829200312,175.59533320831446,175.69305829200312,175.69305829200312,175.69305829200312,175.59533320831446,175.69305829200312,175.69305829200312,175.69305829200312,175.69305829200312,175.69305829200312,175.69305829200312,175.69305829200312,175.69305829200312,175.69305829200312,175.69305829200312,175.69305829200312,175.69305829200312,175.69305829200312,175.69305829200312,175.64533320831447,175.69305829200312,175.69305829200312,175.69305829200312,175.64533320831447,175.69305829200312,175.69305829200312,175.69305829200312,175.69305829200312,175.69305829200312,180.92163283398258,180.92163283398258,184.94362208398525,None,0,,reldom2_s031,001,2025-02-25_12h20.18.399,What-B-Scan_AC,2022.2.5,None,
13,First_Order,3.0,audwhat,stimulus/audwhat_stim/dummy.wav,stimulus/audwhat_stim/dummy.wav,stimulus/audwhat_stim/percussion mallet_low-pitch_Ftri_loud.wav,stimulus/audwhat_stim/percussion xylophone_high-pitch_Dtri_loud.wav,stimulus/audwhat_stim/blank_white.png,stimulus/audwhat_stim/pitch_box.png,stimulus/audwhat_stim/pitch_yes.png,stimulus/audwhat_stim/pitch_no.png,None,Pitch,None,Category,2,0.0,0,5.125,0,5.125,0,5.125,0,0.0,0.625,0,0.0,0,0.0,0,0.0,0,0.0,0,0.0,0,0.0,1,0.5,1,2.125,0,,,,,0,17,17,17,,,,,,,,,184.94362208398525,184.94362208398525,184.94362208398525,184.94362208398525,184.94362208398525,184.94362208398525,184.94362208398525,184.94362208398525,184.87328770865378,184.94362208398525,184.94362208398525,184.94362208398525,184.87328770865378,184.94362208398525,184.94362208398525,184.94362208398525,187.05829933399218,191.07127916699392,184.94362208398525,184.94362208398525,190.09375233398168,184.94362208398525,184.94362208398525,184.94362208398525,184.94362208398525,185.40397316700546,186.46217195899226,185.37450637566897,,187.05829933399218,188.1158634169842,187.02903154166805,188.07014825000078,184.94362208398525,190.09375233398168,184.94362208398525,190.09375233398168,190.13455491699278,190.81948908398044,184.94362208398525,2,1,1.555738958006259,reldom2_s031,001,2025-02-25_12h20.18.399,What-B-Scan_AC,2022.2.5,None,
14,First_Order,3.0,audwhat,stimulus/audwhat_stim/dummy.wav,stimulus/audwhat_stim/dummy.wav,stimulus/audwhat_stim/string cello_low-pitch_D_loud.wav,stimulus/audwhat_stim/percussion mallet_low-pitch_D_loud.wav,stimulus/audwhat_stim/blank_white.png,stimulus/audwhat_stim/pitch_box.png,stimulus/audwhat_stim/pitch_yes.png,stimulus/audwhat_stim/pitch_no.png,None,Pitch,None,Pitch,1,0.0,0,5.125,0,5.125,0,5.125,0,0.0,0.625,0,0.0,0,0.0,0,0.0,0,0.0,0,0.0,0,0.0,1,0.5,1,2.125,0,,,,,0,18,18,18,,,,,,,,,191.07127916699392,191.07127916699392,191.07127916699392,191.07127916699392,191.07127916699392,191.07127916699392,191.07127916699392,191.07127916699392,190.99337458331334,191.07127916699392,191.07127916699392,191.07127916699392,190.99337458331334,191.07127916699392,191.07127916699392,191.07127916699392,193.14307841699338,,191.07127916699392,191.07127916699392,196.23251804200117,191.07127916699392,191.07127916699392,191.07127916699392,191.07127916699392,191.53272566699889,192.5921255419962,191.50359450065687,,193.14307841699338,194.20724345897906,193.11353741665178,,191.07127916699392,196.23251804200117,191.07127916699392,196.23251804200117,196.27334904199233,196.9600950839813,191.07127916699392,2,0,1.90090166599839,reldom2_s031,001,2025-02-25_12h20.18.399,What-B-Scan_AC,2022.2.5,None,
15,First_Order,3.0,audwhat,stimulus/audwhat_stim/dummy.wav,stimulus/audwhat_stim/dummy.wav,stimulus/audwhat_stim/string cello_high-pitch_D_loud.wav,stimulus/audwhat_stim/string cello_low-pitch_Ftri_loud.wav,stimulus/audwhat_stim/blank_white.png,stimulus/audwhat_stim/category_box.png,stimulus/audwhat_stim/category_yes.png,stimulus/audwhat_stim/category_no.png,None,Category,None,Category,1,0.0,0,5.125,0,5.125,0,5.125,0,0.0,0.625,0,0.0,0,0.0,0,0.0,0,0.0,0,0.0,0,0.0,1,0.5,1,2.125,0,,,,,0,19,19,19,,,,,,,,,197.1721874169889,197.1721874169889,197.1721874169889,197.1721874169889,197.1721874169889,197.1721874169889,197.1721874169889,197.1721874169889,197.09342841731464,197.1721874169889,197.1721874169889,197.1721874169889,197.09342841731464,197.1721874169889,197.1721874169889,197.1721874169889,199.26075595899601,,197.1721874169889,197.1721874169889,202.3217485419882,197.1721874169889,197.1721874169889,197.1721874169889,197.1721874169889,197.63638879198697,198.70565933399484,197.60523916664923,,199.26075595899601,200.3288265419833,199.23081941667286,,197.1721874169889,202.3217485419882,197.1721874169889,202.3217485419882,202.3629329589894,203.01385837499402,197.1721874169889,1,1,0.5990915829897858,reldom2_s031,001,2025-02-25_12h20.18.399,What-B-Scan_AC,2022.2.5,None,
16,First_Order,3.0,audwhat,stimulus/audwhat_stim/dummy.wav,stimulus/audwhat_stim/dummy.wav,stimulus/audwhat_stim/string viola_low-pitch_F_loud.wav,stimulus/audwhat_stim/percussion mallet_low-pitch_F_loud.wav,stimulus/audwhat_stim/blank_white.png,stimulus/audwhat_stim/category_box.png,stimulus/audwhat_stim/category_yes.png,stimulus/audwhat_stim/category_no.png,None,Category,None,Pitch,2,0.0,0,5.125,0,5.125,0,5.125,0,0.0,0.625,0,0.0,0,0.0,0,0.0,0,0.0,0,0.0,0,0.0,1,0.5,1,2.125,0,,,,,0,20,20,20,,,,,,,,,203.2681266249856,203.2681266249856,203.2681266249856,203.2681266249856,203.2681266249856,203.2681266249856,203.2681266249856,203.2681266249856,203.18803583333116,203.2681266249856,203.2681266249856,203.2681266249856,203.18803583333116,203.2681266249856,203.2681266249856,203.2681266249856,205.35521604199312,,203.2681266249856,203.2681266249856,208.42373249999946,203.2681266249856,203.2681266249856,203.2681266249856,203.2681266249856,203.73387324999203,204.79937849999988,203.7038711256503,,205.35521604199312,206.42919541700394,205.32512870864983,,203.2681266249856,208.42373249999946,203.2681266249856,208.42373249999946,208.46504141698824,209.1188293749874,203.2681266249856,2,1,0.5536620829952881,reldom2_s031,001,2025-02-25_12h20.18.399,What-B-Scan_AC,2022.2.5,None,
0,0.0,None,fixation,stimulus/viswhat_stim/blank_white.png,stimulus/viswhat_stim/blank_white.png,stimulus/audwhat_stim/blank_white.png,stimulus/audwhat_stim/blank_white.png,stimulus/viswhat_stim/blank_white.png,stimulus/viswhat_stim/blank_white.png,stimulus/viswhat_stim/blank_white.png,stimulus/viswhat_stim/blank_white.png,0.0,0.0,0.0,0.0,0,0.0,0,0.0,0,0.0,0,0.0,0,0.0,0.0,0,0.0,0,0.0,0,0.0,0,0.0,0,0.0,0,0.0,0,0.0,0,0.0,9,,,,,0,21,21,21,,,,,,,,,209.39354645900312,209.39354645900312,209.39354645900312,209.39354645900312,209.39354645900312,209.39354645900312,209.39354645900312,209.39354645900312,209.2927823333322,209.39354645900312,209.39354645900312,209.39354645900312,209.2927823333322,209.39354645900312,209.39354645900312,209.39354645900312,209.39354645900312,209.39354645900312,209.39354645900312,209.39354645900312,209.39354645900312,209.39354645900312,209.39354645900312,209.39354645900312,209.39354645900312,209.39354645900312,209.39354645900312,209.3427823333322,209.39354645900312,209.39354645900312,209.39354645900312,209.3427823333322,209.39354645900312,209.39354645900312,209.39354645900312,209.39354645900312,209.39354645900312,214.61845662500127,214.61845662500127,218.54450824999367,None,0,,reldom2_s031,001,2025-02-25_12h20.18.399,What-B-Scan_AC,2022.2.5,None,
17,Second_Order,3.0,audwhat,stimulus/audwhat_stim/percussion mallet_high-pitch_Ftri_loud.wav,stimulus/audwhat_stim/string cello_high-pitch_Ftri_loud.wav,stimulus/audwhat_stim/percussion mallet_low-pitch_D_loud.wav,stimulus/audwhat_stim/string viola_low-pitch_D_loud.wav,stimulus/viswhat_stim/match_blank.png,stimulus/viswhat_stim/match_box.png,stimulus/viswhat_stim/match_yes.png,stimulus/viswhat_stim/match_no.png,1.0,Match,Pitch,Pitch,1,5.125,0,5.125,0,5.125,0,5.125,0,0.75,0.75,0,0.0,0,0.0,0,0.0,0,0.0,1,0.5,1,2.125,1,0.5,1,2.125,0,,,,,0,22,22,22,,,,,,,,,218.54450824999367,223.6582400839834,218.54450824999367,218.54450824999367,218.54450824999367,218.54450824999367,218.99468400000478,219.98099037498469,219.00826741665176,,220.61701654200442,221.61465387500357,220.62911420865956,,223.6582400839834,224.50901445897762,226.5693097919866,230.49716258398257,224.50901445897762,224.50901445897762,229.69121679197997,224.50901445897762,224.50901445897762,224.50901445897762,224.50901445897762,224.96434062498156,226.01654354200582,224.93573233366286,,226.5693097919866,227.6297031249851,226.5397532916725,,224.50901445897762,229.69121679197997,224.50901445897762,229.69121679197997,229.69121679197997,,224.50901445897762,1,1,0.8547273750009481,reldom2_s031,001,2025-02-25_12h20.18.399,What-B-Scan_AC,2022.2.5,None,
18,Second_Order,3.0,audwhat,stimulus/audwhat_stim/percussion mallet_high-pitch_Dtri_loud.wav,stimulus/audwhat_stim/string cello_high-pitch_Dtri_loud.wav,stimulus/audwhat_stim/string viola_low-pitch_Ftri_loud.wav,stimulus/audwhat_stim/percussion mallet_low-pitch_Ftri_loud.wav,stimulus/viswhat_stim/match_blank.png,stimulus/viswhat_stim/match_box.png,stimulus/viswhat_stim/match_yes.png,stimulus/viswhat_stim/match_no.png,1.0,Match,Pitch,Pitch,1,5.125,0,5.125,0,5.125,0,5.125,0,0.625,0.625,0,0.0,0,0.0,0,0.0,0,0.0,1,0.5,1,2.125,1,0.5,1,2.125,0,,,,,0,23,23,23,,,,,,,,,230.49716258398257,235.62268679199042,230.49716258398257,230.49716258398257,230.49716258398257,230.49716258398257,230.95645987498574,231.95526004198473,230.96932629164465,,232.5779174589843,233.57593783398625,232.58970691665698,,235.62268679199042,236.35084850000567,238.39385629197932,242.4624828749802,236.35084850000567,236.35084850000567,241.50768195898854,236.35084850000567,236.35084850000567,236.35084850000567,236.35084850000567,236.80125412499183,237.84674770900165,236.77248283365432,,238.39385629197932,239.4497548340005,238.36451850066467,,236.35084850000567,241.50768195898854,236.35084850000567,241.50768195898854,241.50768195898854,242.19207495899172,236.35084850000567,2,0,0.9894436670001596,reldom2_s031,001,2025-02-25_12h20.18.399,What-B-Scan_AC,2022.2.5,None,
0,0.0,None,fixation,stimulus/viswhat_stim/blank_white.png,stimulus/viswhat_stim/blank_white.png,stimulus/audwhat_stim/blank_white.png,stimulus/audwhat_stim/blank_white.png,stimulus/viswhat_stim/blank_white.png,stimulus/viswhat_stim/blank_white.png,stimulus/viswhat_stim/blank_white.png,stimulus/viswhat_stim/blank_white.png,0.0,0.0,0.0,0.0,0,0.0,0,0.0,0,0.0,0,0.0,0,0.0,0.0,0,0.0,0,0.0,0,0.0,0,0.0,0,0.0,0,0.0,0,0.0,0,0.0,8,,,,,0,24,24,24,,,,,,,,,242.4624828749802,242.4624828749802,242.4624828749802,242.4624828749802,242.4624828749802,242.4624828749802,242.4624828749802,242.4624828749802,242.36498883331856,242.4624828749802,242.4624828749802,242.4624828749802,242.36498883331856,242.4624828749802,242.4624828749802,242.4624828749802,242.4624828749802,242.4624828749802,242.4624828749802,242.4624828749802,242.4624828749802,242.4624828749802,242.4624828749802,242.4624828749802,242.4624828749802,242.4624828749802,242.4624828749802,242.41498883331855,242.4624828749802,242.4624828749802,242.4624828749802,242.41498883331855,242.4624828749802,242.4624828749802,242.4624828749802,242.4624828749802,242.4624828749802,247.67438616699656,247.67438616699656,250.70684770899243,None,0,,reldom2_s031,001,2025-02-25_12h20.18.399,What-B-Scan_AC,2022.2.5,None,
19,First_Order,4.0,audwhat,stimulus/audwhat_stim/dummy.wav,stimulus/audwhat_stim/dummy.wav,stimulus/audwhat_stim/percussion mallet_low-pitch_Ftri_loud.wav,stimulus/audwhat_stim/string viola_low-pitch_Ftri_loud.wav,stimulus/audwhat_stim/blank_white.png,stimulus/audwhat_stim/pitch_box.png,stimulus/audwhat_stim/pitch_yes.png,stimulus/audwhat_stim/pitch_no.png,None,Pitch,None,Pitch,1,0.0,0,5.125,0,5.125,0,5.125,0,0.0,0.625,0,0.0,0,0.0,0,0.0,0,0.0,0,0.0,0,0.0,1,0.5,1,2.125,0,,,,,0,25,25,25,,,,,,,,,250.70684770899243,250.70684770899243,250.70684770899243,250.70684770899243,250.70684770899243,250.70684770899243,250.70684770899243,250.70684770899243,250.63531625065178,250.70684770899243,250.70684770899243,250.70684770899243,250.63531625065178,250.70684770899243,250.70684770899243,250.70684770899243,252.77855358397937,,250.70684770899243,250.70684770899243,255.8695176669862,250.70684770899243,250.70684770899243,250.70684770899243,250.70684770899243,251.16561887500575,252.22565391700482,251.13658304166555,,252.77855358397937,253.84343449998414,252.74895300064625,,250.70684770899243,255.8695176669862,250.70684770899243,255.8695176669862,255.91022229200462,256.59884529199917,250.70684770899243,1,1,2.3717829999804962,reldom2_s031,001,2025-02-25_12h20.18.399,What-B-Scan_AC,2022.2.5,None,
20,First_Order,4.0,audwhat,stimulus/audwhat_stim/dummy.wav,stimulus/audwhat_stim/dummy.wav,stimulus/audwhat_stim/string viola_low-pitch_F_loud.wav,stimulus/audwhat_stim/string cello_high-pitch_Ftri_loud.wav,stimulus/audwhat_stim/blank_white.png,stimulus/audwhat_stim/category_box.png,stimulus/audwhat_stim/category_yes.png,stimulus/audwhat_stim/category_no.png,None,Category,None,Category,1,0.0,0,5.125,0,5.125,0,5.125,0,0.0,0.625,0,0.0,0,0.0,0,0.0,0,0.0,0,0.0,0,0.0,1,0.5,1,2.125,0,,,,,0,26,26,26,,,,,,,,,256.810393458989,256.810393458989,256.810393458989,256.810393458989,256.810393458989,256.810393458989,256.810393458989,256.810393458989,256.7321786253325,256.810393458989,256.810393458989,256.810393458989,256.7321786253325,256.810393458989,256.810393458989,256.810393458989,258.90318733398453,,256.810393458989,256.810393458989,261.96455529198283,256.810393458989,256.810393458989,256.810393458989,256.810393458989,257.2757163749775,258.34604858400417,257.24569254165203,,258.90318733398453,259.9742071669898,258.8732100006639,,256.810393458989,261.96455529198283,256.810393458989,261.96455529198283,262.0058389999904,262.6594694170053,256.810393458989,1,1,0.5213055000058375,reldom2_s031,001,2025-02-25_12h20.18.399,What-B-Scan_AC,2022.2.5,None,
21,First_Order,4.0,audwhat,stimulus/audwhat_stim/dummy.wav,stimulus/audwhat_stim/dummy.wav,stimulus/audwhat_stim/string viola_high-pitch_F_loud.wav,stimulus/audwhat_stim/percussion mallet_high-pitch_F_loud.wav,stimulus/audwhat_stim/blank_white.png,stimulus/audwhat_stim/category_box.png,stimulus/audwhat_stim/category_yes.png,stimulus/audwhat_stim/category_no.png,None,Category,None,Pitch,2,0.0,0,5.125,0,5.125,0,5.125,0,0.0,0.625,0,0.0,0,0.0,0,0.0,0,0.0,0,0.0,0,0.0,1,0.5,1,2.125,0,,,,,0,27,27,27,,,,,,,,,262.91491049999604,262.91491049999604,262.91491049999604,262.91491049999604,262.91491049999604,262.91491049999604,262.91491049999604,262.91491049999604,262.8336001253357,262.91491049999604,262.91491049999604,262.91491049999604,262.8336001253357,262.91491049999604,262.91491049999604,262.91491049999604,265.005492708995,,262.91491049999604,262.91491049999604,268.07547137499205,262.91491049999604,262.91491049999604,262.91491049999604,262.91491049999604,263.37945695899543,264.45010837499285,263.349445000644,,265.005492708995,266.0776119589864,264.97549162566816,,262.91491049999604,268.07547137499205,262.91491049999604,268.07547137499205,268.1166503749846,268.76944620898576,262.91491049999604,2,1,0.5797432079853024,reldom2_s031,001,2025-02-25_12h20.18.399,What-B-Scan_AC,2022.2.5,None,
22,First_Order,4.0,audwhat,stimulus/audwhat_stim/dummy.wav,stimulus/audwhat_stim/dummy.wav,stimulus/audwhat_stim/percussion xylophone_high-pitch_D_loud.wav,stimulus/audwhat_stim/percussion mallet_low-pitch_F_loud.wav,stimulus/audwhat_stim/blank_white.png,stimulus/audwhat_stim/pitch_box.png,stimulus/audwhat_stim/pitch_yes.png,stimulus/audwhat_stim/pitch_no.png,None,Pitch,None,Category,2,0.0,0,5.125,0,5.125,0,5.125,0,0.0,0.625,0,0.0,0,0.0,0,0.0,0,0.0,0,0.0,0,0.0,1,0.5,1,2.125,0,,,,,0,28,28,28,,,,,,,,,269.02360212500207,269.02360212500207,269.02360212500207,269.02360212500207,269.02360212500207,269.02360212500207,269.02360212500207,269.02360212500207,268.9435141673331,269.02360212500207,269.02360212500207,269.02360212500207,268.9435141673331,269.02360212500207,269.02360212500207,269.02360212500207,271.105106959003,,269.02360212500207,269.02360212500207,274.210629084002,269.02360212500207,269.02360212500207,269.02360212500207,269.02360212500207,269.4880209589901,270.5519450419815,269.4585637086459,270.5059495839814,271.105106959003,272.17521862499416,271.07588745866474,,269.02360212500207,274.210629084002,269.02360212500207,274.210629084002,274.2517745840014,274.903079583979,269.02360212500207,2,1,0.9048500000208151,reldom2_s031,001,2025-02-25_12h20.18.399,What-B-Scan_AC,2022.2.5,None,
0,0.0,None,fixation,stimulus/viswhat_stim/blank_white.png,stimulus/viswhat_stim/blank_white.png,stimulus/audwhat_stim/blank_white.png,stimulus/audwhat_stim/blank_white.png,stimulus/viswhat_stim/blank_white.png,stimulus/viswhat_stim/blank_white.png,stimulus/viswhat_stim/blank_white.png,stimulus/viswhat_stim/blank_white.png,0.0,0.0,0.0,0.0,0,0.0,0,0.0,0,0.0,0,0.0,0,0.0,0.0,0,0.0,0,0.0,0,0.0,0,0.0,0,0.0,0,0.0,0,0.0,0,0.0,10,,,,,0,29,29,29,,,,,,,,,275.13564337498974,275.13564337498974,275.13564337498974,275.13564337498974,275.13564337498974,275.13564337498974,275.13564337498974,275.13564337498974,275.0364129173123,275.13564337498974,275.13564337498974,275.13564337498974,275.0364129173123,275.13564337498974,275.13564337498974,275.13564337498974,275.13564337498974,275.13564337498974,275.13564337498974,275.13564337498974,275.13564337498974,275.13564337498974,275.13564337498974,275.13564337498974,275.13564337498974,275.13564337498974,275.13564337498974,275.0864129173123,275.13564337498974,275.13564337498974,275.13564337498974,275.0864129173123,275.13564337498974,275.13564337498974,275.13564337498974,275.13564337498974,275.13564337498974,280.35929766698973,280.35929766698973,285.29469949999475,None,0,,reldom2_s031,001,2025-02-25_12h20.18.399,What-B-Scan_AC,2022.2.5,None,
23,Second_Order,4.0,audwhat,stimulus/audwhat_stim/percussion mallet_high-pitch_Ftri_loud.wav,stimulus/audwhat_stim/percussion mallet_low-pitch_Dtri_loud.wav,stimulus/audwhat_stim/percussion mallet_high-pitch_D_loud.wav,stimulus/audwhat_stim/string viola_high-pitch_D_loud.wav,stimulus/viswhat_stim/match_blank.png,stimulus/viswhat_stim/match_box.png,stimulus/viswhat_stim/match_yes.png,stimulus/viswhat_stim/match_no.png,2.0,Match,Category,Pitch,2,5.125,0,5.125,0,5.125,0,5.125,0,0.75,0.75,0,0.0,0,0.0,0,0.0,0,0.0,1,0.5,1,2.125,1,0.5,1,2.125,0,,,,,0,30,30,30,,,,,,,,,285.29469949999475,290.4122353339917,285.29469949999475,285.29469949999475,285.29469949999475,285.29469949999475,285.74822733399924,286.735857208987,285.7625229586595,,287.37023291699006,288.3688525839825,287.3827959586672,,290.4122353339917,291.2646490839834,293.3354636669974,,291.2646490839834,291.2646490839834,296.4291793339944,291.2646490839834,291.2646490839834,291.2646490839834,291.2646490839834,291.67847625000286,292.7366461670026,291.64891879164884,,293.3354636669974,294.4003185000038,293.30589166665254,,291.2646490839834,296.4291793339944,291.2646490839834,296.4291793339944,296.4291793339944,,291.2646490839834,1,0,0.635328833013773,reldom2_s031,001,2025-02-25_12h20.18.399,What-B-Scan_AC,2022.2.5,None,
24,Second_Order,4.0,audwhat,stimulus/audwhat_stim/string viola_high-pitch_Dtri_loud.wav,stimulus/audwhat_stim/percussion mallet_high-pitch_Dtri_loud.wav,stimulus/audwhat_stim/string cello_low-pitch_Dtri_loud.wav,stimulus/audwhat_stim/string viola_high-pitch_Ftri_loud.wav,stimulus/viswhat_stim/match_blank.png,stimulus/viswhat_stim/match_box.png,stimulus/viswhat_stim/match_yes.png,stimulus/viswhat_stim/match_no.png,2.0,Match,Pitch,Category,2,5.125,0,5.125,0,5.125,0,5.125,0,0.625,0.625,0,0.0,0,0.0,0,0.0,0,0.0,1,0.5,1,2.125,1,0.5,1,2.125,0,,,,,0,31,31,31,,,,,,,,,297.23407591698924,302.3557044999907,297.23407591698924,297.23407591698924,297.23407591698924,297.23407591698924,297.6939730839804,298.69280037499266,297.7071041666534,,299.31573395899613,300.31330808400526,299.32749262566017,,302.3557044999907,303.08653691699146,305.13837137498194,,303.08653691699146,303.08653691699146,308.25201999998535,303.08653691699146,303.08653691699146,303.08653691699146,303.08653691699146,303.54055962499115,304.58939470897894,303.51139250066285,,305.13837137498194,306.1939799590036,305.10918133365726,,303.08653691699146,308.25201999998535,303.08653691699146,308.25201999998535,308.25201999998535,308.9359461249842,303.08653691699146,1,0,0.7722417500044685,reldom2_s031,001,2025-02-25_12h20.18.399,What-B-Scan_AC,2022.2.5,None,
0,0.0,None,fixation,stimulus/viswhat_stim/blank_white.png,stimulus/viswhat_stim/blank_white.png,stimulus/audwhat_stim/blank_white.png,stimulus/audwhat_stim/blank_white.png,stimulus/viswhat_stim/blank_white.png,stimulus/viswhat_stim/blank_white.png,stimulus/viswhat_stim/blank_white.png,stimulus/viswhat_stim/blank_white.png,0.0,0.0,0.0,0.0,0,0.0,0,0.0,0,0.0,0,0.0,0,0.0,0.0,0,0.0,0,0.0,0,0.0,0,0.0,0,0.0,0,0.0,0,0.0,0,0.0,9,,,,,0,32,32,32,,,,,,,,,309.16678358399076,309.16678358399076,309.16678358399076,309.16678358399076,309.16678358399076,309.16678358399076,309.16678358399076,309.16678358399076,309.0692794583175,309.16678358399076,309.16678358399076,309.16678358399076,309.0692794583175,309.16678358399076,309.16678358399076,309.16678358399076,309.16678358399076,309.16678358399076,309.16678358399076,309.16678358399076,309.16678358399076,309.16678358399076,309.16678358399076,309.16678358399076,309.16678358399076,309.16678358399076,309.16678358399076,309.1192794583175,309.16678358399076,309.16678358399076,309.16678358399076,309.1192794583175,309.16678358399076,309.16678358399076,309.16678358399076,309.16678358399076,309.16678358399076,314.3904008749814,314.3904008749814,318.46372670898563,None,0,,reldom2_s031,001,2025-02-25_12h20.18.399,What-B-Scan_AC,2022.2.5,None,
25,First_Order,5.0,viswhat,stimulus/viswhat_stim/blank_white.png,stimulus/viswhat_stim/blank_white.png,stimulus/viswhat_stim/land_animal-elephant.png,stimulus/viswhat_stim/land_vehicle-firetruck.png,stimulus/viswhat_stim/blank_white.png,stimulus/viswhat_stim/location_box.png,stimulus/viswhat_stim/location_yes.png,stimulus/viswhat_stim/location_no.png,None,Location,None,Location,1,0.0,0,5.125,0,5.125,0,5.125,0,0.0,0.625,0,0.0,0,0.0,1,0.5,1,2.125,0,0.0,0,0.0,0,0.0,0,0.0,0,,,,,0,33,33,33,,,,,,,,,318.46372670898563,318.46372670898563,318.46372670898563,318.46372670898563,318.46372670898563,318.46372670898563,318.46372670898563,318.46372670898563,318.3633229586509,318.46372670898563,318.46372670898563,318.46372670898563,318.3633229586509,318.46372670898563,318.46372670898563,318.46372670898563,320.53522716698353,,318.46372670898563,318.46372670898563,323.6695331670053,318.9373557920044,320.00335370900575,320.53522716698353,321.6035431670025,318.46372670898563,318.46372670898563,318.4133229586509,318.46372670898563,318.46372670898563,318.46372670898563,318.4133229586509,318.46372670898563,318.46372670898563,323.6695331670053,318.46372670898563,323.6695331670053,323.6695331670053,324.5037354590022,318.46372670898563,1,1,0.5750423750141636,reldom2_s031,001,2025-02-25_12h20.18.399,What-B-Scan_AC,2022.2.5,None,
26,First_Order,5.0,viswhat,stimulus/viswhat_stim/blank_white.png,stimulus/viswhat_stim/blank_white.png,stimulus/viswhat_stim/land_vehicle-tank.png,stimulus/viswhat_stim/land_animal-pig.png,stimulus/viswhat_stim/blank_white.png,stimulus/viswhat_stim/type_box.png,stimulus/viswhat_stim/type_yes.png,stimulus/viswhat_stim/type_no.png,None,Type,None,Location,2,0.0,0,5.125,0,5.125,0,5.125,0,0.0,0.625,0,0.0,0,0.0,1,0.5,1,2.125,0,0.0,0,0.0,0,0.0,0,0.0,0,,,,,0,34,34,34,,,,,,,,,324.5037354590022,324.5037354590022,324.5037354590022,324.5037354590022,324.5037354590022,324.5037354590022,324.5037354590022,324.5037354590022,324.4799692916664,324.5037354590022,324.5037354590022,324.5037354590022,324.4799692916664,324.5037354590022,324.5037354590022,324.5037354590022,326.60292804200435,330.6565225420054,324.5037354590022,324.5037354590022,329.63280533399666,324.98398624997935,325.99158299999544,326.60292804200435,327.615377124981,324.5037354590022,324.5037354590022,324.4966359583331,324.5037354590022,324.5037354590022,324.5037354590022,324.4966359583331,324.5037354590022,324.5037354590022,329.63280533399666,324.5037354590022,329.63280533399666,329.7325768339797,330.3673841669806,324.5037354590022,2,1,2.75896516701323,reldom2_s031,001,2025-02-25_12h20.18.399,What-B-Scan_AC,2022.2.5,None,
27,First_Order,5.0,viswhat,stimulus/viswhat_stim/blank_white.png,stimulus/viswhat_stim/blank_white.png,stimulus/viswhat_stim/land_animal-moose.png,stimulus/viswhat_stim/land_vehicle-vespa.png,stimulus/viswhat_stim/blank_white.png,stimulus/viswhat_stim/location_box.png,stimulus/viswhat_stim/location_yes.png,stimulus/viswhat_stim/location_no.png,None,Location,None,Location,1,0.0,0,5.125,0,5.125,0,5.125,0,0.0,0.625,0,0.0,0,0.0,1,0.5,1,2.125,0,0.0,0,0.0,0,0.0,0,0.0,0,,,,,0,35,35,35,,,,,,,,,330.6565225420054,330.6565225420054,330.6565225420054,330.6565225420054,330.6565225420054,330.6565225420054,330.6565225420054,330.6565225420054,330.5341641253229,330.6565225420054,330.6565225420054,330.6565225420054,330.5341641253229,330.6565225420054,330.6565225420054,330.6565225420054,332.7314562090032,,330.6565225420054,330.6565225420054,335.87310699999216,331.12502725000377,332.19628041700344,332.7314562090032,333.8060367500002,330.6565225420054,330.6565225420054,330.60083079198955,330.6565225420054,330.6565225420054,330.6565225420054,330.60083079198955,330.6565225420054,330.6565225420054,335.87310699999216,330.6565225420054,335.87310699999216,335.87310699999216,336.75785633397754,330.6565225420054,1,1,0.5226210000109859,reldom2_s031,001,2025-02-25_12h20.18.399,What-B-Scan_AC,2022.2.5,None,
28,First_Order,5.0,viswhat,stimulus/viswhat_stim/blank_white.png,stimulus/viswhat_stim/blank_white.png,stimulus/viswhat_stim/land_animal-giraffe.png,stimulus/viswhat_stim/water_animal-squid.png,stimulus/viswhat_stim/blank_white.png,stimulus/viswhat_stim/location_box.png,stimulus/viswhat_stim/location_yes.png,stimulus/viswhat_stim/location_no.png,None,Location,None,Type,2,0.0,0,5.125,0,5.125,0,5.125,0,0.0,0.625,0,0.0,0,0.0,1,0.5,1,2.125,0,0.0,0,0.0,0,0.0,0,0.0,0,,,,,0,36,36,36,,,,,,,,,336.75785633397754,336.75785633397754,336.75785633397754,336.75785633397754,336.75785633397754,336.75785633397754,336.75785633397754,336.75785633397754,336.66720766732664,336.75785633397754,336.75785633397754,336.75785633397754,336.66720766732664,336.75785633397754,336.75785633397754,336.75785633397754,338.85772312499466,342.8930578339787,336.75785633397754,336.75785633397754,341.94904204198974,337.1989905840019,338.25036695899325,338.85772312499466,339.9129282920039,336.75785633397754,336.75785633397754,336.7172076673266,336.75785633397754,336.75785633397754,336.75785633397754,336.7172076673266,336.75785633397754,336.75785633397754,341.94904204198974,336.75785633397754,341.94904204198974,341.94904204198974,342.6406198339828,336.75785633397754,2,1,0.8876984590024222,reldom2_s031,001,2025-02-25_12h20.18.399,What-B-Scan_AC,2022.2.5,None,
0,0.0,None,fixation,stimulus/viswhat_stim/blank_white.png,stimulus/viswhat_stim/blank_white.png,stimulus/audwhat_stim/blank_white.png,stimulus/audwhat_stim/blank_white.png,stimulus/viswhat_stim/blank_white.png,stimulus/viswhat_stim/blank_white.png,stimulus/viswhat_stim/blank_white.png,stimulus/viswhat_stim/blank_white.png,0.0,0.0,0.0,0.0,0,0.0,0,0.0,0,0.0,0,0.0,0,0.0,0.0,0,0.0,0,0.0,0,0.0,0,0.0,0,0.0,0,0.0,0,0.0,0,0.0,9,,,,,0,37,37,37,,,,,,,,,342.8930578339787,342.8930578339787,342.8930578339787,342.8930578339787,342.8930578339787,342.8930578339787,342.8930578339787,342.8930578339787,342.79061983398276,342.8930578339787,342.8930578339787,342.8930578339787,342.79061983398276,342.8930578339787,342.8930578339787,342.8930578339787,342.8930578339787,342.8930578339787,342.8930578339787,342.8930578339787,342.8930578339787,342.8930578339787,342.8930578339787,342.8930578339787,342.8930578339787,342.8930578339787,342.8930578339787,342.84061983398277,342.8930578339787,342.8930578339787,342.8930578339787,342.84061983398277,342.8930578339787,342.8930578339787,342.8930578339787,342.8930578339787,342.8930578339787,348.0733753340028,348.0733753340028,352.04900237498805,None,0,,reldom2_s031,001,2025-02-25_12h20.18.399,What-B-Scan_AC,2022.2.5,None,
29,Second_Order,5.0,viswhat,stimulus/viswhat_stim/water_vehicle-pirateship.png,stimulus/viswhat_stim/land_vehicle-schoolbus.png,stimulus/viswhat_stim/water_animal-dolphin.png,stimulus/viswhat_stim/land_animal-cat.png,stimulus/viswhat_stim/match_blank.png,stimulus/viswhat_stim/match_box.png,stimulus/viswhat_stim/match_yes.png,stimulus/viswhat_stim/match_no.png,1.0,Match,Type,Type,1,5.125,0,5.125,0,5.125,0,5.125,0,0.75,0.75,1,0.5,1,2.125,1,0.5,1,2.125,0,0.0,0,0.0,0,0.0,0,0.0,0,,,,,0,38,38,38,,,,,,,,,352.04900237498805,357.1666467920004,352.5209116670012,353.5192221250036,354.14172062498983,355.13942941700225,352.04900237498805,352.04900237498805,352.0547264583312,352.04900237498805,352.04900237498805,352.04900237498805,352.0547264583312,352.04900237498805,357.1666467920004,357.9889914999949,360.06094670898165,364.0270056249865,357.9889914999949,357.9889914999949,363.1298557499831,358.4332800839911,359.45317220900324,360.06094670898165,361.08502874997794,357.9889914999949,357.9889914999949,357.96656533367155,357.9889914999949,357.9889914999949,357.9889914999949,357.96656533367155,357.9889914999949,357.9889914999949,363.1298557499831,357.9889914999949,363.1298557499831,363.1829826250032,,357.9889914999949,1,1,1.114308374992106,reldom2_s031,001,2025-02-25_12h20.18.399,What-B-Scan_AC,2022.2.5,None,
30,Second_Order,5.0,viswhat,stimulus/viswhat_stim/water_animal-orka.png,stimulus/viswhat_stim/land_animal-bunny.png,stimulus/viswhat_stim/land_vehicle-motorcycle.png,stimulus/viswhat_stim/water_vehicle-motorboatraft.png,stimulus/viswhat_stim/match_blank.png,stimulus/viswhat_stim/match_box.png,stimulus/viswhat_stim/match_yes.png,stimulus/viswhat_stim/match_no.png,1.0,Match,Type,Type,1,5.125,0,5.125,0,5.125,0,5.125,0,0.625,0.625,1,0.5,1,2.125,1,0.5,1,2.125,0,0.0,0,0.0,0,0.0,0,0.0,0,,,,,0,39,39,39,,,,,,,,,364.0270056249865,369.1433659589966,364.4299459999893,365.4167626249837,366.06508783399477,367.0541429169825,364.0270056249865,364.0270056249865,364.0416547919798,364.0270056249865,364.0270056249865,364.0270056249865,364.0416547919798,364.0270056249865,369.1433659589966,369.8373249169963,371.91182654199656,375.9517225000018,369.8373249169963,369.8373249169963,374.9753363339987,370.28039633398294,371.31763424997916,371.91182654199656,372.92598741699476,369.8373249169963,369.8373249169963,369.80671074999265,369.8373249169963,369.8373249169963,369.8373249169963,369.80671074999265,369.8373249169963,369.8373249169963,374.9753363339987,369.8373249169963,374.9753363339987,375.0235412089969,375.67318754197913,369.8373249169963,1,1,0.875156916998094,reldom2_s031,001,2025-02-25_12h20.18.399,What-B-Scan_AC,2022.2.5,None,
0,0.0,None,fixation,stimulus/viswhat_stim/blank_white.png,stimulus/viswhat_stim/blank_white.png,stimulus/audwhat_stim/blank_white.png,stimulus/audwhat_stim/blank_white.png,stimulus/viswhat_stim/blank_white.png,stimulus/viswhat_stim/blank_white.png,stimulus/viswhat_stim/blank_white.png,stimulus/viswhat_stim/blank_white.png,0.0,0.0,0.0,0.0,0,0.0,0,0.0,0,0.0,0,0.0,0,0.0,0.0,0,0.0,0,0.0,0,0.0,0,0.0,0,0.0,0,0.0,0,0.0,0,0.0,9,,,,,0,40,40,40,,,,,,,,,375.9517225000018,375.9517225000018,375.9517225000018,375.9517225000018,375.9517225000018,375.9517225000018,375.9517225000018,375.9517225000018,375.86163341667077,375.9517225000018,375.9517225000018,375.9517225000018,375.86163341667077,375.9517225000018,375.9517225000018,375.9517225000018,375.9517225000018,375.9517225000018,375.9517225000018,375.9517225000018,375.9517225000018,375.9517225000018,375.9517225000018,375.9517225000018,375.9517225000018,375.9517225000018,375.9517225000018,375.9116334166707,375.9517225000018,375.9517225000018,375.9517225000018,375.9116334166707,375.9517225000018,375.9517225000018,375.9517225000018,375.9517225000018,375.9517225000018,381.1330763750011,381.1330763750011,385.2135996669822,None,0,,reldom2_s031,001,2025-02-25_12h20.18.399,What-B-Scan_AC,2022.2.5,None,
31,First_Order,6.0,viswhat,stimulus/viswhat_stim/blank_white.png,stimulus/viswhat_stim/blank_white.png,stimulus/viswhat_stim/water_vehicle-ship.png,stimulus/viswhat_stim/land_vehicle-schoolbus.png,stimulus/viswhat_stim/blank_white.png,stimulus/viswhat_stim/location_box.png,stimulus/viswhat_stim/location_yes.png,stimulus/viswhat_stim/location_no.png,None,Location,None,Type,2,0.0,0,5.125,0,5.125,0,5.125,0,0.0,0.625,0,0.0,0,0.0,1,0.5,1,2.125,0,0.0,0,0.0,0,0.0,0,0.0,0,,,,,0,41,41,41,,,,,,,,,385.2135996669822,385.2135996669822,385.2135996669822,385.2135996669822,385.2135996669822,385.2135996669822,385.2135996669822,385.2135996669822,385.11194025065436,385.2135996669822,385.2135996669822,385.2135996669822,385.11194025065436,385.2135996669822,385.2135996669822,385.2135996669822,387.31764316698536,391.29344629199477,385.2135996669822,385.2135996669822,390.3804163750028,385.6951669169939,386.7773485420039,387.31764316698536,388.40310012499685,385.2135996669822,385.2135996669822,385.16194025065437,385.2135996669822,385.2135996669822,385.2135996669822,385.16194025065437,385.2135996669822,385.2135996669822,390.3804163750028,385.2135996669822,390.3804163750028,390.4348480000044,391.29344629199477,385.2135996669822,2,1,0.8276924170204438,reldom2_s031,001,2025-02-25_12h20.18.399,What-B-Scan_AC,2022.2.5,None,
32,First_Order,6.0,viswhat,stimulus/viswhat_stim/blank_white.png,stimulus/viswhat_stim/blank_white.png,stimulus/viswhat_stim/land_vehicle-bus.png,stimulus/viswhat_stim/water_vehicle-jetski.png,stimulus/viswhat_stim/blank_white.png,stimulus/viswhat_stim/type_box.png,stimulus/viswhat_stim/type_yes.png,stimulus/viswhat_stim/type_no.png,None,Type,None,Type,1,0.0,0,5.125,0,5.125,0,5.125,0,0.0,0.625,0,0.0,0,0.0,1,0.5,1,2.125,0,0.0,0,0.0,0,0.0,0,0.0,0,,,,,0,42,42,42,,,,,,,,,391.29344629199477,391.29344629199477,391.29344629199477,391.29344629199477,391.29344629199477,391.29344629199477,391.29344629199477,391.29344629199477,391.2529400006557,391.29344629199477,391.29344629199477,391.29344629199477,391.2529400006557,391.29344629199477,391.29344629199477,391.29344629199477,393.3933899999829,397.38180841700523,391.29344629199477,391.29344629199477,396.43040637500235,391.759915542003,392.7823837499891,393.3933899999829,394.4213245839928,391.29344629199477,391.29344629199477,391.2696066673224,391.29344629199477,391.29344629199477,391.29344629199477,391.2696066673224,391.29344629199477,391.29344629199477,396.43040637500235,391.29344629199477,396.43040637500235,396.5011294169817,397.13305708399275,391.29344629199477,1,1,0.6024884590005968,reldom2_s031,001,2025-02-25_12h20.18.399,What-B-Scan_AC,2022.2.5,None,
33,First_Order,6.0,viswhat,stimulus/viswhat_stim/blank_white.png,stimulus/viswhat_stim/blank_white.png,stimulus/viswhat_stim/water_animal-seahorse.png,stimulus/viswhat_stim/water_vehicle-cabincruiser.png,stimulus/viswhat_stim/blank_white.png,stimulus/viswhat_stim/type_box.png,stimulus/viswhat_stim/type_yes.png,stimulus/viswhat_stim/type_no.png,None,Type,None,Location,2,0.0,0,5.125,0,5.125,0,5.125,0,0.0,0.625,0,0.0,0,0.0,1,0.5,1,2.125,0,0.0,0,0.0,0,0.0,0,0.0,0,,,,,0,43,43,43,,,,,,,,,397.38180841700523,397.38180841700523,397.38180841700523,397.38180841700523,397.38180841700523,397.38180841700523,397.38180841700523,397.38180841700523,397.32687341697743,397.38180841700523,397.38180841700523,397.38180841700523,397.32687341697743,397.38180841700523,397.38180841700523,397.38180841700523,399.4889241250057,403.4959725420049,397.38180841700523,397.38180841700523,402.53304312500404,397.8662757499842,398.90289208397735,399.4889241250057,400.5325757089886,397.38180841700523,397.38180841700523,397.3602067503108,397.38180841700523,397.38180841700523,397.38180841700523,397.3602067503108,397.38180841700523,397.38180841700523,402.53304312500404,397.38180841700523,402.53304312500404,402.59103612499894,403.2273639169871,397.38180841700523,2,1,0.7437717919819988,reldom2_s031,001,2025-02-25_12h20.18.399,What-B-Scan_AC,2022.2.5,None,
34,First_Order,6.0,viswhat,stimulus/viswhat_stim/blank_white.png,stimulus/viswhat_stim/blank_white.png,stimulus/viswhat_stim/land_animal-tiger.png,stimulus/viswhat_stim/water_animal-octopus.png,stimulus/viswhat_stim/blank_white.png,stimulus/viswhat_stim/type_box.png,stimulus/viswhat_stim/type_yes.png,stimulus/viswhat_stim/type_no.png,None,Type,None,Type,1,0.0,0,5.125,0,5.125,0,5.125,0,0.0,0.625,0,0.0,0,0.0,1,0.5,1,2.125,0,0.0,0,0.0,0,0.0,0,0.0,0,,,,,0,44,44,44,,,,,,,,,403.4959725420049,403.4959725420049,403.4959725420049,403.4959725420049,403.4959725420049,403.4959725420049,403.4959725420049,403.4959725420049,403.42992241665877,403.4959725420049,403.4959725420049,403.4959725420049,403.42992241665877,403.4959725420049,403.4959725420049,403.4959725420049,405.6033463749918,409.63636908397893,403.4959725420049,403.4959725420049,408.6561882919923,403.97133062500507,405.00288891699165,405.6033463749918,406.64051191697945,403.4959725420049,403.4959725420049,403.4632557499921,403.4959725420049,403.4959725420049,403.4959725420049,403.4632557499921,403.4959725420049,403.4959725420049,408.6561882919923,403.4959725420049,408.6561882919923,408.6938829169958,409.36776708398247,403.4959725420049,1,1,0.9562644160178024,reldom2_s031,001,2025-02-25_12h20.18.399,What-B-Scan_AC,2022.2.5,None,
0,0.0,None,fixation,stimulus/viswhat_stim/blank_white.png,stimulus/viswhat_stim/blank_white.png,stimulus/audwhat_stim/blank_white.png,stimulus/audwhat_stim/blank_white.png,stimulus/viswhat_stim/blank_white.png,stimulus/viswhat_stim/blank_white.png,stimulus/viswhat_stim/blank_white.png,stimulus/viswhat_stim/blank_white.png,0.0,0.0,0.0,0.0,0,0.0,0,0.0,0,0.0,0,0.0,0,0.0,0.0,0,0.0,0,0.0,0,0.0,0,0.0,0,0.0,0,0.0,0,0.0,0,0.0,8,,,,,0,45,45,45,,,,,,,,,409.63636908397893,409.63636908397893,409.63636908397893,409.63636908397893,409.63636908397893,409.63636908397893,409.63636908397893,409.63636908397893,409.53822908332415,409.63636908397893,409.63636908397893,409.63636908397893,409.53822908332415,409.63636908397893,409.63636908397893,409.63636908397893,409.63636908397893,409.63636908397893,409.63636908397893,409.63636908397893,409.63636908397893,409.63636908397893,409.63636908397893,409.63636908397893,409.63636908397893,409.63636908397893,409.63636908397893,409.58822908332417,409.63636908397893,409.63636908397893,409.63636908397893,409.58822908332417,409.63636908397893,409.63636908397893,409.63636908397893,409.63636908397893,409.63636908397893,414.8184551250015,414.8184551250015,417.7678694999777,None,0,,reldom2_s031,001,2025-02-25_12h20.18.399,What-B-Scan_AC,2022.2.5,None,
35,Second_Order,6.0,viswhat,stimulus/viswhat_stim/land_animal-wolf.png,stimulus/viswhat_stim/land_vehicle-schoolbus.png,stimulus/viswhat_stim/water_animal-shark.png,stimulus/viswhat_stim/water_vehicle-ship.png,stimulus/viswhat_stim/match_blank.png,stimulus/viswhat_stim/match_box.png,stimulus/viswhat_stim/match_yes.png,stimulus/viswhat_stim/match_no.png,1.0,Match,Location,Location,1,5.125,0,5.125,0,5.125,0,5.125,0,0.75,0.75,1,0.5,1,2.125,1,0.5,1,2.125,0,0.0,0,0.0,0,0.0,0,0.0,0,,,,,0,46,46,46,,,,,,,,,417.7678694999777,422.8851402089931,418.2392452089989,419.2378735420061,419.86011845897883,420.8582421669853,417.7678694999777,417.7678694999777,417.77671300032137,417.7678694999777,417.7678694999777,417.7678694999777,417.77671300032137,417.7678694999777,422.8851402089931,423.7838225000014,425.8034225839947,,423.7838225000014,423.7838225000014,429.00814608400105,424.20060358400224,425.3151803340006,425.8034225839947,426.9208947499865,423.7838225000014,423.7838225000014,423.7212783749797,423.7838225000014,423.7838225000014,423.7838225000014,423.7212783749797,423.7838225000014,423.7838225000014,429.00814608400105,423.7838225000014,429.00814608400105,428.9443586249836,,423.7838225000014,1,1,1.0104769579775166,reldom2_s031,001,2025-02-25_12h20.18.399,What-B-Scan_AC,2022.2.5,None,
36,Second_Order,6.0,viswhat,stimulus/viswhat_stim/land_vehicle-oldcar.png,stimulus/viswhat_stim/land_animal-cat.png,stimulus/viswhat_stim/water_vehicle-cargoboat.png,stimulus/viswhat_stim/water_animal-orka.png,stimulus/viswhat_stim/match_blank.png,stimulus/viswhat_stim/match_box.png,stimulus/viswhat_stim/match_yes.png,stimulus/viswhat_stim/match_no.png,1.0,Match,Location,Location,1,5.125,0,5.125,0,5.125,0,5.125,0,0.625,0.625,1,0.5,1,2.125,1,0.5,1,2.125,0,0.0,0,0.0,0,0.0,0,0.0,0,,,,,0,47,47,47,,,,,,,,,429.75056124999537,434.87391837500036,430.19885679200524,431.1857487919915,431.82166816698737,432.81927966699004,429.75056124999537,429.75056124999537,429.75010358365637,429.75056124999537,429.75056124999537,429.75056124999537,429.75010358365637,429.75056124999537,434.87391837500036,435.654967459006,437.6876557499927,,435.654967459006,435.654967459006,440.8490460839821,436.0466551249847,437.0948579169926,437.6876557499927,438.7457130840048,435.654967459006,435.654967459006,435.59238545898694,435.654967459006,435.654967459006,435.654967459006,435.59238545898694,435.654967459006,435.654967459006,440.8490460839821,435.654967459006,440.8490460839821,440.8490460839821,,435.654967459006,1,1,0.7672798749990761,reldom2_s031,001,2025-02-25_12h20.18.399,What-B-Scan_AC,2022.2.5,None,
0,0.0,None,fixation,stimulus/viswhat_stim/blank_white.png,stimulus/viswhat_stim/blank_white.png,stimulus/audwhat_stim/blank_white.png,stimulus/audwhat_stim/blank_white.png,stimulus/viswhat_stim/blank_white.png,stimulus/viswhat_stim/blank_white.png,stimulus/viswhat_stim/blank_white.png,stimulus/viswhat_stim/blank_white.png,0.0,0.0,0.0,0.0,0,0.0,0,0.0,0,0.0,0,0.0,0,0.0,0.0,0,0.0,0,0.0,0,0.0,0,0.0,0,0.0,0,0.0,0,0.0,0,0.0,10,,,,,0,48,48,48,,,,,,,,,441.7288489170023,441.7288489170023,441.7288489170023,441.7288489170023,441.7288489170023,441.7288489170023,441.7288489170023,441.7288489170023,441.63374437532815,441.7288489170023,441.7288489170023,441.7288489170023,441.63374437532815,441.7288489170023,441.7288489170023,441.7288489170023,441.7288489170023,441.7288489170023,441.7288489170023,441.7288489170023,441.7288489170023,441.7288489170023,441.7288489170023,441.7288489170023,441.7288489170023,441.7288489170023,441.7288489170023,441.6837443753281,441.7288489170023,441.7288489170023,441.7288489170023,441.6837443753281,441.7288489170023,441.7288489170023,441.7288489170023,441.7288489170023,441.7288489170023,446.92031708400464,446.92031708400464,451.9912754590041,None,0,,reldom2_s031,001,2025-02-25_12h20.18.399,What-B-Scan_AC,2022.2.5,None,
37,First_Order,7.0,audwhat,stimulus/audwhat_stim/dummy.wav,stimulus/audwhat_stim/dummy.wav,stimulus/audwhat_stim/string viola_low-pitch_Ftri_loud.wav,stimulus/audwhat_stim/string viola_high-pitch_Dtri_loud.wav,stimulus/audwhat_stim/blank_white.png,stimulus/audwhat_stim/category_box.png,stimulus/audwhat_stim/category_yes.png,stimulus/audwhat_stim/category_no.png,None,Category,None,Category,1,0.0,0,5.125,0,5.125,0,5.125,0,0.0,0.625,0,0.0,0,0.0,0,0.0,0,0.0,0,0.0,0,0.0,1,0.5,1,2.125,0,,,,,0,49,49,49,,,,,,,,,451.9912754590041,451.9912754590041,451.9912754590041,451.9912754590041,451.9912754590041,451.9912754590041,451.9912754590041,451.9912754590041,451.91979666666396,451.9912754590041,451.9912754590041,451.9912754590041,451.91979666666396,451.9912754590041,451.9912754590041,451.9912754590041,454.0877566669951,458.11339816698455,451.9912754590041,451.9912754590041,457.15991420898354,451.9912754590041,451.9912754590041,451.9912754590041,451.9912754590041,452.45717841698206,453.52839562500594,452.42690708366376,,454.0877566669951,455.1610912089818,454.0574971256467,,451.9912754590041,457.15991420898354,451.9912754590041,457.15991420898354,457.2009355420014,457.8582815839909,451.9912754590041,1,1,0.7078218329988886,reldom2_s031,001,2025-02-25_12h20.18.399,What-B-Scan_AC,2022.2.5,None,
38,First_Order,7.0,audwhat,stimulus/audwhat_stim/dummy.wav,stimulus/audwhat_stim/dummy.wav,stimulus/audwhat_stim/percussion mallet_high-pitch_D_loud.wav,stimulus/audwhat_stim/string viola_high-pitch_D_loud.wav,stimulus/audwhat_stim/blank_white.png,stimulus/audwhat_stim/pitch_box.png,stimulus/audwhat_stim/pitch_yes.png,stimulus/audwhat_stim/pitch_no.png,None,Pitch,None,Pitch,1,0.0,0,5.125,0,5.125,0,5.125,0,0.0,0.625,0,0.0,0,0.0,0,0.0,0,0.0,0,0.0,0,0.0,1,0.5,1,2.125,0,,,,,0,50,50,50,,,,,,,,,458.11339816698455,458.11339816698455,458.11339816698455,458.11339816698455,458.11339816698455,458.11339816698455,458.11339816698455,458.11339816698455,458.0328567083362,458.11339816698455,458.11339816698455,458.11339816698455,458.0328567083362,458.11339816698455,458.11339816698455,458.11339816698455,460.2007657089853,,458.11339816698455,458.11339816698455,463.2629474589776,458.11339816698455,458.11339816698455,458.11339816698455,458.11339816698455,458.5799166249926,459.6459169999871,458.549815541661,,460.2007657089853,461.2705039999855,460.1707283336475,,458.11339816698455,463.2629474589776,458.11339816698455,463.2629474589776,463.30342566699255,463.9568330000038,458.11339816698455,1,1,2.0159622089995537,reldom2_s031,001,2025-02-25_12h20.18.399,What-B-Scan_AC,2022.2.5,None,
39,First_Order,7.0,audwhat,stimulus/audwhat_stim/dummy.wav,stimulus/audwhat_stim/dummy.wav,stimulus/audwhat_stim/string viola_low-pitch_Dtri_loud.wav,stimulus/audwhat_stim/percussion mallet_low-pitch_Dtri_loud.wav,stimulus/audwhat_stim/blank_white.png,stimulus/audwhat_stim/category_box.png,stimulus/audwhat_stim/category_yes.png,stimulus/audwhat_stim/category_no.png,None,Category,None,Pitch,2,0.0,0,5.125,0,5.125,0,5.125,0,0.0,0.625,0,0.0,0,0.0,0,0.0,0,0.0,0,0.0,0,0.0,1,0.5,1,2.125,0,,,,,0,51,51,51,,,,,,,,,464.2112872089783,464.2112872089783,464.2112872089783,464.2112872089783,464.2112872089783,464.2112872089783,464.2112872089783,464.2112872089783,464.13017395831605,464.2112872089783,464.2112872089783,464.2112872089783,464.13017395831605,464.2112872089783,464.2112872089783,464.2112872089783,466.3096036670031,470.33827720899717,464.2112872089783,464.2112872089783,469.38480954198167,464.2112872089783,464.2112872089783,464.2112872089783,464.2112872089783,464.67794020898873,465.7520092499908,464.64745470864386,,466.3096036670031,467.38332749999245,466.27945629167175,,464.2112872089783,469.38480954198167,464.2112872089783,469.38480954198167,469.4262276669906,470.08351545900223,464.2112872089783,2,1,1.861986333009554,reldom2_s031,001,2025-02-25_12h20.18.399,What-B-Scan_AC,2022.2.5,None,
40,First_Order,7.0,audwhat,stimulus/audwhat_stim/dummy.wav,stimulus/audwhat_stim/dummy.wav,stimulus/audwhat_stim/string viola_high-pitch_F_loud.wav,stimulus/audwhat_stim/string viola_low-pitch_Ftri_loud.wav,stimulus/audwhat_stim/blank_white.png,stimulus/audwhat_stim/pitch_box.png,stimulus/audwhat_stim/pitch_yes.png,stimulus/audwhat_stim/pitch_no.png,None,Pitch,None,Category,2,0.0,0,5.125,0,5.125,0,5.125,0,0.0,0.625,0,0.0,0,0.0,0,0.0,0,0.0,0,0.0,0,0.0,1,0.5,1,2.125,0,,,,,0,52,52,52,,,,,,,,,470.33827720899717,470.33827720899717,470.33827720899717,470.33827720899717,470.33827720899717,470.33827720899717,470.33827720899717,470.33827720899717,470.25755658332685,470.33827720899717,470.33827720899717,470.33827720899717,470.25755658332685,470.33827720899717,470.33827720899717,470.33827720899717,472.42683233399293,,470.33827720899717,470.33827720899717,475.4947725420061,470.33827720899717,470.33827720899717,470.33827720899717,470.33827720899717,470.80195445899153,471.8702472919831,470.77206145864716,,472.42683233399293,473.4983972089831,472.3966896256645,,470.33827720899717,475.4947725420061,470.33827720899717,475.4947725420061,475.5362074589939,476.1911836669897,470.33827720899717,2,1,0.8017232500133105,reldom2_s031,001,2025-02-25_12h20.18.399,What-B-Scan_AC,2022.2.5,None,
0,0.0,None,fixation,stimulus/viswhat_stim/blank_white.png,stimulus/viswhat_stim/blank_white.png,stimulus/audwhat_stim/blank_white.png,stimulus/audwhat_stim/blank_white.png,stimulus/viswhat_stim/blank_white.png,stimulus/viswhat_stim/blank_white.png,stimulus/viswhat_stim/blank_white.png,stimulus/viswhat_stim/blank_white.png,0.0,0.0,0.0,0.0,0,0.0,0,0.0,0,0.0,0,0.0,0,0.0,0.0,0,0.0,0,0.0,0,0.0,0,0.0,0,0.0,0,0.0,0,0.0,0,0.0,9,,,,,0,53,53,53,,,,,,,,,476.4664150000026,476.4664150000026,476.4664150000026,476.4664150000026,476.4664150000026,476.4664150000026,476.4664150000026,476.4664150000026,476.365467125319,476.4664150000026,476.4664150000026,476.4664150000026,476.365467125319,476.4664150000026,476.4664150000026,476.4664150000026,476.4664150000026,476.4664150000026,476.4664150000026,476.4664150000026,476.4664150000026,476.4664150000026,476.4664150000026,476.4664150000026,476.4664150000026,476.4664150000026,476.4664150000026,476.415467125319,476.4664150000026,476.4664150000026,476.4664150000026,476.415467125319,476.4664150000026,476.4664150000026,476.4664150000026,476.4664150000026,476.4664150000026,481.69926645897795,481.69926645897795,485.6403758749948,None,0,,reldom2_s031,001,2025-02-25_12h20.18.399,What-B-Scan_AC,2022.2.5,None,
41,Second_Order,7.0,audwhat,stimulus/audwhat_stim/percussion mallet_low-pitch_F_loud.wav,stimulus/audwhat_stim/percussion mallet_high-pitch_D_loud.wav,stimulus/audwhat_stim/string cello_low-pitch_Dtri_loud.wav,stimulus/audwhat_stim/string viola_high-pitch_F_loud.wav,stimulus/viswhat_stim/match_blank.png,stimulus/viswhat_stim/match_box.png,stimulus/viswhat_stim/match_yes.png,stimulus/viswhat_stim/match_no.png,1.0,Match,Category,Category,1,5.125,0,5.125,0,5.125,0,5.125,0,0.75,0.75,0,0.0,0,0.0,0,0.0,0,0.0,1,0.5,1,2.125,1,0.5,1,2.125,0,,,,,0,54,54,54,,,,,,,,,485.6403758749948,490.7578756249859,485.6403758749948,485.6403758749948,485.6403758749948,485.6403758749948,486.0963333749969,487.09424416700494,486.1090083336496,,487.7169681249943,488.71500179197756,487.72935654165144,,490.7578756249859,491.6078312500031,493.69017037499,497.5964039590035,491.6078312500031,491.6078312500031,496.7897109169862,491.6078312500031,491.6078312500031,491.6078312500031,491.6078312500031,492.02307795899105,493.0880241249979,491.99345841666604,,493.69017037499,494.7573210840055,493.65991829167274,,491.6078312500031,496.7897109169862,491.6078312500031,496.7897109169862,496.7897109169862,,491.6078312500031,1,1,0.6488909159961622,reldom2_s031,001,2025-02-25_12h20.18.399,What-B-Scan_AC,2022.2.5,None,
42,Second_Order,7.0,audwhat,stimulus/audwhat_stim/percussion mallet_high-pitch_Ftri_loud.wav,stimulus/audwhat_stim/percussion mallet_low-pitch_F_loud.wav,stimulus/audwhat_stim/percussion mallet_low-pitch_Dtri_loud.wav,stimulus/audwhat_stim/string viola_low-pitch_Dtri_loud.wav,stimulus/viswhat_stim/match_blank.png,stimulus/viswhat_stim/match_box.png,stimulus/viswhat_stim/match_yes.png,stimulus/viswhat_stim/match_no.png,2.0,Match,Category,Pitch,2,5.125,0,5.125,0,5.125,0,5.125,0,0.625,0.625,0,0.0,0,0.0,0,0.0,0,0.0,1,0.5,1,2.125,1,0.5,1,2.125,0,,,,,0,55,55,55,,,,,,,,,497.5964039590035,502.71810637498857,497.5964039590035,497.5964039590035,497.5964039590035,497.5964039590035,498.05626854198636,499.04292074998375,498.06960337565783,,499.6778610839974,500.6757882089878,499.689962833658,,502.71810637498857,503.4496601249848,505.5121622919978,509.55253908399027,503.4496601249848,503.4496601249848,508.6345341249835,503.4496601249848,503.4496601249848,503.4496601249848,503.4496601249848,503.8619096670009,504.915716708987,503.83294933365346,,505.5121622919978,506.5711743749853,505.48257308366397,,503.4496601249848,508.6345341249835,503.4496601249848,508.6345341249835,508.6345341249835,509.3220399589918,503.4496601249848,2,1,1.4622397919883952,reldom2_s031,001,2025-02-25_12h20.18.399,What-B-Scan_AC,2022.2.5,None,
0,0.0,None,fixation,stimulus/viswhat_stim/blank_white.png,stimulus/viswhat_stim/blank_white.png,stimulus/audwhat_stim/blank_white.png,stimulus/audwhat_stim/blank_white.png,stimulus/viswhat_stim/blank_white.png,stimulus/viswhat_stim/blank_white.png,stimulus/viswhat_stim/blank_white.png,stimulus/viswhat_stim/blank_white.png,0.0,0.0,0.0,0.0,0,0.0,0,0.0,0,0.0,0,0.0,0,0.0,0.0,0,0.0,0,0.0,0,0.0,0,0.0,0,0.0,0,0.0,0,0.0,0,0.0,9,,,,,0,56,56,56,,,,,,,,,509.55253908399027,509.55253908399027,509.55253908399027,509.55253908399027,509.55253908399027,509.55253908399027,509.55253908399027,509.55253908399027,509.45537329232513,509.55253908399027,509.55253908399027,509.55253908399027,509.45537329232513,509.55253908399027,509.55253908399027,509.55253908399027,509.55253908399027,509.55253908399027,509.55253908399027,509.55253908399027,509.55253908399027,509.55253908399027,509.55253908399027,509.55253908399027,509.55253908399027,509.55253908399027,509.55253908399027,509.50537329232515,509.55253908399027,509.55253908399027,509.55253908399027,509.50537329232515,509.55253908399027,509.55253908399027,509.55253908399027,509.55253908399027,509.55253908399027,514.7489082090033,514.7489082090033,518.816968500003,None,0,,reldom2_s031,001,2025-02-25_12h20.18.399,What-B-Scan_AC,2022.2.5,None,
43,First_Order,8.0,audwhat,stimulus/audwhat_stim/dummy.wav,stimulus/audwhat_stim/dummy.wav,stimulus/audwhat_stim/string cello_high-pitch_D_loud.wav,stimulus/audwhat_stim/string cello_low-pitch_F_loud.wav,stimulus/audwhat_stim/blank_white.png,stimulus/audwhat_stim/pitch_box.png,stimulus/audwhat_stim/pitch_yes.png,stimulus/audwhat_stim/pitch_no.png,None,Pitch,None,Category,2,0.0,0,5.125,0,5.125,0,5.125,0,0.0,0.625,0,0.0,0,0.0,0,0.0,0,0.0,0,0.0,0,0.0,1,0.5,1,2.125,0,,,,,0,57,57,57,,,,,,,,,518.816968500003,518.816968500003,518.816968500003,518.816968500003,518.816968500003,518.816968500003,518.816968500003,518.816968500003,518.7436941666625,518.816968500003,518.816968500003,518.816968500003,518.7436941666625,518.816968500003,518.816968500003,518.816968500003,520.8971515419835,524.9409225419804,518.816968500003,518.816968500003,523.9960979169991,518.816968500003,518.816968500003,518.816968500003,518.816968500003,519.2788272089965,520.3432714169903,519.2493417916451,,520.8971515419835,521.9617161249917,520.867838166658,,518.816968500003,523.9960979169991,518.816968500003,523.9960979169991,524.0375656669785,524.686966749985,518.816968500003,2,1,2.374881124997046,reldom2_s031,001,2025-02-25_12h20.18.399,What-B-Scan_AC,2022.2.5,None,
44,First_Order,8.0,audwhat,stimulus/audwhat_stim/dummy.wav,stimulus/audwhat_stim/dummy.wav,stimulus/audwhat_stim/percussion mallet_low-pitch_F_loud.wav,stimulus/audwhat_stim/string cello_low-pitch_F_loud.wav,stimulus/audwhat_stim/blank_white.png,stimulus/audwhat_stim/pitch_box.png,stimulus/audwhat_stim/pitch_yes.png,stimulus/audwhat_stim/pitch_no.png,None,Pitch,None,Pitch,1,0.0,0,5.125,0,5.125,0,5.125,0,0.0,0.625,0,0.0,0,0.0,0,0.0,0,0.0,0,0.0,0,0.0,1,0.5,1,2.125,0,,,,,0,58,58,58,,,,,,,,,524.9409225419804,524.9409225419804,524.9409225419804,524.9409225419804,524.9409225419804,524.9409225419804,524.9409225419804,524.9409225419804,524.86105733333,524.9409225419804,524.9409225419804,524.9409225419804,524.86105733333,524.9409225419804,524.9409225419804,524.9409225419804,527.023504916986,,524.9409225419804,524.9409225419804,530.1337997090013,524.9409225419804,524.9409225419804,524.9409225419804,524.9409225419804,525.4030159999966,526.4691801669833,525.3731092086566,,527.023504916986,528.0945089169836,526.9937128756467,,524.9409225419804,530.1337997090013,524.9409225419804,530.1337997090013,530.1337997090013,530.7866306249925,524.9409225419804,1,1,2.2087525840033777,reldom2_s031,001,2025-02-25_12h20.18.399,What-B-Scan_AC,2022.2.5,None,
45,First_Order,8.0,audwhat,stimulus/audwhat_stim/dummy.wav,stimulus/audwhat_stim/dummy.wav,stimulus/audwhat_stim/string viola_low-pitch_Dtri_loud.wav,stimulus/audwhat_stim/string cello_high-pitch_Ftri_loud.wav,stimulus/audwhat_stim/blank_white.png,stimulus/audwhat_stim/category_box.png,stimulus/audwhat_stim/category_yes.png,stimulus/audwhat_stim/category_no.png,None,Category,None,Category,1,0.0,0,5.125,0,5.125,0,5.125,0,0.0,0.625,0,0.0,0,0.0,0,0.0,0,0.0,0,0.0,0,0.0,1,0.5,1,2.125,0,,,,,0,59,59,59,,,,,,,,,531.042222374992,531.042222374992,531.042222374992,531.042222374992,531.042222374992,531.042222374992,531.042222374992,531.042222374992,530.9607686253167,531.042222374992,531.042222374992,531.042222374992,530.9607686253167,531.042222374992,531.042222374992,531.042222374992,533.1388833749807,537.1668541249819,531.042222374992,531.042222374992,536.2168927500024,531.042222374992,531.042222374992,531.042222374992,531.042222374992,531.5077224590059,532.5809381669969,531.4774352086572,,533.1388833749807,534.1691554169811,533.1092272086573,,531.042222374992,536.2168927500024,531.042222374992,536.2168927500024,536.2583463749907,536.9126088339835,531.042222374992,1,1,0.7388437910121866,reldom2_s031,001,2025-02-25_12h20.18.399,What-B-Scan_AC,2022.2.5,None,
46,First_Order,8.0,audwhat,stimulus/audwhat_stim/dummy.wav,stimulus/audwhat_stim/dummy.wav,stimulus/audwhat_stim/string viola_high-pitch_Ftri_loud.wav,stimulus/audwhat_stim/percussion xylophone_high-pitch_Ftri_loud.wav,stimulus/audwhat_stim/blank_white.png,stimulus/audwhat_stim/category_box.png,stimulus/audwhat_stim/category_yes.png,stimulus/audwhat_stim/category_no.png,None,Category,None,Pitch,2,0.0,0,5.125,0,5.125,0,5.125,0,0.0,0.625,0,0.0,0,0.0,0,0.0,0,0.0,0,0.0,0,0.0,1,0.5,1,2.125,0,,,,,0,60,60,60,,,,,,,,,537.1668541249819,537.1668541249819,537.1668541249819,537.1668541249819,537.1668541249819,537.1668541249819,537.1668541249819,537.1668541249819,537.086272125338,537.1668541249819,537.1668541249819,537.1668541249819,537.086272125338,537.1668541249819,537.1668541249819,537.1668541249819,539.263390749984,543.3126762920001,537.1668541249819,537.1668541249819,542.3416005839827,537.1668541249819,537.1668541249819,537.1668541249819,537.1668541249819,537.6330816669797,538.7052066249889,537.6019690416617,,539.263390749984,540.2925260000047,539.2332477506463,540.2925260000047,537.1668541249819,542.3416005839827,537.1668541249819,542.3416005839827,542.3825043340039,543.0378640419804,537.1668541249819,1,0,1.0716262920177542,reldom2_s031,001,2025-02-25_12h20.18.399,What-B-Scan_AC,2022.2.5,None,
0,0.0,None,fixation,stimulus/viswhat_stim/blank_white.png,stimulus/viswhat_stim/blank_white.png,stimulus/audwhat_stim/blank_white.png,stimulus/audwhat_stim/blank_white.png,stimulus/viswhat_stim/blank_white.png,stimulus/viswhat_stim/blank_white.png,stimulus/viswhat_stim/blank_white.png,stimulus/viswhat_stim/blank_white.png,0.0,0.0,0.0,0.0,0,0.0,0,0.0,0,0.0,0,0.0,0,0.0,0.0,0,0.0,0,0.0,0,0.0,0,0.0,0,0.0,0,0.0,0,0.0,0,0.0,8,,,,,0,61,61,61,,,,,,,,,543.3126762920001,543.3126762920001,543.3126762920001,543.3126762920001,543.3126762920001,543.3126762920001,543.3126762920001,543.3126762920001,543.2123442083267,543.3126762920001,543.3126762920001,543.3126762920001,543.2123442083267,543.3126762920001,543.3126762920001,543.3126762920001,543.3126762920001,543.3126762920001,543.3126762920001,543.3126762920001,543.3126762920001,543.3126762920001,543.3126762920001,543.3126762920001,543.3126762920001,543.3126762920001,543.3126762920001,543.2623442083267,543.3126762920001,543.3126762920001,543.3126762920001,543.2623442083267,543.3126762920001,543.3126762920001,543.3126762920001,543.3126762920001,543.3126762920001,548.5014959590044,548.5014959590044,551.4809811669984,None,0,,reldom2_s031,001,2025-02-25_12h20.18.399,What-B-Scan_AC,2022.2.5,None,
47,Second_Order,8.0,audwhat,stimulus/audwhat_stim/string cello_low-pitch_Dtri_loud.wav,stimulus/audwhat_stim/string viola_high-pitch_D_loud.wav,stimulus/audwhat_stim/percussion xylophone_high-pitch_F_loud.wav,stimulus/audwhat_stim/percussion mallet_low-pitch_D_loud.wav,stimulus/viswhat_stim/match_blank.png,stimulus/viswhat_stim/match_box.png,stimulus/viswhat_stim/match_yes.png,stimulus/viswhat_stim/match_no.png,1.0,Match,Category,Category,1,5.125,0,5.125,0,5.125,0,5.125,0,0.75,0.75,0,0.0,0,0.0,0,0.0,0,0.0,1,0.5,1,2.125,1,0.5,1,2.125,0,,,,,0,62,62,62,,,,,,,,,551.4809811669984,556.5939327499946,551.4809811669984,551.4809811669984,551.4809811669984,551.4809811669984,551.9309738339798,552.9176442919997,551.9442202086541,,553.5649163750059,554.5546332919912,553.5694703336669,,556.5939327499946,557.4454010000045,559.518302291981,,557.4454010000045,557.4454010000045,562.6177252919879,557.4454010000045,557.4454010000045,557.4454010000045,557.4454010000045,557.8597772499779,558.9190559590061,557.830498000669,558.873150208994,559.518302291981,560.5848832089978,559.488427125649,,557.4454010000045,562.6177252919879,557.4454010000045,562.6177252919879,562.6177252919879,,557.4454010000045,1,1,0.8183310000167694,reldom2_s031,001,2025-02-25_12h20.18.399,What-B-Scan_AC,2022.2.5,None,
48,Second_Order,8.0,audwhat,stimulus/audwhat_stim/percussion mallet_high-pitch_D_loud.wav,stimulus/audwhat_stim/percussion mallet_low-pitch_Dtri_loud.wav,stimulus/audwhat_stim/string viola_high-pitch_F_loud.wav,stimulus/audwhat_stim/string viola_low-pitch_Dtri_loud.wav,stimulus/viswhat_stim/match_blank.png,stimulus/viswhat_stim/match_box.png,stimulus/viswhat_stim/match_yes.png,stimulus/viswhat_stim/match_no.png,1.0,Match,Category,Category,1,5.125,0,5.125,0,5.125,0,5.125,0,0.625,0.625,0,0.0,0,0.0,0,0.0,0,0.0,1,0.5,1,2.125,1,0.5,1,2.125,0,,,,,0,63,63,63,,,,,,,,,563.4270955839893,568.5497552499874,563.4270955839893,563.4270955839893,563.4270955839893,563.4270955839893,563.8888615419855,564.877916958998,563.888987250659,564.877916958998,565.5093111250026,566.4983718750009,565.5133290836568,,568.5497552499874,569.282756792003,571.3432917500031,575.3934548749821,569.282756792003,569.282756792003,574.4725487919932,569.282756792003,569.282756792003,569.282756792003,569.282756792003,569.7396051249816,570.792856333981,569.7103206256618,,571.3432917500031,572.4038692500035,571.3137437506559,,569.282756792003,574.4725487919932,569.282756792003,574.4725487919932,574.4725487919932,575.1211642919807,569.282756792003,1,1,1.181735457998002,reldom2_s031,001,2025-02-25_12h20.18.399,What-B-Scan_AC,2022.2.5,None,
0,0.0,None,fixation,stimulus/viswhat_stim/blank_white.png,stimulus/viswhat_stim/blank_white.png,stimulus/audwhat_stim/blank_white.png,stimulus/audwhat_stim/blank_white.png,stimulus/viswhat_stim/blank_white.png,stimulus/viswhat_stim/blank_white.png,stimulus/viswhat_stim/blank_white.png,stimulus/viswhat_stim/blank_white.png,0.0,0.0,0.0,0.0,0,0.0,0,0.0,0,0.0,0,0.0,0,0.0,0.0,0,0.0,0,0.0,0,0.0,0,0.0,0,0.0,0,0.0,0,0.0,0,0.0,16,,,,,0,64,64,64,,,,,,,,,575.3934548749821,575.3934548749821,575.3934548749821,575.3934548749821,575.3934548749821,575.3934548749821,575.3934548749821,575.3934548749821,575.2950497923322,575.3934548749821,575.3934548749821,575.3934548749821,575.2950497923322,575.3934548749821,575.3934548749821,575.3934548749821,575.3934548749821,575.3934548749821,575.3934548749821,575.3934548749821,575.3934548749821,575.3934548749821,575.3934548749821,575.3934548749821,575.3934548749821,575.3934548749821,575.3934548749821,575.3450497923321,575.3934548749821,575.3934548749821,575.3934548749821,575.3450497923321,575.3934548749821,575.3934548749821,575.3934548749821,575.3934548749821,575.3934548749821,580.5867772499914,580.5867772499914,591.5384718339774,None,0,,reldom2_s031,001,2025-02-25_12h20.18.399,What-B-Scan_AC,2022.2.5,None,
