Trial,Order,Block,Type,Stimuli_File1,Stimuli_File2,Stimuli_File3,Stimuli_File4,Cue_File1,Cue_File2,Response_File_Yes,Response_File_No,Match,Cue_Dimension,Pair1_Dimension,Pair2_Dimension,Key,Cue1_Duration,Cue1_Onset,Cue2_Duration,Cue2_Onset,ResponseYes_Duration,ResponseYes_Onset,ResponseNo_Duration,ResponseNo_Onset,ITI_Within,ITI_Between,Image1_Duration,Image1_Onset,Image2_Duration,Image2_Onset,Image3_Duration,Image3_Onset,Image4_Duration,Image4_Onset,Sound1_Duration,Sound1_Onset,Sound2_Duration,Sound2_Onset,Sound3_Duration,Sound3_Onset,Sound4_Duration,Sound4_Onset,Fixation_Duration,trials_2.thisRepN,trials_2.thisTrialN,trials_2.thisN,trials_2.thisIndex,trials.thisRepN,trials.thisTrialN,trials.thisN,trials.thisIndex,text_start.started,key_resp_start.started,key_resp_start.keys,key_resp_start.rt,text2.started,key_resp_2.started,key_resp_2.keys,key_resp_2.rt,cue_file1.started,cue_file1.stopped,image_1.started,image_1.stopped,image_2.started,image_2.stopped,sound_icon1.started,sound_icon1.stopped,sound_1.started,sound_1.stopped,sound_icon2.started,sound_icon2.stopped,sound_2.started,sound_2.stopped,image_blank_1.started,image_blank_1.stopped,key_press.started,key_press.stopped,fixation_text.started,cue_file2.started,cue_file2.stopped,image_3.started,image_3.stopped,image_4.started,image_4.stopped,sound_icon3.started,sound_icon3.stopped,sound_3.started,sound_3.stopped,sound_icon4.started,sound_icon4.stopped,sound_4.started,sound_4.stopped,response_yes.started,response_yes.stopped,response_no.started,response_no.stopped,iti_blank.started,iti_blank.stopped,fixation_text.stopped,key_press.keys,key_press.corr,key_press.rt,participant,session,date,expName,psychopyVersion,frameRate,
,,,,,,,,,,,,,,,,,,,,,,,,,,,,,,,,,,,,,,,,,,,,,,,,,,,,8.780192167003406,8.780192167003406,2,2.43886991601903,,,,,,,,,,,,,,,,,,,,,,,,,,,,,,,,,,,,,,,,,,,,,,,,reldom2_s031,001,2025-02-25_12h42.45.050,Aud-B-Scan_AC,2022.2.5,None,
,,,,,,,,,,,,,,,,,,,,,,,,,,,,,,,,,,,,,,,,,,,,0,0,0,0,,,,,,,,,11.251649041980272,11.251649041980272,5,17.30888620801852,,,,,,,,,,,,,,,,,,,,,,,,,,,,,,,,,,,,,,,,,,,,reldom2_s031,001,2025-02-25_12h42.45.050,Aud-B-Scan_AC,2022.2.5,None,
,,,,,,,,,,,,,,,,,,,,,,,,,,,,,,,,,,,,,,,,,,,,1,0,1,0,,,,,,,,,28.571247124986257,28.571247124986257,5,1.9899903750047088,,,,,,,,,,,,,,,,,,,,,,,,,,,,,,,,,,,,,,,,,,,,reldom2_s031,001,2025-02-25_12h42.45.050,Aud-B-Scan_AC,2022.2.5,None,
,,,,,,,,,,,,,,,,,,,,,,,,,,,,,,,,,,,,,,,,,,,,2,0,2,0,,,,,,,,,30.584133958996972,30.584133958996972,5,1.976447459019255,,,,,,,,,,,,,,,,,,,,,,,,,,,,,,,,,,,,,,,,,,,,reldom2_s031,001,2025-02-25_12h42.45.050,Aud-B-Scan_AC,2022.2.5,None,
,,,,,,,,,,,,,,,,,,,,,,,,,,,,,,,,,,,,,,,,,,,,3,0,3,0,,,,,,,,,32.57669537499896,32.57669537499896,5,1.984946333017433,,,,,,,,,,,,,,,,,,,,,,,,,,,,,,,,,,,,,,,,,,,,reldom2_s031,001,2025-02-25_12h42.45.050,Aud-B-Scan_AC,2022.2.5,None,
0,0.0,None,fixation,stimulus/audwhat_stim/blank_white.png,stimulus/audwhat_stim/blank_white.png,stimulus/audwhere_stim/blank_white.png,stimulus/audwhere_stim/blank_white.png,stimulus/audwhat_stim/blank_white.png,stimulus/audwhat_stim/blank_white.png,stimulus/audwhat_stim/blank_white.png,stimulus/audwhat_stim/blank_white.png,0.0,0.0,0.0,0.0,0,0.0,0,0.0,0,0.0,0,0.0,0,0.0,0.0,0,0,0,0,0,0,0,0,0,0.0,0,0.0,0,0.0,0,0.0,16,,,,,0,0,0,0,,,,,,,,,34.780167666991474,34.780167666991474,34.780167666991474,34.780167666991474,34.780167666991474,34.780167666991474,34.780167666991474,34.780167666991474,34.680073208668425,34.780167666991474,34.780167666991474,34.780167666991474,34.680073208668425,34.780167666991474,34.780167666991474,34.780167666991474,34.780167666991474,34.780167666991474,34.780167666991474,34.780167666991474,34.780167666991474,34.780167666991474,34.780167666991474,34.780167666991474,34.780167666991474,34.780167666991474,34.780167666991474,34.73007320866842,34.780167666991474,34.780167666991474,34.780167666991474,34.73007320866842,34.780167666991474,34.780167666991474,34.780167666991474,34.780167666991474,34.780167666991474,39.995645916991634,39.995645916991634,50.995804958976805,None,0,,reldom2_s031,001,2025-02-25_12h42.45.050,Aud-B-Scan_AC,2022.2.5,None,
1,First_Order,1.0,audwhat,stimulus/audwhat_stim/dummy.wav,stimulus/audwhat_stim/dummy.wav,stimulus/audwhat_stim/string viola_low-pitch_F_loud.wav,stimulus/audwhat_stim/string cello_high-pitch_Dtri_loud.wav,stimulus/audwhat_stim/blank_white.png,stimulus/audwhat_stim/pitch_box.png,stimulus/audwhat_stim/pitch_yes.png,stimulus/audwhat_stim/pitch_no.png,None,Pitch,None,Category,2,0.0,0,5.125,0,5.125,0,5.125,0,0.0,0.625,0,0,0,0,0,0,0,0,0,0.0,0,0.0,1,0.5,1,2.125,0,,,,,0,1,1,1,,,,,,,,,50.995804958976805,50.995804958976805,50.995804958976805,50.995804958976805,50.995804958976805,50.995804958976805,50.995804958976805,50.995804958976805,50.92370654197875,50.995804958976805,50.995804958976805,50.995804958976805,50.92370654197875,50.995804958976805,50.995804958976805,50.995804958976805,53.081577417004155,,50.995804958976805,50.995804958976805,56.17133458398166,50.995804958976805,50.995804958976805,50.995804958976805,50.995804958976805,51.44775724998908,52.48951358397608,51.419181041656216,,53.081577417004155,54.127437333983835,53.0527412916456,,50.995804958976805,56.17133458398166,50.995804958976805,56.17133458398166,56.21171491697896,56.88885816698894,50.995804958976805,2,1,1.1384474579826929,reldom2_s031,001,2025-02-25_12h42.45.050,Aud-B-Scan_AC,2022.2.5,None,
2,First_Order,1.0,audwhat,stimulus/audwhat_stim/dummy.wav,stimulus/audwhat_stim/dummy.wav,stimulus/audwhat_stim/percussion xylophone_high-pitch_Ftri_loud.wav,stimulus/audwhat_stim/string viola_high-pitch_Ftri_loud.wav,stimulus/audwhat_stim/blank_white.png,stimulus/audwhat_stim/pitch_box.png,stimulus/audwhat_stim/pitch_yes.png,stimulus/audwhat_stim/pitch_no.png,None,Pitch,None,Pitch,1,0.0,0,5.125,0,5.125,0,5.125,0,0.0,0.625,0,0,0,0,0,0,0,0,0,0.0,0,0.0,1,0.5,1,2.125,0,,,,,0,2,2,2,,,,,,,,,57.09904045899748,57.09904045899748,57.09904045899748,57.09904045899748,57.09904045899748,57.09904045899748,57.09904045899748,57.09904045899748,57.02219150032227,57.09904045899748,57.09904045899748,57.09904045899748,57.02219150032227,57.09904045899748,57.09904045899748,57.09904045899748,59.192644791997736,63.22262704197783,57.09904045899748,57.09904045899748,62.24739908397896,57.09904045899748,57.09904045899748,57.09904045899748,57.09904045899748,57.55409154199879,58.60286612500204,57.52515133365911,58.5556765839865,59.192644791997736,60.244673541979864,59.1637723756469,,57.09904045899748,62.24739908397896,57.09904045899748,62.24739908397896,62.32794708397705,63.01204545897781,57.09904045899748,1,1,2.12036270898534,reldom2_s031,001,2025-02-25_12h42.45.050,Aud-B-Scan_AC,2022.2.5,None,
3,First_Order,1.0,audwhat,stimulus/audwhat_stim/dummy.wav,stimulus/audwhat_stim/dummy.wav,stimulus/audwhat_stim/string viola_low-pitch_Dtri_loud.wav,stimulus/audwhat_stim/percussion mallet_low-pitch_Dtri_loud.wav,stimulus/audwhat_stim/blank_white.png,stimulus/audwhat_stim/category_box.png,stimulus/audwhat_stim/category_yes.png,stimulus/audwhat_stim/category_no.png,None,Category,None,Pitch,2,0.0,0,5.125,0,5.125,0,5.125,0,0.0,0.625,0,0,0,0,0,0,0,0,0,0.0,0,0.0,1,0.5,1,2.125,0,,,,,0,3,3,3,,,,,,,,,63.22262704197783,63.22262704197783,63.22262704197783,63.22262704197783,63.22262704197783,63.22262704197783,63.22262704197783,63.22262704197783,63.14537879231114,63.22262704197783,63.22262704197783,63.22262704197783,63.14537879231114,63.22262704197783,63.22262704197783,63.22262704197783,65.33507845900021,,63.22262704197783,63.22262704197783,68.37561999997706,63.22262704197783,63.22262704197783,63.22262704197783,63.22262704197783,63.68316924999817,64.73904804198537,63.653963791646916,,65.33507845900021,66.39656258397736,65.30541779165311,,63.22262704197783,68.37561999997706,63.22262704197783,68.37561999997706,68.41632883399143,69.06739870898309,63.22262704197783,2,1,0.6358425419894047,reldom2_s031,001,2025-02-25_12h42.45.050,Aud-B-Scan_AC,2022.2.5,None,
4,First_Order,1.0,audwhat,stimulus/audwhat_stim/dummy.wav,stimulus/audwhat_stim/dummy.wav,stimulus/audwhat_stim/percussion mallet_low-pitch_D_loud.wav,stimulus/audwhat_stim/percussion xylophone_high-pitch_Dtri_loud.wav,stimulus/audwhat_stim/blank_white.png,stimulus/audwhat_stim/pitch_box.png,stimulus/audwhat_stim/pitch_yes.png,stimulus/audwhat_stim/pitch_no.png,None,Pitch,None,Category,2,0.0,0,5.125,0,5.125,0,5.125,0,0.0,0.625,0,0,0,0,0,0,0,0,0,0.0,0,0.0,1,0.5,1,2.125,0,,,,,0,4,4,4,,,,,,,,,69.32259483399685,69.32259483399685,69.32259483399685,69.32259483399685,69.32259483399685,69.32259483399685,69.32259483399685,69.32259483399685,69.24125054231456,69.32259483399685,69.32259483399685,69.32259483399685,69.24125054231456,69.32259483399685,69.32259483399685,69.32259483399685,71.43129820897593,75.47003579197917,69.32259483399685,69.32259483399685,74.50862645899178,69.32259483399685,69.32259483399685,69.32259483399685,69.32259483399685,69.78011191700352,70.83688195899595,69.75092695866284,,71.43129820897593,72.48654712497955,71.40163641664937,72.44024179197731,69.32259483399685,74.50862645899178,69.32259483399685,74.50862645899178,74.54950033398927,75.19742312497692,69.32259483399685,2,1,1.143025958997896,reldom2_s031,001,2025-02-25_12h42.45.050,Aud-B-Scan_AC,2022.2.5,None,
0,0.0,None,fixation,stimulus/audwhat_stim/blank_white.png,stimulus/audwhat_stim/blank_white.png,stimulus/audwhere_stim/blank_white.png,stimulus/audwhere_stim/blank_white.png,stimulus/audwhat_stim/blank_white.png,stimulus/audwhat_stim/blank_white.png,stimulus/audwhat_stim/blank_white.png,stimulus/audwhat_stim/blank_white.png,0.0,0.0,0.0,0.0,0,0.0,0,0.0,0,0.0,0,0.0,0,0.0,0.0,0,0,0,0,0,0,0,0,0,0.0,0,0.0,0,0.0,0,0.0,8,,,,,0,5,5,5,,,,,,,,,75.47003579197917,75.47003579197917,75.47003579197917,75.47003579197917,75.47003579197917,75.47003579197917,75.47003579197917,75.47003579197917,75.37128483332538,75.47003579197917,75.47003579197917,75.47003579197917,75.37128483332538,75.47003579197917,75.47003579197917,75.47003579197917,75.47003579197917,75.47003579197917,75.47003579197917,75.47003579197917,75.47003579197917,75.47003579197917,75.47003579197917,75.47003579197917,75.47003579197917,75.47003579197917,75.47003579197917,75.42128483332539,75.47003579197917,75.47003579197917,75.47003579197917,75.42128483332539,75.47003579197917,75.47003579197917,75.47003579197917,75.47003579197917,75.47003579197917,80.66921833399101,80.66921833399101,83.62829995900393,None,0,,reldom2_s031,001,2025-02-25_12h42.45.050,Aud-B-Scan_AC,2022.2.5,None,
5,Second_Order,1.0,audwhat,stimulus/audwhat_stim/percussion mallet_high-pitch_Dtri_loud.wav,stimulus/audwhat_stim/string cello_high-pitch_Dtri_loud.wav,stimulus/audwhat_stim/string viola_low-pitch_F_loud.wav,stimulus/audwhat_stim/percussion mallet_low-pitch_F_loud.wav,stimulus/audwhat_stim/match_blank.png,stimulus/audwhat_stim/match_box.png,stimulus/audwhat_stim/match_yes.png,stimulus/audwhat_stim/match_no.png,1.0,Match,Pitch,Pitch,1,5.125,0,5.125,0,5.125,0,5.125,0,0.75,0.75,0,0,0,0,0,0,0,0,1,0.5,1,2.125,1,0.5,1,2.125,0,,,,,0,6,6,6,,,,,,,,,83.62829995900393,88.75072995899245,83.62829995900393,83.62829995900393,83.62829995900393,83.62829995900393,84.0761106669961,85.06331825000234,84.08935045864588,,85.71021024999209,86.69930062498315,85.71463720864655,,88.75072995899245,89.60422995898989,91.65249749997747,,89.60422995898989,89.60422995898989,94.76842549999128,89.60422995898989,89.60422995898989,89.60422995898989,89.60422995898989,90.05701466699247,91.10644870900433,90.02828662566414,,91.65249749997747,92.70932887500385,91.62358654165679,,89.60422995898989,94.76842549999128,89.60422995898989,94.76842549999128,94.76842549999128,,89.60422995898989,1,1,1.2072138750227168,reldom2_s031,001,2025-02-25_12h42.45.050,Aud-B-Scan_AC,2022.2.5,None,
6,Second_Order,1.0,audwhat,stimulus/audwhat_stim/percussion mallet_low-pitch_F_loud.wav,stimulus/audwhat_stim/percussion mallet_high-pitch_Dtri_loud.wav,stimulus/audwhat_stim/string viola_low-pitch_Ftri_loud.wav,stimulus/audwhat_stim/percussion mallet_low-pitch_Ftri_loud.wav,stimulus/audwhat_stim/match_blank.png,stimulus/audwhat_stim/match_box.png,stimulus/audwhat_stim/match_yes.png,stimulus/audwhat_stim/match_no.png,2.0,Match,Category,Pitch,2,5.125,0,5.125,0,5.125,0,5.125,0,0.625,0.625,0,0,0,0,0,0,0,0,1,0.5,1,2.125,1,0.5,1,2.125,0,,,,,0,7,7,7,,,,,,,,,95.5720278339868,100.69483787499485,95.5720278339868,95.5720278339868,95.5720278339868,95.5720278339868,96.01948183399509,97.00665708398446,96.03387050066182,,97.6546540419804,98.64341162500205,97.65825083366168,98.65688970900374,100.69483787499485,101.43045549999806,103.47407070899499,107.53516149998177,101.43045549999806,101.43045549999806,106.62173041698406,101.43045549999806,101.43045549999806,101.43045549999806,101.43045549999806,101.88395195899648,102.92950279198703,101.85519358364787,,103.47407070899499,104.52378391698585,103.4451392086669,,101.43045549999806,106.62173041698406,101.43045549999806,106.62173041698406,106.62173041698406,107.30539416699321,101.43045549999806,1,0,1.7200358750123996,reldom2_s031,001,2025-02-25_12h42.45.050,Aud-B-Scan_AC,2022.2.5,None,
0,0.0,None,fixation,stimulus/audwhat_stim/blank_white.png,stimulus/audwhat_stim/blank_white.png,stimulus/audwhere_stim/blank_white.png,stimulus/audwhere_stim/blank_white.png,stimulus/audwhat_stim/blank_white.png,stimulus/audwhat_stim/blank_white.png,stimulus/audwhat_stim/blank_white.png,stimulus/audwhat_stim/blank_white.png,0.0,0.0,0.0,0.0,0,0.0,0,0.0,0,0.0,0,0.0,0,0.0,0.0,0,0,0,0,0,0,0,0,0,0.0,0,0.0,0,0.0,0,0.0,10,,,,,0,8,8,8,,,,,,,,,107.53516149998177,107.53516149998177,107.53516149998177,107.53516149998177,107.53516149998177,107.53516149998177,107.53516149998177,107.53516149998177,107.43872750032654,107.53516149998177,107.53516149998177,107.53516149998177,107.43872750032654,107.53516149998177,107.53516149998177,107.53516149998177,107.53516149998177,107.53516149998177,107.53516149998177,107.53516149998177,107.53516149998177,107.53516149998177,107.53516149998177,107.53516149998177,107.53516149998177,107.53516149998177,107.53516149998177,107.48872750032655,107.53516149998177,107.53516149998177,107.53516149998177,107.48872750032655,107.53516149998177,107.53516149998177,107.53516149998177,107.53516149998177,107.53516149998177,112.74118304200238,112.74118304200238,117.77268808399094,None,0,,reldom2_s031,001,2025-02-25_12h42.45.050,Aud-B-Scan_AC,2022.2.5,None,
7,First_Order,2.0,audwhat,stimulus/audwhat_stim/dummy.wav,stimulus/audwhat_stim/dummy.wav,stimulus/audwhat_stim/percussion xylophone_high-pitch_F_loud.wav,stimulus/audwhat_stim/percussion mallet_low-pitch_D_loud.wav,stimulus/audwhat_stim/blank_white.png,stimulus/audwhat_stim/category_box.png,stimulus/audwhat_stim/category_yes.png,stimulus/audwhat_stim/category_no.png,None,Category,None,Category,1,0.0,0,5.125,0,5.125,0,5.125,0,0.0,0.625,0,0,0,0,0,0,0,0,0,0.0,0,0.0,1,0.5,1,2.125,0,,,,,0,9,9,9,,,,,,,,,117.77268808399094,117.77268808399094,117.77268808399094,117.77268808399094,117.77268808399094,117.77268808399094,117.77268808399094,117.77268808399094,117.69948108364285,117.77268808399094,117.77268808399094,117.77268808399094,117.69948108364285,117.77268808399094,117.77268808399094,117.77268808399094,119.85238258398022,123.89781287498772,117.77268808399094,117.77268808399094,122.95316116698086,117.77268808399094,117.77268808399094,117.77268808399094,117.77268808399094,118.23681862498051,119.29816599999322,118.20701575064255,119.25223108398495,119.85238258398022,120.91933979198802,119.82329158365998,,117.77268808399094,122.95316116698086,117.77268808399094,122.95316116698086,122.9947144589969,123.64455341699068,117.77268808399094,1,1,1.2632793330121785,reldom2_s031,001,2025-02-25_12h42.45.050,Aud-B-Scan_AC,2022.2.5,None,
8,First_Order,2.0,audwhat,stimulus/audwhat_stim/dummy.wav,stimulus/audwhat_stim/dummy.wav,stimulus/audwhat_stim/percussion mallet_low-pitch_D_loud.wav,stimulus/audwhat_stim/string viola_low-pitch_D_loud.wav,stimulus/audwhat_stim/blank_white.png,stimulus/audwhat_stim/pitch_box.png,stimulus/audwhat_stim/pitch_yes.png,stimulus/audwhat_stim/pitch_no.png,None,Pitch,None,Pitch,1,0.0,0,5.125,0,5.125,0,5.125,0,0.0,0.625,0,0,0,0,0,0,0,0,0,0.0,0,0.0,1,0.5,1,2.125,0,,,,,0,10,10,10,,,,,,,,,123.89781287498772,123.89781287498772,123.89781287498772,123.89781287498772,123.89781287498772,123.89781287498772,123.89781287498772,123.89781287498772,123.81862070833643,123.89781287498772,123.89781287498772,123.89781287498772,123.81862070833643,123.89781287498772,123.89781287498772,123.89781287498772,125.97625212499406,130.01246958397678,123.89781287498772,123.89781287498772,129.07032599998638,123.89781287498772,123.89781287498772,123.89781287498772,123.89781287498772,124.35813320899615,125.42209783400176,124.32899520866728,,125.97625212499406,127.04001045899349,125.9463607506516,,123.89781287498772,129.07032599998638,123.89781287498772,129.07032599998638,129.11060966699733,129.75927233399125,123.89781287498772,1,1,0.8813750839908607,reldom2_s031,001,2025-02-25_12h42.45.050,Aud-B-Scan_AC,2022.2.5,None,
9,First_Order,2.0,audwhat,stimulus/audwhat_stim/dummy.wav,stimulus/audwhat_stim/dummy.wav,stimulus/audwhat_stim/percussion mallet_low-pitch_D_loud.wav,stimulus/audwhat_stim/percussion mallet_high-pitch_Ftri_loud.wav,stimulus/audwhat_stim/blank_white.png,stimulus/audwhat_stim/category_box.png,stimulus/audwhat_stim/category_yes.png,stimulus/audwhat_stim/category_no.png,None,Category,None,Category,1,0.0,0,5.125,0,5.125,0,5.125,0,0.0,0.625,0,0,0,0,0,0,0,0,0,0.0,0,0.0,1,0.5,1,2.125,0,,,,,0,11,11,11,,,,,,,,,130.01246958397678,130.01246958397678,130.01246958397678,130.01246958397678,130.01246958397678,130.01246958397678,130.01246958397678,130.01246958397678,129.9333385423253,130.01246958397678,130.01246958397678,130.01246958397678,129.9333385423253,130.01246958397678,130.01246958397678,130.01246958397678,132.09638708399143,,130.01246958397678,130.01246958397678,135.16291208399343,130.01246958397678,130.01246958397678,130.01246958397678,130.01246958397678,130.4750746669888,131.54288633397664,130.44534279164898,,132.09638708399143,133.16878716700012,132.06676525067112,,130.01246958397678,135.16291208399343,130.01246958397678,135.16291208399343,135.20404599999893,135.8592717089923,130.01246958397678,1,1,0.5943610419926699,reldom2_s031,001,2025-02-25_12h42.45.050,Aud-B-Scan_AC,2022.2.5,None,
10,First_Order,2.0,audwhat,stimulus/audwhat_stim/dummy.wav,stimulus/audwhat_stim/dummy.wav,stimulus/audwhat_stim/string cello_high-pitch_F_loud.wav,stimulus/audwhat_stim/percussion mallet_high-pitch_F_loud.wav,stimulus/audwhat_stim/blank_white.png,stimulus/audwhat_stim/category_box.png,stimulus/audwhat_stim/category_yes.png,stimulus/audwhat_stim/category_no.png,None,Category,None,Pitch,2,0.0,0,5.125,0,5.125,0,5.125,0,0.0,0.625,0,0,0,0,0,0,0,0,0,0.0,0,0.0,1,0.5,1,2.125,0,,,,,0,12,12,12,,,,,,,,,136.11286683398066,136.11286683398066,136.11286683398066,136.11286683398066,136.11286683398066,136.11286683398066,136.11286683398066,136.11286683398066,136.0333905833269,136.11286683398066,136.11286683398066,136.11286683398066,136.0333905833269,136.11286683398066,136.11286683398066,136.11286683398066,138.20766299997922,142.24738470898592,136.11286683398066,136.11286683398066,141.28145679199952,136.11286683398066,136.11286683398066,136.11286683398066,136.11286683398066,136.57980345899705,137.6496929169807,136.54875666666,,138.20766299997922,139.28268208398367,138.1779223336528,,136.11286683398066,141.28145679199952,136.11286683398066,141.28145679199952,141.32235037497594,141.97493404199486,136.11286683398066,2,1,0.9611227919813246,reldom2_s031,001,2025-02-25_12h42.45.050,Aud-B-Scan_AC,2022.2.5,None,
0,0.0,None,fixation,stimulus/audwhat_stim/blank_white.png,stimulus/audwhat_stim/blank_white.png,stimulus/audwhere_stim/blank_white.png,stimulus/audwhere_stim/blank_white.png,stimulus/audwhat_stim/blank_white.png,stimulus/audwhat_stim/blank_white.png,stimulus/audwhat_stim/blank_white.png,stimulus/audwhat_stim/blank_white.png,0.0,0.0,0.0,0.0,0,0.0,0,0.0,0,0.0,0,0.0,0,0.0,0.0,0,0,0,0,0,0,0,0,0,0.0,0,0.0,0,0.0,0,0.0,8,,,,,0,13,13,13,,,,,,,,,142.24738470898592,142.24738470898592,142.24738470898592,142.24738470898592,142.24738470898592,142.24738470898592,142.24738470898592,142.24738470898592,142.14844520832608,142.24738470898592,142.24738470898592,142.24738470898592,142.14844520832608,142.24738470898592,142.24738470898592,142.24738470898592,142.24738470898592,142.24738470898592,142.24738470898592,142.24738470898592,142.24738470898592,142.24738470898592,142.24738470898592,142.24738470898592,142.24738470898592,142.24738470898592,142.24738470898592,142.19844520832606,142.24738470898592,142.24738470898592,142.24738470898592,142.19844520832606,142.24738470898592,142.24738470898592,142.24738470898592,142.24738470898592,142.24738470898592,147.4690634169965,147.4690634169965,150.38799341698177,None,0,,reldom2_s031,001,2025-02-25_12h42.45.050,Aud-B-Scan_AC,2022.2.5,None,
11,Second_Order,2.0,audwhat,stimulus/audwhat_stim/string viola_high-pitch_Dtri_loud.wav,stimulus/audwhat_stim/string cello_low-pitch_D_loud.wav,stimulus/audwhat_stim/percussion mallet_high-pitch_Dtri_loud.wav,stimulus/audwhat_stim/percussion mallet_low-pitch_Ftri_loud.wav,stimulus/audwhat_stim/match_blank.png,stimulus/audwhat_stim/match_box.png,stimulus/audwhat_stim/match_yes.png,stimulus/audwhat_stim/match_no.png,1.0,Match,Category,Category,1,5.125,0,5.125,0,5.125,0,5.125,0,0.75,0.75,0,0,0,0,0,0,0,0,1,0.5,1,2.125,1,0.5,1,2.125,0,,,,,0,14,14,14,,,,,,,,,150.38799341698177,155.5104459169961,150.38799341698177,150.38799341698177,150.38799341698177,150.38799341698177,150.8440885419841,151.83368795897695,150.84774641666834,,152.46904174998053,153.46722116699675,152.481197041667,,155.5104459169961,156.35692474999814,158.4259783749876,162.36127266698168,156.35692474999814,156.35692474999814,161.51333412498934,156.35692474999814,156.35692474999814,156.35692474999814,156.35692474999814,156.8175673749938,157.87315220898017,156.7878291666605,,158.4259783749876,159.4895886250015,158.39621075065614,,156.35692474999814,161.51333412498934,156.35692474999814,161.51333412498934,161.55397433397593,,156.35692474999814,1,1,0.9456471249868628,reldom2_s031,001,2025-02-25_12h42.45.050,Aud-B-Scan_AC,2022.2.5,None,
12,Second_Order,2.0,audwhat,stimulus/audwhat_stim/string viola_low-pitch_F_loud.wav,stimulus/audwhat_stim/string viola_high-pitch_Ftri_loud.wav,stimulus/audwhat_stim/percussion mallet_low-pitch_Ftri_loud.wav,stimulus/audwhat_stim/percussion xylophone_high-pitch_Dtri_loud.wav,stimulus/audwhat_stim/match_blank.png,stimulus/audwhat_stim/match_box.png,stimulus/audwhat_stim/match_yes.png,stimulus/audwhat_stim/match_no.png,1.0,Match,Category,Category,1,5.125,0,5.125,0,5.125,0,5.125,0,0.625,0.625,0,0,0,0,0,0,0,0,1,0.5,1,2.125,1,0.5,1,2.125,0,,,,,0,15,15,15,,,,,,,,,162.36127266698168,167.48276708400226,162.36127266698168,162.36127266698168,162.36127266698168,162.36127266698168,162.80920529199648,163.8073482089967,162.8219892506643,,164.44713458398473,165.4446485840017,164.45942100065102,,167.48276708400226,168.2163327919843,170.2675152499869,,168.2163327919843,168.2163327919843,173.38753662499948,168.2163327919843,168.2163327919843,168.2163327919843,168.2163327919843,168.67187762499088,169.72032283397857,168.64247283366083,,170.2675152499869,171.32413883399568,170.23834595864562,171.2780566669826,168.2163327919843,173.38753662499948,168.2163327919843,173.38753662499948,173.38753662499948,174.07219399997848,168.2163327919843,1,1,0.9572222499991767,reldom2_s031,001,2025-02-25_12h42.45.050,Aud-B-Scan_AC,2022.2.5,None,
0,0.0,None,fixation,stimulus/audwhat_stim/blank_white.png,stimulus/audwhat_stim/blank_white.png,stimulus/audwhere_stim/blank_white.png,stimulus/audwhere_stim/blank_white.png,stimulus/audwhat_stim/blank_white.png,stimulus/audwhat_stim/blank_white.png,stimulus/audwhat_stim/blank_white.png,stimulus/audwhat_stim/blank_white.png,0.0,0.0,0.0,0.0,0,0.0,0,0.0,0,0.0,0,0.0,0,0.0,0.0,0,0,0,0,0,0,0,0,0,0.0,0,0.0,0,0.0,0,0.0,9,,,,,0,16,16,16,,,,,,,,,174.30353887498495,174.30353887498495,174.30353887498495,174.30353887498495,174.30353887498495,174.30353887498495,174.30353887498495,174.30353887498495,174.20552733331184,174.30353887498495,174.30353887498495,174.30353887498495,174.20552733331184,174.30353887498495,174.30353887498495,174.30353887498495,174.30353887498495,174.30353887498495,174.30353887498495,174.30353887498495,174.30353887498495,174.30353887498495,174.30353887498495,174.30353887498495,174.30353887498495,174.30353887498495,174.30353887498495,174.25552733331182,174.30353887498495,174.30353887498495,174.30353887498495,174.25552733331182,174.30353887498495,174.30353887498495,174.30353887498495,174.30353887498495,174.30353887498495,179.5382436249929,179.5382436249929,183.54632583400235,None,0,,reldom2_s031,001,2025-02-25_12h42.45.050,Aud-B-Scan_AC,2022.2.5,None,
13,First_Order,3.0,audwhere,stimulus/audwhere_stim/dummy.wav,stimulus/audwhere_stim/dummy.wav,stimulus/audwhere_stim/left_toward_290h.wav,stimulus/audwhere_stim/right_toward_280h.wav,stimulus/audwhere_stim/blank_white.png,stimulus/audwhere_stim/direction_box.png,stimulus/audwhere_stim/direction_yes.png,stimulus/audwhere_stim/direction_no.png,None,Direction,None,Direction,1,0.0,0,5.125,0,5.125,0,5.125,0,0.0,0.625,0,0,0,0,0,0,0,0,0,0.0,0,0.0,1,0.5,1,2.125,0,,,,,0,17,17,17,,,,,,,,,183.54632583400235,183.54632583400235,183.54632583400235,183.54632583400235,183.54632583400235,183.54632583400235,183.54632583400235,183.54632583400235,183.47572220865794,183.54632583400235,183.54632583400235,183.54632583400235,183.47572220865794,183.54632583400235,183.54632583400235,183.54632583400235,185.63403283400112,,183.54632583400235,183.54632583400235,188.6960304999957,183.54632583400235,183.54632583400235,183.54632583400235,183.54632583400235,184.01071562498691,185.07794200000353,183.98153679166379,,185.63403283400112,186.70542158398894,185.60414029166375,,183.54632583400235,188.6960304999957,183.54632583400235,188.6960304999957,188.73693141699187,189.3896215419809,183.54632583400235,1,1,1.0919896660197992,reldom2_s031,001,2025-02-25_12h42.45.050,Aud-B-Scan_AC,2022.2.5,None,
14,First_Order,3.0,audwhere,stimulus/audwhere_stim/dummy.wav,stimulus/audwhere_stim/dummy.wav,stimulus/audwhere_stim/left_toward_270h.wav,stimulus/audwhere_stim/right_toward_290h.wav,stimulus/audwhere_stim/blank_white.png,stimulus/audwhere_stim/direction_box.png,stimulus/audwhere_stim/direction_yes.png,stimulus/audwhere_stim/direction_no.png,None,Direction,None,Direction,1,0.0,0,5.125,0,5.125,0,5.125,0,0.0,0.625,0,0,0,0,0,0,0,0,0,0.0,0,0.0,1,0.5,1,2.125,0,,,,,0,18,18,18,,,,,,,,,189.64229116699426,189.64229116699426,189.64229116699426,189.64229116699426,189.64229116699426,189.64229116699426,189.64229116699426,189.64229116699426,189.56368512532404,189.64229116699426,189.64229116699426,189.64229116699426,189.56368512532404,189.64229116699426,189.64229116699426,189.64229116699426,191.73373970898683,,189.64229116699426,189.64229116699426,194.800511791982,189.64229116699426,189.64229116699426,189.64229116699426,189.64229116699426,190.10568599999533,191.17660158398212,190.0757649586633,,191.73373970898683,192.80404916699626,191.7038201666476,,189.64229116699426,194.800511791982,189.64229116699426,194.800511791982,194.84172691698768,195.4953812919848,189.64229116699426,1,1,1.3016721669991966,reldom2_s031,001,2025-02-25_12h42.45.050,Aud-B-Scan_AC,2022.2.5,None,
15,First_Order,3.0,audwhere,stimulus/audwhere_stim/dummy.wav,stimulus/audwhere_stim/dummy.wav,stimulus/audwhere_stim/left_away_290h.wav,stimulus/audwhere_stim/left_toward_280h.wav,stimulus/audwhere_stim/blank_white.png,stimulus/audwhere_stim/direction_box.png,stimulus/audwhere_stim/direction_yes.png,stimulus/audwhere_stim/direction_no.png,None,Direction,None,Side,2,0.0,0,5.125,0,5.125,0,5.125,0,0.0,0.625,0,0,0,0,0,0,0,0,0,0.0,0,0.0,1,0.5,1,2.125,0,,,,,0,19,19,19,,,,,,,,,195.74871495898697,195.74871495898697,195.74871495898697,195.74871495898697,195.74871495898697,195.74871495898697,195.74871495898697,195.74871495898697,195.66957691731128,195.74871495898697,195.74871495898697,195.74871495898697,195.66957691731128,195.74871495898697,195.74871495898697,195.74871495898697,197.8398952089774,,195.74871495898697,195.74871495898697,200.9100123749813,195.74871495898697,195.74871495898697,195.74871495898697,195.74871495898697,196.2145085419761,197.2822011669923,196.18438770866877,,197.8398952089774,198.9131316249841,197.81006937564624,,195.74871495898697,200.9100123749813,195.74871495898697,200.9100123749813,200.95092191698495,201.60541937500238,195.74871495898697,1,0,1.291056916990783,reldom2_s031,001,2025-02-25_12h42.45.050,Aud-B-Scan_AC,2022.2.5,None,
16,First_Order,3.0,audwhere,stimulus/audwhere_stim/dummy.wav,stimulus/audwhere_stim/dummy.wav,stimulus/audwhere_stim/left_toward_300h.wav,stimulus/audwhere_stim/left_away_290h.wav,stimulus/audwhere_stim/blank_white.png,stimulus/audwhere_stim/direction_box.png,stimulus/audwhere_stim/direction_yes.png,stimulus/audwhere_stim/direction_no.png,None,Direction,None,Side,2,0.0,0,5.125,0,5.125,0,5.125,0,0.0,0.625,0,0,0,0,0,0,0,0,0,0.0,0,0.0,1,0.5,1,2.125,0,,,,,0,20,20,20,,,,,,,,,201.85916624998208,201.85916624998208,201.85916624998208,201.85916624998208,201.85916624998208,201.85916624998208,201.85916624998208,201.85916624998208,201.77973491733624,201.85916624998208,201.85916624998208,201.85916624998208,201.77973491733624,201.85916624998208,201.85916624998208,201.85916624998208,203.95056237498648,207.9922130839841,201.85916624998208,201.85916624998208,207.02378879199387,201.85916624998208,201.85916624998208,201.85916624998208,201.85916624998208,202.32360208398313,203.39381424998282,202.2938496256577,,203.95056237498648,205.02248733397573,203.920727000663,,201.85916624998208,207.02378879199387,201.85916624998208,207.02378879199387,207.06482587498613,207.7183226670022,201.85916624998208,2,1,1.1571585409983527,reldom2_s031,001,2025-02-25_12h42.45.050,Aud-B-Scan_AC,2022.2.5,None,
0,0.0,None,fixation,stimulus/audwhat_stim/blank_white.png,stimulus/audwhat_stim/blank_white.png,stimulus/audwhere_stim/blank_white.png,stimulus/audwhere_stim/blank_white.png,stimulus/audwhat_stim/blank_white.png,stimulus/audwhat_stim/blank_white.png,stimulus/audwhat_stim/blank_white.png,stimulus/audwhat_stim/blank_white.png,0.0,0.0,0.0,0.0,0,0.0,0,0.0,0,0.0,0,0.0,0,0.0,0.0,0,0,0,0,0,0,0,0,0,0.0,0,0.0,0,0.0,0,0.0,10,,,,,0,21,21,21,,,,,,,,,207.9922130839841,207.9922130839841,207.9922130839841,207.9922130839841,207.9922130839841,207.9922130839841,207.9922130839841,207.9922130839841,207.89265687531056,207.9922130839841,207.9922130839841,207.9922130839841,207.89265687531056,207.9922130839841,207.9922130839841,207.9922130839841,207.9922130839841,207.9922130839841,207.9922130839841,207.9922130839841,207.9922130839841,207.9922130839841,207.9922130839841,207.9922130839841,207.9922130839841,207.9922130839841,207.9922130839841,207.94265687531055,207.9922130839841,207.9922130839841,207.9922130839841,207.94265687531055,207.9922130839841,207.9922130839841,207.9922130839841,207.9922130839841,207.9922130839841,213.17734012499568,213.17734012499568,218.13124491699273,None,0,,reldom2_s031,001,2025-02-25_12h42.45.050,Aud-B-Scan_AC,2022.2.5,None,
17,Second_Order,3.0,audwhere,stimulus/audwhere_stim/right_toward_290h.wav,stimulus/audwhere_stim/right_away_290h.wav,stimulus/audwhere_stim/right_away_280h.wav,stimulus/audwhere_stim/left_away_300h.wav,stimulus/audwhat_stim/match_blank.png,stimulus/audwhat_stim/match_box.png,stimulus/audwhat_stim/match_yes.png,stimulus/audwhat_stim/match_no.png,2.0,Match,Side,Direction,2,5.125,0,5.125,0,5.125,0,5.125,0,0.75,0.75,0,0,0,0,0,0,0,0,1,0.5,1,2.125,1,0.5,1,2.125,0,,,,,0,22,22,22,,,,,,,,,218.13124491699273,223.24943274998805,218.13124491699273,218.13124491699273,218.13124491699273,218.13124491699273,218.5864724169951,219.57269041700056,218.6003821666566,,220.20907424998586,221.2065349999757,220.22135895866475,,223.24943274998805,224.09989774998394,226.17051741699106,,224.09989774998394,224.09989774998394,229.2680344590044,224.09989774998394,224.09989774998394,224.09989774998394,224.09989774998394,224.5134087499755,225.57102287499583,224.48370529164484,,226.17051741699106,227.23556783399545,226.1411129166702,,224.09989774998394,229.2680344590044,224.09989774998394,229.2680344590044,229.2680344590044,,224.09989774998394,1,0,2.2203983749786858,reldom2_s031,001,2025-02-25_12h42.45.050,Aud-B-Scan_AC,2022.2.5,None,
18,Second_Order,3.0,audwhere,stimulus/audwhere_stim/right_toward_270h.wav,stimulus/audwhere_stim/left_toward_270h.wav,stimulus/audwhere_stim/right_away_300h.wav,stimulus/audwhere_stim/left_away_280h.wav,stimulus/audwhat_stim/match_blank.png,stimulus/audwhat_stim/match_box.png,stimulus/audwhat_stim/match_yes.png,stimulus/audwhat_stim/match_no.png,1.0,Match,Direction,Direction,1,5.125,0,5.125,0,5.125,0,5.125,0,0.625,0.625,0,0,0,0,0,0,0,0,1,0.5,1,2.125,1,0.5,1,2.125,0,,,,,0,23,23,23,,,,,,,,,230.07685570899048,235.1939970839885,230.07685570899048,230.07685570899048,230.07685570899048,230.07685570899048,230.53209258397692,231.53055704198778,230.54485970866907,,232.1532046670036,233.1510747919965,232.16531154164502,,235.1939970839885,235.92391674997634,237.9813362089917,,235.92391674997634,235.92391674997634,241.10637595900334,235.92391674997634,235.92391674997634,235.92391674997634,235.92391674997634,236.37808158400003,237.43092708400218,236.348798250667,,237.9813362089917,239.04383024998242,237.95172066666808,,235.92391674997634,241.10637595900334,235.92391674997634,241.10637595900334,241.10637595900334,241.78436258400325,235.92391674997634,1,1,0.9610350409930106,reldom2_s031,001,2025-02-25_12h42.45.050,Aud-B-Scan_AC,2022.2.5,None,
0,0.0,None,fixation,stimulus/audwhat_stim/blank_white.png,stimulus/audwhat_stim/blank_white.png,stimulus/audwhere_stim/blank_white.png,stimulus/audwhere_stim/blank_white.png,stimulus/audwhat_stim/blank_white.png,stimulus/audwhat_stim/blank_white.png,stimulus/audwhat_stim/blank_white.png,stimulus/audwhat_stim/blank_white.png,0.0,0.0,0.0,0.0,0,0.0,0,0.0,0,0.0,0,0.0,0,0.0,0.0,0,0,0,0,0,0,0,0,0,0.0,0,0.0,0,0.0,0,0.0,8,,,,,0,24,24,24,,,,,,,,,242.0253432089812,242.0253432089812,242.0253432089812,242.0253432089812,242.0253432089812,242.0253432089812,242.0253432089812,242.0253432089812,241.93436258400325,242.0253432089812,242.0253432089812,242.0253432089812,241.93436258400325,242.0253432089812,242.0253432089812,242.0253432089812,242.0253432089812,242.0253432089812,242.0253432089812,242.0253432089812,242.0253432089812,242.0253432089812,242.0253432089812,242.0253432089812,242.0253432089812,242.0253432089812,242.0253432089812,241.98436258400326,242.0253432089812,242.0253432089812,242.0253432089812,241.98436258400326,242.0253432089812,242.0253432089812,242.0253432089812,242.0253432089812,242.0253432089812,247.20881595899118,247.20881595899118,250.2665679169877,None,0,,reldom2_s031,001,2025-02-25_12h42.45.050,Aud-B-Scan_AC,2022.2.5,None,
19,First_Order,4.0,audwhere,stimulus/audwhere_stim/dummy.wav,stimulus/audwhere_stim/dummy.wav,stimulus/audwhere_stim/right_toward_280h.wav,stimulus/audwhere_stim/left_toward_280h.wav,stimulus/audwhere_stim/blank_white.png,stimulus/audwhere_stim/side_box.png,stimulus/audwhere_stim/side_yes.png,stimulus/audwhere_stim/side_no.png,None,Side,None,Direction,2,0.0,0,5.125,0,5.125,0,5.125,0,0.0,0.625,0,0,0,0,0,0,0,0,0,0.0,0,0.0,1,0.5,1,2.125,0,,,,,0,25,25,25,,,,,,,,,250.2665679169877,250.2665679169877,250.2665679169877,250.2665679169877,250.2665679169877,250.2665679169877,250.2665679169877,250.2665679169877,250.19591862566693,250.2665679169877,250.2665679169877,250.2665679169877,250.19591862566693,250.2665679169877,250.2665679169877,250.2665679169877,252.34240716698696,256.38905983397854,250.2665679169877,250.2665679169877,255.44331166698248,250.2665679169877,250.2665679169877,250.2665679169877,250.2665679169877,250.7293468749849,251.78952545899665,250.6995837916659,,252.34240716698696,253.4097832919797,252.31268825065152,,250.2665679169877,255.44331166698248,250.2665679169877,255.44331166698248,255.48442929200246,256.1363300419762,250.2665679169877,2,1,2.2765942919941153,reldom2_s031,001,2025-02-25_12h42.45.050,Aud-B-Scan_AC,2022.2.5,None,
20,First_Order,4.0,audwhere,stimulus/audwhere_stim/dummy.wav,stimulus/audwhere_stim/dummy.wav,stimulus/audwhere_stim/left_toward_290h.wav,stimulus/audwhere_stim/right_toward_270h.wav,stimulus/audwhere_stim/blank_white.png,stimulus/audwhere_stim/side_box.png,stimulus/audwhere_stim/side_yes.png,stimulus/audwhere_stim/side_no.png,None,Side,None,Direction,2,0.0,0,5.125,0,5.125,0,5.125,0,0.0,0.625,0,0,0,0,0,0,0,0,0,0.0,0,0.0,1,0.5,1,2.125,0,,,,,0,26,26,26,,,,,,,,,256.38905983397854,256.38905983397854,256.38905983397854,256.38905983397854,256.38905983397854,256.38905983397854,256.38905983397854,256.38905983397854,256.3104074583117,256.38905983397854,256.38905983397854,256.38905983397854,256.3104074583117,256.38905983397854,256.38905983397854,256.38905983397854,258.4703327919997,262.5168782089895,256.38905983397854,256.38905983397854,261.57184087499627,256.38905983397854,256.38905983397854,256.38905983397854,256.38905983397854,256.853178291989,257.91616495899507,256.8233223756581,,258.4703327919997,259.5372774999996,258.4405776256501,,256.38905983397854,261.57184087499627,256.38905983397854,261.57184087499627,261.613522833999,262.26514433400007,256.38905983397854,2,1,1.5106397909694351,reldom2_s031,001,2025-02-25_12h42.45.050,Aud-B-Scan_AC,2022.2.5,None,
21,First_Order,4.0,audwhere,stimulus/audwhere_stim/dummy.wav,stimulus/audwhere_stim/dummy.wav,stimulus/audwhere_stim/left_toward_270h.wav,stimulus/audwhere_stim/left_away_300h.wav,stimulus/audwhere_stim/blank_white.png,stimulus/audwhere_stim/side_box.png,stimulus/audwhere_stim/side_yes.png,stimulus/audwhere_stim/side_no.png,None,Side,None,Side,1,0.0,0,5.125,0,5.125,0,5.125,0,0.0,0.625,0,0,0,0,0,0,0,0,0,0.0,0,0.0,1,0.5,1,2.125,0,,,,,0,27,27,27,,,,,,,,,262.5168782089895,262.5168782089895,262.5168782089895,262.5168782089895,262.5168782089895,262.5168782089895,262.5168782089895,262.5168782089895,262.43874012533536,262.5168782089895,262.5168782089895,262.5168782089895,262.43874012533536,262.5168782089895,262.5168782089895,262.5168782089895,264.60135291700135,,262.5168782089895,262.5168782089895,267.70364745898405,262.5168782089895,262.5168782089895,262.5168782089895,262.5168782089895,262.98157258398714,264.04627558399807,262.95202829165305,,264.60135291700135,265.66957862497657,264.57077495864746,,262.5168782089895,267.70364745898405,262.5168782089895,267.70364745898405,267.7447347919806,268.3979750419967,262.5168782089895,1,1,1.2806329159939196,reldom2_s031,001,2025-02-25_12h42.45.050,Aud-B-Scan_AC,2022.2.5,None,
22,First_Order,4.0,audwhere,stimulus/audwhere_stim/dummy.wav,stimulus/audwhere_stim/dummy.wav,stimulus/audwhere_stim/left_away_290h.wav,stimulus/audwhere_stim/left_toward_270h.wav,stimulus/audwhere_stim/blank_white.png,stimulus/audwhere_stim/side_box.png,stimulus/audwhere_stim/side_yes.png,stimulus/audwhere_stim/side_no.png,None,Side,None,Side,1,0.0,0,5.125,0,5.125,0,5.125,0,0.0,0.625,0,0,0,0,0,0,0,0,0,0.0,0,0.0,1,0.5,1,2.125,0,,,,,0,28,28,28,,,,,,,,,268.611606416991,268.611606416991,268.611606416991,268.611606416991,268.611606416991,268.611606416991,268.611606416991,268.611606416991,268.53130837533,268.611606416991,268.611606416991,268.611606416991,268.53130837533,268.611606416991,268.611606416991,268.611606416991,270.6970296249783,,268.611606416991,268.611606416991,273.7990131669794,268.611606416991,268.611606416991,268.611606416991,268.611606416991,269.0752267919888,270.1411459169758,269.0452982916652,,270.6970296249783,271.76353970897617,270.6674571256483,,268.611606416991,273.7990131669794,268.611606416991,273.7990131669794,273.84004258399364,274.49072391699883,268.611606416991,1,1,1.203307291987585,reldom2_s031,001,2025-02-25_12h42.45.050,Aud-B-Scan_AC,2022.2.5,None,
0,0.0,None,fixation,stimulus/audwhat_stim/blank_white.png,stimulus/audwhat_stim/blank_white.png,stimulus/audwhere_stim/blank_white.png,stimulus/audwhere_stim/blank_white.png,stimulus/audwhat_stim/blank_white.png,stimulus/audwhat_stim/blank_white.png,stimulus/audwhat_stim/blank_white.png,stimulus/audwhat_stim/blank_white.png,0.0,0.0,0.0,0.0,0,0.0,0,0.0,0,0.0,0,0.0,0,0.0,0.0,0,0,0,0,0,0,0,0,0,0.0,0,0.0,0,0.0,0,0.0,10,,,,,0,29,29,29,,,,,,,,,274.72523366697715,274.72523366697715,274.72523366697715,274.72523366697715,274.72523366697715,274.72523366697715,274.72523366697715,274.72523366697715,274.62405725033216,274.72523366697715,274.72523366697715,274.72523366697715,274.62405725033216,274.72523366697715,274.72523366697715,274.72523366697715,274.72523366697715,274.72523366697715,274.72523366697715,274.72523366697715,274.72523366697715,274.72523366697715,274.72523366697715,274.72523366697715,274.72523366697715,274.72523366697715,274.72523366697715,274.67405725033217,274.72523366697715,274.72523366697715,274.72523366697715,274.67405725033217,274.72523366697715,274.72523366697715,274.72523366697715,274.72523366697715,274.72523366697715,279.9320722919947,279.9320722919947,284.88689299998805,None,0,,reldom2_s031,001,2025-02-25_12h42.45.050,Aud-B-Scan_AC,2022.2.5,None,
23,Second_Order,4.0,audwhere,stimulus/audwhere_stim/right_toward_300h.wav,stimulus/audwhere_stim/left_toward_270h.wav,stimulus/audwhere_stim/left_away_300h.wav,stimulus/audwhere_stim/right_away_300h.wav,stimulus/audwhat_stim/match_blank.png,stimulus/audwhat_stim/match_box.png,stimulus/audwhat_stim/match_yes.png,stimulus/audwhat_stim/match_no.png,1.0,Match,Direction,Direction,1,5.125,0,5.125,0,5.125,0,5.125,0,0.75,0.75,0,0,0,0,0,0,0,0,1,0.5,1,2.125,1,0.5,1,2.125,0,,,,,0,30,30,30,,,,,,,,,284.88689299998805,290.00349058400025,284.88689299998805,284.88689299998805,284.88689299998805,284.88689299998805,285.34042329198564,286.32714341700193,285.35462037564525,,286.963423624984,287.9609619169787,286.97571991666723,,290.00349058400025,290.85084437500336,292.92631754197646,,290.85084437500336,290.85084437500336,296.0217259170022,290.85084437500336,290.85084437500336,290.85084437500336,290.85084437500336,291.30978787498316,292.36957533398527,291.27997500065635,,292.92631754197646,293.9884221669927,292.8960583336632,,290.85084437500336,296.0217259170022,290.85084437500336,296.0217259170022,296.0217259170022,,290.85084437500336,1,1,1.3299439159745816,reldom2_s031,001,2025-02-25_12h42.45.050,Aud-B-Scan_AC,2022.2.5,None,
24,Second_Order,4.0,audwhere,stimulus/audwhere_stim/right_toward_300h.wav,stimulus/audwhere_stim/left_toward_300h.wav,stimulus/audwhere_stim/left_away_290h.wav,stimulus/audwhere_stim/right_away_280h.wav,stimulus/audwhat_stim/match_blank.png,stimulus/audwhat_stim/match_box.png,stimulus/audwhat_stim/match_yes.png,stimulus/audwhat_stim/match_no.png,1.0,Match,Direction,Direction,1,5.125,0,5.125,0,5.125,0,5.125,0,0.625,0.625,0,0,0,0,0,0,0,0,1,0.5,1,2.125,1,0.5,1,2.125,0,,,,,0,31,31,31,,,,,,,,,296.8317397919891,301.94786891699187,296.8317397919891,296.8317397919891,296.8317397919891,296.8317397919891,297.2861010839988,298.2847774999973,297.2991884166588,,298.90744916698895,299.9051455419976,298.9194177506472,,301.94786891699187,302.67827091697836,304.7438288339763,308.7925697499886,302.67827091697836,302.67827091697836,307.83193920899066,302.67827091697836,302.67827091697836,302.67827091697836,302.67827091697836,303.135205958999,304.19208616699325,303.1062244166426,,304.7438288339763,305.80394250000245,304.71470933364276,,302.67827091697836,307.83193920899066,302.67827091697836,307.83193920899066,307.8727413750021,308.5600442919822,302.67827091697836,1,1,1.6972158340213355,reldom2_s031,001,2025-02-25_12h42.45.050,Aud-B-Scan_AC,2022.2.5,None,
0,0.0,None,fixation,stimulus/audwhat_stim/blank_white.png,stimulus/audwhat_stim/blank_white.png,stimulus/audwhere_stim/blank_white.png,stimulus/audwhere_stim/blank_white.png,stimulus/audwhat_stim/blank_white.png,stimulus/audwhat_stim/blank_white.png,stimulus/audwhat_stim/blank_white.png,stimulus/audwhat_stim/blank_white.png,0.0,0.0,0.0,0.0,0,0.0,0,0.0,0,0.0,0,0.0,0,0.0,0.0,0,0,0,0,0,0,0,0,0,0.0,0,0.0,0,0.0,0,0.0,9,,,,,0,32,32,32,,,,,,,,,308.7925697499886,308.7925697499886,308.7925697499886,308.7925697499886,308.7925697499886,308.7925697499886,308.7925697499886,308.7925697499886,308.6933776253155,308.7925697499886,308.7925697499886,308.7925697499886,308.6933776253155,308.7925697499886,308.7925697499886,308.7925697499886,308.7925697499886,308.7925697499886,308.7925697499886,308.7925697499886,308.7925697499886,308.7925697499886,308.7925697499886,308.7925697499886,308.7925697499886,308.7925697499886,308.7925697499886,308.74337762531553,308.7925697499886,308.7925697499886,308.7925697499886,308.74337762531553,308.7925697499886,308.7925697499886,308.7925697499886,308.7925697499886,308.7925697499886,313.99128620899864,313.99128620899864,318.060584833991,None,0,,reldom2_s031,001,2025-02-25_12h42.45.050,Aud-B-Scan_AC,2022.2.5,None,
25,First_Order,5.0,audwhat,stimulus/audwhat_stim/dummy.wav,stimulus/audwhat_stim/dummy.wav,stimulus/audwhat_stim/percussion xylophone_high-pitch_Ftri_loud.wav,stimulus/audwhat_stim/percussion mallet_low-pitch_F_loud.wav,stimulus/audwhat_stim/blank_white.png,stimulus/audwhat_stim/pitch_box.png,stimulus/audwhat_stim/pitch_yes.png,stimulus/audwhat_stim/pitch_no.png,None,Pitch,None,Category,2,0.0,0,5.125,0,5.125,0,5.125,0,0.0,0.625,0,0,0,0,0,0,0,0,0,0.0,0,0.0,1,0.5,1,2.125,0,,,,,0,33,33,33,,,,,,,,,318.060584833991,318.060584833991,318.060584833991,318.060584833991,318.060584833991,318.060584833991,318.060584833991,318.060584833991,317.9870957086483,318.060584833991,318.060584833991,318.060584833991,317.9870957086483,318.060584833991,318.060584833991,318.060584833991,320.14298287499696,,318.060584833991,318.060584833991,323.24960054198164,318.060584833991,318.060584833991,318.060584833991,318.060584833991,318.5237215840025,319.5887298749876,318.49403150065723,319.5424119999807,320.14298287499696,321.2127439589822,320.1134678756682,,318.060584833991,323.24960054198164,318.060584833991,323.24960054198164,323.24960054198164,323.8998762499832,318.060584833991,1,0,1.192108624993125,reldom2_s031,001,2025-02-25_12h42.45.050,Aud-B-Scan_AC,2022.2.5,None,
26,First_Order,5.0,audwhat,stimulus/audwhat_stim/dummy.wav,stimulus/audwhat_stim/dummy.wav,stimulus/audwhat_stim/percussion mallet_low-pitch_Dtri_loud.wav,stimulus/audwhat_stim/percussion xylophone_high-pitch_Ftri_loud.wav,stimulus/audwhat_stim/blank_white.png,stimulus/audwhat_stim/category_box.png,stimulus/audwhat_stim/category_yes.png,stimulus/audwhat_stim/category_no.png,None,Category,None,Category,1,0.0,0,5.125,0,5.125,0,5.125,0,0.0,0.625,0,0,0,0,0,0,0,0,0,0.0,0,0.0,1,0.5,1,2.125,0,,,,,0,34,34,34,,,,,,,,,324.1529569589766,324.1529569589766,324.1529569589766,324.1529569589766,324.1529569589766,324.1529569589766,324.1529569589766,324.1529569589766,324.0733067923303,324.1529569589766,324.1529569589766,324.1529569589766,324.0733067923303,324.1529569589766,324.1529569589766,324.1529569589766,326.24035366700264,,324.1529569589766,324.1529569589766,329.3130199589941,324.1529569589766,324.1529569589766,324.1529569589766,324.1529569589766,324.6177343750023,325.68430562497815,324.5877279586605,,326.24035366700264,327.3144091249851,326.2103169166696,327.2680825839925,324.1529569589766,329.3130199589941,324.1529569589766,329.3130199589941,329.35437062499113,330.0084792919806,324.1529569589766,1,1,1.1996402500080876,reldom2_s031,001,2025-02-25_12h42.45.050,Aud-B-Scan_AC,2022.2.5,None,
27,First_Order,5.0,audwhat,stimulus/audwhat_stim/dummy.wav,stimulus/audwhat_stim/dummy.wav,stimulus/audwhat_stim/string cello_low-pitch_Dtri_loud.wav,stimulus/audwhat_stim/percussion mallet_low-pitch_Dtri_loud.wav,stimulus/audwhat_stim/blank_white.png,stimulus/audwhat_stim/pitch_box.png,stimulus/audwhat_stim/pitch_yes.png,stimulus/audwhat_stim/pitch_no.png,None,Pitch,None,Pitch,1,0.0,0,5.125,0,5.125,0,5.125,0,0.0,0.625,0,0,0,0,0,0,0,0,0,0.0,0,0.0,1,0.5,1,2.125,0,,,,,0,35,35,35,,,,,,,,,330.2619180420006,330.2619180420006,330.2619180420006,330.2619180420006,330.2619180420006,330.2619180420006,330.2619180420006,330.2619180420006,330.1827105423164,330.2619180420006,330.2619180420006,330.2619180420006,330.1827105423164,330.2619180420006,330.2619180420006,330.2619180420006,332.34572312497767,,330.2619180420006,330.2619180420006,335.4546746669803,330.2619180420006,330.2619180420006,330.2619180420006,330.2619180420006,330.7264604169759,331.79110758399474,330.6967160836541,,332.34572312497767,333.4173490839894,332.31576441665334,,330.2619180420006,335.4546746669803,330.2619180420006,335.4546746669803,335.4546746669803,336.10617354197893,330.2619180420006,2,0,3.0956764579750597,reldom2_s031,001,2025-02-25_12h42.45.050,Aud-B-Scan_AC,2022.2.5,None,
28,First_Order,5.0,audwhat,stimulus/audwhat_stim/dummy.wav,stimulus/audwhat_stim/dummy.wav,stimulus/audwhat_stim/percussion xylophone_high-pitch_Ftri_loud.wav,stimulus/audwhat_stim/percussion mallet_low-pitch_F_loud.wav,stimulus/audwhat_stim/blank_white.png,stimulus/audwhat_stim/category_box.png,stimulus/audwhat_stim/category_yes.png,stimulus/audwhat_stim/category_no.png,None,Category,None,Category,1,0.0,0,5.125,0,5.125,0,5.125,0,0.0,0.625,0,0,0,0,0,0,0,0,0,0.0,0,0.0,1,0.5,1,2.125,0,,,,,0,36,36,36,,,,,,,,,336.35937333398033,336.35937333398033,336.35937333398033,336.35937333398033,336.35937333398033,336.35937333398033,336.35937333398033,336.35937333398033,336.2796396253126,336.35937333398033,336.35937333398033,336.35937333398033,336.2796396253126,336.35937333398033,336.35937333398033,336.35937333398033,338.45060608399217,342.5043935419817,336.35937333398033,336.35937333398033,341.532344584004,336.35937333398033,336.35937333398033,336.35937333398033,336.35937333398033,336.8252668749774,337.892747083999,336.7953930836559,337.84619924999424,338.45060608399217,339.48183304199483,338.42086658365247,,336.35937333398033,341.532344584004,336.35937333398033,341.532344584004,341.5739094169985,342.2300478339894,336.35937333398033,1,1,0.43388274998869747,reldom2_s031,001,2025-02-25_12h42.45.050,Aud-B-Scan_AC,2022.2.5,None,
0,0.0,None,fixation,stimulus/audwhat_stim/blank_white.png,stimulus/audwhat_stim/blank_white.png,stimulus/audwhere_stim/blank_white.png,stimulus/audwhere_stim/blank_white.png,stimulus/audwhat_stim/blank_white.png,stimulus/audwhat_stim/blank_white.png,stimulus/audwhat_stim/blank_white.png,stimulus/audwhat_stim/blank_white.png,0.0,0.0,0.0,0.0,0,0.0,0,0.0,0,0.0,0,0.0,0,0.0,0.0,0,0,0,0,0,0,0,0,0,0.0,0,0.0,0,0.0,0,0.0,8,,,,,0,37,37,37,,,,,,,,,342.5043935419817,342.5043935419817,342.5043935419817,342.5043935419817,342.5043935419817,342.5043935419817,342.5043935419817,342.5043935419817,342.40426387533273,342.5043935419817,342.5043935419817,342.5043935419817,342.40426387533273,342.5043935419817,342.5043935419817,342.5043935419817,342.5043935419817,342.5043935419817,342.5043935419817,342.5043935419817,342.5043935419817,342.5043935419817,342.5043935419817,342.5043935419817,342.5043935419817,342.5043935419817,342.5043935419817,342.45426387533274,342.5043935419817,342.5043935419817,342.5043935419817,342.45426387533274,342.5043935419817,342.5043935419817,342.5043935419817,342.5043935419817,342.5043935419817,347.6952307499887,347.6952307499887,350.6751879999938,None,0,,reldom2_s031,001,2025-02-25_12h42.45.050,Aud-B-Scan_AC,2022.2.5,None,
29,Second_Order,5.0,audwhat,stimulus/audwhat_stim/string viola_low-pitch_Dtri_loud.wav,stimulus/audwhat_stim/percussion mallet_low-pitch_Dtri_loud.wav,stimulus/audwhat_stim/string viola_low-pitch_Dtri_loud.wav,stimulus/audwhat_stim/string cello_high-pitch_Ftri_loud.wav,stimulus/audwhat_stim/match_blank.png,stimulus/audwhat_stim/match_box.png,stimulus/audwhat_stim/match_yes.png,stimulus/audwhat_stim/match_no.png,2.0,Match,Pitch,Category,2,5.125,0,5.125,0,5.125,0,5.125,0,0.75,0.75,0,0,0,0,0,0,0,0,1,0.5,1,2.125,1,0.5,1,2.125,0,,,,,0,38,38,38,,,,,,,,,350.6751879999938,355.7890975420014,350.6751879999938,350.6751879999938,350.6751879999938,350.6751879999938,351.12726424998255,352.12587337498553,351.14018929165127,,352.7476628339791,353.74655933398753,352.76026845866386,,355.7890975420014,356.6409079589939,358.71731016697595,362.6312550419825,356.6409079589939,356.6409079589939,361.81853045898606,356.6409079589939,356.6409079589939,356.6409079589939,356.6409079589939,357.05559337500017,358.1165679169935,357.0259519166468,,358.71731016697595,359.78597574998275,358.6872716666587,,356.6409079589939,361.81853045898606,356.6409079589939,361.81853045898606,361.81853045898606,,356.6409079589939,1,0,0.7211421669926494,reldom2_s031,001,2025-02-25_12h42.45.050,Aud-B-Scan_AC,2022.2.5,None,
30,Second_Order,5.0,audwhat,stimulus/audwhat_stim/string viola_high-pitch_Ftri_loud.wav,stimulus/audwhat_stim/percussion xylophone_high-pitch_Ftri_loud.wav,stimulus/audwhat_stim/string viola_low-pitch_D_loud.wav,stimulus/audwhat_stim/percussion mallet_low-pitch_D_loud.wav,stimulus/audwhat_stim/match_blank.png,stimulus/audwhat_stim/match_box.png,stimulus/audwhat_stim/match_yes.png,stimulus/audwhat_stim/match_no.png,1.0,Match,Pitch,Pitch,1,5.125,0,5.125,0,5.125,0,5.125,0,0.625,0.625,0,0,0,0,0,0,0,0,1,0.5,1,2.125,1,0.5,1,2.125,0,,,,,0,39,39,39,,,,,,,,,362.6312550419825,367.7501803749765,362.6312550419825,362.6312550419825,362.6312550419825,362.6312550419825,363.08639016698,364.0746532919875,363.10067204165193,,364.7092825839936,365.70740424998803,364.7218805836494,365.71054770899354,367.7501803749765,368.47795804199995,370.5391894999775,374.588798791985,368.47795804199995,368.47795804199995,373.62663683400024,368.47795804199995,368.47795804199995,368.47795804199995,368.47795804199995,368.93429154198384,369.99033224998857,368.9053195006602,,370.5391894999775,371.60226250000414,370.5098671666676,,368.47795804199995,373.62663683400024,368.47795804199995,373.62663683400024,373.66743120900355,374.3162246249849,368.47795804199995,1,1,0.8170265830121934,reldom2_s031,001,2025-02-25_12h42.45.050,Aud-B-Scan_AC,2022.2.5,None,
0,0.0,None,fixation,stimulus/audwhat_stim/blank_white.png,stimulus/audwhat_stim/blank_white.png,stimulus/audwhere_stim/blank_white.png,stimulus/audwhere_stim/blank_white.png,stimulus/audwhat_stim/blank_white.png,stimulus/audwhat_stim/blank_white.png,stimulus/audwhat_stim/blank_white.png,stimulus/audwhat_stim/blank_white.png,0.0,0.0,0.0,0.0,0,0.0,0,0.0,0,0.0,0,0.0,0,0.0,0.0,0,0,0,0,0,0,0,0,0,0.0,0,0.0,0,0.0,0,0.0,9,,,,,0,40,40,40,,,,,,,,,374.588798791985,374.588798791985,374.588798791985,374.588798791985,374.588798791985,374.588798791985,374.588798791985,374.588798791985,374.4899102923247,374.588798791985,374.588798791985,374.588798791985,374.4899102923247,374.588798791985,374.588798791985,374.588798791985,374.588798791985,374.588798791985,374.588798791985,374.588798791985,374.588798791985,374.588798791985,374.588798791985,374.588798791985,374.588798791985,374.588798791985,374.588798791985,374.5399102923247,374.588798791985,374.588798791985,374.588798791985,374.5399102923247,374.588798791985,374.588798791985,374.588798791985,374.588798791985,374.588798791985,379.79099737497745,379.79099737497745,383.8572385000007,None,0,,reldom2_s031,001,2025-02-25_12h42.45.050,Aud-B-Scan_AC,2022.2.5,None,
31,First_Order,6.0,audwhat,stimulus/audwhat_stim/dummy.wav,stimulus/audwhat_stim/dummy.wav,stimulus/audwhat_stim/string viola_low-pitch_D_loud.wav,stimulus/audwhat_stim/percussion mallet_low-pitch_D_loud.wav,stimulus/audwhat_stim/blank_white.png,stimulus/audwhat_stim/category_box.png,stimulus/audwhat_stim/category_yes.png,stimulus/audwhat_stim/category_no.png,None,Category,None,Pitch,2,0.0,0,5.125,0,5.125,0,5.125,0,0.0,0.625,0,0,0,0,0,0,0,0,0,0.0,0,0.0,1,0.5,1,2.125,0,,,,,0,41,41,41,,,,,,,,,383.8572385000007,383.8572385000007,383.8572385000007,383.8572385000007,383.8572385000007,383.8572385000007,383.8572385000007,383.8572385000007,383.7851264166626,383.8572385000007,383.8572385000007,383.8572385000007,383.7851264166626,383.8572385000007,383.8572385000007,383.8572385000007,385.9485696249758,389.9689935419883,383.8572385000007,383.8572385000007,389.02073254197603,383.8572385000007,383.8572385000007,383.8572385000007,383.8572385000007,384.322037209,385.39175987499766,384.29195150066903,,385.9485696249758,387.0228109169984,385.91900533365356,,383.8572385000007,389.02073254197603,383.8572385000007,389.02073254197603,389.06196458399063,389.7146901669912,383.8572385000007,2,1,0.5938346670009196,reldom2_s031,001,2025-02-25_12h42.45.050,Aud-B-Scan_AC,2022.2.5,None,
32,First_Order,6.0,audwhat,stimulus/audwhat_stim/dummy.wav,stimulus/audwhat_stim/dummy.wav,stimulus/audwhat_stim/percussion mallet_high-pitch_Dtri_loud.wav,stimulus/audwhat_stim/string viola_high-pitch_Dtri_loud.wav,stimulus/audwhat_stim/blank_white.png,stimulus/audwhat_stim/pitch_box.png,stimulus/audwhat_stim/pitch_yes.png,stimulus/audwhat_stim/pitch_no.png,None,Pitch,None,Pitch,1,0.0,0,5.125,0,5.125,0,5.125,0,0.0,0.625,0,0,0,0,0,0,0,0,0,0.0,0,0.0,1,0.5,1,2.125,0,,,,,0,42,42,42,,,,,,,,,389.9689935419883,389.9689935419883,389.9689935419883,389.9689935419883,389.9689935419883,389.9689935419883,389.9689935419883,389.9689935419883,389.8890212083371,389.9689935419883,389.9689935419883,389.9689935419883,389.8890212083371,389.9689935419883,389.9689935419883,389.9689935419883,392.0517884999863,,389.9689935419883,389.9689935419883,395.1581782499852,389.9689935419883,389.9689935419883,389.9689935419883,389.9689935419883,390.4330929169955,391.49755533397547,390.40307854165826,,392.0517884999863,393.124000833981,392.02221937565287,,389.9689935419883,395.1581782499852,389.9689935419883,395.1581782499852,395.19903387498925,395.8512287089834,389.9689935419883,1,1,0.8256668749963865,reldom2_s031,001,2025-02-25_12h42.45.050,Aud-B-Scan_AC,2022.2.5,None,
33,First_Order,6.0,audwhat,stimulus/audwhat_stim/dummy.wav,stimulus/audwhat_stim/dummy.wav,stimulus/audwhat_stim/string cello_high-pitch_D_loud.wav,stimulus/audwhat_stim/string viola_low-pitch_F_loud.wav,stimulus/audwhat_stim/blank_white.png,stimulus/audwhat_stim/pitch_box.png,stimulus/audwhat_stim/pitch_yes.png,stimulus/audwhat_stim/pitch_no.png,None,Pitch,None,Category,2,0.0,0,5.125,0,5.125,0,5.125,0,0.0,0.625,0,0,0,0,0,0,0,0,0,0.0,0,0.0,1,0.5,1,2.125,0,,,,,0,43,43,43,,,,,,,,,396.06393708399264,396.06393708399264,396.06393708399264,396.06393708399264,396.06393708399264,396.06393708399264,396.06393708399264,396.06393708399264,395.9845620423167,396.06393708399264,396.06393708399264,396.06393708399264,395.9845620423167,396.06393708399264,396.06393708399264,396.06393708399264,398.14791808399605,,396.06393708399264,396.06393708399264,401.25127079198137,396.06393708399264,396.06393708399264,396.06393708399264,396.06393708399264,396.52576145899366,397.5937604169885,396.4963321256548,,398.14791808399605,399.2163564169896,398.1182394166574,,396.06393708399264,401.25127079198137,396.06393708399264,401.25127079198137,401.292285042,401.94647541700397,396.06393708399264,2,1,2.3344271669921,reldom2_s031,001,2025-02-25_12h42.45.050,Aud-B-Scan_AC,2022.2.5,None,
34,First_Order,6.0,audwhat,stimulus/audwhat_stim/dummy.wav,stimulus/audwhat_stim/dummy.wav,stimulus/audwhat_stim/percussion mallet_low-pitch_F_loud.wav,stimulus/audwhat_stim/string viola_low-pitch_F_loud.wav,stimulus/audwhat_stim/blank_white.png,stimulus/audwhat_stim/category_box.png,stimulus/audwhat_stim/category_yes.png,stimulus/audwhat_stim/category_no.png,None,Category,None,Pitch,2,0.0,0,5.125,0,5.125,0,5.125,0,0.0,0.625,0,0,0,0,0,0,0,0,0,0.0,0,0.0,1,0.5,1,2.125,0,,,,,0,44,44,44,,,,,,,,,402.15944679197855,402.15944679197855,402.15944679197855,402.15944679197855,402.15944679197855,402.15944679197855,402.15944679197855,402.15944679197855,402.0798087503373,402.15944679197855,402.15944679197855,402.15944679197855,402.0798087503373,402.15944679197855,402.15944679197855,402.15944679197855,404.2593152920017,408.3050942919799,402.15944679197855,402.15944679197855,407.33469016698655,402.15944679197855,402.15944679197855,402.15944679197855,402.15944679197855,402.62747516698437,403.70076370899915,402.59646495865695,,404.2593152920017,405.28980874997796,404.2290101256551,,402.15944679197855,407.33469016698655,402.15944679197855,407.33469016698655,407.3755782090011,408.0304732089862,402.15944679197855,2,1,0.6692342500027735,reldom2_s031,001,2025-02-25_12h42.45.050,Aud-B-Scan_AC,2022.2.5,None,
0,0.0,None,fixation,stimulus/audwhat_stim/blank_white.png,stimulus/audwhat_stim/blank_white.png,stimulus/audwhere_stim/blank_white.png,stimulus/audwhere_stim/blank_white.png,stimulus/audwhat_stim/blank_white.png,stimulus/audwhat_stim/blank_white.png,stimulus/audwhat_stim/blank_white.png,stimulus/audwhat_stim/blank_white.png,0.0,0.0,0.0,0.0,0,0.0,0,0.0,0,0.0,0,0.0,0,0.0,0.0,0,0,0,0,0,0,0,0,0,0.0,0,0.0,0,0.0,0,0.0,9,,,,,0,45,45,45,,,,,,,,,408.3050942919799,408.3050942919799,408.3050942919799,408.3050942919799,408.3050942919799,408.3050942919799,408.3050942919799,408.3050942919799,408.2049497923309,408.3050942919799,408.3050942919799,408.3050942919799,408.2049497923309,408.3050942919799,408.3050942919799,408.3050942919799,408.3050942919799,408.3050942919799,408.3050942919799,408.3050942919799,408.3050942919799,408.3050942919799,408.3050942919799,408.3050942919799,408.3050942919799,408.3050942919799,408.3050942919799,408.25494979233093,408.3050942919799,408.3050942919799,408.3050942919799,408.25494979233093,408.3050942919799,408.3050942919799,408.3050942919799,408.3050942919799,408.3050942919799,413.49605687498115,413.49605687498115,417.4426822499954,None,0,,reldom2_s031,001,2025-02-25_12h42.45.050,Aud-B-Scan_AC,2022.2.5,None,
35,Second_Order,6.0,audwhat,stimulus/audwhat_stim/string cello_low-pitch_D_loud.wav,stimulus/audwhat_stim/percussion mallet_low-pitch_D_loud.wav,stimulus/audwhat_stim/percussion mallet_low-pitch_D_loud.wav,stimulus/audwhat_stim/percussion xylophone_high-pitch_Ftri_loud.wav,stimulus/audwhat_stim/match_blank.png,stimulus/audwhat_stim/match_box.png,stimulus/audwhat_stim/match_yes.png,stimulus/audwhat_stim/match_no.png,2.0,Match,Pitch,Category,2,5.125,0,5.125,0,5.125,0,5.125,0,0.75,0.75,0,0,0,0,0,0,0,0,1,0.5,1,2.125,1,0.5,1,2.125,0,,,,,0,46,46,46,,,,,,,,,417.4426822499954,422.5600242090004,417.4426822499954,417.4426822499954,417.4426822499954,417.4426822499954,417.8962470419938,418.88442012498854,417.91052079166207,,419.51949537498876,420.51719129199046,419.53130158366207,,422.5600242090004,423.40988187497715,425.48663899998064,429.39565541699994,423.40988187497715,423.40988187497715,428.58769004198257,423.40988187497715,423.40988187497715,423.40988187497715,423.40988187497715,423.82455520899384,424.886163749994,423.79479637564896,,425.48663899998064,426.5506370840012,425.45702041665595,426.50493370898766,423.40988187497715,428.58769004198257,423.40988187497715,428.58769004198257,428.58769004198257,,423.40988187497715,1,0,1.3070162499789149,reldom2_s031,001,2025-02-25_12h42.45.050,Aud-B-Scan_AC,2022.2.5,None,
36,Second_Order,6.0,audwhat,stimulus/audwhat_stim/string cello_low-pitch_Dtri_loud.wav,stimulus/audwhat_stim/percussion mallet_low-pitch_Dtri_loud.wav,stimulus/audwhat_stim/string viola_high-pitch_F_loud.wav,stimulus/audwhat_stim/percussion xylophone_high-pitch_F_loud.wav,stimulus/audwhat_stim/match_blank.png,stimulus/audwhat_stim/match_box.png,stimulus/audwhat_stim/match_yes.png,stimulus/audwhat_stim/match_no.png,1.0,Match,Pitch,Pitch,1,5.125,0,5.125,0,5.125,0,5.125,0,0.625,0.625,0,0,0,0,0,0,0,0,1,0.5,1,2.125,1,0.5,1,2.125,0,,,,,0,47,47,47,,,,,,,,,429.39565541699994,434.5162895419926,429.39565541699994,429.39565541699994,429.39565541699994,429.39565541699994,429.85497470898554,430.84512937499676,429.857120166653,,431.4806525000022,432.4783211670001,431.4926805006437,,434.5162895419926,435.2489061669912,437.31075837498065,441.3638193749939,435.2489061669912,435.2489061669912,440.4405390000029,435.2489061669912,435.2489061669912,435.2489061669912,435.2489061669912,435.70540516698384,436.76126687499345,435.6759859586639,,437.31075837498065,438.3717749589996,437.28123333366625,438.32514487497974,435.2489061669912,440.4405390000029,435.2489061669912,440.4405390000029,440.4405390000029,441.0904234169866,435.2489061669912,1,1,1.424252582975896,reldom2_s031,001,2025-02-25_12h42.45.050,Aud-B-Scan_AC,2022.2.5,None,
0,0.0,None,fixation,stimulus/audwhat_stim/blank_white.png,stimulus/audwhat_stim/blank_white.png,stimulus/audwhere_stim/blank_white.png,stimulus/audwhere_stim/blank_white.png,stimulus/audwhat_stim/blank_white.png,stimulus/audwhat_stim/blank_white.png,stimulus/audwhat_stim/blank_white.png,stimulus/audwhat_stim/blank_white.png,0.0,0.0,0.0,0.0,0,0.0,0,0.0,0,0.0,0,0.0,0,0.0,0.0,0,0,0,0,0,0,0,0,0,0.0,0,0.0,0,0.0,0,0.0,10,,,,,0,48,48,48,,,,,,,,,441.3638193749939,441.3638193749939,441.3638193749939,441.3638193749939,441.3638193749939,441.3638193749939,441.3638193749939,441.3638193749939,441.2646779583321,441.3638193749939,441.3638193749939,441.3638193749939,441.2646779583321,441.3638193749939,441.3638193749939,441.3638193749939,441.3638193749939,441.3638193749939,441.3638193749939,441.3638193749939,441.3638193749939,441.3638193749939,441.3638193749939,441.3638193749939,441.3638193749939,441.3638193749939,441.3638193749939,441.3146779583321,441.3638193749939,441.3638193749939,441.3638193749939,441.3146779583321,441.3638193749939,441.3638193749939,441.3638193749939,441.3638193749939,441.3638193749939,446.57422145898454,446.57422145898454,451.6062048339809,None,0,,reldom2_s031,001,2025-02-25_12h42.45.050,Aud-B-Scan_AC,2022.2.5,None,
37,First_Order,7.0,audwhere,stimulus/audwhere_stim/dummy.wav,stimulus/audwhere_stim/dummy.wav,stimulus/audwhere_stim/right_toward_300h.wav,stimulus/audwhere_stim/left_toward_290h.wav,stimulus/audwhere_stim/blank_white.png,stimulus/audwhere_stim/direction_box.png,stimulus/audwhere_stim/direction_yes.png,stimulus/audwhere_stim/direction_no.png,None,Direction,None,Direction,1,0.0,0,5.125,0,5.125,0,5.125,0,0.0,0.625,0,0,0,0,0,0,0,0,0,0.0,0,0.0,1,0.5,1,2.125,0,,,,,0,49,49,49,,,,,,,,,451.6062048339809,451.6062048339809,451.6062048339809,451.6062048339809,451.6062048339809,451.6062048339809,451.6062048339809,451.6062048339809,451.53502758366324,451.6062048339809,451.6062048339809,451.6062048339809,451.53502758366324,451.6062048339809,451.6062048339809,451.6062048339809,453.6977993339824,,451.6062048339809,451.6062048339809,456.76744212498306,451.6062048339809,451.6062048339809,451.6062048339809,451.6062048339809,452.0714985419763,453.1405011669849,452.0413304586584,,453.6977993339824,454.77183679200243,453.6680740836639,,451.6062048339809,456.76744212498306,451.6062048339809,456.76744212498306,456.8088684589893,457.4611036669812,451.6062048339809,1,1,1.2414427920011804,reldom2_s031,001,2025-02-25_12h42.45.050,Aud-B-Scan_AC,2022.2.5,None,
38,First_Order,7.0,audwhere,stimulus/audwhere_stim/dummy.wav,stimulus/audwhere_stim/dummy.wav,stimulus/audwhere_stim/right_toward_290h.wav,stimulus/audwhere_stim/right_away_270h.wav,stimulus/audwhere_stim/blank_white.png,stimulus/audwhere_stim/side_box.png,stimulus/audwhere_stim/side_yes.png,stimulus/audwhere_stim/side_no.png,None,Side,None,Side,1,0.0,0,5.125,0,5.125,0,5.125,0,0.0,0.625,0,0,0,0,0,0,0,0,0,0.0,0,0.0,1,0.5,1,2.125,0,,,,,0,50,50,50,,,,,,,,,457.71538629199495,457.71538629199495,457.71538629199495,457.71538629199495,457.71538629199495,457.71538629199495,457.71538629199495,457.71538629199495,457.63547079233297,457.71538629199495,457.71538629199495,457.71538629199495,457.63547079233297,457.71538629199495,457.71538629199495,457.71538629199495,459.799406584003,,457.71538629199495,457.71538629199495,462.90284549997887,457.71538629199495,457.71538629199495,457.71538629199495,457.71538629199495,458.1782877089863,459.2448134169972,458.14865229165684,,459.799406584003,460.8654084999871,459.7698500836598,,457.71538629199495,462.90284549997887,457.71538629199495,462.90284549997887,462.9440020000038,463.59526979198563,457.71538629199495,1,1,1.851785083010327,reldom2_s031,001,2025-02-25_12h42.45.050,Aud-B-Scan_AC,2022.2.5,None,
39,First_Order,7.0,audwhere,stimulus/audwhere_stim/dummy.wav,stimulus/audwhere_stim/dummy.wav,stimulus/audwhere_stim/left_away_290h.wav,stimulus/audwhere_stim/left_toward_290h.wav,stimulus/audwhere_stim/blank_white.png,stimulus/audwhere_stim/direction_box.png,stimulus/audwhere_stim/direction_yes.png,stimulus/audwhere_stim/direction_no.png,None,Direction,None,Side,2,0.0,0,5.125,0,5.125,0,5.125,0,0.0,0.625,0,0,0,0,0,0,0,0,0,0.0,0,0.0,1,0.5,1,2.125,0,,,,,0,51,51,51,,,,,,,,,463.80799983398174,463.80799983398174,463.80799983398174,463.80799983398174,463.80799983398174,463.80799983398174,463.80799983398174,463.80799983398174,463.72860312531895,463.80799983398174,463.80799983398174,463.80799983398174,463.72860312531895,463.80799983398174,463.80799983398174,463.80799983398174,465.90356779200374,469.9296778749849,463.80799983398174,463.80799983398174,468.9805595839862,463.80799983398174,463.80799983398174,463.80799983398174,463.80799983398174,464.27354475000175,465.34616895898944,464.2435492916595,,465.90356779200374,466.9768287089828,465.874096625663,,463.80799983398174,468.9805595839862,463.80799983398174,468.9805595839862,469.0220195839938,469.67575641698204,463.80799983398174,2,1,1.5784473749808967,reldom2_s031,001,2025-02-25_12h42.45.050,Aud-B-Scan_AC,2022.2.5,None,
40,First_Order,7.0,audwhere,stimulus/audwhere_stim/dummy.wav,stimulus/audwhere_stim/dummy.wav,stimulus/audwhere_stim/right_away_280h.wav,stimulus/audwhere_stim/right_toward_290h.wav,stimulus/audwhere_stim/blank_white.png,stimulus/audwhere_stim/direction_box.png,stimulus/audwhere_stim/direction_yes.png,stimulus/audwhere_stim/direction_no.png,None,Direction,None,Side,2,0.0,0,5.125,0,5.125,0,5.125,0,0.0,0.625,0,0,0,0,0,0,0,0,0,0.0,0,0.0,1,0.5,1,2.125,0,,,,,0,52,52,52,,,,,,,,,469.9296778749849,469.9296778749849,469.9296778749849,469.9296778749849,469.9296778749849,469.9296778749849,469.9296778749849,469.9296778749849,469.84976741732874,469.9296778749849,469.9296778749849,469.9296778749849,469.84976741732874,469.9296778749849,469.9296778749849,469.9296778749849,472.02911437497823,476.07839791697916,469.9296778749849,469.9296778749849,475.1063858339912,469.9296778749849,469.9296778749849,469.9296778749849,469.9296778749849,470.39520366699435,471.4702684590011,470.3657222506629,,472.02911437497823,473.058290749992,471.9987386256437,,469.9296778749849,475.1063858339912,469.9296778749849,475.1063858339912,475.1478869999992,475.80420629199944,469.9296778749849,2,1,2.185604084021179,reldom2_s031,001,2025-02-25_12h42.45.050,Aud-B-Scan_AC,2022.2.5,None,
0,0.0,None,fixation,stimulus/audwhat_stim/blank_white.png,stimulus/audwhat_stim/blank_white.png,stimulus/audwhere_stim/blank_white.png,stimulus/audwhere_stim/blank_white.png,stimulus/audwhat_stim/blank_white.png,stimulus/audwhat_stim/blank_white.png,stimulus/audwhat_stim/blank_white.png,stimulus/audwhat_stim/blank_white.png,0.0,0.0,0.0,0.0,0,0.0,0,0.0,0,0.0,0,0.0,0,0.0,0.0,0,0,0,0,0,0,0,0,0,0.0,0,0.0,0,0.0,0,0.0,8,,,,,0,53,53,53,,,,,,,,,476.07839791697916,476.07839791697916,476.07839791697916,476.07839791697916,476.07839791697916,476.07839791697916,476.07839791697916,476.07839791697916,475.9784317503237,476.07839791697916,476.07839791697916,476.07839791697916,475.9784317503237,476.07839791697916,476.07839791697916,476.07839791697916,476.07839791697916,476.07839791697916,476.07839791697916,476.07839791697916,476.07839791697916,476.07839791697916,476.07839791697916,476.07839791697916,476.07839791697916,476.07839791697916,476.07839791697916,476.0284317503237,476.07839791697916,476.07839791697916,476.07839791697916,476.0284317503237,476.07839791697916,476.07839791697916,476.07839791697916,476.07839791697916,476.07839791697916,481.27477187500335,481.27477187500335,484.2554757919861,None,0,,reldom2_s031,001,2025-02-25_12h42.45.050,Aud-B-Scan_AC,2022.2.5,None,
41,Second_Order,7.0,audwhere,stimulus/audwhere_stim/left_toward_300h.wav,stimulus/audwhere_stim/right_toward_280h.wav,stimulus/audwhere_stim/right_toward_270h.wav,stimulus/audwhere_stim/right_away_290h.wav,stimulus/audwhat_stim/match_blank.png,stimulus/audwhat_stim/match_box.png,stimulus/audwhat_stim/match_yes.png,stimulus/audwhat_stim/match_no.png,2.0,Match,Direction,Side,2,5.125,0,5.125,0,5.125,0,5.125,0,0.75,0.75,0,0,0,0,0,0,0,0,1,0.5,1,2.125,1,0.5,1,2.125,0,,,,,0,54,54,54,,,,,,,,,484.2554757919861,489.37632416698034,484.2554757919861,484.2554757919861,484.2554757919861,484.2554757919861,484.70101024999167,485.6882758339925,484.7151172086635,,486.34025037498213,487.33844016699004,486.35263412565496,,489.37632416698034,490.22825695900247,492.30554591698456,496.2169562089839,490.22825695900247,490.22825695900247,495.4052929589816,490.22825695900247,490.22825695900247,490.22825695900247,490.22825695900247,490.64450616698014,491.70708358398406,490.6146149586459,,492.30554591698456,493.37185033399146,492.27580641664485,,490.22825695900247,495.4052929589816,490.22825695900247,495.4052929589816,495.4052929589816,,490.22825695900247,2,1,1.3683207920112181,reldom2_s031,001,2025-02-25_12h42.45.050,Aud-B-Scan_AC,2022.2.5,None,
42,Second_Order,7.0,audwhere,stimulus/audwhere_stim/right_toward_290h.wav,stimulus/audwhere_stim/left_toward_270h.wav,stimulus/audwhere_stim/left_toward_290h.wav,stimulus/audwhere_stim/left_away_280h.wav,stimulus/audwhat_stim/match_blank.png,stimulus/audwhat_stim/match_box.png,stimulus/audwhat_stim/match_yes.png,stimulus/audwhat_stim/match_no.png,2.0,Match,Direction,Side,2,5.125,0,5.125,0,5.125,0,5.125,0,0.625,0.625,0,0,0,0,0,0,0,0,1,0.5,1,2.125,1,0.5,1,2.125,0,,,,,0,55,55,55,,,,,,,,,496.2169562089839,501.34185504200286,496.2169562089839,496.2169562089839,496.2169562089839,496.2169562089839,496.6760119169776,497.66577820898965,496.6781770006676,,498.3017486250028,499.29959249999956,498.31357212565877,,501.34185504200286,502.06907383399084,504.13261495900224,,502.06907383399084,502.06907383399084,507.23030879200087,502.06907383399084,502.06907383399084,502.06907383399084,502.06907383399084,502.52580645898706,503.5821966249787,502.49642600064203,,504.13261495900224,505.1976627499971,504.1040591666572,,502.06907383399084,507.23030879200087,502.06907383399084,507.23030879200087,507.23030879200087,507.87804320899886,502.06907383399084,1,0,2.8890334999887273,reldom2_s031,001,2025-02-25_12h42.45.050,Aud-B-Scan_AC,2022.2.5,None,
0,0.0,None,fixation,stimulus/audwhat_stim/blank_white.png,stimulus/audwhat_stim/blank_white.png,stimulus/audwhere_stim/blank_white.png,stimulus/audwhere_stim/blank_white.png,stimulus/audwhat_stim/blank_white.png,stimulus/audwhat_stim/blank_white.png,stimulus/audwhat_stim/blank_white.png,stimulus/audwhat_stim/blank_white.png,0.0,0.0,0.0,0.0,0,0.0,0,0.0,0,0.0,0,0.0,0,0.0,0.0,0,0,0,0,0,0,0,0,0,0.0,0,0.0,0,0.0,0,0.0,10,,,,,0,56,56,56,,,,,,,,,508.1516534589755,508.1516534589755,508.1516534589755,508.1516534589755,508.1516534589755,508.1516534589755,508.1516534589755,508.1516534589755,508.05231320832,508.1516534589755,508.1516534589755,508.1516534589755,508.05231320832,508.1516534589755,508.1516534589755,508.1516534589755,508.1516534589755,508.1516534589755,508.1516534589755,508.1516534589755,508.1516534589755,508.1516534589755,508.1516534589755,508.1516534589755,508.1516534589755,508.1516534589755,508.1516534589755,508.10231320832,508.1516534589755,508.1516534589755,508.1516534589755,508.10231320832,508.1516534589755,508.1516534589755,508.1516534589755,508.1516534589755,508.1516534589755,513.3598054999893,513.3598054999893,518.3899368339917,None,0,,reldom2_s031,001,2025-02-25_12h42.45.050,Aud-B-Scan_AC,2022.2.5,None,
43,First_Order,8.0,audwhere,stimulus/audwhere_stim/dummy.wav,stimulus/audwhere_stim/dummy.wav,stimulus/audwhere_stim/right_toward_270h.wav,stimulus/audwhere_stim/left_toward_300h.wav,stimulus/audwhere_stim/blank_white.png,stimulus/audwhere_stim/side_box.png,stimulus/audwhere_stim/side_yes.png,stimulus/audwhere_stim/side_no.png,None,Side,None,Direction,2,0.0,0,5.125,0,5.125,0,5.125,0,0.0,0.625,0,0,0,0,0,0,0,0,0,0.0,0,0.0,1,0.5,1,2.125,0,,,,,0,57,57,57,,,,,,,,,518.3899368339917,518.3899368339917,518.3899368339917,518.3899368339917,518.3899368339917,518.3899368339917,518.3899368339917,518.3899368339917,518.3185091256552,518.3899368339917,518.3899368339917,518.3899368339917,518.3185091256552,518.3899368339917,518.3899368339917,518.3899368339917,520.4715844999882,524.5161849589786,518.3899368339917,518.3899368339917,523.57144887498,518.3899368339917,518.3899368339917,518.3899368339917,518.3899368339917,518.8527889169927,519.9186279999849,518.8231422916617,,520.4715844999882,521.5365572499868,520.4418865416703,,518.3899368339917,523.57144887498,518.3899368339917,523.57144887498,523.612468916981,524.2641318340029,518.3899368339917,2,1,1.1406341249821708,reldom2_s031,001,2025-02-25_12h42.45.050,Aud-B-Scan_AC,2022.2.5,None,
44,First_Order,8.0,audwhere,stimulus/audwhere_stim/dummy.wav,stimulus/audwhere_stim/dummy.wav,stimulus/audwhere_stim/right_toward_270h.wav,stimulus/audwhere_stim/left_toward_280h.wav,stimulus/audwhere_stim/blank_white.png,stimulus/audwhere_stim/side_box.png,stimulus/audwhere_stim/side_yes.png,stimulus/audwhere_stim/side_no.png,None,Side,None,Direction,2,0.0,0,5.125,0,5.125,0,5.125,0,0.0,0.625,0,0,0,0,0,0,0,0,0,0.0,0,0.0,1,0.5,1,2.125,0,,,,,0,58,58,58,,,,,,,,,524.5161849589786,524.5161849589786,524.5161849589786,524.5161849589786,524.5161849589786,524.5161849589786,524.5161849589786,524.5161849589786,524.4376115833312,524.5161849589786,524.5161849589786,524.5161849589786,524.4376115833312,524.5161849589786,524.5161849589786,524.5161849589786,526.601818916999,,524.5161849589786,524.5161849589786,529.7096740419802,524.5161849589786,524.5161849589786,524.5161849589786,524.5161849589786,524.9824616669794,526.045747583994,524.9527265836698,,526.601818916999,527.6681704999937,526.5708743756443,,524.5161849589786,529.7096740419802,524.5161849589786,529.7096740419802,529.7096740419802,530.3627050420037,524.5161849589786,2,1,2.533838540985016,reldom2_s031,001,2025-02-25_12h42.45.050,Aud-B-Scan_AC,2022.2.5,None,
45,First_Order,8.0,audwhere,stimulus/audwhere_stim/dummy.wav,stimulus/audwhere_stim/dummy.wav,stimulus/audwhere_stim/right_toward_270h.wav,stimulus/audwhere_stim/left_toward_290h.wav,stimulus/audwhere_stim/blank_white.png,stimulus/audwhere_stim/direction_box.png,stimulus/audwhere_stim/direction_yes.png,stimulus/audwhere_stim/direction_no.png,None,Direction,None,Direction,1,0.0,0,5.125,0,5.125,0,5.125,0,0.0,0.625,0,0,0,0,0,0,0,0,0,0.0,0,0.0,1,0.5,1,2.125,0,,,,,0,59,59,59,,,,,,,,,530.6180236669898,530.6180236669898,530.6180236669898,530.6180236669898,530.6180236669898,530.6180236669898,530.6180236669898,530.6180236669898,530.5369326673118,530.6180236669898,530.6180236669898,530.6180236669898,530.5369326673118,530.6180236669898,530.6180236669898,530.6180236669898,532.7154764169827,536.7386481669964,530.6180236669898,530.6180236669898,535.7874076250009,530.6180236669898,530.6180236669898,530.6180236669898,530.6180236669898,531.0838445419795,532.1552126669849,531.0536893756691,,532.7154764169827,533.7878505839908,532.6855921256686,,530.6180236669898,535.7874076250009,530.6180236669898,535.7874076250009,535.8287424589798,536.483465917001,530.6180236669898,1,1,1.6874891250045039,reldom2_s031,001,2025-02-25_12h42.45.050,Aud-B-Scan_AC,2022.2.5,None,
46,First_Order,8.0,audwhere,stimulus/audwhere_stim/dummy.wav,stimulus/audwhere_stim/dummy.wav,stimulus/audwhere_stim/left_away_300h.wav,stimulus/audwhere_stim/left_toward_300h.wav,stimulus/audwhere_stim/blank_white.png,stimulus/audwhere_stim/side_box.png,stimulus/audwhere_stim/side_yes.png,stimulus/audwhere_stim/side_no.png,None,Side,None,Side,1,0.0,0,5.125,0,5.125,0,5.125,0,0.0,0.625,0,0,0,0,0,0,0,0,0,0.0,0,0.0,1,0.5,1,2.125,0,,,,,0,60,60,60,,,,,,,,,536.7386481669964,536.7386481669964,536.7386481669964,536.7386481669964,536.7386481669964,536.7386481669964,536.7386481669964,536.7386481669964,536.657822875337,536.7386481669964,536.7386481669964,536.7386481669964,536.657822875337,536.7386481669964,536.7386481669964,536.7386481669964,538.824933750002,,536.7386481669964,536.7386481669964,541.8873875839927,536.7386481669964,536.7386481669964,536.7386481669964,536.7386481669964,537.2028089590021,538.2678467919759,537.172998041646,,538.824933750002,539.89378170899,538.7948670416702,,536.7386481669964,541.8873875839927,536.7386481669964,541.8873875839927,541.9285542089783,542.584262083983,536.7386481669964,1,1,3.1240217079757713,reldom2_s031,001,2025-02-25_12h42.45.050,Aud-B-Scan_AC,2022.2.5,None,
0,0.0,None,fixation,stimulus/audwhat_stim/blank_white.png,stimulus/audwhat_stim/blank_white.png,stimulus/audwhere_stim/blank_white.png,stimulus/audwhere_stim/blank_white.png,stimulus/audwhat_stim/blank_white.png,stimulus/audwhat_stim/blank_white.png,stimulus/audwhat_stim/blank_white.png,stimulus/audwhat_stim/blank_white.png,0.0,0.0,0.0,0.0,0,0.0,0,0.0,0,0.0,0,0.0,0,0.0,0.0,0,0,0,0,0,0,0,0,0,0.0,0,0.0,0,0.0,0,0.0,9,,,,,0,61,61,61,,,,,,,,,542.8585827089846,542.8585827089846,542.8585827089846,542.8585827089846,542.8585827089846,542.8585827089846,542.8585827089846,542.8585827089846,542.7585622503267,542.8585827089846,542.8585827089846,542.8585827089846,542.7585622503267,542.8585827089846,542.8585827089846,542.8585827089846,542.8585827089846,542.8585827089846,542.8585827089846,542.8585827089846,542.8585827089846,542.8585827089846,542.8585827089846,542.8585827089846,542.8585827089846,542.8585827089846,542.8585827089846,542.8085622503266,542.8585827089846,542.8585827089846,542.8585827089846,542.8085622503266,542.8585827089846,542.8585827089846,542.8585827089846,542.8585827089846,542.8585827089846,548.0515771249775,548.0515771249775,551.9892962499871,None,0,,reldom2_s031,001,2025-02-25_12h42.45.050,Aud-B-Scan_AC,2022.2.5,None,
47,Second_Order,8.0,audwhere,stimulus/audwhere_stim/right_away_300h.wav,stimulus/audwhere_stim/right_toward_270h.wav,stimulus/audwhere_stim/left_away_280h.wav,stimulus/audwhere_stim/left_toward_270h.wav,stimulus/audwhat_stim/match_blank.png,stimulus/audwhat_stim/match_box.png,stimulus/audwhat_stim/match_yes.png,stimulus/audwhat_stim/match_no.png,1.0,Match,Side,Side,1,5.125,0,5.125,0,5.125,0,5.125,0,0.75,0.75,0,0,0,0,0,0,0,0,1,0.5,1,2.125,1,0.5,1,2.125,0,,,,,0,62,62,62,,,,,,,,,551.9892962499871,557.1042721249978,551.9892962499871,551.9892962499871,551.9892962499871,551.9892962499871,552.4423164170003,553.4409484999778,552.4553013336592,553.4444239589793,554.0639462499821,555.061459583987,554.0757867086543,,557.1042721249978,557.9524834170006,560.0298419169849,563.942564041994,557.9524834170006,557.9524834170006,563.1334372089768,557.9524834170006,557.9524834170006,557.9524834170006,557.9524834170006,558.4122097499785,559.4755216249905,558.382568916659,,560.0298419169849,561.0989067499759,560.0002487506465,,557.9524834170006,563.1334372089768,557.9524834170006,563.1334372089768,563.1334372089768,,557.9524834170006,1,1,2.2967627909965813,reldom2_s031,001,2025-02-25_12h42.45.050,Aud-B-Scan_AC,2022.2.5,None,
48,Second_Order,8.0,audwhere,stimulus/audwhere_stim/right_toward_270h.wav,stimulus/audwhere_stim/right_away_270h.wav,stimulus/audwhere_stim/left_away_280h.wav,stimulus/audwhere_stim/left_toward_290h.wav,stimulus/audwhat_stim/match_blank.png,stimulus/audwhat_stim/match_box.png,stimulus/audwhat_stim/match_yes.png,stimulus/audwhat_stim/match_no.png,1.0,Match,Side,Side,1,5.125,0,5.125,0,5.125,0,5.125,0,0.625,0.625,0,0,0,0,0,0,0,0,1,0.5,1,2.125,1,0.5,1,2.125,0,,,,,0,63,63,63,,,,,,,,,563.942564041994,569.0652599589957,563.942564041994,563.942564041994,563.942564041994,563.942564041994,564.4017584169924,565.3884078749979,564.4159227086677,,566.0241917919775,567.0222149170004,566.0369267506505,567.0254992919799,569.0652599589957,569.7952283339982,571.8615569169924,,569.7952283339982,569.7952283339982,574.9486298339907,569.7952283339982,569.7952283339982,569.7952283339982,569.7952283339982,570.2519099589845,571.3105042499956,570.2228806256646,,571.8615569169924,572.9247409999953,571.8319192086676,,569.7952283339982,574.9486298339907,569.7952283339982,574.9486298339907,574.9893035419809,575.6437304169813,569.7952283339982,1,1,3.627956374984933,reldom2_s031,001,2025-02-25_12h42.45.050,Aud-B-Scan_AC,2022.2.5,None,
0,0.0,None,fixation,stimulus/audwhat_stim/blank_white.png,stimulus/audwhat_stim/blank_white.png,stimulus/audwhere_stim/blank_white.png,stimulus/audwhere_stim/blank_white.png,stimulus/audwhat_stim/blank_white.png,stimulus/audwhat_stim/blank_white.png,stimulus/audwhat_stim/blank_white.png,stimulus/audwhat_stim/blank_white.png,0.0,0.0,0.0,0.0,0,0.0,0,0.0,0,0.0,0,0.0,0,0.0,0.0,0,0,0,0,0,0,0,0,0,0.0,0,0.0,0,0.0,0,0.0,16,,,,,0,64,64,64,,,,,,,,,575.8768961250025,575.8768961250025,575.8768961250025,575.8768961250025,575.8768961250025,575.8768961250025,575.8768961250025,575.8768961250025,575.7770637503146,575.8768961250025,575.8768961250025,575.8768961250025,575.7770637503146,575.8768961250025,575.8768961250025,575.8768961250025,575.8768961250025,575.8768961250025,575.8768961250025,575.8768961250025,575.8768961250025,575.8768961250025,575.8768961250025,575.8768961250025,575.8768961250025,575.8768961250025,575.8768961250025,575.8270637503146,575.8768961250025,575.8768961250025,575.8768961250025,575.8270637503146,575.8768961250025,575.8768961250025,575.8768961250025,575.8768961250025,575.8768961250025,581.0861306669831,581.0861306669831,592.0380797919934,None,0,,reldom2_s031,001,2025-02-25_12h42.45.050,Aud-B-Scan_AC,2022.2.5,None,
