Trial,Order,Block,Type,Stimuli_File1,Stimuli_File2,Stimuli_File3,Stimuli_File4,Cue_File1,Cue_File2,Response_File_Yes,Response_File_No,Match,Cue_Dimension,Pair1_Dimension,Pair2_Dimension,Key,Cue1_Duration,Cue1_Onset,Cue2_Duration,Cue2_Onset,ResponseYes_Duration,ResponseYes_Onset,ResponseNo_Duration,ResponseNo_Onset,ITI_Within,ITI_Between,Image1_Duration,Image1_Onset,Image2_Duration,Image2_Onset,Image3_Duration,Image3_Onset,Image4_Duration,Image4_Onset,Sound1_Duration,Sound1_Onset,Sound2_Duration,Sound2_Onset,Sound3_Duration,Sound3_Onset,Sound4_Duration,Sound4_Onset,Fixation_Duration,trials_2.thisRepN,trials_2.thisTrialN,trials_2.thisN,trials_2.thisIndex,trials.thisRepN,trials.thisTrialN,trials.thisN,trials.thisIndex,text_start.started,key_resp_start.started,key_resp_start.keys,key_resp_start.rt,text2.started,key_resp_2.started,key_resp_2.keys,key_resp_2.rt,cue_file1.started,cue_file1.stopped,image_1.started,image_1.stopped,image_2.started,image_2.stopped,sound_icon1.started,sound_icon1.stopped,sound_1.started,sound_1.stopped,sound_icon2.started,sound_icon2.stopped,sound_2.started,sound_2.stopped,image_blank_1.started,image_blank_1.stopped,key_press.started,key_press.stopped,fixation_text.started,cue_file2.started,cue_file2.stopped,image_3.started,image_3.stopped,image_4.started,image_4.stopped,sound_icon3.started,sound_icon3.stopped,sound_3.started,sound_3.stopped,sound_icon4.started,sound_icon4.stopped,sound_4.started,sound_4.stopped,response_yes.started,response_yes.stopped,response_no.started,response_no.stopped,iti_blank.started,iti_blank.stopped,fixation_text.stopped,key_press.keys,key_press.corr,key_press.rt,participant,session,date,expName,psychopyVersion,frameRate,
,,,,,,,,,,,,,,,,,,,,,,,,,,,,,,,,,,,,,,,,,,,,,,,,,,,,7.613241665996611,7.613241665996611,2,1.37003591703251,,,,,,,,,,,,,,,,,,,,,,,,,,,,,,,,,,,,,,,,,,,,,,,,reldom2_s031,001,2025-02-25_12h31.25.538,Where-B-Scan_AC,2022.2.5,None,
,,,,,,,,,,,,,,,,,,,,,,,,,,,,,,,,,,,,,,,,,,,,0,0,0,0,,,,,,,,,9.02023233298678,9.02023233298678,5,18.02491958401515,,,,,,,,,,,,,,,,,,,,,,,,,,,,,,,,,,,,,,,,,,,,reldom2_s031,001,2025-02-25_12h31.25.538,Where-B-Scan_AC,2022.2.5,None,
,,,,,,,,,,,,,,,,,,,,,,,,,,,,,,,,,,,,,,,,,,,,1,0,1,0,,,,,,,,,27.061026290990412,27.061026290990412,5,1.984294250025414,,,,,,,,,,,,,,,,,,,,,,,,,,,,,,,,,,,,,,,,,,,,reldom2_s031,001,2025-02-25_12h31.25.538,Where-B-Scan_AC,2022.2.5,None,
,,,,,,,,,,,,,,,,,,,,,,,,,,,,,,,,,,,,,,,,,,,,2,0,2,0,,,,,,,,,29.06201795800007,29.06201795800007,5,1.9818475430365652,,,,,,,,,,,,,,,,,,,,,,,,,,,,,,,,,,,,,,,,,,,,reldom2_s031,001,2025-02-25_12h31.25.538,Where-B-Scan_AC,2022.2.5,None,
,,,,,,,,,,,,,,,,,,,,,,,,,,,,,,,,,,,,,,,,,,,,3,0,3,0,,,,,,,,,31.055574165977305,31.055574165977305,5,1.9889554590336047,,,,,,,,,,,,,,,,,,,,,,,,,,,,,,,,,,,,,,,,,,,,reldom2_s031,001,2025-02-25_12h31.25.538,Where-B-Scan_AC,2022.2.5,None,
0,0.0,None,fixation,stimulus/audwhere_stim/blank_white.png,stimulus/audwhere_stim/blank_white.png,stimulus/viswhere_stim/blank_white.png,stimulus/viswhere_stim/blank_white.png,stimulus/audwhere_stim/blank_white.png,stimulus/audwhere_stim/blank_white.png,stimulus/audwhere_stim/blank_white.png,stimulus/audwhere_stim/blank_white.png,0.0,0.0,0.0,0.0,0,0.0,0,0.0,0,0.0,0,0.0,0,0.0,0.0,0,0.0,0,0.0,0,0.0,0,0.0,0,0.0,0,0.0,0,0.0,0,0.0,16,,,,,0,0,0,0,,,,,,,,,33.266248540981906,33.266248540981906,33.266248540981906,33.266248540981906,33.266248540981906,33.266248540981906,33.266248540981906,33.266248540981906,33.168395874641526,33.266248540981906,33.266248540981906,33.266248540981906,33.168395874641526,33.266248540981906,33.266248540981906,33.266248540981906,33.266248540981906,33.266248540981906,33.266248540981906,33.266248540981906,33.266248540981906,33.266248540981906,33.266248540981906,33.266248540981906,33.266248540981906,33.266248540981906,33.266248540981906,33.21839587464152,33.266248540981906,33.266248540981906,33.266248540981906,33.21839587464152,33.266248540981906,33.266248540981906,33.266248540981906,33.266248540981906,33.266248540981906,38.44652616599342,38.44652616599342,49.47322308298317,None,0,,reldom2_s031,001,2025-02-25_12h31.25.538,Where-B-Scan_AC,2022.2.5,None,
1,First_Order,1.0,audwhere,stimulus/audwhere_stim/dummy.wav,stimulus/audwhere_stim/dummy.wav,stimulus/audwhere_stim/right_away_290h.wav,stimulus/audwhere_stim/right_toward_300h.wav,stimulus/audwhere_stim/blank_white.png,stimulus/audwhere_stim/direction_box.png,stimulus/audwhere_stim/direction_yes.png,stimulus/audwhere_stim/direction_no.png,None,Direction,None,Side,2,0.0,0,5.125,0,5.125,0,5.125,0,0.0,0.625,0,0.0,0,0.0,0,0.0,0,0.0,0,0.0,0,0.0,1,0.5,1,2.125,0,,,,,0,1,1,1,,,,,,,,,49.47322308298317,49.47322308298317,49.47322308298317,49.47322308298317,49.47322308298317,49.47322308298317,49.47322308298317,49.47322308298317,49.39922104098368,49.47322308298317,49.47322308298317,49.47322308298317,49.39922104098368,49.47322308298317,49.47322308298317,49.47322308298317,51.56904224999016,55.60148229097831,49.47322308298317,49.47322308298317,54.6270329580002,49.47322308298317,49.47322308298317,49.47322308298317,49.47322308298317,49.93018558298354,50.978005207987735,49.9010476246515,,51.56904224999016,52.61911741597578,51.53978266666333,,49.47322308298317,54.6270329580002,49.47322308298317,54.6270329580002,54.667418749973876,55.35082749999128,49.47322308298317,2,1,1.4963337090157438,reldom2_s031,001,2025-02-25_12h31.25.538,Where-B-Scan_AC,2022.2.5,None,
2,First_Order,1.0,audwhere,stimulus/audwhere_stim/dummy.wav,stimulus/audwhere_stim/dummy.wav,stimulus/audwhere_stim/left_toward_290h.wav,stimulus/audwhere_stim/right_toward_280h.wav,stimulus/audwhere_stim/blank_white.png,stimulus/audwhere_stim/side_box.png,stimulus/audwhere_stim/side_yes.png,stimulus/audwhere_stim/side_no.png,None,Side,None,Direction,2,0.0,0,5.125,0,5.125,0,5.125,0,0.0,0.625,0,0.0,0,0.0,0,0.0,0,0.0,0,0.0,0,0.0,1,0.5,1,2.125,0,,,,,0,2,2,2,,,,,,,,,55.60148229097831,55.60148229097831,55.60148229097831,55.60148229097831,55.60148229097831,55.60148229097831,55.60148229097831,55.60148229097831,55.52391758331408,55.60148229097831,55.60148229097831,55.60148229097831,55.52391758331408,55.60148229097831,55.60148229097831,55.60148229097831,57.69248949998291,61.72586845798651,55.60148229097831,55.60148229097831,60.75029154098593,55.60148229097831,55.60148229097831,55.60148229097831,55.60148229097831,56.092846415995155,57.144529165991116,56.06344695765098,,57.69248949998291,58.743415790988365,57.6634945416629,,55.60148229097831,60.75029154098593,55.60148229097831,60.75029154098593,60.790260415989906,61.47457920797751,55.60148229097831,2,1,1.2801114590256475,reldom2_s031,001,2025-02-25_12h31.25.538,Where-B-Scan_AC,2022.2.5,None,
3,First_Order,1.0,audwhere,stimulus/audwhere_stim/dummy.wav,stimulus/audwhere_stim/dummy.wav,stimulus/audwhere_stim/right_toward_280h.wav,stimulus/audwhere_stim/right_away_300h.wav,stimulus/audwhere_stim/blank_white.png,stimulus/audwhere_stim/direction_box.png,stimulus/audwhere_stim/direction_yes.png,stimulus/audwhere_stim/direction_no.png,None,Direction,None,Side,2,0.0,0,5.125,0,5.125,0,5.125,0,0.0,0.625,0,0.0,0,0.0,0,0.0,0,0.0,0,0.0,0,0.0,1,0.5,1,2.125,0,,,,,0,3,3,3,,,,,,,,,61.72586845798651,61.72586845798651,61.72586845798651,61.72586845798651,61.72586845798651,61.72586845798651,61.72586845798651,61.72586845798651,61.64810054132443,61.72586845798651,61.72586845798651,61.72586845798651,61.64810054132443,61.72586845798651,61.72586845798651,61.72586845798651,63.84025945799658,,61.72586845798651,61.72586845798651,66.88172583299456,61.72586845798651,61.72586845798651,61.72586845798651,61.72586845798651,62.18689804099267,63.24441333298455,62.15729041665715,,63.84025945799658,64.89735199999996,63.81065695765234,,61.72586845798651,66.88172583299456,61.72586845798651,66.88172583299456,66.92226195798139,67.61029166597291,61.72586845798651,1,0,1.3632730840181466,reldom2_s031,001,2025-02-25_12h31.25.538,Where-B-Scan_AC,2022.2.5,None,
4,First_Order,1.0,audwhere,stimulus/audwhere_stim/dummy.wav,stimulus/audwhere_stim/dummy.wav,stimulus/audwhere_stim/left_toward_270h.wav,stimulus/audwhere_stim/right_toward_300h.wav,stimulus/audwhere_stim/blank_white.png,stimulus/audwhere_stim/direction_box.png,stimulus/audwhere_stim/direction_yes.png,stimulus/audwhere_stim/direction_no.png,None,Direction,None,Direction,1,0.0,0,5.125,0,5.125,0,5.125,0,0.0,0.625,0,0.0,0,0.0,0,0.0,0,0.0,0,0.0,0,0.0,1,0.5,1,2.125,0,,,,,0,4,4,4,,,,,,,,,67.82089249999262,67.82089249999262,67.82089249999262,67.82089249999262,67.82089249999262,67.82089249999262,67.82089249999262,67.82089249999262,67.74362499930623,67.82089249999262,67.82089249999262,67.82089249999262,67.74362499930623,67.82089249999262,67.82089249999262,67.82089249999262,69.8957975829835,73.96707412498654,67.82089249999262,67.82089249999262,72.9973094999732,67.82089249999262,67.82089249999262,67.82089249999262,67.82089249999262,68.28157220798312,69.34356258297339,68.25221524964242,,69.8957975829835,70.96290349998162,69.86627620764581,,67.82089249999262,72.9973094999732,67.82089249999262,72.9973094999732,73.03837754100095,73.69077554097748,67.82089249999262,1,1,1.335435667017009,reldom2_s031,001,2025-02-25_12h31.25.538,Where-B-Scan_AC,2022.2.5,None,
0,0.0,None,fixation,stimulus/audwhere_stim/blank_white.png,stimulus/audwhere_stim/blank_white.png,stimulus/viswhere_stim/blank_white.png,stimulus/viswhere_stim/blank_white.png,stimulus/audwhere_stim/blank_white.png,stimulus/audwhere_stim/blank_white.png,stimulus/audwhere_stim/blank_white.png,stimulus/audwhere_stim/blank_white.png,0.0,0.0,0.0,0.0,0,0.0,0,0.0,0,0.0,0,0.0,0,0.0,0.0,0,0.0,0,0.0,0,0.0,0,0.0,0,0.0,0,0.0,0,0.0,0,0.0,10,,,,,0,5,5,5,,,,,,,,,73.96707412498654,73.96707412498654,73.96707412498654,73.96707412498654,73.96707412498654,73.96707412498654,73.96707412498654,73.96707412498654,73.86463274932078,73.96707412498654,73.96707412498654,73.96707412498654,73.86463274932078,73.96707412498654,73.96707412498654,73.96707412498654,73.96707412498654,73.96707412498654,73.96707412498654,73.96707412498654,73.96707412498654,73.96707412498654,73.96707412498654,73.96707412498654,73.96707412498654,73.96707412498654,73.96707412498654,73.91463274932079,73.96707412498654,73.96707412498654,73.96707412498654,73.91463274932079,73.96707412498654,73.96707412498654,73.96707412498654,73.96707412498654,73.96707412498654,79.17601287498837,79.17601287498837,84.11184679099824,None,0,,reldom2_s031,001,2025-02-25_12h31.25.538,Where-B-Scan_AC,2022.2.5,None,
5,Second_Order,1.0,audwhere,stimulus/audwhere_stim/right_toward_300h.wav,stimulus/audwhere_stim/left_toward_280h.wav,stimulus/audwhere_stim/right_toward_280h.wav,stimulus/audwhere_stim/right_away_280h.wav,stimulus/audwhere_stim/match_blank.png,stimulus/audwhere_stim/match_box.png,stimulus/audwhere_stim/match_yes.png,stimulus/audwhere_stim/match_no.png,2.0,Match,Direction,Side,2,5.125,0,5.125,0,5.125,0,5.125,0,0.75,0.75,0,0.0,0,0.0,0,0.0,0,0.0,1,0.5,1,2.125,1,0.5,1,2.125,0,,,,,0,6,6,6,,,,,,,,,84.11184679099824,89.23592804098735,84.11184679099824,84.11184679099824,84.11184679099824,84.11184679099824,84.55610454099951,85.54354083299404,84.5702120826502,,86.19089591599186,87.17950695799664,86.19491087465236,,89.23592804098735,90.08852937497431,92.14593933298602,,90.08852937497431,90.08852937497431,95.26845504099037,90.08852937497431,90.08852937497431,90.08852937497431,90.08852937497431,90.54404058298678,91.59510787497857,90.51503729165803,,92.14593933298602,93.20405287499307,92.11659308264304,,90.08852937497431,95.26845504099037,90.08852937497431,95.26845504099037,95.26845504099037,,90.08852937497431,1,0,1.4819442510197405,reldom2_s031,001,2025-02-25_12h31.25.538,Where-B-Scan_AC,2022.2.5,None,
6,Second_Order,1.0,audwhere,stimulus/audwhere_stim/right_toward_270h.wav,stimulus/audwhere_stim/right_away_290h.wav,stimulus/audwhere_stim/left_toward_300h.wav,stimulus/audwhere_stim/left_away_290h.wav,stimulus/audwhere_stim/match_blank.png,stimulus/audwhere_stim/match_box.png,stimulus/audwhere_stim/match_yes.png,stimulus/audwhere_stim/match_no.png,1.0,Match,Side,Side,1,5.125,0,5.125,0,5.125,0,5.125,0,0.625,0.625,0,0.0,0,0.0,0,0.0,0,0.0,1,0.5,1,2.125,1,0.5,1,2.125,0,,,,,0,7,7,7,,,,,,,,,96.06835129097453,101.18015066598309,96.06835129097453,96.06835129097453,96.06835129097453,96.06835129097453,96.51803112498601,97.5045248749957,96.53107366664723,,98.15197562499088,99.14124524997897,98.15643991664207,99.15441995798028,101.18015066598309,101.90967095797532,103.95410220799386,108.01222012497601,101.90967095797532,101.90967095797532,107.099641082983,101.90967095797532,101.90967095797532,101.90967095797532,101.90967095797532,102.36251604100107,103.40788258297835,102.33345124964059,,103.95410220799386,105.00216299999738,103.92489595764006,,101.90967095797532,107.099641082983,101.90967095797532,107.099641082983,107.099641082983,107.7816594579781,101.90967095797532,1,1,1.5404645430098753,reldom2_s031,001,2025-02-25_12h31.25.538,Where-B-Scan_AC,2022.2.5,None,
0,0.0,None,fixation,stimulus/audwhere_stim/blank_white.png,stimulus/audwhere_stim/blank_white.png,stimulus/viswhere_stim/blank_white.png,stimulus/viswhere_stim/blank_white.png,stimulus/audwhere_stim/blank_white.png,stimulus/audwhere_stim/blank_white.png,stimulus/audwhere_stim/blank_white.png,stimulus/audwhere_stim/blank_white.png,0.0,0.0,0.0,0.0,0,0.0,0,0.0,0,0.0,0,0.0,0,0.0,0.0,0,0.0,0,0.0,0,0.0,0,0.0,0,0.0,0,0.0,0,0.0,0,0.0,9,,,,,0,8,8,8,,,,,,,,,108.01222012497601,108.01222012497601,108.01222012497601,108.01222012497601,108.01222012497601,108.01222012497601,108.01222012497601,108.01222012497601,107.91499279131142,108.01222012497601,108.01222012497601,108.01222012497601,107.91499279131142,108.01222012497601,108.01222012497601,108.01222012497601,108.01222012497601,108.01222012497601,108.01222012497601,108.01222012497601,108.01222012497601,108.01222012497601,108.01222012497601,108.01222012497601,108.01222012497601,108.01222012497601,108.01222012497601,107.96499279131143,108.01222012497601,108.01222012497601,108.01222012497601,107.96499279131143,108.01222012497601,108.01222012497601,108.01222012497601,108.01222012497601,108.01222012497601,113.20941395798582,113.20941395798582,117.24221045797458,None,0,,reldom2_s031,001,2025-02-25_12h31.25.538,Where-B-Scan_AC,2022.2.5,None,
7,First_Order,2.0,audwhere,stimulus/audwhere_stim/dummy.wav,stimulus/audwhere_stim/dummy.wav,stimulus/audwhere_stim/left_toward_270h.wav,stimulus/audwhere_stim/right_toward_270h.wav,stimulus/audwhere_stim/blank_white.png,stimulus/audwhere_stim/direction_box.png,stimulus/audwhere_stim/direction_yes.png,stimulus/audwhere_stim/direction_no.png,None,Direction,None,Direction,1,0.0,0,5.125,0,5.125,0,5.125,0,0.0,0.625,0,0.0,0,0.0,0,0.0,0,0.0,0,0.0,0,0.0,1,0.5,1,2.125,0,,,,,0,9,9,9,,,,,,,,,117.24221045797458,117.24221045797458,117.24221045797458,117.24221045797458,117.24221045797458,117.24221045797458,117.24221045797458,117.24221045797458,117.17007045766029,117.24221045797458,117.24221045797458,117.24221045797458,117.17007045766029,117.24221045797458,117.24221045797458,117.24221045797458,119.33038929098984,,117.24221045797458,117.24221045797458,122.43326833299943,117.24221045797458,117.24221045797458,117.24221045797458,117.24221045797458,117.70559566598968,118.77296320800087,117.675608249647,,119.33038929098984,120.39426095798262,119.30031554165568,,117.24221045797458,122.43326833299943,117.24221045797458,122.43326833299943,122.43326833299943,123.08534679099103,117.24221045797458,1,1,1.4222541260241996,reldom2_s031,001,2025-02-25_12h31.25.538,Where-B-Scan_AC,2022.2.5,None,
8,First_Order,2.0,audwhere,stimulus/audwhere_stim/dummy.wav,stimulus/audwhere_stim/dummy.wav,stimulus/audwhere_stim/left_toward_280h.wav,stimulus/audwhere_stim/right_toward_290h.wav,stimulus/audwhere_stim/blank_white.png,stimulus/audwhere_stim/side_box.png,stimulus/audwhere_stim/side_yes.png,stimulus/audwhere_stim/side_no.png,None,Side,None,Direction,2,0.0,0,5.125,0,5.125,0,5.125,0,0.0,0.625,0,0.0,0,0.0,0,0.0,0,0.0,0,0.0,0,0.0,1,0.5,1,2.125,0,,,,,0,10,10,10,,,,,,,,,123.33765658299671,123.33765658299671,123.33765658299671,123.33765658299671,123.33765658299671,123.33765658299671,123.33765658299671,123.33765658299671,123.25965945833207,123.33765658299671,123.33765658299671,123.33765658299671,123.25965945833207,123.33765658299671,123.33765658299671,123.33765658299671,125.41287995799212,,123.33765658299671,123.33765658299671,128.5018121659814,123.33765658299671,123.33765658299671,123.33765658299671,123.33765658299671,123.7987324159767,124.8598417499743,123.76881720766347,,125.41287995799212,126.47637274998124,125.38308554166385,,123.33765658299671,128.5018121659814,123.33765658299671,128.5018121659814,128.54270349998842,129.19262379099382,123.33765658299671,2,1,1.0241569590289146,reldom2_s031,001,2025-02-25_12h31.25.538,Where-B-Scan_AC,2022.2.5,None,
9,First_Order,2.0,audwhere,stimulus/audwhere_stim/dummy.wav,stimulus/audwhere_stim/dummy.wav,stimulus/audwhere_stim/left_away_270h.wav,stimulus/audwhere_stim/left_toward_290h.wav,stimulus/audwhere_stim/blank_white.png,stimulus/audwhere_stim/side_box.png,stimulus/audwhere_stim/side_yes.png,stimulus/audwhere_stim/side_no.png,None,Side,None,Side,1,0.0,0,5.125,0,5.125,0,5.125,0,0.0,0.625,0,0.0,0,0.0,0,0.0,0,0.0,0,0.0,0,0.0,1,0.5,1,2.125,0,,,,,0,11,11,11,,,,,,,,,129.44629520797753,129.44629520797753,129.44629520797753,129.44629520797753,129.44629520797753,129.44629520797753,129.44629520797753,129.44629520797753,129.36670083331606,129.44629520797753,129.44629520797753,129.44629520797753,129.36670083331606,129.44629520797753,129.44629520797753,129.44629520797753,131.52573533297982,135.5656577499758,129.44629520797753,129.44629520797753,134.61991908299387,129.44629520797753,129.44629520797753,129.44629520797753,129.44629520797753,129.9089018329978,130.96991124999477,129.87905895765678,,131.52573533297982,132.58986879099393,131.4960019996545,,129.44629520797753,134.61991908299387,129.44629520797753,134.61991908299387,134.66047008297755,135.3133182079764,129.44629520797753,1,1,1.595255125022959,reldom2_s031,001,2025-02-25_12h31.25.538,Where-B-Scan_AC,2022.2.5,None,
10,First_Order,2.0,audwhere,stimulus/audwhere_stim/dummy.wav,stimulus/audwhere_stim/dummy.wav,stimulus/audwhere_stim/right_away_290h.wav,stimulus/audwhere_stim/right_toward_290h.wav,stimulus/audwhere_stim/blank_white.png,stimulus/audwhere_stim/side_box.png,stimulus/audwhere_stim/side_yes.png,stimulus/audwhere_stim/side_no.png,None,Side,None,Side,1,0.0,0,5.125,0,5.125,0,5.125,0,0.0,0.625,0,0.0,0,0.0,0,0.0,0,0.0,0,0.0,0,0.0,1,0.5,1,2.125,0,,,,,0,12,12,12,,,,,,,,,135.5656577499758,135.5656577499758,135.5656577499758,135.5656577499758,135.5656577499758,135.5656577499758,135.5656577499758,135.5656577499758,135.48754099931298,135.5656577499758,135.5656577499758,135.5656577499758,135.48754099931298,135.5656577499758,135.5656577499758,135.5656577499758,137.64211679098662,141.7070349159767,135.5656577499758,135.5656577499758,140.73902729098336,135.5656577499758,135.5656577499758,135.5656577499758,135.5656577499758,136.02720212499844,137.08873895797296,135.9973874996397,,137.64211679098662,138.7092039999843,137.6125650826473,,135.5656577499758,140.73902729098336,135.5656577499758,140.73902729098336,140.7792456659954,141.4338707079878,135.5656577499758,1,1,0.6885011680133175,reldom2_s031,001,2025-02-25_12h31.25.538,Where-B-Scan_AC,2022.2.5,None,
0,0.0,None,fixation,stimulus/audwhere_stim/blank_white.png,stimulus/audwhere_stim/blank_white.png,stimulus/viswhere_stim/blank_white.png,stimulus/viswhere_stim/blank_white.png,stimulus/audwhere_stim/blank_white.png,stimulus/audwhere_stim/blank_white.png,stimulus/audwhere_stim/blank_white.png,stimulus/audwhere_stim/blank_white.png,0.0,0.0,0.0,0.0,0,0.0,0,0.0,0,0.0,0,0.0,0,0.0,0.0,0,0.0,0,0.0,0,0.0,0,0.0,0,0.0,0,0.0,0,0.0,0,0.0,9,,,,,0,13,13,13,,,,,,,,,141.7070349159767,141.7070349159767,141.7070349159767,141.7070349159767,141.7070349159767,141.7070349159767,141.7070349159767,141.7070349159767,141.60824791633254,141.7070349159767,141.7070349159767,141.7070349159767,141.60824791633254,141.7070349159767,141.7070349159767,141.7070349159767,141.7070349159767,141.7070349159767,141.7070349159767,141.7070349159767,141.7070349159767,141.7070349159767,141.7070349159767,141.7070349159767,141.7070349159767,141.7070349159767,141.7070349159767,141.65824791633253,141.7070349159767,141.7070349159767,141.7070349159767,141.65824791633253,141.7070349159767,141.7070349159767,141.7070349159767,141.7070349159767,141.7070349159767,146.930422290985,146.930422290985,150.8549250829965,None,0,,reldom2_s031,001,2025-02-25_12h31.25.538,Where-B-Scan_AC,2022.2.5,None,
11,Second_Order,2.0,audwhere,stimulus/audwhere_stim/left_toward_280h.wav,stimulus/audwhere_stim/left_away_290h.wav,stimulus/audwhere_stim/left_away_290h.wav,stimulus/audwhere_stim/right_away_280h.wav,stimulus/audwhere_stim/match_blank.png,stimulus/audwhere_stim/match_box.png,stimulus/audwhere_stim/match_yes.png,stimulus/audwhere_stim/match_no.png,2.0,Match,Side,Direction,2,5.125,0,5.125,0,5.125,0,5.125,0,0.75,0.75,0,0.0,0,0.0,0,0.0,0,0.0,1,0.5,1,2.125,1,0.5,1,2.125,0,,,,,0,14,14,14,,,,,,,,,150.8549250829965,155.97325979097513,150.8549250829965,150.8549250829965,150.8549250829965,150.8549250829965,151.31220229098108,152.3102937079966,151.32475495766656,,152.9327320829907,153.93088420797721,152.9454187916456,,155.97325979097513,156.82332283299183,158.89227729098639,,156.82332283299183,156.82332283299183,161.98637862497708,156.82332283299183,156.82332283299183,156.82332283299183,156.82332283299183,157.23781870797393,158.29466474999208,157.2083479996402,,158.89227729098639,159.95534024998778,158.8622738746674,,156.82332283299183,161.98637862497708,156.82332283299183,161.98637862497708,161.98637862497708,,156.82332283299183,1,0,2.356482125032926,reldom2_s031,001,2025-02-25_12h31.25.538,Where-B-Scan_AC,2022.2.5,None,
12,Second_Order,2.0,audwhere,stimulus/audwhere_stim/left_away_270h.wav,stimulus/audwhere_stim/left_toward_280h.wav,stimulus/audwhere_stim/right_away_280h.wav,stimulus/audwhere_stim/right_toward_300h.wav,stimulus/audwhere_stim/match_blank.png,stimulus/audwhere_stim/match_box.png,stimulus/audwhere_stim/match_yes.png,stimulus/audwhere_stim/match_no.png,1.0,Match,Side,Side,1,5.125,0,5.125,0,5.125,0,5.125,0,0.625,0.625,0,0.0,0,0.0,0,0.0,0,0.0,1,0.5,1,2.125,1,0.5,1,2.125,0,,,,,0,15,15,15,,,,,,,,,162.7919694579905,167.9131649999763,162.7919694579905,162.7919694579905,162.7919694579905,162.7919694579905,163.25184283297858,164.24155349997454,163.2538623746407,,164.87758074997691,165.875380707992,164.88929941665654,,167.9131649999763,168.64767070798553,170.7008504999976,,168.64767070798553,168.64767070798553,173.82339958299417,168.64767070798553,168.64767070798553,168.64767070798553,168.64767070798553,169.10320037498605,170.15228999999817,169.07381749965523,,170.7008504999976,171.7580567909754,170.67129308265092,,168.64767070798553,173.82339958299417,168.64767070798553,173.82339958299417,173.82339958299417,174.50961704098154,168.64767070798553,1,1,3.5839931260270532,reldom2_s031,001,2025-02-25_12h31.25.538,Where-B-Scan_AC,2022.2.5,None,
0,0.0,None,fixation,stimulus/audwhere_stim/blank_white.png,stimulus/audwhere_stim/blank_white.png,stimulus/viswhere_stim/blank_white.png,stimulus/viswhere_stim/blank_white.png,stimulus/audwhere_stim/blank_white.png,stimulus/audwhere_stim/blank_white.png,stimulus/audwhere_stim/blank_white.png,stimulus/audwhere_stim/blank_white.png,0.0,0.0,0.0,0.0,0,0.0,0,0.0,0,0.0,0,0.0,0,0.0,0.0,0,0.0,0,0.0,0,0.0,0,0.0,0,0.0,0,0.0,0,0.0,0,0.0,8,,,,,0,16,16,16,,,,,,,,,174.73897162498906,174.73897162498906,174.73897162498906,174.73897162498906,174.73897162498906,174.73897162498906,174.73897162498906,174.73897162498906,174.6429503743149,174.73897162498906,174.73897162498906,174.73897162498906,174.6429503743149,174.73897162498906,174.73897162498906,174.73897162498906,174.73897162498906,174.73897162498906,174.73897162498906,174.73897162498906,174.73897162498906,174.73897162498906,174.73897162498906,174.73897162498906,174.73897162498906,174.73897162498906,174.73897162498906,174.69295037431488,174.73897162498906,174.73897162498906,174.73897162498906,174.69295037431488,174.73897162498906,174.73897162498906,174.73897162498906,174.73897162498906,174.73897162498906,179.92727062499034,179.92727062499034,182.92217499998515,None,0,,reldom2_s031,001,2025-02-25_12h31.25.538,Where-B-Scan_AC,2022.2.5,None,
13,First_Order,3.0,viswhere,stimulus/viswhere_stim/blank_white.png,stimulus/viswhere_stim/blank_white.png,stimulus/viswhere_stim/150-deg_dot-left_seagreen.png,stimulus/viswhere_stim/150-deg_dot-right_royalblue.png,stimulus/viswhere_stim/blank_white.png,stimulus/viswhere_stim/line_box.png,stimulus/viswhere_stim/line_yes.png,stimulus/viswhere_stim/line_no.png,None,Line,None,Line,1,0.0,0,5.125,0,5.125,0,5.125,0,0.0,0.625,0,0.0,0,0.0,1,0.5,1,2.125,0,0.0,0,0.0,0,0.0,0,0.0,0,,,,,0,17,17,17,,,,,,,,,182.92217499998515,182.92217499998515,182.92217499998515,182.92217499998515,182.92217499998515,182.92217499998515,182.92217499998515,182.92217499998515,182.90314166665001,182.92217499998515,182.92217499998515,182.92217499998515,182.90314166665001,182.92217499998515,182.92217499998515,182.92217499998515,185.02152520799427,188.97875737497816,182.92217499998515,182.92217499998515,188.05400858298526,183.40523299999768,184.4071554580005,185.02152520799427,186.03124237500015,182.92217499998515,182.92217499998515,182.90314166665001,182.92217499998515,182.92217499998515,182.92217499998515,182.90314166665001,182.92217499998515,182.92217499998515,188.05400858298526,182.92217499998515,188.05400858298526,188.13671691599302,188.76272933298605,182.92217499998515,1,1,0.8842317920352798,reldom2_s031,001,2025-02-25_12h31.25.538,Where-B-Scan_AC,2022.2.5,None,
14,First_Order,3.0,viswhere,stimulus/viswhere_stim/blank_white.png,stimulus/viswhere_stim/blank_white.png,stimulus/viswhere_stim/90-deg_dot-right_cyan.png,stimulus/viswhere_stim/90-deg_dot-left_turquoise.png,stimulus/viswhere_stim/blank_white.png,stimulus/viswhere_stim/line_box.png,stimulus/viswhere_stim/line_yes.png,stimulus/viswhere_stim/line_no.png,None,Line,None,Line,1,0.0,0,5.125,0,5.125,0,5.125,0,0.0,0.625,0,0.0,0,0.0,1,0.5,1,2.125,0,0.0,0,0.0,0,0.0,0,0.0,0,,,,,0,18,18,18,,,,,,,,,188.97875737497816,188.97875737497816,188.97875737497816,188.97875737497816,188.97875737497816,188.97875737497816,188.97875737497816,188.97875737497816,188.95813633331758,188.97875737497816,188.97875737497816,188.97875737497816,188.95813633331758,188.97875737497816,188.97875737497816,188.97875737497816,191.08437749999575,195.04966791599873,188.97875737497816,188.97875737497816,194.11436074998346,189.45896837499458,190.4727341659891,191.08437749999575,192.10528179098037,188.97875737497816,188.97875737497816,188.97480299998426,188.97875737497816,188.97875737497816,188.97875737497816,188.97480299998426,188.97875737497816,188.97875737497816,194.11436074998346,188.97875737497816,194.11436074998346,194.19741208298365,194.83187029097462,188.97875737497816,1,1,0.7441656260052696,reldom2_s031,001,2025-02-25_12h31.25.538,Where-B-Scan_AC,2022.2.5,None,
15,First_Order,3.0,viswhere,stimulus/viswhere_stim/blank_white.png,stimulus/viswhere_stim/blank_white.png,stimulus/viswhere_stim/60-deg_dot-right_salmon.png,stimulus/viswhere_stim/150-deg_dot-right_turquoise.png,stimulus/viswhere_stim/blank_white.png,stimulus/viswhere_stim/dot_box.png,stimulus/viswhere_stim/dot_yes.png,stimulus/viswhere_stim/dot_no.png,None,Dot,None,Dot,1,0.0,0,5.125,0,5.125,0,5.125,0,0.0,0.625,0,0.0,0,0.0,1,0.5,1,2.125,0,0.0,0,0.0,0,0.0,0,0.0,0,,,,,0,19,19,19,,,,,,,,,195.04966791599873,195.04966791599873,195.04966791599873,195.04966791599873,195.04966791599873,195.04966791599873,195.04966791599873,195.04966791599873,195.0273952493056,195.04966791599873,195.04966791599873,195.04966791599873,195.0273952493056,195.04966791599873,195.04966791599873,195.04966791599873,197.15792754097492,201.11848158299108,195.04966791599873,195.04966791599873,200.18940033297986,195.52984116598964,196.54481824999675,197.15792754097492,198.17774687497877,195.04966791599873,195.04966791599873,195.0440619159723,195.04966791599873,195.04966791599873,195.04966791599873,195.0440619159723,195.04966791599873,195.04966791599873,200.18940033297986,195.04966791599873,200.18940033297986,200.2729733749875,200.89859316599905,195.04966791599873,1,1,0.7727730840269942,reldom2_s031,001,2025-02-25_12h31.25.538,Where-B-Scan_AC,2022.2.5,None,
16,First_Order,3.0,viswhere,stimulus/viswhere_stim/blank_white.png,stimulus/viswhere_stim/blank_white.png,stimulus/viswhere_stim/120-deg_dot-left_peru.png,stimulus/viswhere_stim/120-deg_dot-right_royalblue.png,stimulus/viswhere_stim/blank_white.png,stimulus/viswhere_stim/dot_box.png,stimulus/viswhere_stim/dot_yes.png,stimulus/viswhere_stim/dot_no.png,None,Dot,None,Line,2,0.0,0,5.125,0,5.125,0,5.125,0,0.0,0.625,0,0.0,0,0.0,1,0.5,1,2.125,0,0.0,0,0.0,0,0.0,0,0.0,0,,,,,0,20,20,20,,,,,,,,,201.11848158299108,201.11848158299108,201.11848158299108,201.11848158299108,201.11848158299108,201.11848158299108,201.11848158299108,201.11848158299108,201.09626087431874,201.11848158299108,201.11848158299108,201.11848158299108,201.09626087431874,201.11848158299108,201.11848158299108,201.11848158299108,203.2307036659913,207.26387691599666,201.11848158299108,201.11848158299108,206.24379583299742,201.59344449997297,202.60212858297746,203.2307036659913,204.24554595799418,201.11848158299108,201.11848158299108,201.11292754098542,201.11848158299108,201.11848158299108,201.11848158299108,201.11292754098542,201.11848158299108,201.11848158299108,206.24379583299742,201.11848158299108,206.24379583299742,206.33858033298748,206.98584241597564,201.11848158299108,2,1,0.8846462930378038,reldom2_s031,001,2025-02-25_12h31.25.538,Where-B-Scan_AC,2022.2.5,None,
0,0.0,None,fixation,stimulus/audwhere_stim/blank_white.png,stimulus/audwhere_stim/blank_white.png,stimulus/viswhere_stim/blank_white.png,stimulus/viswhere_stim/blank_white.png,stimulus/audwhere_stim/blank_white.png,stimulus/audwhere_stim/blank_white.png,stimulus/audwhere_stim/blank_white.png,stimulus/audwhere_stim/blank_white.png,0.0,0.0,0.0,0.0,0,0.0,0,0.0,0,0.0,0,0.0,0,0.0,0.0,0,0.0,0,0.0,0,0.0,0,0.0,0,0.0,0,0.0,0,0.0,0,0.0,10,,,,,0,21,21,21,,,,,,,,,207.26387691599666,207.26387691599666,207.26387691599666,207.26387691599666,207.26387691599666,207.26387691599666,207.26387691599666,207.26387691599666,207.166373458332,207.26387691599666,207.26387691599666,207.26387691599666,207.166373458332,207.26387691599666,207.26387691599666,207.26387691599666,207.26387691599666,207.26387691599666,207.26387691599666,207.26387691599666,207.26387691599666,207.26387691599666,207.26387691599666,207.26387691599666,207.26387691599666,207.26387691599666,207.26387691599666,207.21637345833201,207.26387691599666,207.26387691599666,207.26387691599666,207.21637345833201,207.26387691599666,207.26387691599666,207.26387691599666,207.26387691599666,207.26387691599666,212.45307179098018,212.45307179098018,217.392401665973,None,0,,reldom2_s031,001,2025-02-25_12h31.25.538,Where-B-Scan_AC,2022.2.5,None,
17,Second_Order,3.0,viswhere,stimulus/viswhere_stim/90-deg_dot-left_lightsseagreen.png,stimulus/viswhere_stim/90-deg_dot-right_lightsseagreen.png,stimulus/viswhere_stim/120-deg_dot-right_cyan.png,stimulus/viswhere_stim/60-deg_dot-right_royalblue.png,stimulus/audwhere_stim/match_blank.png,stimulus/audwhere_stim/match_box.png,stimulus/audwhere_stim/match_yes.png,stimulus/audwhere_stim/match_no.png,2.0,Match,Line,Dot,2,5.125,0,5.125,0,5.125,0,5.125,0,0.75,0.75,1,0.5,1,2.125,1,0.5,1,2.125,0,0.0,0,0.0,0,0.0,0,0.0,0,,,,,0,22,22,22,,,,,,,,,217.392401665973,222.51108866598224,217.86635662498884,218.86391495799762,219.49891316599678,220.48772758297855,217.392401665973,217.392401665973,217.40679691633173,217.392401665973,217.392401665973,217.392401665973,217.40679691633173,217.392401665973,222.51108866598224,223.30619704097626,225.39116737499717,229.24436470799264,223.30619704097626,223.30619704097626,228.43563645798713,223.74978195797303,224.76051616598852,225.39116737499717,226.40823183298926,223.30619704097626,223.30619704097626,223.29491920799484,223.30619704097626,223.30619704097626,223.30619704097626,223.29491920799484,223.30619704097626,223.30619704097626,228.43563645798713,223.30619704097626,228.43563645798713,228.50485674999072,229.2808052909968,223.30619704097626,1,0,0.9807775840163231,reldom2_s031,001,2025-02-25_12h31.25.538,Where-B-Scan_AC,2022.2.5,None,
18,Second_Order,3.0,viswhere,stimulus/viswhere_stim/90-deg_dot-left_lightsseagreen.png,stimulus/viswhere_stim/60-deg_dot-left_mediumslateblue.png,stimulus/viswhere_stim/60-deg_dot-right_lightsseagreen.png,stimulus/viswhere_stim/30-deg_dot-right_goldenrod.png,stimulus/audwhere_stim/match_blank.png,stimulus/audwhere_stim/match_box.png,stimulus/audwhere_stim/match_yes.png,stimulus/audwhere_stim/match_no.png,1.0,Match,Dot,Dot,1,5.125,0,5.125,0,5.125,0,5.125,0,0.625,0.625,1,0.5,1,2.125,1,0.5,1,2.125,0,0.0,0,0.0,0,0.0,0,0.0,0,,,,,0,23,23,23,,,,,,,,,229.2808052909968,234.40549874998396,229.75978616598877,230.75853662498412,231.3812434579886,232.3788518329966,229.2808052909968,229.2808052909968,229.29436470799266,229.2808052909968,229.2808052909968,229.2808052909968,229.29436470799266,229.2808052909968,234.40549874998396,235.07784966597683,237.15896170798806,241.19792158299242,235.07784966597683,235.07784966597683,240.2010432909883,235.5385077909741,236.54794220798067,237.15896170798806,238.17504620799446,235.07784966597683,235.07784966597683,235.05118979133164,235.07784966597683,235.07784966597683,235.07784966597683,235.05118979133164,235.07784966597683,235.07784966597683,240.2010432909883,235.07784966597683,240.2010432909883,240.27047895797295,240.90139324998017,235.07784966597683,1,1,1.0939532920019701,reldom2_s031,001,2025-02-25_12h31.25.538,Where-B-Scan_AC,2022.2.5,None,
0,0.0,None,fixation,stimulus/audwhere_stim/blank_white.png,stimulus/audwhere_stim/blank_white.png,stimulus/viswhere_stim/blank_white.png,stimulus/viswhere_stim/blank_white.png,stimulus/audwhere_stim/blank_white.png,stimulus/audwhere_stim/blank_white.png,stimulus/audwhere_stim/blank_white.png,stimulus/audwhere_stim/blank_white.png,0.0,0.0,0.0,0.0,0,0.0,0,0.0,0,0.0,0,0.0,0,0.0,0.0,0,0.0,0,0.0,0,0.0,0,0.0,0,0.0,0,0.0,0,0.0,0,0.0,9,,,,,0,24,24,24,,,,,,,,,241.19792158299242,241.19792158299242,241.19792158299242,241.19792158299242,241.19792158299242,241.19792158299242,241.19792158299242,241.19792158299242,241.09783045833078,241.19792158299242,241.19792158299242,241.19792158299242,241.09783045833078,241.19792158299242,241.19792158299242,241.19792158299242,241.19792158299242,241.19792158299242,241.19792158299242,241.19792158299242,241.19792158299242,241.19792158299242,241.19792158299242,241.19792158299242,241.19792158299242,241.19792158299242,241.19792158299242,241.1478304583308,241.19792158299242,241.19792158299242,241.19792158299242,241.1478304583308,241.19792158299242,241.19792158299242,241.19792158299242,241.19792158299242,241.19792158299242,246.41035916598048,246.41035916598048,250.37555662498926,None,0,,reldom2_s031,001,2025-02-25_12h31.25.538,Where-B-Scan_AC,2022.2.5,None,
19,First_Order,4.0,viswhere,stimulus/viswhere_stim/blank_white.png,stimulus/viswhere_stim/blank_white.png,stimulus/viswhere_stim/90-deg_dot-left_seagreen.png,stimulus/viswhere_stim/150-deg_dot-left_lightsseagreen.png,stimulus/viswhere_stim/blank_white.png,stimulus/viswhere_stim/dot_box.png,stimulus/viswhere_stim/dot_yes.png,stimulus/viswhere_stim/dot_no.png,None,Dot,None,Dot,1,0.0,0,5.125,0,5.125,0,5.125,0,0.0,0.625,0,0.0,0,0.0,1,0.5,1,2.125,0,0.0,0,0.0,0,0.0,0,0.0,0,,,,,0,25,25,25,,,,,,,,,250.37555662498926,250.37555662498926,250.37555662498926,250.37555662498926,250.37555662498926,250.37555662498926,250.37555662498926,250.37555662498926,250.3556264996393,250.37555662498926,250.37555662498926,250.37555662498926,250.3556264996393,250.37555662498926,250.37555662498926,250.37555662498926,252.48283387499396,256.43946224998217,250.37555662498926,250.37555662498926,255.50068162498064,250.85462049997295,251.8717665829754,252.48283387499396,253.48812387499493,250.37555662498926,250.37555662498926,250.37229316630595,250.37555662498926,250.37555662498926,250.37555662498926,250.37229316630595,250.37555662498926,250.37555662498926,255.50068162498064,250.37555662498926,255.50068162498064,255.59816449999926,256.22385504099657,250.37555662498926,1,1,0.5514087089977693,reldom2_s031,001,2025-02-25_12h31.25.538,Where-B-Scan_AC,2022.2.5,None,
20,First_Order,4.0,viswhere,stimulus/viswhere_stim/blank_white.png,stimulus/viswhere_stim/blank_white.png,stimulus/viswhere_stim/30-deg_dot-left_peru.png,stimulus/viswhere_stim/30-deg_dot-right_salmon.png,stimulus/viswhere_stim/blank_white.png,stimulus/viswhere_stim/dot_box.png,stimulus/viswhere_stim/dot_yes.png,stimulus/viswhere_stim/dot_no.png,None,Dot,None,Line,2,0.0,0,5.125,0,5.125,0,5.125,0,0.0,0.625,0,0.0,0,0.0,1,0.5,1,2.125,0,0.0,0,0.0,0,0.0,0,0.0,0,,,,,0,26,26,26,,,,,,,,,256.43946224998217,256.43946224998217,256.43946224998217,256.43946224998217,256.43946224998217,256.43946224998217,256.43946224998217,256.43946224998217,256.4188318743157,256.43946224998217,256.43946224998217,256.43946224998217,256.4188318743157,256.43946224998217,256.43946224998217,256.43946224998217,258.5532119999989,262.5016919579939,256.43946224998217,256.43946224998217,261.5718516249908,256.9151764159906,257.9261222499772,258.5532119999989,259.5696675409854,256.43946224998217,256.43946224998217,256.43549854098234,256.43946224998217,256.43946224998217,256.43946224998217,256.43549854098234,256.43946224998217,256.43946224998217,261.5718516249908,256.43946224998217,261.5718516249908,261.6601305829827,262.2841954579926,256.43946224998217,2,1,1.0078758340096101,reldom2_s031,001,2025-02-25_12h31.25.538,Where-B-Scan_AC,2022.2.5,None,
21,First_Order,4.0,viswhere,stimulus/viswhere_stim/blank_white.png,stimulus/viswhere_stim/blank_white.png,stimulus/viswhere_stim/60-deg_dot-left_lightsseagreen.png,stimulus/viswhere_stim/30-deg_dot-left_slateblue.png,stimulus/viswhere_stim/blank_white.png,stimulus/viswhere_stim/line_box.png,stimulus/viswhere_stim/line_yes.png,stimulus/viswhere_stim/line_no.png,None,Line,None,Dot,2,0.0,0,5.125,0,5.125,0,5.125,0,0.0,0.625,0,0.0,0,0.0,1,0.5,1,2.125,0,0.0,0,0.0,0,0.0,0,0.0,0,,,,,0,27,27,27,,,,,,,,,262.5016919579939,262.5016919579939,262.5016919579939,262.5016919579939,262.5016919579939,262.5016919579939,262.5016919579939,262.5016919579939,262.4807456663305,262.5016919579939,262.5016919579939,262.5016919579939,262.4807456663305,262.5016919579939,262.5016919579939,262.5016919579939,264.6043753749982,268.5685839159996,262.5016919579939,262.5016919579939,267.62835837499006,262.9797384579724,263.9941392079927,264.6043753749982,265.62165116597316,262.5016919579939,262.5016919579939,262.49741233299716,262.5016919579939,262.5016919579939,262.5016919579939,262.49741233299716,262.5016919579939,262.5016919579939,267.62835837499006,262.5016919579939,267.62835837499006,267.72611133297323,268.3514897079731,262.5016919579939,2,1,1.3089842090266757,reldom2_s031,001,2025-02-25_12h31.25.538,Where-B-Scan_AC,2022.2.5,None,
22,First_Order,4.0,viswhere,stimulus/viswhere_stim/blank_white.png,stimulus/viswhere_stim/blank_white.png,stimulus/viswhere_stim/120-deg_dot-right_peru.png,stimulus/viswhere_stim/150-deg_dot-right_peru.png,stimulus/viswhere_stim/blank_white.png,stimulus/viswhere_stim/line_box.png,stimulus/viswhere_stim/line_yes.png,stimulus/viswhere_stim/line_no.png,None,Line,None,Dot,2,0.0,0,5.125,0,5.125,0,5.125,0,0.0,0.625,0,0.0,0,0.0,1,0.5,1,2.125,0,0.0,0,0.0,0,0.0,0,0.0,0,,,,,0,28,28,28,,,,,,,,,268.5685839159996,268.5685839159996,268.5685839159996,268.5685839159996,268.5685839159996,268.5685839159996,268.5685839159996,268.5685839159996,268.5471777083197,268.5685839159996,268.5685839159996,268.5685839159996,268.5471777083197,268.5685839159996,268.5685839159996,268.5685839159996,270.6757010000001,274.7108650000009,268.5685839159996,268.5685839159996,273.6941859999788,269.0465944999887,270.0633111249772,270.6757010000001,271.6797017909994,268.5685839159996,268.5685839159996,268.56384437498633,268.5685839159996,268.5685839159996,268.5685839159996,268.56384437498633,268.5685839159996,268.5685839159996,273.6941859999788,268.5685839159996,273.6941859999788,273.7927030409919,274.4187237909937,268.5685839159996,2,1,0.9338351260230411,reldom2_s031,001,2025-02-25_12h31.25.538,Where-B-Scan_AC,2022.2.5,None,
0,0.0,None,fixation,stimulus/audwhere_stim/blank_white.png,stimulus/audwhere_stim/blank_white.png,stimulus/viswhere_stim/blank_white.png,stimulus/viswhere_stim/blank_white.png,stimulus/audwhere_stim/blank_white.png,stimulus/audwhere_stim/blank_white.png,stimulus/audwhere_stim/blank_white.png,stimulus/audwhere_stim/blank_white.png,0.0,0.0,0.0,0.0,0,0.0,0,0.0,0,0.0,0,0.0,0,0.0,0.0,0,0.0,0,0.0,0,0.0,0,0.0,0,0.0,0,0.0,0,0.0,0,0.0,10,,,,,0,29,29,29,,,,,,,,,274.7108650000009,274.7108650000009,274.7108650000009,274.7108650000009,274.7108650000009,274.7108650000009,274.7108650000009,274.7108650000009,274.61291033331264,274.7108650000009,274.7108650000009,274.7108650000009,274.61291033331264,274.7108650000009,274.7108650000009,274.7108650000009,274.7108650000009,274.7108650000009,274.7108650000009,274.7108650000009,274.7108650000009,274.7108650000009,274.7108650000009,274.7108650000009,274.7108650000009,274.7108650000009,274.7108650000009,274.66291033331265,274.7108650000009,274.7108650000009,274.7108650000009,274.66291033331265,274.7108650000009,274.7108650000009,274.7108650000009,274.7108650000009,274.7108650000009,279.9113216249971,279.9113216249971,284.85226908299956,None,0,,reldom2_s031,001,2025-02-25_12h31.25.538,Where-B-Scan_AC,2022.2.5,None,
23,Second_Order,4.0,viswhere,stimulus/viswhere_stim/60-deg_dot-right_peru.png,stimulus/viswhere_stim/60-deg_dot-left_royalblue.png,stimulus/viswhere_stim/90-deg_dot-left_slateblue.png,stimulus/viswhere_stim/90-deg_dot-right_royalblue.png,stimulus/audwhere_stim/match_blank.png,stimulus/audwhere_stim/match_box.png,stimulus/audwhere_stim/match_yes.png,stimulus/audwhere_stim/match_no.png,1.0,Match,Line,Line,1,5.125,0,5.125,0,5.125,0,5.125,0,0.75,0.75,1,0.5,1,2.125,1,0.5,1,2.125,0,0.0,0,0.0,0,0.0,0,0.0,0,,,,,0,30,30,30,,,,,,,,,284.85226908299956,289.9677212079987,285.3338746249792,286.3242797499988,286.95880187497823,287.95727537499624,284.85226908299956,284.85226908299956,284.86599541633234,284.85226908299956,284.85226908299956,284.85226908299956,284.86599541633234,284.85226908299956,289.9677212079987,290.7764073329745,292.8545512079727,296.74256370798685,290.7764073329745,290.7764073329745,295.9002388329827,291.2230662079819,292.241720082995,292.8545512079727,293.86138654098613,290.7764073329745,290.7764073329745,290.763567290979,290.7764073329745,290.7764073329745,290.7764073329745,290.763567290979,290.7764073329745,290.7764073329745,295.9002388329827,290.7764073329745,295.9002388329827,295.96881233298336,296.74256370798685,290.7764073329745,1,1,0.7774475010228343,reldom2_s031,001,2025-02-25_12h31.25.538,Where-B-Scan_AC,2022.2.5,None,
24,Second_Order,4.0,viswhere,stimulus/viswhere_stim/120-deg_dot-left_peru.png,stimulus/viswhere_stim/120-deg_dot-right_peru.png,stimulus/viswhere_stim/30-deg_dot-right_peru.png,stimulus/viswhere_stim/30-deg_dot-left_lightsseagreen.png,stimulus/audwhere_stim/match_blank.png,stimulus/audwhere_stim/match_box.png,stimulus/audwhere_stim/match_yes.png,stimulus/audwhere_stim/match_no.png,1.0,Match,Line,Line,1,5.125,0,5.125,0,5.125,0,5.125,0,0.625,0.625,1,0.5,1,2.125,1,0.5,1,2.125,0,0.0,0,0.0,0,0.0,0,0.0,0,,,,,0,31,31,31,,,,,,,,,296.74256370798685,301.8600679579831,297.2284887909773,298.2172384999867,298.85355420797714,299.8511284579872,296.74256370798685,296.74256370798685,296.75668316597586,296.74256370798685,296.74256370798685,296.74256370798685,296.75668316597586,296.74256370798685,301.8600679579831,302.53090062498813,304.6164762909757,308.65037916597794,302.53090062498813,302.53090062498813,307.6686662909924,302.9916510829935,304.00712854097947,304.6164762909757,305.6195041659812,302.53090062498813,302.53090062498813,302.507418249334,302.53090062498813,302.53090062498813,302.53090062498813,302.507418249334,302.53090062498813,302.53090062498813,307.6686662909924,302.53090062498813,307.6686662909924,307.722812041,308.3501141659799,302.53090062498813,1,1,0.8682611670228653,reldom2_s031,001,2025-02-25_12h31.25.538,Where-B-Scan_AC,2022.2.5,None,
0,0.0,None,fixation,stimulus/audwhere_stim/blank_white.png,stimulus/audwhere_stim/blank_white.png,stimulus/viswhere_stim/blank_white.png,stimulus/viswhere_stim/blank_white.png,stimulus/audwhere_stim/blank_white.png,stimulus/audwhere_stim/blank_white.png,stimulus/audwhere_stim/blank_white.png,stimulus/audwhere_stim/blank_white.png,0.0,0.0,0.0,0.0,0,0.0,0,0.0,0,0.0,0,0.0,0,0.0,0.0,0,0.0,0,0.0,0,0.0,0,0.0,0,0.0,0,0.0,0,0.0,0,0.0,9,,,,,0,32,32,32,,,,,,,,,308.65037916597794,308.65037916597794,308.65037916597794,308.65037916597794,308.65037916597794,308.65037916597794,308.65037916597794,308.65037916597794,308.55053995831014,308.65037916597794,308.65037916597794,308.65037916597794,308.55053995831014,308.65037916597794,308.65037916597794,308.65037916597794,308.65037916597794,308.65037916597794,308.65037916597794,308.65037916597794,308.65037916597794,308.65037916597794,308.65037916597794,308.65037916597794,308.65037916597794,308.65037916597794,308.65037916597794,308.60053995831015,308.65037916597794,308.65037916597794,308.65037916597794,308.60053995831015,308.65037916597794,308.65037916597794,308.65037916597794,308.65037916597794,308.65037916597794,313.8685764159891,313.8685764159891,317.8906989999814,None,0,,reldom2_s031,001,2025-02-25_12h31.25.538,Where-B-Scan_AC,2022.2.5,None,
25,First_Order,5.0,audwhere,stimulus/audwhere_stim/dummy.wav,stimulus/audwhere_stim/dummy.wav,stimulus/audwhere_stim/right_toward_280h.wav,stimulus/audwhere_stim/right_away_290h.wav,stimulus/audwhere_stim/blank_white.png,stimulus/audwhere_stim/side_box.png,stimulus/audwhere_stim/side_yes.png,stimulus/audwhere_stim/side_no.png,None,Side,None,Side,1,0.0,0,5.125,0,5.125,0,5.125,0,0.0,0.625,0,0.0,0,0.0,0,0.0,0,0.0,0,0.0,0,0.0,1,0.5,1,2.125,0,,,,,0,33,33,33,,,,,,,,,317.8906989999814,317.8906989999814,317.8906989999814,317.8906989999814,317.8906989999814,317.8906989999814,317.8906989999814,317.8906989999814,317.82006929166766,317.8906989999814,317.8906989999814,317.8906989999814,317.82006929166766,317.8906989999814,317.8906989999814,317.8906989999814,319.97180174998357,,317.8906989999814,317.8906989999814,323.0748466659861,317.8906989999814,317.8906989999814,317.8906989999814,317.8906989999814,318.3534956660005,319.41715408299933,318.32336420764136,,319.97180174998357,321.0394342909858,319.94176495765373,,317.8906989999814,323.0748466659861,317.8906989999814,323.0748466659861,323.11662683298346,323.7690673749894,317.8906989999814,1,1,0.5237949180300348,reldom2_s031,001,2025-02-25_12h31.25.538,Where-B-Scan_AC,2022.2.5,None,
26,First_Order,5.0,audwhere,stimulus/audwhere_stim/dummy.wav,stimulus/audwhere_stim/dummy.wav,stimulus/audwhere_stim/right_toward_300h.wav,stimulus/audwhere_stim/left_toward_270h.wav,stimulus/audwhere_stim/blank_white.png,stimulus/audwhere_stim/direction_box.png,stimulus/audwhere_stim/direction_yes.png,stimulus/audwhere_stim/direction_no.png,None,Direction,None,Direction,1,0.0,0,5.125,0,5.125,0,5.125,0,0.0,0.625,0,0.0,0,0.0,0,0.0,0,0.0,0,0.0,0,0.0,1,0.5,1,2.125,0,,,,,0,34,34,34,,,,,,,,,323.9819374999788,323.9819374999788,323.9819374999788,323.9819374999788,323.9819374999788,323.9819374999788,323.9819374999788,323.9819374999788,323.9024007083227,323.9819374999788,323.9819374999788,323.9819374999788,323.9024007083227,323.9819374999788,323.9819374999788,323.9819374999788,326.07814891598537,330.1046682909946,323.9819374999788,323.9819374999788,329.15611620797426,323.9819374999788,323.9819374999788,323.9819374999788,323.9819374999788,324.44768462498905,325.5217306249833,324.417657957649,,326.07814891598537,327.10796370799653,326.04784195765774,,323.9819374999788,329.15611620797426,323.9819374999788,329.15611620797426,329.1976289579761,329.8505793749937,323.9819374999788,1,1,1.5057434590125922,reldom2_s031,001,2025-02-25_12h31.25.538,Where-B-Scan_AC,2022.2.5,None,
27,First_Order,5.0,audwhere,stimulus/audwhere_stim/dummy.wav,stimulus/audwhere_stim/dummy.wav,stimulus/audwhere_stim/left_toward_290h.wav,stimulus/audwhere_stim/left_away_300h.wav,stimulus/audwhere_stim/blank_white.png,stimulus/audwhere_stim/direction_box.png,stimulus/audwhere_stim/direction_yes.png,stimulus/audwhere_stim/direction_no.png,None,Direction,None,Side,2,0.0,0,5.125,0,5.125,0,5.125,0,0.0,0.625,0,0.0,0,0.0,0,0.0,0,0.0,0,0.0,0,0.0,1,0.5,1,2.125,0,,,,,0,35,35,35,,,,,,,,,330.1046682909946,330.1046682909946,330.1046682909946,330.1046682909946,330.1046682909946,330.1046682909946,330.1046682909946,330.1046682909946,330.0249261243172,330.1046682909946,330.1046682909946,330.1046682909946,330.0249261243172,330.1046682909946,330.1046682909946,330.1046682909946,332.20002399999066,336.23124233298586,330.1046682909946,330.1046682909946,335.2805421249941,330.1046682909946,330.1046682909946,330.1046682909946,330.1046682909946,330.5699647500005,331.6421532499953,330.53969837466525,,332.20002399999066,333.2743369579839,332.1702111246452,,330.1046682909946,335.2805421249941,330.1046682909946,335.2805421249941,335.3220267079887,335.9769872909819,330.1046682909946,2,1,1.5484899180009961,reldom2_s031,001,2025-02-25_12h31.25.538,Where-B-Scan_AC,2022.2.5,None,
28,First_Order,5.0,audwhere,stimulus/audwhere_stim/dummy.wav,stimulus/audwhere_stim/dummy.wav,stimulus/audwhere_stim/right_away_300h.wav,stimulus/audwhere_stim/right_toward_290h.wav,stimulus/audwhere_stim/blank_white.png,stimulus/audwhere_stim/direction_box.png,stimulus/audwhere_stim/direction_yes.png,stimulus/audwhere_stim/direction_no.png,None,Direction,None,Side,2,0.0,0,5.125,0,5.125,0,5.125,0,0.0,0.625,0,0.0,0,0.0,0,0.0,0,0.0,0,0.0,0,0.0,1,0.5,1,2.125,0,,,,,0,36,36,36,,,,,,,,,336.23124233298586,336.23124233298586,336.23124233298586,336.23124233298586,336.23124233298586,336.23124233298586,336.23124233298586,336.23124233298586,336.151481916315,336.23124233298586,336.23124233298586,336.23124233298586,336.151481916315,336.23124233298586,336.23124233298586,336.23124233298586,338.3297736659879,342.37750774997403,336.23124233298586,336.23124233298586,341.40578749999986,336.23124233298586,336.23124233298586,336.23124233298586,336.23124233298586,336.6974061660003,337.77095387497684,336.6674615416598,,338.3297736659879,339.40349962498294,338.2994431246518,,336.23124233298586,341.40578749999986,336.23124233298586,341.40578749999986,341.4471621249977,342.10276491599507,336.23124233298586,2,1,1.8977101250202395,reldom2_s031,001,2025-02-25_12h31.25.538,Where-B-Scan_AC,2022.2.5,None,
0,0.0,None,fixation,stimulus/audwhere_stim/blank_white.png,stimulus/audwhere_stim/blank_white.png,stimulus/viswhere_stim/blank_white.png,stimulus/viswhere_stim/blank_white.png,stimulus/audwhere_stim/blank_white.png,stimulus/audwhere_stim/blank_white.png,stimulus/audwhere_stim/blank_white.png,stimulus/audwhere_stim/blank_white.png,0.0,0.0,0.0,0.0,0,0.0,0,0.0,0,0.0,0,0.0,0,0.0,0.0,0,0.0,0,0.0,0,0.0,0,0.0,0,0.0,0,0.0,0,0.0,0,0.0,10,,,,,0,37,37,37,,,,,,,,,342.37750774997403,342.37750774997403,342.37750774997403,342.37750774997403,342.37750774997403,342.37750774997403,342.37750774997403,342.37750774997403,342.2772243333185,342.37750774997403,342.37750774997403,342.37750774997403,342.2772243333185,342.37750774997403,342.37750774997403,342.37750774997403,342.37750774997403,342.37750774997403,342.37750774997403,342.37750774997403,342.37750774997403,342.37750774997403,342.37750774997403,342.37750774997403,342.37750774997403,342.37750774997403,342.37750774997403,342.3272243333185,342.37750774997403,342.37750774997403,342.37750774997403,342.3272243333185,342.37750774997403,342.37750774997403,342.37750774997403,342.37750774997403,342.37750774997403,347.57392504098243,347.57392504098243,352.53708962499513,None,0,,reldom2_s031,001,2025-02-25_12h31.25.538,Where-B-Scan_AC,2022.2.5,None,
29,Second_Order,5.0,audwhere,stimulus/audwhere_stim/right_toward_270h.wav,stimulus/audwhere_stim/right_away_280h.wav,stimulus/audwhere_stim/left_away_270h.wav,stimulus/audwhere_stim/right_away_300h.wav,stimulus/audwhere_stim/match_blank.png,stimulus/audwhere_stim/match_box.png,stimulus/audwhere_stim/match_yes.png,stimulus/audwhere_stim/match_no.png,2.0,Match,Side,Direction,2,5.125,0,5.125,0,5.125,0,5.125,0,0.75,0.75,0,0.0,0,0.0,0,0.0,0,0.0,1,0.5,1,2.125,1,0.5,1,2.125,0,,,,,0,38,38,38,,,,,,,,,352.53708962499513,357.65572824998526,352.53708962499513,352.53708962499513,352.53708962499513,352.53708962499513,352.99297970798216,353.9800102909794,353.00711141663874,,354.61627270799363,355.61339187499834,354.62804608265674,,357.65572824998526,358.50619349998306,360.58222145799664,,358.50619349998306,358.50619349998306,363.6813557909918,358.50619349998306,358.50619349998306,358.50619349998306,358.50619349998306,358.96488887499436,360.02800437499536,358.9355714166634,,360.58222145799664,361.64817916598986,360.55236370765874,,358.50619349998306,363.6813557909918,358.50619349998306,363.6813557909918,363.6813557909918,,358.50619349998306,1,0,1.3525112509960309,reldom2_s031,001,2025-02-25_12h31.25.538,Where-B-Scan_AC,2022.2.5,None,
30,Second_Order,5.0,audwhere,stimulus/audwhere_stim/right_away_300h.wav,stimulus/audwhere_stim/right_toward_300h.wav,stimulus/audwhere_stim/left_toward_290h.wav,stimulus/audwhere_stim/left_away_270h.wav,stimulus/audwhere_stim/match_blank.png,stimulus/audwhere_stim/match_box.png,stimulus/audwhere_stim/match_yes.png,stimulus/audwhere_stim/match_no.png,1.0,Match,Side,Side,1,5.125,0,5.125,0,5.125,0,5.125,0,0.625,0.625,0,0.0,0,0.0,0,0.0,0,0.0,1,0.5,1,2.125,1,0.5,1,2.125,0,,,,,0,39,39,39,,,,,,,,,364.49111524998443,369.6124792499759,364.49111524998443,364.49111524998443,364.49111524998443,364.49111524998443,364.9517749999941,365.941828540992,364.9534527076505,365.941828540992,366.576314624981,367.57449966599233,366.58852116665025,,369.6124792499759,370.34782783300034,372.4157233329897,,370.34782783300034,370.34782783300034,375.50277804097277,370.34782783300034,370.34782783300034,370.34782783300034,370.34782783300034,370.80501558299875,371.8634090409905,370.77665024964176,,372.4157233329897,373.4740369999781,372.38647329164473,,370.34782783300034,375.50277804097277,370.34782783300034,375.50277804097277,375.54343324998626,376.1923695829755,370.34782783300034,1,1,1.6196298340219073,reldom2_s031,001,2025-02-25_12h31.25.538,Where-B-Scan_AC,2022.2.5,None,
0,0.0,None,fixation,stimulus/audwhere_stim/blank_white.png,stimulus/audwhere_stim/blank_white.png,stimulus/viswhere_stim/blank_white.png,stimulus/viswhere_stim/blank_white.png,stimulus/audwhere_stim/blank_white.png,stimulus/audwhere_stim/blank_white.png,stimulus/audwhere_stim/blank_white.png,stimulus/audwhere_stim/blank_white.png,0.0,0.0,0.0,0.0,0,0.0,0,0.0,0,0.0,0,0.0,0,0.0,0.0,0,0.0,0,0.0,0,0.0,0,0.0,0,0.0,0,0.0,0,0.0,0,0.0,8,,,,,0,40,40,40,,,,,,,,,376.4242158329871,376.4242158329871,376.4242158329871,376.4242158329871,376.4242158329871,376.4242158329871,376.4242158329871,376.4242158329871,376.32570291630884,376.4242158329871,376.4242158329871,376.4242158329871,376.32570291630884,376.4242158329871,376.4242158329871,376.4242158329871,376.4242158329871,376.4242158329871,376.4242158329871,376.4242158329871,376.4242158329871,376.4242158329871,376.4242158329871,376.4242158329871,376.4242158329871,376.4242158329871,376.4242158329871,376.37570291630885,376.4242158329871,376.4242158329871,376.4242158329871,376.37570291630885,376.4242158329871,376.4242158329871,376.4242158329871,376.4242158329871,376.4242158329871,381.631552582985,381.631552582985,384.6878753329802,None,0,,reldom2_s031,001,2025-02-25_12h31.25.538,Where-B-Scan_AC,2022.2.5,None,
31,First_Order,6.0,audwhere,stimulus/audwhere_stim/dummy.wav,stimulus/audwhere_stim/dummy.wav,stimulus/audwhere_stim/left_toward_270h.wav,stimulus/audwhere_stim/right_toward_280h.wav,stimulus/audwhere_stim/blank_white.png,stimulus/audwhere_stim/side_box.png,stimulus/audwhere_stim/side_yes.png,stimulus/audwhere_stim/side_no.png,None,Side,None,Direction,2,0.0,0,5.125,0,5.125,0,5.125,0,0.0,0.625,0,0.0,0,0.0,0,0.0,0,0.0,0,0.0,0,0.0,1,0.5,1,2.125,0,,,,,0,41,41,41,,,,,,,,,384.6878753329802,384.6878753329802,384.6878753329802,384.6878753329802,384.6878753329802,384.6878753329802,384.6878753329802,384.6878753329802,384.61756841664703,384.6878753329802,384.6878753329802,384.6878753329802,384.61756841664703,384.6878753329802,384.6878753329802,384.6878753329802,386.7727506659867,390.8123722499877,384.6878753329802,384.6878753329802,389.8684646249749,384.6878753329802,384.6878753329802,384.6878753329802,384.6878753329802,385.1542952499876,386.2188636659994,385.12412733264887,,386.7727506659867,387.83880741597386,386.7431982916644,,384.6878753329802,389.8684646249749,384.6878753329802,389.8684646249749,389.9089143749734,390.5603329159785,384.6878753329802,2,1,1.461779084027512,reldom2_s031,001,2025-02-25_12h31.25.538,Where-B-Scan_AC,2022.2.5,None,
32,First_Order,6.0,audwhere,stimulus/audwhere_stim/dummy.wav,stimulus/audwhere_stim/dummy.wav,stimulus/audwhere_stim/right_toward_280h.wav,stimulus/audwhere_stim/left_toward_290h.wav,stimulus/audwhere_stim/blank_white.png,stimulus/audwhere_stim/direction_box.png,stimulus/audwhere_stim/direction_yes.png,stimulus/audwhere_stim/direction_no.png,None,Direction,None,Direction,1,0.0,0,5.125,0,5.125,0,5.125,0,0.0,0.625,0,0.0,0,0.0,0,0.0,0,0.0,0,0.0,0,0.0,1,0.5,1,2.125,0,,,,,0,42,42,42,,,,,,,,,390.8123722499877,390.8123722499877,390.8123722499877,390.8123722499877,390.8123722499877,390.8123722499877,390.8123722499877,390.8123722499877,390.73417454131607,390.8123722499877,390.8123722499877,390.8123722499877,390.73417454131607,390.8123722499877,390.8123722499877,390.8123722499877,392.91029783297563,396.9341872909863,390.8123722499877,390.8123722499877,395.98590991599485,390.8123722499877,390.8123722499877,390.8123722499877,390.8123722499877,391.28242041598423,392.35380158299813,391.2521381246663,,392.91029783297563,393.9848751659738,392.8801337916559,,390.8123722499877,395.98590991599485,390.8123722499877,395.98590991599485,396.0272202079941,396.68100495799445,390.8123722499877,1,1,1.9672408340265974,reldom2_s031,001,2025-02-25_12h31.25.538,Where-B-Scan_AC,2022.2.5,None,
33,First_Order,6.0,audwhere,stimulus/audwhere_stim/dummy.wav,stimulus/audwhere_stim/dummy.wav,stimulus/audwhere_stim/left_toward_270h.wav,stimulus/audwhere_stim/left_away_300h.wav,stimulus/audwhere_stim/blank_white.png,stimulus/audwhere_stim/side_box.png,stimulus/audwhere_stim/side_yes.png,stimulus/audwhere_stim/side_no.png,None,Side,None,Side,1,0.0,0,5.125,0,5.125,0,5.125,0,0.0,0.625,0,0.0,0,0.0,0,0.0,0,0.0,0,0.0,0,0.0,1,0.5,1,2.125,0,,,,,0,43,43,43,,,,,,,,,396.9341872909863,396.9341872909863,396.9341872909863,396.9341872909863,396.9341872909863,396.9341872909863,396.9341872909863,396.9341872909863,396.85535312432523,396.9341872909863,396.9341872909863,396.9341872909863,396.85535312432523,396.9341872909863,396.9341872909863,396.9341872909863,399.02025016598054,,396.9341872909863,396.9341872909863,402.1282349159883,396.9341872909863,396.9341872909863,396.9341872909863,396.9341872909863,397.399487082992,398.464308249997,397.36960312465476,,399.02025016598054,400.0915393749892,398.99033533264105,,396.9341872909863,402.1282349159883,396.9341872909863,402.1282349159883,402.1282349159883,402.78058049999527,396.9341872909863,1,1,1.0153208760311827,reldom2_s031,001,2025-02-25_12h31.25.538,Where-B-Scan_AC,2022.2.5,None,
34,First_Order,6.0,audwhere,stimulus/audwhere_stim/dummy.wav,stimulus/audwhere_stim/dummy.wav,stimulus/audwhere_stim/right_toward_300h.wav,stimulus/audwhere_stim/left_toward_290h.wav,stimulus/audwhere_stim/blank_white.png,stimulus/audwhere_stim/side_box.png,stimulus/audwhere_stim/side_yes.png,stimulus/audwhere_stim/side_no.png,None,Side,None,Direction,2,0.0,0,5.125,0,5.125,0,5.125,0,0.0,0.625,0,0.0,0,0.0,0,0.0,0,0.0,0,0.0,0,0.0,1,0.5,1,2.125,0,,,,,0,44,44,44,,,,,,,,,403.03320033298223,403.03320033298223,403.03320033298223,403.03320033298223,403.03320033298223,403.03320033298223,403.03320033298223,403.03320033298223,402.9548220833259,403.03320033298223,403.03320033298223,403.03320033298223,402.9548220833259,403.03320033298223,403.03320033298223,403.03320033298223,405.1182997079741,,403.03320033298223,403.03320033298223,408.22503683299874,403.03320033298223,403.03320033298223,403.03320033298223,403.03320033298223,403.49820274999365,404.56078454098315,403.4681755826498,,405.1182997079741,406.18606862498564,405.08816570765725,,403.03320033298223,408.22503683299874,403.03320033298223,408.22503683299874,408.22503683299874,408.87699312498444,403.03320033298223,2,1,2.4352332500275224,reldom2_s031,001,2025-02-25_12h31.25.538,Where-B-Scan_AC,2022.2.5,None,
0,0.0,None,fixation,stimulus/audwhere_stim/blank_white.png,stimulus/audwhere_stim/blank_white.png,stimulus/viswhere_stim/blank_white.png,stimulus/viswhere_stim/blank_white.png,stimulus/audwhere_stim/blank_white.png,stimulus/audwhere_stim/blank_white.png,stimulus/audwhere_stim/blank_white.png,stimulus/audwhere_stim/blank_white.png,0.0,0.0,0.0,0.0,0,0.0,0,0.0,0,0.0,0,0.0,0,0.0,0.0,0,0.0,0,0.0,0,0.0,0,0.0,0,0.0,0,0.0,0,0.0,0,0.0,8,,,,,0,45,45,45,,,,,,,,,409.1515932499897,409.1515932499897,409.1515932499897,409.1515932499897,409.1515932499897,409.1515932499897,409.1515932499897,409.1515932499897,409.05096604131006,409.1515932499897,409.1515932499897,409.1515932499897,409.05096604131006,409.1515932499897,409.1515932499897,409.1515932499897,409.1515932499897,409.1515932499897,409.1515932499897,409.1515932499897,409.1515932499897,409.1515932499897,409.1515932499897,409.1515932499897,409.1515932499897,409.1515932499897,409.1515932499897,409.1009660413101,409.1515932499897,409.1515932499897,409.1515932499897,409.1009660413101,409.1515932499897,409.1515932499897,409.1515932499897,409.1515932499897,409.1515932499897,414.3361979999754,414.3361979999754,417.31379495799774,None,0,,reldom2_s031,001,2025-02-25_12h31.25.538,Where-B-Scan_AC,2022.2.5,None,
35,Second_Order,6.0,audwhere,stimulus/audwhere_stim/left_toward_280h.wav,stimulus/audwhere_stim/right_toward_270h.wav,stimulus/audwhere_stim/left_away_300h.wav,stimulus/audwhere_stim/right_away_280h.wav,stimulus/audwhere_stim/match_blank.png,stimulus/audwhere_stim/match_box.png,stimulus/audwhere_stim/match_yes.png,stimulus/audwhere_stim/match_no.png,1.0,Match,Direction,Direction,1,5.125,0,5.125,0,5.125,0,5.125,0,0.75,0.75,0,0.0,0,0.0,0,0.0,0,0.0,1,0.5,1,2.125,1,0.5,1,2.125,0,,,,,0,46,46,46,,,,,,,,,417.31379495799774,422.4344444159942,417.31379495799774,417.31379495799774,417.31379495799774,417.31379495799774,417.77360716598923,418.7623980829958,417.77547633264135,,419.39850345798186,420.3966113329807,419.4109572076452,,422.4344444159942,423.2880543329811,425.36609545798274,429.2741756659816,423.2880543329811,423.2880543329811,428.46611016598763,423.2880543329811,423.2880543329811,423.2880543329811,423.2880543329811,423.7028647499974,424.7640048749745,423.6730904576582,,425.36609545798274,426.4323994999868,425.33653004165194,,423.2880543329811,428.46611016598763,423.2880543329811,428.46611016598763,428.46611016598763,,423.2880543329811,1,1,1.5203456260205712,reldom2_s031,001,2025-02-25_12h31.25.538,Where-B-Scan_AC,2022.2.5,None,
36,Second_Order,6.0,audwhere,stimulus/audwhere_stim/left_toward_300h.wav,stimulus/audwhere_stim/right_toward_280h.wav,stimulus/audwhere_stim/left_away_300h.wav,stimulus/audwhere_stim/right_away_300h.wav,stimulus/audwhere_stim/match_blank.png,stimulus/audwhere_stim/match_box.png,stimulus/audwhere_stim/match_yes.png,stimulus/audwhere_stim/match_no.png,1.0,Match,Direction,Direction,1,5.125,0,5.125,0,5.125,0,5.125,0,0.625,0.625,0,0.0,0,0.0,0,0.0,0,0.0,1,0.5,1,2.125,1,0.5,1,2.125,0,,,,,0,47,47,47,,,,,,,,,429.2741756659816,434.39574062498286,429.2741756659816,429.2741756659816,429.2741756659816,429.2741756659816,429.7345193749934,430.72378416598076,429.7375813326546,430.72378416598076,431.3600134579756,432.3577287499793,431.37186841664175,,434.39574062498286,435.13004083299893,437.1919614999788,441.2449745409831,435.13004083299893,435.13004083299893,440.32450258298195,435.13004083299893,435.13004083299893,435.13004083299893,435.13004083299893,435.58545179097564,436.6405019160011,435.5563706666619,,437.1919614999788,438.25288316598744,437.16270924965306,,435.13004083299893,440.32450258298195,435.13004083299893,440.32450258298195,440.32450258298195,441.01222458298435,435.13004083299893,1,1,1.1562785010319203,reldom2_s031,001,2025-02-25_12h31.25.538,Where-B-Scan_AC,2022.2.5,None,
0,0.0,None,fixation,stimulus/audwhere_stim/blank_white.png,stimulus/audwhere_stim/blank_white.png,stimulus/viswhere_stim/blank_white.png,stimulus/viswhere_stim/blank_white.png,stimulus/audwhere_stim/blank_white.png,stimulus/audwhere_stim/blank_white.png,stimulus/audwhere_stim/blank_white.png,stimulus/audwhere_stim/blank_white.png,0.0,0.0,0.0,0.0,0,0.0,0,0.0,0,0.0,0,0.0,0,0.0,0.0,0,0.0,0,0.0,0,0.0,0,0.0,0,0.0,0,0.0,0,0.0,0,0.0,10,,,,,0,48,48,48,,,,,,,,,441.2449745409831,441.2449745409831,441.2449745409831,441.2449745409831,441.2449745409831,441.2449745409831,441.2449745409831,441.2449745409831,441.14555791631767,441.2449745409831,441.2449745409831,441.2449745409831,441.14555791631767,441.2449745409831,441.2449745409831,441.2449745409831,441.2449745409831,441.2449745409831,441.2449745409831,441.2449745409831,441.2449745409831,441.2449745409831,441.2449745409831,441.2449745409831,441.2449745409831,441.2449745409831,441.2449745409831,441.1955579163177,441.2449745409831,441.2449745409831,441.2449745409831,441.1955579163177,441.2449745409831,441.2449745409831,441.2449745409831,441.2449745409831,441.2449745409831,446.45750833299826,446.45750833299826,451.4336776249984,None,0,,reldom2_s031,001,2025-02-25_12h31.25.538,Where-B-Scan_AC,2022.2.5,None,
37,First_Order,7.0,viswhere,stimulus/viswhere_stim/blank_white.png,stimulus/viswhere_stim/blank_white.png,stimulus/viswhere_stim/150-deg_dot-left_turquoise.png,stimulus/viswhere_stim/120-deg_dot-left_mediumslateblue.png,stimulus/viswhere_stim/blank_white.png,stimulus/viswhere_stim/line_box.png,stimulus/viswhere_stim/line_yes.png,stimulus/viswhere_stim/line_no.png,None,Line,None,Dot,2,0.0,0,5.125,0,5.125,0,5.125,0,0.0,0.625,0,0.0,0,0.0,1,0.5,1,2.125,0,0.0,0,0.0,0,0.0,0,0.0,0,,,,,0,49,49,49,,,,,,,,,451.4336776249984,451.4336776249984,451.4336776249984,451.4336776249984,451.4336776249984,451.4336776249984,451.4336776249984,451.4336776249984,451.4127287496618,451.4336776249984,451.4336776249984,451.4336776249984,451.4127287496618,451.4336776249984,451.4336776249984,451.4336776249984,453.54213379099383,457.49544408297515,451.4336776249984,451.4336776249984,456.556025124999,451.9145150409895,452.92890816598083,453.54213379099383,454.56327866599895,451.4336776249984,451.4336776249984,451.42939541632853,451.4336776249984,451.4336776249984,451.4336776249984,451.42939541632853,451.4336776249984,451.4336776249984,456.556025124999,451.4336776249984,456.556025124999,456.65368229098385,457.2806357079826,451.4336776249984,2,1,0.7945107510022353,reldom2_s031,001,2025-02-25_12h31.25.538,Where-B-Scan_AC,2022.2.5,None,
38,First_Order,7.0,viswhere,stimulus/viswhere_stim/blank_white.png,stimulus/viswhere_stim/blank_white.png,stimulus/viswhere_stim/120-deg_dot-left_mediumslateblue.png,stimulus/viswhere_stim/120-deg_dot-right_seagreen.png,stimulus/viswhere_stim/blank_white.png,stimulus/viswhere_stim/dot_box.png,stimulus/viswhere_stim/dot_yes.png,stimulus/viswhere_stim/dot_no.png,None,Dot,None,Line,2,0.0,0,5.125,0,5.125,0,5.125,0,0.0,0.625,0,0.0,0,0.0,1,0.5,1,2.125,0,0.0,0,0.0,0,0.0,0,0.0,0,,,,,0,50,50,50,,,,,,,,,457.49544408297515,457.49544408297515,457.49544408297515,457.49544408297515,457.49544408297515,457.49544408297515,457.49544408297515,457.49544408297515,457.47484916630975,457.49544408297515,457.49544408297515,457.49544408297515,457.47484916630975,457.49544408297515,457.49544408297515,457.49544408297515,459.6088685829891,463.5621587909991,457.49544408297515,457.49544408297515,462.6185497909901,457.9722992499883,458.98022395797307,459.6088685829891,460.62090449998504,457.49544408297515,457.49544408297515,457.4915158329764,457.49544408297515,457.49544408297515,457.49544408297515,457.4915158329764,457.49544408297515,457.49544408297515,462.6185497909901,457.49544408297515,462.6185497909901,462.71431666598073,463.3475987079728,457.49544408297515,2,1,1.282980750023853,reldom2_s031,001,2025-02-25_12h31.25.538,Where-B-Scan_AC,2022.2.5,None,
39,First_Order,7.0,viswhere,stimulus/viswhere_stim/blank_white.png,stimulus/viswhere_stim/blank_white.png,stimulus/viswhere_stim/60-deg_dot-right_salmon.png,stimulus/viswhere_stim/60-deg_dot-left_peru.png,stimulus/viswhere_stim/blank_white.png,stimulus/viswhere_stim/line_box.png,stimulus/viswhere_stim/line_yes.png,stimulus/viswhere_stim/line_no.png,None,Line,None,Line,1,0.0,0,5.125,0,5.125,0,5.125,0,0.0,0.625,0,0.0,0,0.0,1,0.5,1,2.125,0,0.0,0,0.0,0,0.0,0,0.0,0,,,,,0,51,51,51,,,,,,,,,463.5621587909991,463.5621587909991,463.5621587909991,463.5621587909991,463.5621587909991,463.5621587909991,463.5621587909991,463.5621587909991,463.54167183333385,463.5621587909991,463.5621587909991,463.5621587909991,463.54167183333385,463.5621587909991,463.5621587909991,463.5621587909991,465.6621246249997,469.62925312499283,463.5621587909991,463.5621587909991,468.6971309579967,464.0397455409984,465.05144216597546,465.6621246249997,466.67809024997405,463.5621587909991,463.5621587909991,463.5583385000005,463.5621587909991,463.5621587909991,463.5621587909991,463.5583385000005,463.5621587909991,463.5621587909991,468.6971309579967,463.5621587909991,468.6971309579967,468.7848590829817,469.4126601249736,463.5621587909991,1,1,0.6505617510119919,reldom2_s031,001,2025-02-25_12h31.25.538,Where-B-Scan_AC,2022.2.5,None,
40,First_Order,7.0,viswhere,stimulus/viswhere_stim/blank_white.png,stimulus/viswhere_stim/blank_white.png,stimulus/viswhere_stim/60-deg_dot-right_slateblue.png,stimulus/viswhere_stim/90-deg_dot-right_royalblue.png,stimulus/viswhere_stim/blank_white.png,stimulus/viswhere_stim/dot_box.png,stimulus/viswhere_stim/dot_yes.png,stimulus/viswhere_stim/dot_no.png,None,Dot,None,Dot,1,0.0,0,5.125,0,5.125,0,5.125,0,0.0,0.625,0,0.0,0,0.0,1,0.5,1,2.125,0,0.0,0,0.0,0,0.0,0,0.0,0,,,,,0,52,52,52,,,,,,,,,469.62925312499283,469.62925312499283,469.62925312499283,469.62925312499283,469.62925312499283,469.62925312499283,469.62925312499283,469.62925312499283,469.6090750413326,469.62925312499283,469.62925312499283,469.62925312499283,469.6090750413326,469.62925312499283,469.62925312499283,469.62925312499283,471.72940887499135,475.76464016598766,469.62925312499283,469.62925312499283,474.7675089580007,470.10560862498824,471.120432124997,471.72940887499135,472.7468977079843,469.62925312499283,469.62925312499283,469.6257417079992,469.62925312499283,469.62925312499283,469.62925312499283,469.6257417079992,469.62925312499283,469.62925312499283,474.7675089580007,469.62925312499283,474.7675089580007,474.8547334999894,475.4863619579992,469.62925312499283,1,1,0.6866034590057097,reldom2_s031,001,2025-02-25_12h31.25.538,Where-B-Scan_AC,2022.2.5,None,
0,0.0,None,fixation,stimulus/audwhere_stim/blank_white.png,stimulus/audwhere_stim/blank_white.png,stimulus/viswhere_stim/blank_white.png,stimulus/viswhere_stim/blank_white.png,stimulus/audwhere_stim/blank_white.png,stimulus/audwhere_stim/blank_white.png,stimulus/audwhere_stim/blank_white.png,stimulus/audwhere_stim/blank_white.png,0.0,0.0,0.0,0.0,0,0.0,0,0.0,0,0.0,0,0.0,0,0.0,0.0,0,0.0,0,0.0,0,0.0,0,0.0,0,0.0,0,0.0,0,0.0,0,0.0,8,,,,,0,53,53,53,,,,,,,,,475.76464016598766,475.76464016598766,475.76464016598766,475.76464016598766,475.76464016598766,475.76464016598766,475.76464016598766,475.76464016598766,475.6666484993087,475.76464016598766,475.76464016598766,475.76464016598766,475.6666484993087,475.76464016598766,475.76464016598766,475.76464016598766,475.76464016598766,475.76464016598766,475.76464016598766,475.76464016598766,475.76464016598766,475.76464016598766,475.76464016598766,475.76464016598766,475.76464016598766,475.76464016598766,475.76464016598766,475.7166484993087,475.76464016598766,475.76464016598766,475.76464016598766,475.7166484993087,475.76464016598766,475.76464016598766,475.76464016598766,475.76464016598766,475.76464016598766,480.96566791599616,480.96566791599616,483.86995945798117,None,0,,reldom2_s031,001,2025-02-25_12h31.25.538,Where-B-Scan_AC,2022.2.5,None,
41,Second_Order,7.0,viswhere,stimulus/viswhere_stim/60-deg_dot-right_seagreen.png,stimulus/viswhere_stim/30-deg_dot-right_mediumslateblue.png,stimulus/viswhere_stim/60-deg_dot-left_mediumslateblue.png,stimulus/viswhere_stim/150-deg_dot-left_salmon.png,stimulus/audwhere_stim/match_blank.png,stimulus/audwhere_stim/match_box.png,stimulus/audwhere_stim/match_yes.png,stimulus/audwhere_stim/match_no.png,1.0,Match,Dot,Dot,1,5.125,0,5.125,0,5.125,0,5.125,0,0.75,0.75,1,0.5,1,2.125,1,0.5,1,2.125,0,0.0,0,0.0,0,0.0,0,0.0,0,,,,,0,54,54,54,,,,,,,,,483.86995945798117,488.99277458299184,484.3462189579732,485.33311820798554,485.96941033299663,486.9668991660001,483.86995945798117,483.86995945798117,483.88428649932223,483.86995945798117,483.86995945798117,483.86995945798117,483.88428649932223,483.86995945798117,488.99277458299184,489.7845415409829,491.8669534579967,495.7583379999851,489.7845415409829,489.7845415409829,494.91310445798445,490.23038641599123,491.232945457974,491.8669534579967,492.87360570798046,489.7845415409829,489.7845415409829,489.76005608333116,489.7845415409829,489.7845415409829,489.7845415409829,489.76005608333116,489.7845415409829,489.7845415409829,494.91310445798445,489.7845415409829,494.91310445798445,494.9817280829884,495.7583379999851,489.7845415409829,1,1,0.6383777920273133,reldom2_s031,001,2025-02-25_12h31.25.538,Where-B-Scan_AC,2022.2.5,None,
42,Second_Order,7.0,viswhere,stimulus/viswhere_stim/90-deg_dot-right_goldenrod.png,stimulus/viswhere_stim/120-deg_dot-right_mediumslateblue.png,stimulus/viswhere_stim/60-deg_dot-right_peru.png,stimulus/viswhere_stim/60-deg_dot-left_mediumslateblue.png,stimulus/audwhere_stim/match_blank.png,stimulus/audwhere_stim/match_box.png,stimulus/audwhere_stim/match_yes.png,stimulus/audwhere_stim/match_no.png,2.0,Match,Dot,Line,2,5.125,0,5.125,0,5.125,0,5.125,0,0.625,0.625,1,0.5,1,2.125,1,0.5,1,2.125,0,0.0,0,0.0,0,0.0,0,0.0,0,,,,,0,55,55,55,,,,,,,,,495.7583379999851,500.870197790995,496.24172212497797,497.22885749998386,497.8635009159916,498.8610624159919,495.7583379999851,495.7583379999851,495.772101915977,495.7583379999851,495.7583379999851,495.7583379999851,495.772101915977,495.7583379999851,500.870197790995,501.53866291599115,503.62324749998515,507.663166207989,501.53866291599115,501.53866291599115,506.6650171660003,502.00063695799327,503.01201445798506,503.62324749998515,504.6392895409954,501.53866291599115,501.53866291599115,501.5169431663312,501.53866291599115,501.53866291599115,501.53866291599115,501.5169431663312,501.53866291599115,501.53866291599115,506.6650171660003,501.53866291599115,506.6650171660003,506.7393165829999,507.366741832986,501.53866291599115,2,1,1.1837314590229653,reldom2_s031,001,2025-02-25_12h31.25.538,Where-B-Scan_AC,2022.2.5,None,
0,0.0,None,fixation,stimulus/audwhere_stim/blank_white.png,stimulus/audwhere_stim/blank_white.png,stimulus/viswhere_stim/blank_white.png,stimulus/viswhere_stim/blank_white.png,stimulus/audwhere_stim/blank_white.png,stimulus/audwhere_stim/blank_white.png,stimulus/audwhere_stim/blank_white.png,stimulus/audwhere_stim/blank_white.png,0.0,0.0,0.0,0.0,0,0.0,0,0.0,0,0.0,0,0.0,0,0.0,0.0,0,0.0,0,0.0,0,0.0,0,0.0,0,0.0,0,0.0,0,0.0,0,0.0,8,,,,,0,56,56,56,,,,,,,,,507.663166207989,507.663166207989,507.663166207989,507.663166207989,507.663166207989,507.663166207989,507.663166207989,507.663166207989,507.56335958331084,507.663166207989,507.663166207989,507.663166207989,507.56335958331084,507.663166207989,507.663166207989,507.663166207989,507.663166207989,507.663166207989,507.663166207989,507.663166207989,507.663166207989,507.663166207989,507.663166207989,507.663166207989,507.663166207989,507.663166207989,507.663166207989,507.61335958331085,507.663166207989,507.663166207989,507.663166207989,507.61335958331085,507.663166207989,507.663166207989,507.663166207989,507.663166207989,507.663166207989,512.8790969159745,512.8790969159745,515.8391200409969,None,0,,reldom2_s031,001,2025-02-25_12h31.25.538,Where-B-Scan_AC,2022.2.5,None,
43,First_Order,8.0,viswhere,stimulus/viswhere_stim/blank_white.png,stimulus/viswhere_stim/blank_white.png,stimulus/viswhere_stim/120-deg_dot-left_lightsseagreen.png,stimulus/viswhere_stim/120-deg_dot-right_royalblue.png,stimulus/viswhere_stim/blank_white.png,stimulus/viswhere_stim/line_box.png,stimulus/viswhere_stim/line_yes.png,stimulus/viswhere_stim/line_no.png,None,Line,None,Line,1,0.0,0,5.125,0,5.125,0,5.125,0,0.0,0.625,0,0.0,0,0.0,1,0.5,1,2.125,0,0.0,0,0.0,0,0.0,0,0.0,0,,,,,0,57,57,57,,,,,,,,,515.8391200409969,515.8391200409969,515.8391200409969,515.8391200409969,515.8391200409969,515.8391200409969,515.8391200409969,515.8391200409969,515.8205308746643,515.8391200409969,515.8391200409969,515.8391200409969,515.8205308746643,515.8391200409969,515.8391200409969,515.8391200409969,517.9347104999761,521.9173904579948,515.8391200409969,515.8391200409969,520.9675392499776,516.3158718329796,517.3262991659867,517.9347104999761,518.9505152909842,515.8391200409969,515.8391200409969,515.8205308746643,515.8391200409969,515.8391200409969,515.8391200409969,515.8205308746643,515.8391200409969,515.8391200409969,520.9675392499776,515.8391200409969,520.9675392499776,521.064254457975,521.6866446659842,515.8391200409969,1,1,0.6371034170442726,reldom2_s031,001,2025-02-25_12h31.25.538,Where-B-Scan_AC,2022.2.5,None,
44,First_Order,8.0,viswhere,stimulus/viswhere_stim/blank_white.png,stimulus/viswhere_stim/blank_white.png,stimulus/viswhere_stim/60-deg_dot-right_peru.png,stimulus/viswhere_stim/90-deg_dot-right_turquoise.png,stimulus/viswhere_stim/blank_white.png,stimulus/viswhere_stim/dot_box.png,stimulus/viswhere_stim/dot_yes.png,stimulus/viswhere_stim/dot_no.png,None,Dot,None,Dot,1,0.0,0,5.125,0,5.125,0,5.125,0,0.0,0.625,0,0.0,0,0.0,1,0.5,1,2.125,0,0.0,0,0.0,0,0.0,0,0.0,0,,,,,0,58,58,58,,,,,,,,,521.9173904579948,521.9173904579948,521.9173904579948,521.9173904579948,521.9173904579948,521.9173904579948,521.9173904579948,521.9173904579948,521.896481416324,521.9173904579948,521.9173904579948,521.9173904579948,521.896481416324,521.9173904579948,521.9173904579948,521.9173904579948,524.0173637499975,527.9788779160008,521.9173904579948,521.9173904579948,527.0548705830006,522.3947172499902,523.4078375409881,524.0173637499975,525.033772707975,521.9173904579948,521.9173904579948,521.9131480829907,521.9173904579948,521.9173904579948,521.9173904579948,521.9131480829907,521.9173904579948,521.9173904579948,527.0548705830006,521.9173904579948,527.0548705830006,527.1393866659782,527.7626549579727,521.9173904579948,1,1,0.6078223760123365,reldom2_s031,001,2025-02-25_12h31.25.538,Where-B-Scan_AC,2022.2.5,None,
45,First_Order,8.0,viswhere,stimulus/viswhere_stim/blank_white.png,stimulus/viswhere_stim/blank_white.png,stimulus/viswhere_stim/150-deg_dot-right_lightsseagreen.png,stimulus/viswhere_stim/150-deg_dot-left_royalblue.png,stimulus/viswhere_stim/blank_white.png,stimulus/viswhere_stim/dot_box.png,stimulus/viswhere_stim/dot_yes.png,stimulus/viswhere_stim/dot_no.png,None,Dot,None,Line,2,0.0,0,5.125,0,5.125,0,5.125,0,0.0,0.625,0,0.0,0,0.0,1,0.5,1,2.125,0,0.0,0,0.0,0,0.0,0,0.0,0,,,,,0,59,59,59,,,,,,,,,527.9788779160008,527.9788779160008,527.9788779160008,527.9788779160008,527.9788779160008,527.9788779160008,527.9788779160008,527.9788779160008,527.9573464583276,527.9788779160008,527.9788779160008,527.9788779160008,527.9573464583276,527.9788779160008,527.9788779160008,527.9788779160008,530.0764092909812,534.0390072499868,527.9788779160008,527.9788779160008,533.1082354579994,528.4598401249968,529.4619837499922,530.0764092909812,531.0849271249899,527.9788779160008,527.9788779160008,527.9740131249943,527.9788779160008,527.9788779160008,527.9788779160008,527.9740131249943,527.9788779160008,527.9788779160008,533.1082354579994,527.9788779160008,533.1082354579994,533.2060789579991,533.8321589579864,527.9788779160008,2,1,0.7923235430207569,reldom2_s031,001,2025-02-25_12h31.25.538,Where-B-Scan_AC,2022.2.5,None,
46,First_Order,8.0,viswhere,stimulus/viswhere_stim/blank_white.png,stimulus/viswhere_stim/blank_white.png,stimulus/viswhere_stim/30-deg_dot-left_salmon.png,stimulus/viswhere_stim/150-deg_dot-left_turquoise.png,stimulus/viswhere_stim/blank_white.png,stimulus/viswhere_stim/line_box.png,stimulus/viswhere_stim/line_yes.png,stimulus/viswhere_stim/line_no.png,None,Line,None,Dot,2,0.0,0,5.125,0,5.125,0,5.125,0,0.0,0.625,0,0.0,0,0.0,1,0.5,1,2.125,0,0.0,0,0.0,0,0.0,0,0.0,0,,,,,0,60,60,60,,,,,,,,,534.0390072499868,534.0390072499868,534.0390072499868,534.0390072499868,534.0390072499868,534.0390072499868,534.0390072499868,534.0390072499868,534.0185038333196,534.0390072499868,534.0390072499868,534.0390072499868,534.0185038333196,534.0390072499868,534.0390072499868,534.0390072499868,536.1528605829808,540.1810212499986,534.0390072499868,534.0390072499868,539.1791439160006,534.5196650829748,535.5397603329911,536.1528605829808,537.1590192079893,534.0390072499868,534.0390072499868,534.0351704999863,534.0390072499868,534.0390072499868,534.0390072499868,534.0351704999863,534.0390072499868,534.0390072499868,539.1791439160006,534.0390072499868,539.1791439160006,539.2611621659889,539.888124249992,534.0390072499868,2,1,0.8714317510311957,reldom2_s031,001,2025-02-25_12h31.25.538,Where-B-Scan_AC,2022.2.5,None,
0,0.0,None,fixation,stimulus/audwhere_stim/blank_white.png,stimulus/audwhere_stim/blank_white.png,stimulus/viswhere_stim/blank_white.png,stimulus/viswhere_stim/blank_white.png,stimulus/audwhere_stim/blank_white.png,stimulus/audwhere_stim/blank_white.png,stimulus/audwhere_stim/blank_white.png,stimulus/audwhere_stim/blank_white.png,0.0,0.0,0.0,0.0,0,0.0,0,0.0,0,0.0,0,0.0,0,0.0,0.0,0,0.0,0,0.0,0,0.0,0,0.0,0,0.0,0,0.0,0,0.0,0,0.0,9,,,,,0,61,61,61,,,,,,,,,540.1810212499986,540.1810212499986,540.1810212499986,540.1810212499986,540.1810212499986,540.1810212499986,540.1810212499986,540.1810212499986,540.0822096663081,540.1810212499986,540.1810212499986,540.1810212499986,540.0822096663081,540.1810212499986,540.1810212499986,540.1810212499986,540.1810212499986,540.1810212499986,540.1810212499986,540.1810212499986,540.1810212499986,540.1810212499986,540.1810212499986,540.1810212499986,540.1810212499986,540.1810212499986,540.1810212499986,540.1322096663081,540.1810212499986,540.1810212499986,540.1810212499986,540.1322096663081,540.1810212499986,540.1810212499986,540.1810212499986,540.1810212499986,540.1810212499986,545.383284999989,545.383284999989,549.3072913749784,None,0,,reldom2_s031,001,2025-02-25_12h31.25.538,Where-B-Scan_AC,2022.2.5,None,
47,Second_Order,8.0,viswhere,stimulus/viswhere_stim/90-deg_dot-left_lightsseagreen.png,stimulus/viswhere_stim/120-deg_dot-left_royalblue.png,stimulus/viswhere_stim/30-deg_dot-right_mediumslateblue.png,stimulus/viswhere_stim/60-deg_dot-right_lightsseagreen.png,stimulus/audwhere_stim/match_blank.png,stimulus/audwhere_stim/match_box.png,stimulus/audwhere_stim/match_yes.png,stimulus/audwhere_stim/match_no.png,1.0,Match,Dot,Dot,1,5.125,0,5.125,0,5.125,0,5.125,0,0.75,0.75,1,0.5,1,2.125,1,0.5,1,2.125,0,0.0,0,0.0,0,0.0,0,0.0,0,,,,,0,62,62,62,,,,,,,,,549.3072913749784,554.4273846659926,549.7827831659815,550.7811906249844,551.4161241659895,552.4057068330003,549.3072913749784,549.3072913749784,549.321045499326,549.3072913749784,549.3072913749784,549.3072913749784,549.321045499326,549.3072913749784,554.4273846659926,555.2173961249937,557.2896456659946,561.1846567909815,555.2173961249937,555.2173961249937,560.3400807909784,555.680572207988,556.6957077909901,557.2896456659946,558.3099708329828,555.2173961249937,555.2173961249937,555.1942459583302,555.2173961249937,555.2173961249937,555.2173961249937,555.1942459583302,555.2173961249937,555.2173961249937,560.3400807909784,555.2173961249937,560.3400807909784,560.409950124973,561.1846567909815,555.2173961249937,1,1,0.9268199590151198,reldom2_s031,001,2025-02-25_12h31.25.538,Where-B-Scan_AC,2022.2.5,None,
48,Second_Order,8.0,viswhere,stimulus/viswhere_stim/60-deg_dot-left_seagreen.png,stimulus/viswhere_stim/90-deg_dot-left_peru.png,stimulus/viswhere_stim/30-deg_dot-right_turquoise.png,stimulus/viswhere_stim/30-deg_dot-left_lightsseagreen.png,stimulus/audwhere_stim/match_blank.png,stimulus/audwhere_stim/match_box.png,stimulus/audwhere_stim/match_yes.png,stimulus/audwhere_stim/match_no.png,2.0,Match,Dot,Line,2,5.125,0,5.125,0,5.125,0,5.125,0,0.625,0.625,1,0.5,1,2.125,1,0.5,1,2.125,0,0.0,0,0.0,0,0.0,0,0.0,0,,,,,0,63,63,63,,,,,,,,,561.1846567909815,566.3041110409831,561.6597917079926,562.6584227079875,563.292864499992,564.282158624992,561.1846567909815,561.1846567909815,561.1978176659729,561.1846567909815,561.1846567909815,561.1846567909815,561.1978176659729,561.1846567909815,566.3041110409831,566.9739370829775,569.0648552909843,573.0947874159901,566.9739370829775,566.9739370829775,572.0961920829723,567.4387087079813,568.4524407079734,569.0648552909843,570.0853400829947,566.9739370829775,566.9739370829775,566.9511872493099,566.9739370829775,566.9739370829775,566.9739370829775,566.9511872493099,566.9739370829775,566.9739370829775,572.0961920829723,566.9739370829775,572.0961920829723,572.1795198749751,572.8112024159927,566.9739370829775,1,0,2.22915379202459,reldom2_s031,001,2025-02-25_12h31.25.538,Where-B-Scan_AC,2022.2.5,None,
0,0.0,None,fixation,stimulus/audwhere_stim/blank_white.png,stimulus/audwhere_stim/blank_white.png,stimulus/viswhere_stim/blank_white.png,stimulus/viswhere_stim/blank_white.png,stimulus/audwhere_stim/blank_white.png,stimulus/audwhere_stim/blank_white.png,stimulus/audwhere_stim/blank_white.png,stimulus/audwhere_stim/blank_white.png,0.0,0.0,0.0,0.0,0,0.0,0,0.0,0,0.0,0,0.0,0,0.0,0.0,0,0.0,0,0.0,0,0.0,0,0.0,0,0.0,0,0.0,0,0.0,0,0.0,16,,,,,0,64,64,64,,,,,,,,,573.0947874159901,573.0947874159901,573.0947874159901,573.0947874159901,573.0947874159901,573.0947874159901,573.0947874159901,573.0947874159901,572.991622416322,573.0947874159901,573.0947874159901,573.0947874159901,572.991622416322,573.0947874159901,573.0947874159901,573.0947874159901,573.0947874159901,573.0947874159901,573.0947874159901,573.0947874159901,573.0947874159901,573.0947874159901,573.0947874159901,573.0947874159901,573.0947874159901,573.0947874159901,573.0947874159901,573.041622416322,573.0947874159901,573.0947874159901,573.0947874159901,573.041622416322,573.0947874159901,573.0947874159901,573.0947874159901,573.0947874159901,573.0947874159901,578.3178303329914,578.3178303329914,589.2460784579744,None,0,,reldom2_s031,001,2025-02-25_12h31.25.538,Where-B-Scan_AC,2022.2.5,None,
