Trial,Order,Block,Type,Stimuli_File1,Stimuli_File2,Stimuli_File3,Stimuli_File4,Cue_File1,Cue_File2,Response_File_Yes,Response_File_No,Match,Cue_Dimension,Pair1_Dimension,Pair2_Dimension,Key,Cue1_Duration,Cue1_Onset,Cue2_Duration,Cue2_Onset,ResponseYes_Duration,ResponseYes_Onset,ResponseNo_Duration,ResponseNo_Onset,ITI_Within,ITI_Between,Image1_Duration,Image1_Onset,Image2_Duration,Image2_Onset,Image3_Duration,Image3_Onset,Image4_Duration,Image4_Onset,Sound1_Duration,Sound1_Onset,Sound2_Duration,Sound2_Onset,Sound3_Duration,Sound3_Onset,Sound4_Duration,Sound4_Onset,Fixation_Duration,trials_2.thisRepN,trials_2.thisTrialN,trials_2.thisN,trials_2.thisIndex,trials.thisRepN,trials.thisTrialN,trials.thisN,trials.thisIndex,text_start.started,key_resp_start.started,key_resp_start.keys,key_resp_start.rt,cue_file1.started,cue_file1.stopped,image_1.started,image_1.stopped,image_2.started,image_2.stopped,sound_icon1.started,sound_icon1.stopped,sound_1.started,sound_1.stopped,sound_icon2.started,sound_icon2.stopped,sound_2.started,sound_2.stopped,image_blank_1.started,image_blank_1.stopped,key_press.started,key_press.stopped,fixation_text.started,cue_file2.started,cue_file2.stopped,image_3.started,image_3.stopped,image_4.started,image_4.stopped,sound_icon3.started,sound_icon3.stopped,sound_3.started,sound_3.stopped,sound_icon4.started,sound_icon4.stopped,sound_4.started,sound_4.stopped,response_yes.started,response_yes.stopped,response_no.started,response_no.stopped,iti_blank.started,iti_blank.stopped,fixation_text.stopped,key_press.keys,key_press.corr,key_press.rt,text_score.started,participant,session,date,expName,psychopyVersion,frameRate,
,,,,,,,,,,,,,,,,,,,,,,,,,,,,,,,,,,,,,,,,,,,,,,,,,,,,7.9977203749876935,7.9977203749876935,2,0.8125043750042096,,,,,,,,,,,,,,,,,,,,,,,,,,,,,,,,,,,,,,,,,,,,,reldom2_s031,001,2025-02-25_11h40.22.439,practice_test2_AC,2022.2.5,None,
,,,,,,,,,,,,,,,,,,,,,,,,,,,,,,,,,,,,,,,,,,,,0,0,0,0,,,,,,,,,,,,,,,,,,,,,,,,,,,,,,,,,,,,,,,,,,,,,,,,,,,,,reldom2_s031,001,2025-02-25_11h40.22.439,practice_test2_AC,2022.2.5,None,
,,,,,,,,,,,,,,,,,,,,,,,,,,,,,,,,,,,,,,,,,,,,1,0,1,0,,,,,,,,,,,,,,,,,,,,,,,,,,,,,,,,,,,,,,,,,,,,,,,,,,,,,reldom2_s031,001,2025-02-25_11h40.22.439,practice_test2_AC,2022.2.5,None,
,,,,,,,,,,,,,,,,,,,,,,,,,,,,,,,,,,,,,,,,,,,,2,0,2,0,,,,,,,,,,,,,,,,,,,,,,,,,,,,,,,,,,,,,,,,,,,,,,,,,,,,,reldom2_s031,001,2025-02-25_11h40.22.439,practice_test2_AC,2022.2.5,None,
,,,,,,,,,,,,,,,,,,,,,,,,,,,,,,,,,,,,,,,,,,,,3,0,3,0,,,,,,,,,,,,,,,,,,,,,,,,,,,,,,,,,,,,,,,,,,,,,,,,,,,,,reldom2_s031,001,2025-02-25_11h40.22.439,practice_test2_AC,2022.2.5,None,
0,0.0,None,fixation,stimulus/viswhat_stim/blank_white.png,stimulus/viswhat_stim/blank_white.png,stimulus/audwhat_stim/blank_white.png,stimulus/audwhat_stim/blank_white.png,stimulus/viswhat_stim/blank_white.png,stimulus/viswhat_stim/blank_white.png,stimulus/viswhat_stim/blank_white.png,stimulus/viswhat_stim/blank_white.png,0.0,0.0,0.0,0.0,0,0.0,0,0.0,0,0.0,0,0.0,0,0.0,0.0,0,0.0,0,0.0,0,0.0,0,0.0,0,0.0,0,0.0,0,0.0,0,0.0,6,,,,,0,0,0,0,,,,,9.055778832989745,9.055778832989745,9.055778832989745,9.055778832989745,9.055778832989745,9.055778832989745,9.055778832989745,9.055778832989745,8.943780500327316,9.055778832989745,9.055778832989745,9.055778832989745,8.943780500327316,9.055778832989745,9.055778832989745,9.055778832989745,9.055778832989745,9.055778832989745,9.055778832989745,9.055778832989745,9.055778832989745,9.055778832989745,9.055778832989745,9.055778832989745,9.055778832989745,9.055778832989745,9.055778832989745,9.010447166993982,9.055778832989745,9.055778832989745,9.055778832989745,9.010447166993982,9.055778832989745,9.055778832989745,9.055778832989745,9.055778832989745,9.055778832989745,14.25768995800172,14.25768995800172,15.266624457988655,None,0,,,reldom2_s031,001,2025-02-25_11h40.22.439,practice_test2_AC,2022.2.5,None,
1,First_Order,1.0,viswhat,stimulus/viswhat_stim/blank_white.png,stimulus/viswhat_stim/blank_white.png,stimulus/viswhat_stim/land_vehicle-vespa.png,stimulus/viswhat_stim/water_vehicle-yacht.png,stimulus/viswhat_stim/blank_white.png,stimulus/viswhat_stim/type_box.png,stimulus/viswhat_stim/type_yes.png,stimulus/viswhat_stim/type_no.png,None,Type,None,Type,1,0.0,0,5.25,0,5.25,0,5.25,0,0.0,0.75,0,0.0,0,0.0,1,0.5,1,2.125,0,0.0,0,0.0,0,0.0,0,0.0,0,,,,,0,1,1,1,,,,,15.266624457988655,15.266624457988655,15.266624457988655,15.266624457988655,15.266624457988655,15.266624457988655,15.266624457988655,15.266624457988655,15.199321875005262,15.266624457988655,15.266624457988655,15.266624457988655,15.199321875005262,15.266624457988655,15.266624457988655,15.266624457988655,17.358133582980372,21.212764957977924,15.266624457988655,15.266624457988655,20.577551499998663,15.74474912500591,16.79551770800026,17.358133582980372,18.408237583003938,15.266624457988655,15.266624457988655,15.232655208338596,15.266624457988655,15.266624457988655,15.266624457988655,15.232655208338596,15.266624457988655,15.266624457988655,20.577551499998663,15.266624457988655,20.577551499998663,20.496484125003917,21.444416124984855,15.266624457988655,1,1,0.6692355000122916,,reldom2_s031,001,2025-02-25_11h40.22.439,practice_test2_AC,2022.2.5,None,
2,First_Order,1.0,viswhat,stimulus/viswhat_stim/blank_white.png,stimulus/viswhat_stim/blank_white.png,stimulus/viswhat_stim/water_vehicle-cargoboat.png,stimulus/viswhat_stim/land_vehicle-oldcar.png,stimulus/viswhat_stim/blank_white.png,stimulus/viswhat_stim/location_box.png,stimulus/viswhat_stim/location_yes.png,stimulus/viswhat_stim/location_no.png,None,Location,None,Type,2,0.0,0,5.25,0,5.25,0,5.25,0,0.0,0.75,0,0.0,0,0.0,1,0.5,1,2.125,0,0.0,0,0.0,0,0.0,0,0.0,0,,,,,0,2,2,2,,,,,21.444416124984855,21.444416124984855,21.444416124984855,21.444416124984855,21.444416124984855,21.444416124984855,21.444416124984855,21.444416124984855,21.366722749660646,21.444416124984855,21.444416124984855,21.444416124984855,21.366722749660646,21.444416124984855,21.444416124984855,21.444416124984855,23.545262542000273,27.40836324999691,21.444416124984855,21.444416124984855,26.75453545799246,21.89311262499541,22.962292999989586,23.545262542000273,24.57520462499815,21.444416124984855,21.444416124984855,21.400056082993977,21.444416124984855,21.444416124984855,21.444416124984855,21.400056082993977,21.444416124984855,21.444416124984855,26.75453545799246,21.444416124984855,26.75453545799246,26.671675666992087,27.643064082978526,21.444416124984855,2,1,0.7698488740134053,,reldom2_s031,001,2025-02-25_11h40.22.439,practice_test2_AC,2022.2.5,None,
3,First_Order,1.0,viswhat,stimulus/viswhat_stim/blank_white.png,stimulus/viswhat_stim/blank_white.png,stimulus/viswhat_stim/land_vehicle-vespa.png,stimulus/viswhat_stim/water_vehicle-sailboat.png,stimulus/viswhat_stim/blank_white.png,stimulus/viswhat_stim/type_box.png,stimulus/viswhat_stim/type_yes.png,stimulus/viswhat_stim/type_no.png,None,Type,None,Type,1,0.0,0,5.25,0,5.25,0,5.25,0,0.0,0.75,0,0.0,0,0.0,1,0.5,1,2.125,0,0.0,0,0.0,0,0.0,0,0.0,0,,,,,0,3,3,3,,,,,27.643064082978526,27.643064082978526,27.643064082978526,27.643064082978526,27.643064082978526,27.643064082978526,27.643064082978526,27.643064082978526,27.525029916663577,27.643064082978526,27.643064082978526,27.643064082978526,27.525029916663577,27.643064082978526,27.643064082978526,27.643064082978526,29.734428291994845,33.57461300000432,27.643064082978526,27.643064082978526,32.96164445800241,28.083338208001805,29.176861124986317,29.734428291994845,30.7935083329794,27.643064082978526,27.643064082978526,27.591696583330243,27.643064082978526,27.643064082978526,27.643064082978526,27.591696583330243,27.643064082978526,27.643064082978526,32.96164445800241,27.643064082978526,32.96164445800241,32.84300737499143,34.15557958299178,27.643064082978526,1,1,0.7241058739891741,,reldom2_s031,001,2025-02-25_11h40.22.439,practice_test2_AC,2022.2.5,None,
4,First_Order,1.0,viswhat,stimulus/viswhat_stim/blank_white.png,stimulus/viswhat_stim/blank_white.png,stimulus/viswhat_stim/land_animal-elephant.png,stimulus/viswhat_stim/water_animal-lobster.png,stimulus/viswhat_stim/blank_white.png,stimulus/viswhat_stim/location_box.png,stimulus/viswhat_stim/location_yes.png,stimulus/viswhat_stim/location_no.png,None,Location,None,Type,2,0.0,0,5.25,0,5.25,0,5.25,0,0.0,0.75,0,0.0,0,0.0,1,0.5,1,2.125,0,0.0,0,0.0,0,0.0,0,0.0,0,,,,,0,4,4,4,,,,,34.15557958299178,34.15557958299178,34.15557958299178,34.15557958299178,34.15557958299178,34.15557958299178,34.15557958299178,34.15557958299178,33.77998429199797,34.15557958299178,34.15557958299178,34.15557958299178,33.77998429199797,34.15557958299178,34.15557958299178,34.15557958299178,36.13903437499539,40.097030207980424,34.15557958299178,34.15557958299178,39.56808495798032,34.51538716698997,35.77779154200107,36.13903437499539,37.40738245798275,34.15557958299178,34.15557958299178,33.97998429199797,34.15557958299178,34.15557958299178,34.15557958299178,33.97998429199797,34.15557958299178,34.15557958299178,39.56808495798032,34.15557958299178,39.56808495798032,39.21362374999444,40.595558957982576,34.15557958299178,2,1,1.1284524160146248,,reldom2_s031,001,2025-02-25_11h40.22.439,practice_test2_AC,2022.2.5,None,
0,0.0,None,fixation,stimulus/viswhat_stim/blank_white.png,stimulus/viswhat_stim/blank_white.png,stimulus/audwhat_stim/blank_white.png,stimulus/audwhat_stim/blank_white.png,stimulus/viswhat_stim/blank_white.png,stimulus/viswhat_stim/blank_white.png,stimulus/viswhat_stim/blank_white.png,stimulus/viswhat_stim/blank_white.png,0.0,0.0,0.0,0.0,0,0.0,0,0.0,0,0.0,0,0.0,0,0.0,0.0,0,0.0,0,0.0,0,0.0,0,0.0,0,0.0,0,0.0,0,0.0,0,0.0,6,,,,,0,5,5,5,,,,,40.595558957982576,40.595558957982576,40.595558957982576,40.595558957982576,40.595558957982576,40.595558957982576,40.595558957982576,40.595558957982576,40.49703020798042,40.595558957982576,40.595558957982576,40.595558957982576,40.49703020798042,40.595558957982576,40.595558957982576,40.595558957982576,40.595558957982576,40.595558957982576,40.595558957982576,40.595558957982576,40.595558957982576,40.595558957982576,40.595558957982576,40.595558957982576,40.595558957982576,40.595558957982576,40.595558957982576,40.54703020798042,40.595558957982576,40.595558957982576,40.595558957982576,40.54703020798042,40.595558957982576,40.595558957982576,40.595558957982576,40.595558957982576,40.595558957982576,45.82016891698004,45.82016891698004,46.754633167001884,None,0,,,reldom2_s031,001,2025-02-25_11h40.22.439,practice_test2_AC,2022.2.5,None,
5,Second_Order,1.0,viswhat,stimulus/viswhat_stim/land_animal-giraffe.png,stimulus/viswhat_stim/water_animal-stingray.png,stimulus/viswhat_stim/land_vehicle-trolley.png,stimulus/viswhat_stim/land_animal-elephant.png,stimulus/viswhat_stim/match_blank.png,stimulus/viswhat_stim/match_box.png,stimulus/viswhat_stim/match_yes.png,stimulus/viswhat_stim/match_no.png,2.0,Match,Type,Location,2,5.25,0,5.25,0,5.25,0,5.25,0,0.75,0.75,1,0.5,1,2.125,1,0.5,1,2.125,0,0.0,0,0.0,0,0.0,0,0.0,0,,,,,0,6,6,6,,,,,46.754633167001884,51.9968514170032,47.203468332998455,48.2040921250009,48.824597999977414,49.818053458002396,46.754633167001884,46.754633167001884,46.75619224997936,46.754633167001884,46.754633167001884,46.754633167001884,46.75619224997936,46.754633167001884,51.9968514170032,52.88478604197735,54.925533957983134,58.79165470798034,52.88478604197735,52.88478604197735,58.178297499980545,53.31722208298743,54.368003541982034,54.925533957983134,55.98538025000016,52.88478604197735,52.88478604197735,52.83145270798705,52.88478604197735,52.88478604197735,52.88478604197735,52.83145270798705,52.88478604197735,52.88478604197735,58.178297499980545,52.88478604197735,58.178297499980545,58.060204416979104,59.00212658298551,52.88478604197735,1,0,1.4151453750091605,,reldom2_s031,001,2025-02-25_11h40.22.439,practice_test2_AC,2022.2.5,None,
6,Second_Order,1.0,viswhat,stimulus/viswhat_stim/land_vehicle-scooter.png,stimulus/viswhat_stim/land_animal-moose.png,stimulus/viswhat_stim/water_vehicle-powercruiser.png,stimulus/viswhat_stim/land_vehicle-truck.png,stimulus/viswhat_stim/match_blank.png,stimulus/viswhat_stim/match_box.png,stimulus/viswhat_stim/match_yes.png,stimulus/viswhat_stim/match_no.png,2.0,Match,Location,Type,2,5.25,0,5.25,0,5.25,0,5.25,0,0.75,0.75,1,0.5,1,2.125,1,0.5,1,2.125,0,0.0,0,0.0,0,0.0,0,0.0,0,,,,,0,7,7,7,,,,,59.00212658298551,64.24572245799936,59.44224662499619,60.43648824997945,61.07129429199267,62.061223708005855,59.00212658298551,59.00212658298551,58.99742012497736,59.00212658298551,59.00212658298551,59.00212658298551,58.99742012497736,59.00212658298551,64.24572245799936,65.05656191697926,67.1395042919903,71.00439266700414,65.05656191697926,65.05656191697926,70.33465095798601,65.50455366697861,66.51744608298759,67.1395042919903,68.15929887499078,65.05656191697926,65.05656191697926,65.03328499999479,65.05656191697926,65.05656191697926,65.05656191697926,65.03328499999479,65.05656191697926,65.05656191697926,70.33465095798601,65.05656191697926,70.33465095798601,70.26226716698147,71.19468304200564,65.05656191697926,1,0,1.7858122910256498,,reldom2_s031,001,2025-02-25_11h40.22.439,practice_test2_AC,2022.2.5,None,
0,0.0,None,fixation,stimulus/viswhat_stim/blank_white.png,stimulus/viswhat_stim/blank_white.png,stimulus/audwhat_stim/blank_white.png,stimulus/audwhat_stim/blank_white.png,stimulus/viswhat_stim/blank_white.png,stimulus/viswhat_stim/blank_white.png,stimulus/viswhat_stim/blank_white.png,stimulus/viswhat_stim/blank_white.png,0.0,0.0,0.0,0.0,0,0.0,0,0.0,0,0.0,0,0.0,0,0.0,0.0,0,0.0,0,0.0,0,0.0,0,0.0,0,0.0,0,0.0,0,0.0,0,0.0,7,,,,,0,8,8,8,,,,,71.19468304200564,71.19468304200564,71.19468304200564,71.19468304200564,71.19468304200564,71.19468304200564,71.19468304200564,71.19468304200564,71.08772600033747,71.19468304200564,71.19468304200564,71.19468304200564,71.08772600033747,71.19468304200564,71.19468304200564,71.19468304200564,71.19468304200564,71.19468304200564,71.19468304200564,71.19468304200564,71.19468304200564,71.19468304200564,71.19468304200564,71.19468304200564,71.19468304200564,71.19468304200564,71.19468304200564,71.15439266700415,71.19468304200564,71.19468304200564,71.19468304200564,71.15439266700415,71.19468304200564,71.19468304200564,71.19468304200564,71.19468304200564,71.19468304200564,76.40928120800527,76.40928120800527,78.4636618749937,None,0,,,reldom2_s031,001,2025-02-25_11h40.22.439,practice_test2_AC,2022.2.5,None,
7,First_Order,2.0,audwhat,stimulus/audwhat_stim/dummy.wav,stimulus/audwhat_stim/dummy.wav,stimulus/audwhat_stim/percussion xylophone_high-pitch_Ftri_loud.wav,stimulus/audwhat_stim/percussion mallet_low-pitch_F_loud.wav,stimulus/audwhat_stim/blank_white.png,stimulus/audwhat_stim/category_box.png,stimulus/audwhat_stim/category_yes.png,stimulus/audwhat_stim/category_no.png,None,Category,None,Category,1,0.0,0,5.25,0,5.25,0,5.25,0,0.0,0.75,0,0.0,0,0.0,0,0.0,0,0.0,0,0.0,0,0.0,1,0.5,1,2.125,0,,,,,0,9,9,9,,,,,78.4636618749937,78.4636618749937,78.4636618749937,78.4636618749937,78.4636618749937,78.4636618749937,78.4636618749937,78.4636618749937,78.38892654164617,78.4636618749937,78.4636618749937,78.4636618749937,78.38892654164617,78.4636618749937,78.4636618749937,78.4636618749937,80.55717520799953,84.40001079198555,78.4636618749937,78.4636618749937,83.74871862499276,78.4636618749937,78.4636618749937,78.4636618749937,78.4636618749937,78.91383904198301,79.9635455829848,78.88008820865458,79.91374187500332,80.55717520799953,81.60503945799428,80.5245024586659,,78.4636618749937,83.74871862499276,78.4636618749937,83.74871862499276,83.70523566700285,84.66025191699737,78.4636618749937,1,1,1.9601434170035645,,reldom2_s031,001,2025-02-25_11h40.22.439,practice_test2_AC,2022.2.5,None,
8,First_Order,2.0,audwhat,stimulus/audwhat_stim/dummy.wav,stimulus/audwhat_stim/dummy.wav,stimulus/audwhat_stim/percussion xylophone_high-pitch_F_loud.wav,stimulus/audwhat_stim/percussion mallet_low-pitch_D_loud.wav,stimulus/audwhat_stim/blank_white.png,stimulus/audwhat_stim/pitch_box.png,stimulus/audwhat_stim/pitch_yes.png,stimulus/audwhat_stim/pitch_no.png,None,Pitch,None,Category,2,0.0,0,5.25,0,5.25,0,5.25,0,0.0,0.75,0,0.0,0,0.0,0,0.0,0,0.0,0,0.0,0,0.0,1,0.5,1,2.125,0,,,,,0,10,10,10,,,,,84.66025191699737,84.66025191699737,84.66025191699737,84.66025191699737,84.66025191699737,84.66025191699737,84.66025191699737,84.66025191699737,84.57648433331826,84.66025191699737,84.66025191699737,84.66025191699737,84.57648433331826,84.66025191699737,84.66025191699737,84.66025191699737,86.74036920798244,90.6364539169881,84.66025191699737,84.66025191699737,89.94252837498789,84.66025191699737,84.66025191699737,84.66025191699737,84.66025191699737,85.10513841698412,86.14769141699071,85.07248387465758,86.14769141699071,86.74036920798244,87.78934804198798,86.70722133366895,87.73960645799525,84.66025191699737,89.94252837498789,84.66025191699737,89.94252837498789,89.89947654199204,90.85266375000356,84.66025191699737,2,1,0.9291435000195634,,reldom2_s031,001,2025-02-25_11h40.22.439,practice_test2_AC,2022.2.5,None,
9,First_Order,2.0,audwhat,stimulus/audwhat_stim/dummy.wav,stimulus/audwhat_stim/dummy.wav,stimulus/audwhat_stim/percussion mallet_low-pitch_Dtri_loud.wav,stimulus/audwhat_stim/string viola_low-pitch_Dtri_loud.wav,stimulus/audwhat_stim/blank_white.png,stimulus/audwhat_stim/category_box.png,stimulus/audwhat_stim/category_yes.png,stimulus/audwhat_stim/category_no.png,None,Category,None,Pitch,2,0.0,0,5.25,0,5.25,0,5.25,0,0.0,0.75,0,0.0,0,0.0,0,0.0,0,0.0,0,0.0,0,0.0,1,0.5,1,2.125,0,,,,,0,11,11,11,,,,,90.85266375000356,90.85266375000356,90.85266375000356,90.85266375000356,90.85266375000356,90.85266375000356,90.85266375000356,90.85266375000356,90.76978725032143,90.85266375000356,90.85266375000356,90.85266375000356,90.76978725032143,90.85266375000356,90.85266375000356,90.85266375000356,92.94746383299935,96.79439204197843,90.85266375000356,90.85266375000356,96.14095583299058,90.85266375000356,90.85266375000356,90.85266375000356,90.85266375000356,91.30022012500558,92.34779704199173,91.26672520867238,,92.94746383299935,93.99731587499264,92.91403704166102,,90.85266375000356,96.14095583299058,90.85266375000356,96.14095583299058,96.04741612498765,97.0122967499774,90.85266375000356,2,1,1.0637622500071302,,reldom2_s031,001,2025-02-25_11h40.22.439,practice_test2_AC,2022.2.5,None,
10,First_Order,2.0,audwhat,stimulus/audwhat_stim/dummy.wav,stimulus/audwhat_stim/dummy.wav,stimulus/audwhat_stim/percussion mallet_low-pitch_F_loud.wav,stimulus/audwhat_stim/percussion mallet_high-pitch_Ftri_loud.wav,stimulus/audwhat_stim/blank_white.png,stimulus/audwhat_stim/category_box.png,stimulus/audwhat_stim/category_yes.png,stimulus/audwhat_stim/category_no.png,None,Category,None,Category,1,0.0,0,5.25,0,5.25,0,5.25,0,0.0,0.75,0,0.0,0,0.0,0,0.0,0,0.0,0,0.0,0,0.0,1,0.5,1,2.125,0,,,,,0,12,12,12,,,,,97.0122967499774,97.0122967499774,97.0122967499774,97.0122967499774,97.0122967499774,97.0122967499774,97.0122967499774,97.0122967499774,96.92772537531175,97.0122967499774,97.0122967499774,97.0122967499774,96.92772537531175,97.0122967499774,97.0122967499774,97.0122967499774,99.11399766698014,102.9664547079883,97.0122967499774,97.0122967499774,102.30881245798082,97.0122967499774,97.0122967499774,97.0122967499774,97.0122967499774,97.46363904199097,98.51413904200308,97.43001249965552,98.46401283299201,99.11399766698014,100.16429583300487,99.08025204166576,,97.0122967499774,102.30881245798082,97.0122967499774,102.30881245798082,102.21475929199369,103.20181320799747,97.0122967499774,1,1,0.8632241240120493,,reldom2_s031,001,2025-02-25_11h40.22.439,practice_test2_AC,2022.2.5,None,
0,0.0,None,fixation,stimulus/viswhat_stim/blank_white.png,stimulus/viswhat_stim/blank_white.png,stimulus/audwhat_stim/blank_white.png,stimulus/audwhat_stim/blank_white.png,stimulus/viswhat_stim/blank_white.png,stimulus/viswhat_stim/blank_white.png,stimulus/viswhat_stim/blank_white.png,stimulus/viswhat_stim/blank_white.png,0.0,0.0,0.0,0.0,0,0.0,0,0.0,0,0.0,0,0.0,0,0.0,0.0,0,0.0,0,0.0,0,0.0,0,0.0,0,0.0,0,0.0,0,0.0,0,0.0,6,,,,,0,13,13,13,,,,,103.20181320799747,103.20181320799747,103.20181320799747,103.20181320799747,103.20181320799747,103.20181320799747,103.20181320799747,103.20181320799747,103.09978804132163,103.20181320799747,103.20181320799747,103.20181320799747,103.09978804132163,103.20181320799747,103.20181320799747,103.20181320799747,103.20181320799747,103.20181320799747,103.20181320799747,103.20181320799747,103.20181320799747,103.20181320799747,103.20181320799747,103.20181320799747,103.20181320799747,103.20181320799747,103.20181320799747,103.14978804132164,103.20181320799747,103.20181320799747,103.20181320799747,103.14978804132164,103.20181320799747,103.20181320799747,103.20181320799747,103.20181320799747,103.20181320799747,108.40212220800458,108.40212220800458,109.38701891698292,None,0,,,reldom2_s031,001,2025-02-25_11h40.22.439,practice_test2_AC,2022.2.5,None,
11,Second_Order,2.0,audwhat,stimulus/audwhat_stim/string cello_low-pitch_D_loud.wav,stimulus/audwhat_stim/string viola_high-pitch_Dtri_loud.wav,stimulus/audwhat_stim/percussion mallet_high-pitch_F_loud.wav,stimulus/audwhat_stim/percussion mallet_low-pitch_Dtri_loud.wav,stimulus/viswhat_stim/match_blank.png,stimulus/viswhat_stim/match_box.png,stimulus/viswhat_stim/match_yes.png,stimulus/viswhat_stim/match_no.png,1.0,Match,Category,Category,1,5.25,0,5.25,0,5.25,0,5.25,0,0.75,0.75,0,0.0,0,0.0,0,0.0,0,0.0,1,0.5,1,2.125,1,0.5,1,2.125,0,,,,,0,14,14,14,,,,,109.38701891698292,114.63111849999405,109.38701891698292,109.38701891698292,109.38701891698292,109.38701891698292,109.8388686249964,110.83393812499708,109.84599533366078,,111.46232808299828,112.45725891698385,111.47030454167204,,114.63111849999405,115.49625399999786,117.5461763329804,121.39897262500017,115.49625399999786,115.49625399999786,120.7903094170033,115.49625399999786,115.49625399999786,115.49625399999786,115.49625399999786,115.94703166699037,116.99740649998421,115.91380708365274,116.94718433299568,117.5461763329804,118.59659812500468,117.51255545864502,118.54642283299472,115.49625399999786,120.7903094170033,115.49625399999786,120.7903094170033,120.6972194169939,121.56558116700035,115.49625399999786,1,1,1.338837749994127,,reldom2_s031,001,2025-02-25_11h40.22.439,practice_test2_AC,2022.2.5,None,
12,Second_Order,2.0,audwhat,stimulus/audwhat_stim/string viola_high-pitch_Dtri_loud.wav,stimulus/audwhat_stim/percussion xylophone_high-pitch_Dtri_loud.wav,stimulus/audwhat_stim/string viola_low-pitch_Ftri_loud.wav,stimulus/audwhat_stim/percussion mallet_low-pitch_Ftri_loud.wav,stimulus/viswhat_stim/match_blank.png,stimulus/viswhat_stim/match_box.png,stimulus/viswhat_stim/match_yes.png,stimulus/viswhat_stim/match_no.png,1.0,Match,Pitch,Pitch,1,5.25,0,5.25,0,5.25,0,5.25,0,0.75,0.75,0,0.0,0,0.0,0,0.0,0,0.0,1,0.5,1,2.125,1,0.5,1,2.125,0,,,,,0,15,15,15,,,,,121.56558116700035,126.8088738329825,121.56558116700035,121.56558116700035,121.56558116700035,121.56558116700035,122.0205361249973,123.01179895800306,122.02368374966706,,123.63606695798808,124.63782529198215,123.64517824966266,124.63782529198215,126.8088738329825,127.70652541698655,129.73460529200383,133.61575070797699,127.70652541698655,127.70652541698655,133.0045804999827,127.70652541698655,127.70652541698655,127.70652541698655,127.70652541698655,128.13201016699895,129.18434929198702,128.09799304165452,,129.73460529200383,130.80156541700126,129.7012193336598,,127.70652541698655,133.0045804999827,127.70652541698655,133.0045804999827,132.86186725000152,133.8539188329887,127.70652541698655,1,1,1.6327072500134818,,reldom2_s031,001,2025-02-25_11h40.22.439,practice_test2_AC,2022.2.5,None,
0,0.0,None,fixation,stimulus/viswhat_stim/blank_white.png,stimulus/viswhat_stim/blank_white.png,stimulus/audwhat_stim/blank_white.png,stimulus/audwhat_stim/blank_white.png,stimulus/viswhat_stim/blank_white.png,stimulus/viswhat_stim/blank_white.png,stimulus/viswhat_stim/blank_white.png,stimulus/viswhat_stim/blank_white.png,0.0,0.0,0.0,0.0,0,0.0,0,0.0,0,0.0,0,0.0,0,0.0,0.0,0,0.0,0,0.0,0,0.0,0,0.0,0,0.0,0,0.0,0,0.0,0,0.0,6,,,,,0,16,16,16,,,,,133.8539188329887,133.8539188329887,133.8539188329887,133.8539188329887,133.8539188329887,133.8539188329887,133.8539188329887,133.8539188329887,133.74908404131034,133.8539188329887,133.8539188329887,133.8539188329887,133.74908404131034,133.8539188329887,133.8539188329887,133.8539188329887,133.8539188329887,133.8539188329887,133.8539188329887,133.8539188329887,133.8539188329887,133.8539188329887,133.8539188329887,133.8539188329887,133.8539188329887,133.8539188329887,133.8539188329887,133.79908404131032,133.8539188329887,133.8539188329887,133.8539188329887,133.79908404131032,133.8539188329887,133.8539188329887,133.8539188329887,133.8539188329887,133.8539188329887,139.04174908300047,139.04174908300047,140.12578895798652,None,0,,,reldom2_s031,001,2025-02-25_11h40.22.439,practice_test2_AC,2022.2.5,None,
13,First_Order,3.0,audwhere,stimulus/audwhere_stim/dummy.wav,stimulus/audwhere_stim/dummy.wav,stimulus/audwhere_stim/left_toward_270h.wav,stimulus/audwhere_stim/right_toward_270h.wav,stimulus/audwhere_stim/blank_white.png,stimulus/audwhere_stim/direction_box.png,stimulus/audwhere_stim/direction_yes.png,stimulus/audwhere_stim/direction_no.png,None,Direction,None,Direction,1,0.0,0,5.25,0,5.25,0,5.25,0,0.0,0.75,0,0.0,0,0.0,0,0.0,0,0.0,0,0.0,0,0.0,1,0.5,1,2.125,0,,,,,0,17,17,17,,,,,140.12578895798652,140.12578895798652,140.12578895798652,140.12578895798652,140.12578895798652,140.12578895798652,140.12578895798652,140.12578895798652,140.04508454164414,140.12578895798652,140.12578895798652,140.12578895798652,140.04508454164414,140.12578895798652,140.12578895798652,140.12578895798652,142.23867370799417,146.06750683300197,140.12578895798652,140.12578895798652,145.4101016249915,140.12578895798652,140.12578895798652,140.12578895798652,140.12578895798652,140.5765099999844,141.63715487500303,140.54337112466263,,142.23867370799417,143.29474254199886,142.20498333365347,,140.12578895798652,145.4101016249915,140.12578895798652,145.4101016249915,145.36663674999727,146.32911445799982,140.12578895798652,1,1,1.6265115829883143,,reldom2_s031,001,2025-02-25_11h40.22.439,practice_test2_AC,2022.2.5,None,
14,First_Order,3.0,audwhere,stimulus/audwhere_stim/dummy.wav,stimulus/audwhere_stim/dummy.wav,stimulus/audwhere_stim/right_away_280h.wav,stimulus/audwhere_stim/right_toward_290h.wav,stimulus/audwhere_stim/blank_white.png,stimulus/audwhere_stim/side_box.png,stimulus/audwhere_stim/side_yes.png,stimulus/audwhere_stim/side_no.png,None,Side,None,Side,1,0.0,0,5.25,0,5.25,0,5.25,0,0.0,0.75,0,0.0,0,0.0,0,0.0,0,0.0,0,0.0,0,0.0,1,0.5,1,2.125,0,,,,,0,18,18,18,,,,,146.32911445799982,146.32911445799982,146.32911445799982,146.32911445799982,146.32911445799982,146.32911445799982,146.32911445799982,146.32911445799982,146.24413487533653,146.32911445799982,146.32911445799982,146.32911445799982,146.24413487533653,146.32911445799982,146.32911445799982,146.32911445799982,148.4260709999944,152.28723049999098,146.32911445799982,146.32911445799982,151.63126245798776,146.32911445799982,146.32911445799982,146.32911445799982,146.32911445799982,146.77793966699392,147.82703849999234,146.74468108365934,,148.4260709999944,149.47906066698488,148.39304024965193,,146.32911445799982,151.63126245798776,146.32911445799982,151.63126245798776,151.53775962500367,152.50579412499792,146.32911445799982,1,1,1.0316661240067333,,reldom2_s031,001,2025-02-25_11h40.22.439,practice_test2_AC,2022.2.5,None,
15,First_Order,3.0,audwhere,stimulus/audwhere_stim/dummy.wav,stimulus/audwhere_stim/dummy.wav,stimulus/audwhere_stim/right_away_270h.wav,stimulus/audwhere_stim/right_toward_300h.wav,stimulus/audwhere_stim/blank_white.png,stimulus/audwhere_stim/side_box.png,stimulus/audwhere_stim/side_yes.png,stimulus/audwhere_stim/side_no.png,None,Side,None,Side,1,0.0,0,5.25,0,5.25,0,5.25,0,0.0,0.75,0,0.0,0,0.0,0,0.0,0,0.0,0,0.0,0,0.0,1,0.5,1,2.125,0,,,,,0,19,19,19,,,,,152.50579412499792,152.50579412499792,152.50579412499792,152.50579412499792,152.50579412499792,152.50579412499792,152.50579412499792,152.50579412499792,152.42056383332434,152.50579412499792,152.50579412499792,152.50579412499792,152.42056383332434,152.50579412499792,152.50579412499792,152.50579412499792,154.6010263329954,158.45393774998956,152.50579412499792,152.50579412499792,157.79644462498254,152.50579412499792,152.50579412499792,152.50579412499792,152.50579412499792,152.95323941699462,154.00225654197857,152.91991558365797,153.95236945798388,154.6010263329954,155.65140308300033,154.56771091666113,,152.50579412499792,157.79644462498254,152.50579412499792,157.79644462498254,157.7027097499813,158.6715357079811,152.50579412499792,1,1,1.4902093739947304,,reldom2_s031,001,2025-02-25_11h40.22.439,practice_test2_AC,2022.2.5,None,
16,First_Order,3.0,audwhere,stimulus/audwhere_stim/dummy.wav,stimulus/audwhere_stim/dummy.wav,stimulus/audwhere_stim/right_toward_300h.wav,stimulus/audwhere_stim/right_away_290h.wav,stimulus/audwhere_stim/blank_white.png,stimulus/audwhere_stim/direction_box.png,stimulus/audwhere_stim/direction_yes.png,stimulus/audwhere_stim/direction_no.png,None,Direction,None,Side,2,0.0,0,5.25,0,5.25,0,5.25,0,0.0,0.75,0,0.0,0,0.0,0,0.0,0,0.0,0,0.0,0,0.0,1,0.5,1,2.125,0,,,,,0,20,20,20,,,,,158.6715357079811,158.6715357079811,158.6715357079811,158.6715357079811,158.6715357079811,158.6715357079811,158.6715357079811,158.6715357079811,158.58727108332292,158.6715357079811,158.6715357079811,158.6715357079811,158.58727108332292,158.6715357079811,158.6715357079811,158.6715357079811,160.78247433298384,164.61439166698256,158.6715357079811,158.6715357079811,163.95527820798452,158.6715357079811,158.6715357079811,158.6715357079811,158.6715357079811,159.1225272080046,160.18061312500504,159.0895047916604,,160.78247433298384,161.8448024999816,160.74800987466395,,158.6715357079811,163.95527820798452,158.6715357079811,163.95527820798452,163.91142749998835,164.8965721669956,158.6715357079811,2,1,2.6642521250178106,,reldom2_s031,001,2025-02-25_11h40.22.439,practice_test2_AC,2022.2.5,None,
0,0.0,None,fixation,stimulus/viswhere_stim/blank_white.png,stimulus/viswhere_stim/blank_white.png,stimulus/audwhere_stim/blank_white.png,stimulus/audwhere_stim/blank_white.png,stimulus/viswhere_stim/blank_white.png,stimulus/viswhere_stim/blank_white.png,stimulus/viswhat_stim/blank_white.png,stimulus/viswhat_stim/blank_white.png,0.0,0.0,0.0,0.0,0,0.0,0,0.0,0,0.0,0,0.0,0,0.0,0.0,0,0.0,0,0.0,0,0.0,0,0.0,0,0.0,0,0.0,0,0.0,0,0.0,5,,,,,0,21,21,21,,,,,164.8965721669956,164.8965721669956,164.8965721669956,164.8965721669956,164.8965721669956,164.8965721669956,164.8965721669956,164.8965721669956,164.7917460003247,164.8965721669956,164.8965721669956,164.8965721669956,164.7917460003247,164.8965721669956,164.8965721669956,164.8965721669956,164.8965721669956,164.8965721669956,164.8965721669956,164.8965721669956,164.8965721669956,164.8965721669956,164.8965721669956,164.8965721669956,164.8965721669956,164.8965721669956,164.8965721669956,164.8417460003247,164.8965721669956,164.8965721669956,164.8965721669956,164.8417460003247,164.8965721669956,164.8965721669956,164.8965721669956,164.8965721669956,164.8965721669956,170.1921347079915,170.1921347079915,169.98643629200524,None,0,,,reldom2_s031,001,2025-02-25_11h40.22.439,practice_test2_AC,2022.2.5,None,
17,Second_Order,3.0,audwhere,stimulus/audwhere_stim/right_toward_270h.wav,stimulus/audwhere_stim/left_toward_290h.wav,stimulus/audwhere_stim/left_away_270h.wav,stimulus/audwhere_stim/left_toward_290h.wav,stimulus/viswhat_stim/match_blank.png,stimulus/viswhat_stim/match_box.png,stimulus/viswhat_stim/match_yes.png,stimulus/viswhat_stim/match_no.png,2.0,Match,Direction,Side,2,5.25,0,5.25,0,5.25,0,5.25,0,0.75,0.75,0,0.0,0,0.0,0,0.0,0,0.0,1,0.5,1,2.125,1,0.5,1,2.125,0,,,,,0,22,22,22,,,,,170.1921347079915,175.441904916981,170.1921347079915,170.1921347079915,170.1921347079915,170.1921347079915,170.6416264169966,171.62893700000132,170.64937166666303,,172.2670424169919,173.25778387498576,172.27503024964633,173.2643819169898,175.441904916981,176.3056964169955,178.3605559169955,182.2210914999887,176.3056964169955,176.3056964169955,181.60661420799443,176.3056964169955,176.3056964169955,176.3056964169955,176.3056964169955,176.75992324997787,177.8101260419935,176.72646208366885,177.75956816697726,178.3605559169955,179.41274450000492,178.3269250416527,,176.3056964169955,181.60661420799443,176.3056964169955,181.60661420799443,181.46215620799921,182.3443246249808,176.3056964169955,1,0,2.0732833330112044,,reldom2_s031,001,2025-02-25_11h40.22.439,practice_test2_AC,2022.2.5,None,
18,Second_Order,3.0,audwhere,stimulus/audwhere_stim/left_toward_270h.wav,stimulus/audwhere_stim/right_toward_300h.wav,stimulus/audwhere_stim/right_toward_300h.wav,stimulus/audwhere_stim/right_away_270h.wav,stimulus/viswhat_stim/match_blank.png,stimulus/viswhat_stim/match_box.png,stimulus/viswhat_stim/match_yes.png,stimulus/viswhat_stim/match_no.png,2.0,Match,Direction,Side,2,5.25,0,5.25,0,5.25,0,5.25,0,0.75,0.75,0,0.0,0,0.0,0,0.0,0,0.0,1,0.5,1,2.125,1,0.5,1,2.125,0,,,,,0,23,23,23,,,,,182.3443246249808,187.5909596249985,182.3443246249808,182.3443246249808,182.3443246249808,182.3443246249808,182.79973966698162,183.79915079197963,182.8025789586575,,184.42136874998687,185.41402737499448,184.4302242086599,,187.5909596249985,188.46063395799138,190.5183578330034,194.38088487499044,188.46063395799138,188.46063395799138,193.76593304198468,188.46063395799138,188.46063395799138,188.46063395799138,188.46063395799138,188.91733258299064,189.96769795799628,188.88307770865893,,190.5183578330034,191.56903712498024,190.48469291665631,,188.46063395799138,193.76593304198468,188.46063395799138,193.76593304198468,193.62099587498233,194.61933670798317,188.46063395799138,2,1,1.8774395830114372,,reldom2_s031,001,2025-02-25_11h40.22.439,practice_test2_AC,2022.2.5,None,
0,0.0,None,fixation,stimulus/viswhere_stim/blank_white.png,stimulus/viswhere_stim/blank_white.png,stimulus/audwhere_stim/blank_white.png,stimulus/audwhere_stim/blank_white.png,stimulus/viswhere_stim/blank_white.png,stimulus/viswhere_stim/blank_white.png,stimulus/viswhat_stim/blank_white.png,stimulus/viswhat_stim/blank_white.png,0.0,0.0,0.0,0.0,0,0.0,0,0.0,0,0.0,0,0.0,0,0.0,0.0,0,0.0,0,0.0,0,0.0,0,0.0,0,0.0,0,0.0,0,0.0,0,0.0,5,,,,,0,24,24,24,,,,,194.61933670798317,194.61933670798317,194.61933670798317,194.61933670798317,194.61933670798317,194.61933670798317,194.61933670798317,194.61933670798317,194.5142182083238,194.61933670798317,194.61933670798317,194.61933670798317,194.5142182083238,194.61933670798317,194.61933670798317,194.61933670798317,194.61933670798317,194.61933670798317,194.61933670798317,194.61933670798317,194.61933670798317,194.61933670798317,194.61933670798317,194.61933670798317,194.61933670798317,194.61933670798317,194.61933670798317,194.56421820832378,194.61933670798317,194.61933670798317,194.61933670798317,194.56421820832378,194.61933670798317,194.61933670798317,194.61933670798317,194.61933670798317,194.61933670798317,199.9850542919885,199.9850542919885,199.66112258299836,None,0,,,reldom2_s031,001,2025-02-25_11h40.22.439,practice_test2_AC,2022.2.5,None,
19,First_Order,4.0,viswhere,stimulus/viswhere_stim/blank_white.png,stimulus/viswhere_stim/blank_white.png,stimulus/viswhere_stim/90-deg_dot-right_peru.png,stimulus/viswhere_stim/120-deg_dot-right_slateblue.png,stimulus/viswhere_stim/blank_white.png,stimulus/viswhere_stim/dot_box.png,stimulus/viswhere_stim/dot_yes.png,stimulus/viswhere_stim/dot_no.png,None,Dot,None,Dot,1,0.0,0,5.25,0,5.25,0,5.25,0,0.0,0.75,0,0.0,0,0.0,1,0.5,1,2.125,0,0.0,0,0.0,0,0.0,0,0.0,0,,,,,0,25,25,25,,,,,199.9850542919885,199.9850542919885,199.9850542919885,199.9850542919885,199.9850542919885,199.9850542919885,199.9850542919885,199.9850542919885,199.95554116666125,199.9850542919885,199.9850542919885,199.9850542919885,199.95554116666125,199.9850542919885,199.9850542919885,199.9850542919885,202.0841434999893,206.05136295798002,199.9850542919885,199.9850542919885,205.24670962500386,200.47390262500267,201.48845716699725,202.0841434999893,203.09803683299106,199.9850542919885,199.9850542919885,199.9722078333279,199.9850542919885,199.9850542919885,199.9850542919885,199.9722078333279,199.9850542919885,199.9850542919885,205.24670962500386,199.9850542919885,205.24670962500386,205.20744941697922,206.05136295798002,199.9850542919885,1,1,1.0891326239798218,,reldom2_s031,001,2025-02-25_11h40.22.439,practice_test2_AC,2022.2.5,None,
20,First_Order,4.0,viswhere,stimulus/viswhere_stim/blank_white.png,stimulus/viswhere_stim/blank_white.png,stimulus/viswhere_stim/30-deg_dot-right_turquoise.png,stimulus/viswhere_stim/60-deg_dot-right_seagreen.png,stimulus/viswhere_stim/blank_white.png,stimulus/viswhere_stim/line_box.png,stimulus/viswhere_stim/line_yes.png,stimulus/viswhere_stim/line_no.png,None,Line,None,Dot,2,0.0,0,5.25,0,5.25,0,5.25,0,0.0,0.75,0,0.0,0,0.0,1,0.5,1,2.125,0,0.0,0,0.0,0,0.0,0,0.0,0,,,,,0,26,26,26,,,,,206.05136295798002,206.05136295798002,206.05136295798002,206.05136295798002,206.05136295798002,206.05136295798002,206.05136295798002,206.05136295798002,206.0257977913328,206.05136295798002,206.05136295798002,206.05136295798002,206.0257977913328,206.05136295798002,206.05136295798002,206.05136295798002,208.16573329200037,212.01655891697737,206.05136295798002,206.05136295798002,211.31689687498147,206.53449745799298,207.5481785419979,208.16573329200037,209.17521254200255,206.05136295798002,206.05136295798002,206.04246445799947,206.05136295798002,206.05136295798002,206.05136295798002,206.04246445799947,206.05136295798002,206.05136295798002,211.31689687498147,206.05136295798002,211.31689687498147,211.27622970798984,212.12584583298303,206.05136295798002,2,1,1.3908015409833752,,reldom2_s031,001,2025-02-25_11h40.22.439,practice_test2_AC,2022.2.5,None,
21,First_Order,4.0,viswhere,stimulus/viswhere_stim/blank_white.png,stimulus/viswhere_stim/blank_white.png,stimulus/viswhere_stim/120-deg_dot-left_goldenrod.png,stimulus/viswhere_stim/90-deg_dot-left_seagreen.png,stimulus/viswhere_stim/blank_white.png,stimulus/viswhere_stim/line_box.png,stimulus/viswhere_stim/line_yes.png,stimulus/viswhere_stim/line_no.png,None,Line,None,Dot,2,0.0,0,5.25,0,5.25,0,5.25,0,0.0,0.75,0,0.0,0,0.0,1,0.5,1,2.125,0,0.0,0,0.0,0,0.0,0,0.0,0,,,,,0,27,27,27,,,,,212.12584583298303,212.12584583298303,212.12584583298303,212.12584583298303,212.12584583298303,212.12584583298303,212.12584583298303,212.12584583298303,212.09989225031072,212.12584583298303,212.12584583298303,212.12584583298303,212.09989225031072,212.12584583298303,212.12584583298303,212.12584583298303,214.24065774999326,218.0918396670022,212.12584583298303,212.12584583298303,217.3758057919913,212.6076117499906,213.62196520800353,214.24065774999326,215.2584117919905,212.12584583298303,212.12584583298303,212.1165589169774,212.12584583298303,212.12584583298303,212.12584583298303,212.1165589169774,212.12584583298303,212.12584583298303,217.3758057919913,212.12584583298303,217.3758057919913,217.3593213330023,218.20145516699995,212.12584583298303,2,1,0.8898057080223225,,reldom2_s031,001,2025-02-25_11h40.22.439,practice_test2_AC,2022.2.5,None,
22,First_Order,4.0,viswhere,stimulus/viswhere_stim/blank_white.png,stimulus/viswhere_stim/blank_white.png,stimulus/viswhere_stim/150-deg_dot-right_royalblue.png,stimulus/viswhere_stim/150-deg_dot-left_slateblue.png,stimulus/viswhere_stim/blank_white.png,stimulus/viswhere_stim/dot_box.png,stimulus/viswhere_stim/dot_yes.png,stimulus/viswhere_stim/dot_no.png,None,Dot,None,Line,2,0.0,0,5.25,0,5.25,0,5.25,0,0.0,0.75,0,0.0,0,0.0,1,0.5,1,2.125,0,0.0,0,0.0,0,0.0,0,0.0,0,,,,,0,28,28,28,,,,,218.20145516699995,218.20145516699995,218.20145516699995,218.20145516699995,218.20145516699995,218.20145516699995,218.20145516699995,218.20145516699995,218.17517300033555,218.20145516699995,218.20145516699995,218.20145516699995,218.17517300033555,218.20145516699995,218.20145516699995,218.20145516699995,220.30595895799343,224.3495707080001,218.20145516699995,218.20145516699995,223.46684629199444,218.68651149998186,219.70801637499244,220.30595895799343,221.32768004198442,218.20145516699995,218.20145516699995,218.19183966700223,218.20145516699995,218.20145516699995,218.20145516699995,218.19183966700223,218.20145516699995,218.20145516699995,223.46684629199444,218.20145516699995,223.46684629199444,223.42583066699444,224.3495707080001,218.20145516699995,2,1,1.7327048750012182,,reldom2_s031,001,2025-02-25_11h40.22.439,practice_test2_AC,2022.2.5,None,
0,0.0,None,fixation,stimulus/viswhere_stim/blank_white.png,stimulus/viswhere_stim/blank_white.png,stimulus/audwhere_stim/blank_white.png,stimulus/audwhere_stim/blank_white.png,stimulus/viswhere_stim/blank_white.png,stimulus/viswhere_stim/blank_white.png,stimulus/viswhat_stim/blank_white.png,stimulus/viswhat_stim/blank_white.png,0.0,0.0,0.0,0.0,0,0.0,0,0.0,0,0.0,0,0.0,0,0.0,0.0,0,0.0,0,0.0,0,0.0,0,0.0,0,0.0,0,0.0,0,0.0,0,0.0,5,,,,,0,29,29,29,,,,,224.3495707080001,224.3495707080001,224.3495707080001,224.3495707080001,224.3495707080001,224.3495707080001,224.3495707080001,224.3495707080001,224.24619079132876,224.3495707080001,224.3495707080001,224.3495707080001,224.24619079132876,224.3495707080001,224.3495707080001,224.3495707080001,224.3495707080001,224.3495707080001,224.3495707080001,224.3495707080001,224.3495707080001,224.3495707080001,224.3495707080001,224.3495707080001,224.3495707080001,224.3495707080001,224.3495707080001,224.29619079132877,224.3495707080001,224.3495707080001,224.3495707080001,224.29619079132877,224.3495707080001,224.3495707080001,224.3495707080001,224.3495707080001,224.3495707080001,229.6169021249807,229.6169021249807,229.4379169169988,None,0,,,reldom2_s031,001,2025-02-25_11h40.22.439,practice_test2_AC,2022.2.5,None,
23,Second_Order,4.0,viswhere,stimulus/viswhere_stim/150-deg_dot-right_slateblue.png,stimulus/viswhere_stim/150-deg_dot-left_turquoise.png,stimulus/viswhere_stim/90-deg_dot-left_mediumslateblue.png,stimulus/viswhere_stim/90-deg_dot-right_peru.png,stimulus/viswhat_stim/match_blank.png,stimulus/viswhat_stim/match_box.png,stimulus/viswhat_stim/match_yes.png,stimulus/viswhat_stim/match_no.png,1.0,Match,Line,Line,1,5.25,0,5.25,0,5.25,0,5.25,0,0.75,0.75,1,0.5,1,2.125,1,0.5,1,2.125,0,0.0,0,0.0,0,0.0,0,0.0,0,,,,,0,30,30,30,,,,,229.6169021249807,234.8666272079863,230.09116120799445,231.08615550000104,231.7205427500012,232.72080141698825,229.6169021249807,229.6169021249807,229.62727512532925,229.6169021249807,229.6169021249807,229.6169021249807,229.62727512532925,229.6169021249807,234.8666272079863,235.67886316697695,237.7506575830048,241.60861216697958,235.67886316697695,235.67886316697695,240.94219070798135,236.12615266698413,237.1488140829897,237.7506575830048,238.77765704199555,235.67886316697695,235.67886316697695,235.65808608299704,235.67886316697695,235.67886316697695,235.67886316697695,235.65808608299704,235.67886316697695,235.67886316697695,240.94219070798135,235.67886316697695,240.94219070798135,240.87915358299506,241.66620045798481,235.67886316697695,1,1,0.8497750830138102,,reldom2_s031,001,2025-02-25_11h40.22.439,practice_test2_AC,2022.2.5,None,
24,Second_Order,4.0,viswhere,stimulus/viswhere_stim/150-deg_dot-right_mediumslateblue.png,stimulus/viswhere_stim/30-deg_dot-right_salmon.png,stimulus/viswhere_stim/120-deg_dot-right_royalblue.png,stimulus/viswhere_stim/120-deg_dot-left_salmon.png,stimulus/viswhat_stim/match_blank.png,stimulus/viswhat_stim/match_box.png,stimulus/viswhat_stim/match_yes.png,stimulus/viswhat_stim/match_no.png,2.0,Match,Dot,Line,2,5.25,0,5.25,0,5.25,0,5.25,0,0.75,0.75,1,0.5,1,2.125,1,0.5,1,2.125,0,0.0,0,0.0,0,0.0,0,0.0,0,,,,,0,31,31,31,,,,,241.66620045798481,246.91053891699994,242.15003804198932,243.13986904200283,243.76553495798726,244.7570690829889,241.66620045798481,241.66620045798481,241.67509179199698,241.66620045798481,241.66620045798481,241.66620045798481,241.67509179199698,241.66620045798481,246.91053891699994,247.71100662500248,249.79320862499299,253.65139866698883,247.71100662500248,247.71100662500248,252.9720591249934,248.15930345800007,249.17415304199676,249.79320862499299,250.8160879999923,247.71100662500248,247.71100662500248,247.68273554131935,247.71100662500248,247.71100662500248,247.71100662500248,247.68273554131935,247.71100662500248,247.71100662500248,252.9720591249934,247.71100662500248,252.9720591249934,252.90930124997976,253.83893270799308,247.71100662500248,1,0,0.9380366250115912,,reldom2_s031,001,2025-02-25_11h40.22.439,practice_test2_AC,2022.2.5,None,
0,0.0,None,fixation,stimulus/viswhere_stim/blank_white.png,stimulus/viswhere_stim/blank_white.png,stimulus/audwhere_stim/blank_white.png,stimulus/audwhere_stim/blank_white.png,stimulus/viswhere_stim/blank_white.png,stimulus/viswhere_stim/blank_white.png,stimulus/viswhat_stim/blank_white.png,stimulus/viswhat_stim/blank_white.png,0.0,0.0,0.0,0.0,0,0.0,0,0.0,0,0.0,0,0.0,0,0.0,0.0,0,0.0,0,0.0,0,0.0,0,0.0,0,0.0,0,0.0,0,0.0,0,0.0,7,,,,,0,32,32,32,,,,,253.83893270799308,253.83893270799308,253.83893270799308,253.83893270799308,253.83893270799308,253.83893270799308,253.83893270799308,253.83893270799308,253.73473200032217,253.83893270799308,253.83893270799308,253.83893270799308,253.73473200032217,253.83893270799308,253.83893270799308,253.83893270799308,253.83893270799308,253.83893270799308,253.83893270799308,253.83893270799308,253.83893270799308,253.83893270799308,253.83893270799308,253.83893270799308,253.83893270799308,253.83893270799308,253.83893270799308,253.78473200032218,253.83893270799308,253.83893270799308,253.83893270799308,253.78473200032218,253.83893270799308,253.83893270799308,253.83893270799308,253.83893270799308,253.83893270799308,259.0574171250046,259.0574171250046,260.9973119579954,None,0,,,reldom2_s031,001,2025-02-25_11h40.22.439,practice_test2_AC,2022.2.5,None,
,,,,,,,,,,,,,,,,,,,,,,,,,,,,,,,,,,,,,,,,,,,,,,,,,,,,,,,,,,,,,,,,,,,,,,,,,,,,,,,,,,,,,,,,,,,,,,,,,,,260.9973119579954,,,,,,,
