Trial,Order,Block,Type,Stimuli_File1,Stimuli_File2,Stimuli_File3,Stimuli_File4,Cue_File1,Cue_File2,Response_File_Yes,Response_File_No,Match,Cue_Dimension,Pair1_Dimension,Pair2_Dimension,Key,Cue1_Duration,Cue1_Onset,Cue2_Duration,Cue2_Onset,ResponseYes_Duration,ResponseYes_Onset,ResponseNo_Duration,ResponseNo_Onset,ITI_Within,ITI_Between,Image1_Duration,Image1_Onset,Image2_Duration,Image2_Onset,Image3_Duration,Image3_Onset,Image4_Duration,Image4_Onset,Sound1_Duration,Sound1_Onset,Sound2_Duration,Sound2_Onset,Sound3_Duration,Sound3_Onset,Sound4_Duration,Sound4_Onset,Fixation_Duration,trials_2.thisRepN,trials_2.thisTrialN,trials_2.thisN,trials_2.thisIndex,trials.thisRepN,trials.thisTrialN,trials.thisN,trials.thisIndex,text_start.started,key_resp_start.started,key_resp_start.keys,key_resp_start.rt,text2.started,key_resp_2.started,key_resp_2.keys,key_resp_2.rt,cue_file1.started,cue_file1.stopped,image_1.started,image_1.stopped,image_2.started,image_2.stopped,sound_icon1.started,sound_icon1.stopped,sound_1.started,sound_1.stopped,sound_icon2.started,sound_icon2.stopped,sound_2.started,sound_2.stopped,image_blank_1.started,image_blank_1.stopped,key_press.started,key_press.stopped,fixation_text.started,cue_file2.started,cue_file2.stopped,image_3.started,image_3.stopped,image_4.started,image_4.stopped,sound_icon3.started,sound_icon3.stopped,sound_3.started,sound_3.stopped,sound_icon4.started,sound_icon4.stopped,sound_4.started,sound_4.stopped,response_yes.started,response_yes.stopped,response_no.started,response_no.stopped,iti_blank.started,iti_blank.stopped,fixation_text.stopped,key_press.keys,key_press.corr,key_press.rt,participant,session,date,expName,psychopyVersion,frameRate,
,,,,,,,,,,,,,,,,,,,,,,,,,,,,,,,,,,,,,,,,,,,,,,,,,,,,7.005551499999456,7.005551499999456,2,1.52208091600005,,,,,,,,,,,,,,,,,,,,,,,,,,,,,,,,,,,,,,,,,,,,,,,,reldom2_s040,001,2025-03-19_17h40.48.425,Aud-A-Scan_AC,2022.2.5,None,
,,,,,,,,,,,,,,,,,,,,,,,,,,,,,,,,,,,,,,,,,,,,0,0,0,0,,,,,,,,,8.56082087499999,8.56082087499999,5,18.370574083000065,,,,,,,,,,,,,,,,,,,,,,,,,,,,,,,,,,,,,,,,,,,,reldom2_s040,001,2025-03-19_17h40.48.425,Aud-A-Scan_AC,2022.2.5,None,
,,,,,,,,,,,,,,,,,,,,,,,,,,,,,,,,,,,,,,,,,,,,1,0,1,0,,,,,,,,,26.944086292000065,26.944086292000065,5,1.9870660420001514,,,,,,,,,,,,,,,,,,,,,,,,,,,,,,,,,,,,,,,,,,,,reldom2_s040,001,2025-03-19_17h40.48.425,Aud-A-Scan_AC,2022.2.5,None,
,,,,,,,,,,,,,,,,,,,,,,,,,,,,,,,,,,,,,,,,,,,,2,0,2,0,,,,,,,,,28.956636750000143,28.956636750000143,5,1.973853749999762,,,,,,,,,,,,,,,,,,,,,,,,,,,,,,,,,,,,,,,,,,,,reldom2_s040,001,2025-03-19_17h40.48.425,Aud-A-Scan_AC,2022.2.5,None,
,,,,,,,,,,,,,,,,,,,,,,,,,,,,,,,,,,,,,,,,,,,,3,0,3,0,,,,,,,,,30.943494250000185,30.943494250000185,5,1.9899954580005215,,,,,,,,,,,,,,,,,,,,,,,,,,,,,,,,,,,,,,,,,,,,reldom2_s040,001,2025-03-19_17h40.48.425,Aud-A-Scan_AC,2022.2.5,None,
0,0.0,None,fixation,stimulus/audwhere_stim/blank_white.png,stimulus/audwhere_stim/blank_white.png,stimulus/audwhat_stim/blank_white.png,stimulus/audwhat_stim/blank_white.png,stimulus/audwhere_stim/blank_white.png,stimulus/audwhere_stim/blank_white.png,stimulus/audwhere_stim/blank_white.png,stimulus/audwhere_stim/blank_white.png,0.0,0.0,0.0,0.0,0,0.0,0,0.0,0,0.0,0,0.0,0,0.0,0.0,0,0,0,0,0,0,0,0,0,0.0,0,0.0,0,0.0,0,0.0,16,,,,,0,0,0,0,,,,,,,,,33.144623874999525,33.144623874999525,33.144623874999525,33.144623874999525,33.144623874999525,33.144623874999525,33.144623874999525,33.144623874999525,33.052089541666525,33.144623874999525,33.144623874999525,33.144623874999525,33.052089541666525,33.144623874999525,33.144623874999525,33.144623874999525,33.144623874999525,33.144623874999525,33.144623874999525,33.144623874999525,33.144623874999525,33.144623874999525,33.144623874999525,33.144623874999525,33.144623874999525,33.144623874999525,33.144623874999525,33.10208954166652,33.144623874999525,33.144623874999525,33.144623874999525,33.10208954166652,33.144623874999525,33.144623874999525,33.144623874999525,33.144623874999525,33.144623874999525,38.36435329199958,38.36435329199958,49.36903075000009,None,0,,reldom2_s040,001,2025-03-19_17h40.48.425,Aud-A-Scan_AC,2022.2.5,None,
1,First_Order,1.0,audwhere,stimulus/audwhere_stim/dummy.wav,stimulus/audwhere_stim/dummy.wav,stimulus/audwhere_stim/left_away_280h.wav,stimulus/audwhere_stim/right_away_290h.wav,stimulus/audwhere_stim/blank_white.png,stimulus/audwhere_stim/direction_box.png,stimulus/audwhere_stim/direction_yes.png,stimulus/audwhere_stim/direction_no.png,None,Direction,None,Direction,1,0.0,0,5.125,0,5.125,0,5.125,0,0.0,0.625,0,0,0,0,0,0,0,0,0,0.0,0,0.0,1,0.5,1,2.125,0,,,,,0,1,1,1,,,,,,,,,49.36903075000009,49.36903075000009,49.36903075000009,49.36903075000009,49.36903075000009,49.36903075000009,49.36903075000009,49.36903075000009,49.29109825000014,49.36903075000009,49.36903075000009,49.36903075000009,49.29109825000014,49.36903075000009,49.36903075000009,49.36903075000009,51.472638874999575,,49.36903075000009,49.36903075000009,54.5510281249999,49.36903075000009,49.36903075000009,49.36903075000009,49.36903075000009,49.8374733339997,50.91141670900015,49.80637366666657,,51.472638874999575,52.54645320899999,51.44230200066637,,49.36903075000009,54.5510281249999,49.36903075000009,54.5510281249999,54.59247604200027,55.250207000000046,49.36903075000009,1,1,1.078503875000024,reldom2_s040,001,2025-03-19_17h40.48.425,Aud-A-Scan_AC,2022.2.5,None,
2,First_Order,1.0,audwhere,stimulus/audwhere_stim/dummy.wav,stimulus/audwhere_stim/dummy.wav,stimulus/audwhere_stim/left_away_270h.wav,stimulus/audwhere_stim/left_toward_270h.wav,stimulus/audwhere_stim/blank_white.png,stimulus/audwhere_stim/direction_box.png,stimulus/audwhere_stim/direction_yes.png,stimulus/audwhere_stim/direction_no.png,None,Direction,None,Side,2,0.0,0,5.125,0,5.125,0,5.125,0,0.0,0.625,0,0,0,0,0,0,0,0,0,0.0,0,0.0,1,0.5,1,2.125,0,,,,,0,2,2,2,,,,,,,,,55.462816084000224,55.462816084000224,55.462816084000224,55.462816084000224,55.462816084000224,55.462816084000224,55.462816084000224,55.462816084000224,55.38354033333338,55.462816084000224,55.462816084000224,55.462816084000224,55.38354033333338,55.462816084000224,55.462816084000224,55.462816084000224,57.56755387500016,,55.462816084000224,55.462816084000224,60.65158900000006,55.462816084000224,55.462816084000224,55.462816084000224,55.462816084000224,55.93015516699961,57.00716666700009,55.899865750666564,,57.56755387500016,58.643464458999915,57.537228125666175,,55.462816084000224,60.65158900000006,55.462816084000224,60.65158900000006,60.69264841699987,61.3509282089999,55.462816084000224,2,1,1.2445702909999454,reldom2_s040,001,2025-03-19_17h40.48.425,Aud-A-Scan_AC,2022.2.5,None,
3,First_Order,1.0,audwhere,stimulus/audwhere_stim/dummy.wav,stimulus/audwhere_stim/dummy.wav,stimulus/audwhere_stim/left_toward_300h.wav,stimulus/audwhere_stim/left_away_280h.wav,stimulus/audwhere_stim/blank_white.png,stimulus/audwhere_stim/direction_box.png,stimulus/audwhere_stim/direction_yes.png,stimulus/audwhere_stim/direction_no.png,None,Direction,None,Side,2,0.0,0,5.125,0,5.125,0,5.125,0,0.0,0.625,0,0,0,0,0,0,0,0,0,0.0,0,0.0,1,0.5,1,2.125,0,,,,,0,3,3,3,,,,,,,,,61.56462437499977,61.56462437499977,61.56462437499977,61.56462437499977,61.56462437499977,61.56462437499977,61.56462437499977,61.56462437499977,61.484261542333236,61.56462437499977,61.56462437499977,61.56462437499977,61.484261542333236,61.56462437499977,61.56462437499977,61.56462437499977,63.66720029199951,,61.56462437499977,61.56462437499977,66.75591916699977,61.56462437499977,61.56462437499977,61.56462437499977,61.56462437499977,62.03158079199966,63.106895791999705,62.00134991666643,,63.66720029199951,64.69824554200022,63.636786458666634,,61.56462437499977,66.75591916699977,61.56462437499977,66.75591916699977,66.75591916699977,67.41381820900006,61.56462437499977,2,1,1.1075392079992525,reldom2_s040,001,2025-03-19_17h40.48.425,Aud-A-Scan_AC,2022.2.5,None,
4,First_Order,1.0,audwhere,stimulus/audwhere_stim/dummy.wav,stimulus/audwhere_stim/dummy.wav,stimulus/audwhere_stim/left_away_270h.wav,stimulus/audwhere_stim/left_toward_290h.wav,stimulus/audwhere_stim/blank_white.png,stimulus/audwhere_stim/side_box.png,stimulus/audwhere_stim/side_yes.png,stimulus/audwhere_stim/side_no.png,None,Side,None,Side,1,0.0,0,5.125,0,5.125,0,5.125,0,0.0,0.625,0,0,0,0,0,0,0,0,0,0.0,0,0.0,1,0.5,1,2.125,0,,,,,0,4,4,4,,,,,,,,,67.66793366699949,67.66793366699949,67.66793366699949,67.66793366699949,67.66793366699949,67.66793366699949,67.66793366699949,67.66793366699949,67.58796900033315,67.66793366699949,67.66793366699949,67.66793366699949,67.58796900033315,67.66793366699949,67.66793366699949,67.66793366699949,69.76235108399942,73.80650141699971,67.66793366699949,67.66793366699949,72.83076237499972,67.66793366699949,67.66793366699949,67.66793366699949,67.66793366699949,68.13389704200017,69.20483283399972,68.10386495866648,,69.76235108399942,70.83479054199961,69.73261983366616,,67.66793366699949,72.83076237499972,67.66793366699949,72.83076237499972,72.87190241699955,73.53320383400023,67.66793366699949,1,1,0.9769866670003466,reldom2_s040,001,2025-03-19_17h40.48.425,Aud-A-Scan_AC,2022.2.5,None,
0,0.0,None,fixation,stimulus/audwhere_stim/blank_white.png,stimulus/audwhere_stim/blank_white.png,stimulus/audwhat_stim/blank_white.png,stimulus/audwhat_stim/blank_white.png,stimulus/audwhere_stim/blank_white.png,stimulus/audwhere_stim/blank_white.png,stimulus/audwhere_stim/blank_white.png,stimulus/audwhere_stim/blank_white.png,0.0,0.0,0.0,0.0,0,0.0,0,0.0,0,0.0,0,0.0,0,0.0,0.0,0,0,0,0,0,0,0,0,0,0.0,0,0.0,0,0.0,0,0.0,9,,,,,0,5,5,5,,,,,,,,,73.80650141699971,73.80650141699971,73.80650141699971,73.80650141699971,73.80650141699971,73.80650141699971,73.80650141699971,73.80650141699971,73.70707470833361,73.80650141699971,73.80650141699971,73.80650141699971,73.70707470833361,73.80650141699971,73.80650141699971,73.80650141699971,73.80650141699971,73.80650141699971,73.80650141699971,73.80650141699971,73.80650141699971,73.80650141699971,73.80650141699971,73.80650141699971,73.80650141699971,73.80650141699971,73.80650141699971,73.75707470833362,73.80650141699971,73.80650141699971,73.80650141699971,73.75707470833362,73.80650141699971,73.80650141699971,73.80650141699971,73.80650141699971,73.80650141699971,79.00610204199984,79.00610204199984,82.95236016699982,None,0,,reldom2_s040,001,2025-03-19_17h40.48.425,Aud-A-Scan_AC,2022.2.5,None,
5,Second_Order,1.0,audwhere,stimulus/audwhere_stim/left_away_290h.wav,stimulus/audwhere_stim/right_away_300h.wav,stimulus/audwhere_stim/right_toward_290h.wav,stimulus/audwhere_stim/left_toward_300h.wav,stimulus/audwhere_stim/match_blank.png,stimulus/audwhere_stim/match_box.png,stimulus/audwhere_stim/match_yes.png,stimulus/audwhere_stim/match_no.png,1.0,Match,Direction,Direction,1,5.125,0,5.125,0,5.125,0,5.125,0,0.75,0.75,0,0,0,0,0,0,0,0,1,0.5,1,2.125,1,0.5,1,2.125,0,,,,,0,6,6,6,,,,,,,,,82.95236016699982,88.07505229199978,82.95236016699982,82.95236016699982,82.95236016699982,82.95236016699982,83.39982812499966,84.38644104200011,83.41403200066658,,85.03500474999964,86.02402091699969,85.03811316666658,,88.07505229199978,88.92848420900009,90.9804844170003,94.914626709,88.92848420900009,88.92848420900009,94.10064933400008,88.92848420900009,88.92848420900009,88.92848420900009,88.92848420900009,89.34846254199965,90.42023929199968,89.31840783366648,,90.9804844170003,92.05344024999977,90.94907720866674,,88.92848420900009,94.10064933400008,88.92848420900009,94.10064933400008,94.10064933400008,,88.92848420900009,1,1,1.2502319579998584,reldom2_s040,001,2025-03-19_17h40.48.425,Aud-A-Scan_AC,2022.2.5,None,
6,Second_Order,1.0,audwhere,stimulus/audwhere_stim/left_away_280h.wav,stimulus/audwhere_stim/right_away_280h.wav,stimulus/audwhere_stim/left_away_300h.wav,stimulus/audwhere_stim/left_toward_280h.wav,stimulus/audwhere_stim/match_blank.png,stimulus/audwhere_stim/match_box.png,stimulus/audwhere_stim/match_yes.png,stimulus/audwhere_stim/match_no.png,2.0,Match,Direction,Side,2,5.125,0,5.125,0,5.125,0,5.125,0,0.625,0.625,0,0,0,0,0,0,0,0,1,0.5,1,2.125,1,0.5,1,2.125,0,,,,,0,7,7,7,,,,,,,,,94.914626709,100.03597291699953,94.914626709,94.914626709,94.914626709,94.914626709,95.37476579200029,96.36412554199978,95.37666341666615,96.36412554199978,96.99963962499987,97.99808812500032,97.0122562086665,,100.03597291699953,100.77051983399997,102.81914812499963,,100.77051983399997,100.77051983399997,105.93994087499959,100.77051983399997,100.77051983399997,100.77051983399997,100.77051983399997,101.19061391699961,102.26126416700026,101.16062566666666,,102.81914812499963,103.8929359169997,102.78887550066635,,100.77051983399997,105.93994087499959,100.77051983399997,105.93994087499959,105.93994087499959,106.59479354199993,100.77051983399997,2,1,1.9631106249998993,reldom2_s040,001,2025-03-19_17h40.48.425,Aud-A-Scan_AC,2022.2.5,None,
0,0.0,None,fixation,stimulus/audwhere_stim/blank_white.png,stimulus/audwhere_stim/blank_white.png,stimulus/audwhat_stim/blank_white.png,stimulus/audwhat_stim/blank_white.png,stimulus/audwhere_stim/blank_white.png,stimulus/audwhere_stim/blank_white.png,stimulus/audwhere_stim/blank_white.png,stimulus/audwhere_stim/blank_white.png,0.0,0.0,0.0,0.0,0,0.0,0,0.0,0,0.0,0,0.0,0,0.0,0.0,0,0,0,0,0,0,0,0,0,0.0,0,0.0,0,0.0,0,0.0,10,,,,,0,8,8,8,,,,,,,,,106.86961041699942,106.86961041699942,106.86961041699942,106.86961041699942,106.86961041699942,106.86961041699942,106.86961041699942,106.86961041699942,106.76894908333281,106.86961041699942,106.86961041699942,106.86961041699942,106.76894908333281,106.86961041699942,106.86961041699942,106.86961041699942,106.86961041699942,106.86961041699942,106.86961041699942,106.86961041699942,106.86961041699942,106.86961041699942,106.86961041699942,106.86961041699942,106.86961041699942,106.86961041699942,106.86961041699942,106.81894908333283,106.86961041699942,106.86961041699942,106.86961041699942,106.81894908333283,106.86961041699942,106.86961041699942,106.86961041699942,106.86961041699942,106.86961041699942,112.06666858399967,112.06666858399967,117.11576883399994,None,0,,reldom2_s040,001,2025-03-19_17h40.48.425,Aud-A-Scan_AC,2022.2.5,None,
7,First_Order,2.0,audwhere,stimulus/audwhere_stim/dummy.wav,stimulus/audwhere_stim/dummy.wav,stimulus/audwhere_stim/left_away_300h.wav,stimulus/audwhere_stim/right_away_300h.wav,stimulus/audwhere_stim/blank_white.png,stimulus/audwhere_stim/side_box.png,stimulus/audwhere_stim/side_yes.png,stimulus/audwhere_stim/side_no.png,None,Side,None,Direction,2,0.0,0,5.125,0,5.125,0,5.125,0,0.0,0.625,0,0,0,0,0,0,0,0,0,0.0,0,0.0,1,0.5,1,2.125,0,,,,,0,9,9,9,,,,,,,,,117.11576883399994,117.11576883399994,117.11576883399994,117.11576883399994,117.11576883399994,117.11576883399994,117.11576883399994,117.11576883399994,117.04193450066639,117.11576883399994,117.11576883399994,117.11576883399994,117.04193450066639,117.11576883399994,117.11576883399994,117.11576883399994,119.21258941699944,123.23116079200008,117.11576883399994,117.11576883399994,122.28258929200001,117.11576883399994,117.11576883399994,117.11576883399994,117.11576883399994,117.58215300000029,118.65221145899977,117.55200791666654,,119.21258941699944,120.2857897089998,119.18304008366637,,117.11576883399994,122.28258929200001,117.11576883399994,122.28258929200001,122.32358791699971,122.97814929200013,117.11576883399994,2,1,0.9268834999993487,reldom2_s040,001,2025-03-19_17h40.48.425,Aud-A-Scan_AC,2022.2.5,None,
8,First_Order,2.0,audwhere,stimulus/audwhere_stim/dummy.wav,stimulus/audwhere_stim/dummy.wav,stimulus/audwhere_stim/left_away_280h.wav,stimulus/audwhere_stim/right_away_270h.wav,stimulus/audwhere_stim/blank_white.png,stimulus/audwhere_stim/side_box.png,stimulus/audwhere_stim/side_yes.png,stimulus/audwhere_stim/side_no.png,None,Side,None,Direction,2,0.0,0,5.125,0,5.125,0,5.125,0,0.0,0.625,0,0,0,0,0,0,0,0,0,0.0,0,0.0,1,0.5,1,2.125,0,,,,,0,10,10,10,,,,,,,,,123.23116079200008,123.23116079200008,123.23116079200008,123.23116079200008,123.23116079200008,123.23116079200008,123.23116079200008,123.23116079200008,123.15232770833347,123.23116079200008,123.23116079200008,123.23116079200008,123.15232770833347,123.23116079200008,123.23116079200008,123.23116079200008,125.32793354200021,129.35046933400008,123.23116079200008,123.23116079200008,128.39964637499997,123.23116079200008,123.23116079200008,123.23116079200008,123.23116079200008,123.69838091699967,124.76878658399983,123.66680504166676,,125.32793354200021,126.40032662500016,125.29799570866659,,123.23116079200008,128.39964637499997,123.23116079200008,128.39964637499997,128.44060512499982,129.09690741699978,123.23116079200008,2,1,1.2762981669993678,reldom2_s040,001,2025-03-19_17h40.48.425,Aud-A-Scan_AC,2022.2.5,None,
9,First_Order,2.0,audwhere,stimulus/audwhere_stim/dummy.wav,stimulus/audwhere_stim/dummy.wav,stimulus/audwhere_stim/left_away_280h.wav,stimulus/audwhere_stim/right_away_300h.wav,stimulus/audwhere_stim/blank_white.png,stimulus/audwhere_stim/direction_box.png,stimulus/audwhere_stim/direction_yes.png,stimulus/audwhere_stim/direction_no.png,None,Direction,None,Direction,1,0.0,0,5.125,0,5.125,0,5.125,0,0.0,0.625,0,0,0,0,0,0,0,0,0,0.0,0,0.0,1,0.5,1,2.125,0,,,,,0,11,11,11,,,,,,,,,129.35046933400008,129.35046933400008,129.35046933400008,129.35046933400008,129.35046933400008,129.35046933400008,129.35046933400008,129.35046933400008,129.27093170833282,129.35046933400008,129.35046933400008,129.35046933400008,129.27093170833282,129.35046933400008,129.35046933400008,129.35046933400008,131.46072812500006,135.46906570899955,129.35046933400008,129.35046933400008,134.51142304199948,129.35046933400008,129.35046933400008,129.35046933400008,129.35046933400008,129.8192175839995,130.85003620899988,129.78886670866657,,131.46072812500006,132.49248149999949,131.43008145866614,,129.35046933400008,134.51142304199948,129.35046933400008,134.51142304199948,134.55278233399986,135.21442291699987,129.35046933400008,1,1,1.2848094579994722,reldom2_s040,001,2025-03-19_17h40.48.425,Aud-A-Scan_AC,2022.2.5,None,
10,First_Order,2.0,audwhere,stimulus/audwhere_stim/dummy.wav,stimulus/audwhere_stim/dummy.wav,stimulus/audwhere_stim/right_away_270h.wav,stimulus/audwhere_stim/right_toward_300h.wav,stimulus/audwhere_stim/blank_white.png,stimulus/audwhere_stim/side_box.png,stimulus/audwhere_stim/side_yes.png,stimulus/audwhere_stim/side_no.png,None,Side,None,Side,1,0.0,0,5.125,0,5.125,0,5.125,0,0.0,0.625,0,0,0,0,0,0,0,0,0,0.0,0,0.0,1,0.5,1,2.125,0,,,,,0,12,12,12,,,,,,,,,135.46906570899955,135.46906570899955,135.46906570899955,135.46906570899955,135.46906570899955,135.46906570899955,135.46906570899955,135.46906570899955,135.3890729173328,135.46906570899955,135.46906570899955,135.46906570899955,135.3890729173328,135.46906570899955,135.46906570899955,135.46906570899955,137.56506233399978,141.61095187499996,135.46906570899955,135.46906570899955,140.63817041699986,135.46906570899955,135.46906570899955,135.46906570899955,135.46906570899955,135.93510824999976,137.00722095899982,135.90474854166612,,137.56506233399978,138.63967808399957,137.53516420866643,,135.46906570899955,140.63817041699986,135.46906570899955,140.63817041699986,140.67949599999974,141.3365363339999,135.46906570899955,1,1,0.8491105840003002,reldom2_s040,001,2025-03-19_17h40.48.425,Aud-A-Scan_AC,2022.2.5,None,
0,0.0,None,fixation,stimulus/audwhere_stim/blank_white.png,stimulus/audwhere_stim/blank_white.png,stimulus/audwhat_stim/blank_white.png,stimulus/audwhat_stim/blank_white.png,stimulus/audwhere_stim/blank_white.png,stimulus/audwhere_stim/blank_white.png,stimulus/audwhere_stim/blank_white.png,stimulus/audwhere_stim/blank_white.png,0.0,0.0,0.0,0.0,0,0.0,0,0.0,0,0.0,0,0.0,0,0.0,0.0,0,0,0,0,0,0,0,0,0,0.0,0,0.0,0,0.0,0,0.0,8,,,,,0,13,13,13,,,,,,,,,141.61095187499996,141.61095187499996,141.61095187499996,141.61095187499996,141.61095187499996,141.61095187499996,141.61095187499996,141.61095187499996,141.51059220833318,141.61095187499996,141.61095187499996,141.61095187499996,141.51059220833318,141.61095187499996,141.61095187499996,141.61095187499996,141.61095187499996,141.61095187499996,141.61095187499996,141.61095187499996,141.61095187499996,141.61095187499996,141.61095187499996,141.61095187499996,141.61095187499996,141.61095187499996,141.61095187499996,141.56059220833316,141.61095187499996,141.61095187499996,141.61095187499996,141.56059220833316,141.61095187499996,141.61095187499996,141.61095187499996,141.61095187499996,141.61095187499996,146.81364225000016,146.81364225000016,149.74636541699965,None,0,,reldom2_s040,001,2025-03-19_17h40.48.425,Aud-A-Scan_AC,2022.2.5,None,
11,Second_Order,2.0,audwhere,stimulus/audwhere_stim/left_away_280h.wav,stimulus/audwhere_stim/left_toward_280h.wav,stimulus/audwhere_stim/right_toward_280h.wav,stimulus/audwhere_stim/left_toward_270h.wav,stimulus/audwhere_stim/match_blank.png,stimulus/audwhere_stim/match_box.png,stimulus/audwhere_stim/match_yes.png,stimulus/audwhere_stim/match_no.png,2.0,Match,Side,Direction,2,5.125,0,5.125,0,5.125,0,5.125,0,0.75,0.75,0,0,0,0,0,0,0,0,1,0.5,1,2.125,1,0.5,1,2.125,0,,,,,0,14,14,14,,,,,,,,,149.74636541699965,154.86732454199955,149.74636541699965,149.74636541699965,149.74636541699965,149.74636541699965,150.20624804199997,151.20424416700007,150.21915000066682,,151.82766158399954,152.8244915839996,151.83950604166628,,154.86732454199955,155.71668808399954,157.76893820900023,161.71017216699966,155.71668808399954,155.71668808399954,160.89400404200023,155.71668808399954,155.71668808399954,155.71668808399954,155.71668808399954,156.13702870899942,157.21049562499957,156.10717250066617,,157.76893820900023,158.84245091699995,157.73896141666617,,155.71668808399954,160.89400404200023,155.71668808399954,160.89400404200023,160.89400404200023,,155.71668808399954,2,1,1.5264491249999992,reldom2_s040,001,2025-03-19_17h40.48.425,Aud-A-Scan_AC,2022.2.5,None,
12,Second_Order,2.0,audwhere,stimulus/audwhere_stim/left_away_300h.wav,stimulus/audwhere_stim/right_away_270h.wav,stimulus/audwhere_stim/left_toward_280h.wav,stimulus/audwhere_stim/right_toward_280h.wav,stimulus/audwhere_stim/match_blank.png,stimulus/audwhere_stim/match_box.png,stimulus/audwhere_stim/match_yes.png,stimulus/audwhere_stim/match_no.png,1.0,Match,Direction,Direction,1,5.125,0,5.125,0,5.125,0,5.125,0,0.625,0.625,0,0,0,0,0,0,0,0,1,0.5,1,2.125,1,0.5,1,2.125,0,,,,,0,15,15,15,,,,,,,,,161.71017216699966,166.82831483399968,161.71017216699966,161.71017216699966,161.71017216699966,161.71017216699966,162.1657217920001,163.15296870899965,162.17928916666668,,163.78707708399998,164.78556516699973,163.79975116666654,,166.82831483399968,167.55528691699965,169.60115066700018,,167.55528691699965,167.55528691699965,172.72361066699978,167.55528691699965,167.55528691699965,167.55528691699965,167.55528691699965,167.9738807499998,169.04429849999997,167.94385412566615,,169.60115066700018,170.6747439589999,169.5711508336665,,167.55528691699965,172.72361066699978,167.55528691699965,172.72361066699978,172.72361066699978,173.3811187499996,167.55528691699965,1,1,0.9335339580002255,reldom2_s040,001,2025-03-19_17h40.48.425,Aud-A-Scan_AC,2022.2.5,None,
0,0.0,None,fixation,stimulus/audwhere_stim/blank_white.png,stimulus/audwhere_stim/blank_white.png,stimulus/audwhat_stim/blank_white.png,stimulus/audwhat_stim/blank_white.png,stimulus/audwhere_stim/blank_white.png,stimulus/audwhere_stim/blank_white.png,stimulus/audwhere_stim/blank_white.png,stimulus/audwhere_stim/blank_white.png,0.0,0.0,0.0,0.0,0,0.0,0,0.0,0,0.0,0,0.0,0,0.0,0.0,0,0,0,0,0,0,0,0,0,0.0,0,0.0,0,0.0,0,0.0,8,,,,,0,16,16,16,,,,,,,,,173.65568604199962,173.65568604199962,173.65568604199962,173.65568604199962,173.65568604199962,173.65568604199962,173.65568604199962,173.65568604199962,173.55561070833315,173.65568604199962,173.65568604199962,173.65568604199962,173.55561070833315,173.65568604199962,173.65568604199962,173.65568604199962,173.65568604199962,173.65568604199962,173.65568604199962,173.65568604199962,173.65568604199962,173.65568604199962,173.65568604199962,173.65568604199962,173.65568604199962,173.65568604199962,173.65568604199962,173.60561070833313,173.65568604199962,173.65568604199962,173.65568604199962,173.60561070833313,173.65568604199962,173.65568604199962,173.65568604199962,173.65568604199962,173.65568604199962,178.85165691699967,178.85165691699967,181.9312006250002,None,0,,reldom2_s040,001,2025-03-19_17h40.48.425,Aud-A-Scan_AC,2022.2.5,None,
13,First_Order,3.0,audwhat,stimulus/audwhat_stim/dummy.wav,stimulus/audwhat_stim/dummy.wav,stimulus/audwhat_stim/percussion xylophone_high-pitch_F_loud.wav,stimulus/audwhat_stim/percussion mallet_low-pitch_Dtri_loud.wav,stimulus/audwhat_stim/blank_white.png,stimulus/audwhat_stim/category_box.png,stimulus/audwhat_stim/category_yes.png,stimulus/audwhat_stim/category_no.png,None,Category,None,Category,1,0.0,0,5.125,0,5.125,0,5.125,0,0.0,0.625,0,0,0,0,0,0,0,0,0,0.0,0,0.0,1,0.5,1,2.125,0,,,,,0,17,17,17,,,,,,,,,181.9312006250002,181.9312006250002,181.9312006250002,181.9312006250002,181.9312006250002,181.9312006250002,181.9312006250002,181.9312006250002,181.85734987566656,181.9312006250002,181.9312006250002,181.9312006250002,181.85734987566656,181.9312006250002,181.9312006250002,181.9312006250002,184.03933462500027,,181.9312006250002,181.9312006250002,187.08542750000015,181.9312006250002,181.9312006250002,181.9312006250002,181.9312006250002,182.40000079199945,183.4315001670002,182.3697798336664,183.4315001670002,184.03933462500027,185.07206162500006,184.00940233366626,,181.9312006250002,187.08542750000015,181.9312006250002,187.08542750000015,187.1267425420001,187.78457437499947,181.9312006250002,2,0,1.286353749999762,reldom2_s040,001,2025-03-19_17h40.48.425,Aud-A-Scan_AC,2022.2.5,None,
14,First_Order,3.0,audwhat,stimulus/audwhat_stim/dummy.wav,stimulus/audwhat_stim/dummy.wav,stimulus/audwhat_stim/string cello_low-pitch_Ftri_loud.wav,stimulus/audwhat_stim/string viola_high-pitch_F_loud.wav,stimulus/audwhat_stim/blank_white.png,stimulus/audwhat_stim/category_box.png,stimulus/audwhat_stim/category_yes.png,stimulus/audwhat_stim/category_no.png,None,Category,None,Category,1,0.0,0,5.125,0,5.125,0,5.125,0,0.0,0.625,0,0,0,0,0,0,0,0,0,0.0,0,0.0,1,0.5,1,2.125,0,,,,,0,18,18,18,,,,,,,,,188.03941333399962,188.03941333399962,188.03941333399962,188.03941333399962,188.03941333399962,188.03941333399962,188.03941333399962,188.03941333399962,187.9590155423331,188.03941333399962,188.03941333399962,188.03941333399962,187.9590155423331,188.03941333399962,188.03941333399962,188.03941333399962,190.14490295900032,,188.03941333399962,188.03941333399962,193.18948612500026,188.03941333399962,188.03941333399962,188.03941333399962,188.03941333399962,188.50741537500016,189.53775266699995,188.4771412506664,,190.14490295900032,191.17860716699943,190.11462333366697,,188.03941333399962,193.18948612500026,188.03941333399962,193.18948612500026,193.231139042,193.88899775000027,188.03941333399962,1,1,0.7953510420002203,reldom2_s040,001,2025-03-19_17h40.48.425,Aud-A-Scan_AC,2022.2.5,None,
15,First_Order,3.0,audwhat,stimulus/audwhat_stim/dummy.wav,stimulus/audwhat_stim/dummy.wav,stimulus/audwhat_stim/string viola_low-pitch_D_loud.wav,stimulus/audwhat_stim/percussion mallet_low-pitch_D_loud.wav,stimulus/audwhat_stim/blank_white.png,stimulus/audwhat_stim/pitch_box.png,stimulus/audwhat_stim/pitch_yes.png,stimulus/audwhat_stim/pitch_no.png,None,Pitch,None,Pitch,1,0.0,0,5.125,0,5.125,0,5.125,0,0.0,0.625,0,0,0,0,0,0,0,0,0,0.0,0,0.0,1,0.5,1,2.125,0,,,,,0,19,19,19,,,,,,,,,194.14344362500015,194.14344362500015,194.14344362500015,194.14344362500015,194.14344362500015,194.14344362500015,194.14344362500015,194.14344362500015,194.06317970833348,194.14344362500015,194.14344362500015,194.14344362500015,194.06317970833348,194.14344362500015,194.14344362500015,194.14344362500015,196.24555425000017,,194.14344362500015,194.14344362500015,199.32533154199973,194.14344362500015,194.14344362500015,194.14344362500015,194.14344362500015,194.6101613339997,195.6856362919998,194.57993854166696,,196.24555425000017,197.27761429200018,196.21477558366612,,194.14344362500015,199.32533154199973,194.14344362500015,199.32533154199973,199.366617959,200.02409741700012,194.14344362500015,2,0,0.7335807919998842,reldom2_s040,001,2025-03-19_17h40.48.425,Aud-A-Scan_AC,2022.2.5,None,
16,First_Order,3.0,audwhat,stimulus/audwhat_stim/dummy.wav,stimulus/audwhat_stim/dummy.wav,stimulus/audwhat_stim/string cello_low-pitch_D_loud.wav,stimulus/audwhat_stim/string viola_high-pitch_Dtri_loud.wav,stimulus/audwhat_stim/blank_white.png,stimulus/audwhat_stim/pitch_box.png,stimulus/audwhat_stim/pitch_yes.png,stimulus/audwhat_stim/pitch_no.png,None,Pitch,None,Category,2,0.0,0,5.125,0,5.125,0,5.125,0,0.0,0.625,0,0,0,0,0,0,0,0,0,0.0,0,0.0,1,0.5,1,2.125,0,,,,,0,20,20,20,,,,,,,,,200.23717254199983,200.23717254199983,200.23717254199983,200.23717254199983,200.23717254199983,200.23717254199983,200.23717254199983,200.23717254199983,200.15743075033348,200.23717254199983,200.23717254199983,200.23717254199983,200.15743075033348,200.23717254199983,200.23717254199983,200.23717254199983,202.33524116700028,,200.23717254199983,200.23717254199983,205.41852599999947,200.23717254199983,200.23717254199983,200.23717254199983,200.23717254199983,200.70420108399958,201.7777855839995,200.67425475066673,,202.33524116700028,203.36573475000023,202.30510241666641,,200.23717254199983,205.41852599999947,200.23717254199983,205.41852599999947,205.46004312500008,206.11706587499975,200.23717254199983,1,0,1.096579957999893,reldom2_s040,001,2025-03-19_17h40.48.425,Aud-A-Scan_AC,2022.2.5,None,
0,0.0,None,fixation,stimulus/audwhere_stim/blank_white.png,stimulus/audwhere_stim/blank_white.png,stimulus/audwhat_stim/blank_white.png,stimulus/audwhat_stim/blank_white.png,stimulus/audwhere_stim/blank_white.png,stimulus/audwhere_stim/blank_white.png,stimulus/audwhere_stim/blank_white.png,stimulus/audwhere_stim/blank_white.png,0.0,0.0,0.0,0.0,0,0.0,0,0.0,0,0.0,0,0.0,0,0.0,0.0,0,0,0,0,0,0,0,0,0,0.0,0,0.0,0,0.0,0,0.0,8,,,,,0,21,21,21,,,,,,,,,206.35095979200014,206.35095979200014,206.35095979200014,206.35095979200014,206.35095979200014,206.35095979200014,206.35095979200014,206.35095979200014,206.2503992083331,206.35095979200014,206.35095979200014,206.35095979200014,206.2503992083331,206.35095979200014,206.35095979200014,206.35095979200014,206.35095979200014,206.35095979200014,206.35095979200014,206.35095979200014,206.35095979200014,206.35095979200014,206.35095979200014,206.35095979200014,206.35095979200014,206.35095979200014,206.35095979200014,206.3003992083331,206.35095979200014,206.35095979200014,206.35095979200014,206.3003992083331,206.35095979200014,206.35095979200014,206.35095979200014,206.35095979200014,206.35095979200014,211.55576004199975,211.55576004199975,214.48952412499966,None,0,,reldom2_s040,001,2025-03-19_17h40.48.425,Aud-A-Scan_AC,2022.2.5,None,
17,Second_Order,3.0,audwhat,stimulus/audwhat_stim/percussion mallet_high-pitch_F_loud.wav,stimulus/audwhat_stim/string viola_high-pitch_F_loud.wav,stimulus/audwhat_stim/string cello_low-pitch_Ftri_loud.wav,stimulus/audwhat_stim/string cello_high-pitch_Dtri_loud.wav,stimulus/audwhere_stim/match_blank.png,stimulus/audwhat_stim/match_box.png,stimulus/audwhere_stim/match_yes.png,stimulus/audwhere_stim/match_no.png,2.0,Match,Pitch,Category,2,5.125,0,5.125,0,5.125,0,5.125,0,0.75,0.75,0,0,0,0,0,0,0,0,1,0.5,1,2.125,1,0.5,1,2.125,0,,,,,0,22,22,22,,,,,,,,,214.48952412499966,219.61226279199946,214.48952412499966,214.48952412499966,214.48952412499966,214.48952412499966,214.93907608399968,215.93705458400018,214.95123862566678,,216.5721143339997,217.56079416699959,216.57561162566643,,219.61226279199946,220.46540529199956,222.52289737499996,226.4676828339998,220.46540529199956,220.46540529199956,225.65139458399972,220.46540529199956,220.46540529199956,220.46540529199956,220.46540529199956,220.88607904199944,221.91570091700032,220.85580695866636,,222.52289737499996,223.55296254199948,222.492745208667,,220.46540529199956,225.65139458399972,220.46540529199956,225.65139458399972,225.65139458399972,,220.46540529199956,1,0,1.368355333999716,reldom2_s040,001,2025-03-19_17h40.48.425,Aud-A-Scan_AC,2022.2.5,None,
18,Second_Order,3.0,audwhat,stimulus/audwhat_stim/string viola_low-pitch_F_loud.wav,stimulus/audwhat_stim/percussion mallet_low-pitch_F_loud.wav,stimulus/audwhat_stim/percussion mallet_high-pitch_Ftri_loud.wav,stimulus/audwhat_stim/string cello_high-pitch_Ftri_loud.wav,stimulus/audwhere_stim/match_blank.png,stimulus/audwhat_stim/match_box.png,stimulus/audwhere_stim/match_yes.png,stimulus/audwhere_stim/match_no.png,1.0,Match,Pitch,Pitch,1,5.125,0,5.125,0,5.125,0,5.125,0,0.625,0.625,0,0,0,0,0,0,0,0,1,0.5,1,2.125,1,0.5,1,2.125,0,,,,,0,23,23,23,,,,,,,,,226.4676828339998,231.58993733399984,226.4676828339998,226.4676828339998,226.4676828339998,226.4676828339998,226.9149297920003,227.9019379169995,226.92863787566628,,228.55418624999947,229.55224708399965,228.56614445866697,,231.58993733399984,232.3240404170001,234.37602629199955,238.42927608399987,232.3240404170001,232.3240404170001,237.49958887499997,232.3240404170001,232.3240404170001,232.3240404170001,232.3240404170001,232.74361441699966,233.81732108399956,232.7135580416664,,234.37602629199955,235.45105087499996,234.3459982916668,,232.3240404170001,237.49958887499997,232.3240404170001,237.49958887499997,237.49958887499997,238.15427666699998,232.3240404170001,1,1,1.0920842499999708,reldom2_s040,001,2025-03-19_17h40.48.425,Aud-A-Scan_AC,2022.2.5,None,
0,0.0,None,fixation,stimulus/audwhere_stim/blank_white.png,stimulus/audwhere_stim/blank_white.png,stimulus/audwhat_stim/blank_white.png,stimulus/audwhat_stim/blank_white.png,stimulus/audwhere_stim/blank_white.png,stimulus/audwhere_stim/blank_white.png,stimulus/audwhere_stim/blank_white.png,stimulus/audwhere_stim/blank_white.png,0.0,0.0,0.0,0.0,0,0.0,0,0.0,0,0.0,0,0.0,0,0.0,0.0,0,0,0,0,0,0,0,0,0,0.0,0,0.0,0,0.0,0,0.0,9,,,,,0,24,24,24,,,,,,,,,238.42927608399987,238.42927608399987,238.42927608399987,238.42927608399987,238.42927608399987,238.42927608399987,238.42927608399987,238.42927608399987,238.3286065833328,238.42927608399987,238.42927608399987,238.42927608399987,238.3286065833328,238.42927608399987,238.42927608399987,238.42927608399987,238.42927608399987,238.42927608399987,238.42927608399987,238.42927608399987,238.42927608399987,238.42927608399987,238.42927608399987,238.42927608399987,238.42927608399987,238.42927608399987,238.42927608399987,238.37860658333278,238.42927608399987,238.42927608399987,238.42927608399987,238.37860658333278,238.42927608399987,238.42927608399987,238.42927608399987,238.42927608399987,238.42927608399987,243.63547866699992,243.63547866699992,247.6841567499996,None,0,,reldom2_s040,001,2025-03-19_17h40.48.425,Aud-A-Scan_AC,2022.2.5,None,
19,First_Order,4.0,audwhat,stimulus/audwhat_stim/dummy.wav,stimulus/audwhat_stim/dummy.wav,stimulus/audwhat_stim/percussion mallet_low-pitch_D_loud.wav,stimulus/audwhat_stim/string viola_low-pitch_D_loud.wav,stimulus/audwhat_stim/blank_white.png,stimulus/audwhat_stim/category_box.png,stimulus/audwhat_stim/category_yes.png,stimulus/audwhat_stim/category_no.png,None,Category,None,Pitch,2,0.0,0,5.125,0,5.125,0,5.125,0,0.0,0.625,0,0,0,0,0,0,0,0,0,0.0,0,0.0,1,0.5,1,2.125,0,,,,,0,25,25,25,,,,,,,,,247.6841567499996,247.6841567499996,247.6841567499996,247.6841567499996,247.6841567499996,247.6841567499996,247.6841567499996,247.6841567499996,247.6104876256665,247.6841567499996,247.6841567499996,247.6841567499996,247.6104876256665,247.6841567499996,247.6841567499996,247.6841567499996,249.79137591699964,,247.6841567499996,247.6841567499996,252.8341703340002,247.6841567499996,247.6841567499996,247.6841567499996,247.6841567499996,248.15308245899996,249.1836477500001,248.12275229166633,,249.79137591699964,250.822582625,249.76074612566688,,247.6841567499996,252.8341703340002,247.6841567499996,252.8341703340002,252.87559487499948,253.53761070899964,247.6841567499996,2,1,1.4976681669995742,reldom2_s040,001,2025-03-19_17h40.48.425,Aud-A-Scan_AC,2022.2.5,None,
20,First_Order,4.0,audwhat,stimulus/audwhat_stim/dummy.wav,stimulus/audwhat_stim/dummy.wav,stimulus/audwhat_stim/percussion xylophone_high-pitch_Dtri_loud.wav,stimulus/audwhat_stim/string cello_high-pitch_Dtri_loud.wav,stimulus/audwhat_stim/blank_white.png,stimulus/audwhat_stim/pitch_box.png,stimulus/audwhat_stim/pitch_yes.png,stimulus/audwhat_stim/pitch_no.png,None,Pitch,None,Pitch,1,0.0,0,5.125,0,5.125,0,5.125,0,0.0,0.625,0,0,0,0,0,0,0,0,0,0.0,0,0.0,1,0.5,1,2.125,0,,,,,0,26,26,26,,,,,,,,,253.79191199999968,253.79191199999968,253.79191199999968,253.79191199999968,253.79191199999968,253.79191199999968,253.79191199999968,253.79191199999968,253.71173620833284,253.79191199999968,253.79191199999968,253.79191199999968,253.71173620833284,253.79191199999968,253.79191199999968,253.79191199999968,255.89210854199973,259.9205591250002,253.79191199999968,253.79191199999968,258.96755583399954,253.79191199999968,253.79191199999968,253.79191199999968,253.79191199999968,254.25874399999975,255.33382445899952,254.2284593336665,255.28750712500005,255.89210854199973,256.9657897500001,255.8622561256664,,253.79191199999968,258.96755583399954,253.79191199999968,258.96755583399954,259.0090578749996,259.6659421249997,253.79191199999968,1,1,1.1148669169997447,reldom2_s040,001,2025-03-19_17h40.48.425,Aud-A-Scan_AC,2022.2.5,None,
21,First_Order,4.0,audwhat,stimulus/audwhat_stim/dummy.wav,stimulus/audwhat_stim/dummy.wav,stimulus/audwhat_stim/string viola_low-pitch_D_loud.wav,stimulus/audwhat_stim/percussion mallet_low-pitch_D_loud.wav,stimulus/audwhat_stim/blank_white.png,stimulus/audwhat_stim/category_box.png,stimulus/audwhat_stim/category_yes.png,stimulus/audwhat_stim/category_no.png,None,Category,None,Pitch,2,0.0,0,5.125,0,5.125,0,5.125,0,0.0,0.625,0,0,0,0,0,0,0,0,0,0.0,0,0.0,1,0.5,1,2.125,0,,,,,0,27,27,27,,,,,,,,,259.9205591250002,259.9205591250002,259.9205591250002,259.9205591250002,259.9205591250002,259.9205591250002,259.9205591250002,259.9205591250002,259.8401820833334,259.9205591250002,259.9205591250002,259.9205591250002,259.8401820833334,259.9205591250002,259.9205591250002,259.9205591250002,262.02873004199955,,259.9205591250002,259.9205591250002,265.0748741669995,259.9205591250002,259.9205591250002,259.9205591250002,259.9205591250002,260.3894485840001,261.42114366700025,260.3590132916663,,262.02873004199955,263.06321704199945,261.9981778336662,,259.9205591250002,265.0748741669995,259.9205591250002,265.0748741669995,265.1161224999996,265.7752216250001,259.9205591250002,2,1,0.887851332999162,reldom2_s040,001,2025-03-19_17h40.48.425,Aud-A-Scan_AC,2022.2.5,None,
22,First_Order,4.0,audwhat,stimulus/audwhat_stim/dummy.wav,stimulus/audwhat_stim/dummy.wav,stimulus/audwhat_stim/string viola_low-pitch_Ftri_loud.wav,stimulus/audwhat_stim/string cello_high-pitch_D_loud.wav,stimulus/audwhat_stim/blank_white.png,stimulus/audwhat_stim/pitch_box.png,stimulus/audwhat_stim/pitch_yes.png,stimulus/audwhat_stim/pitch_no.png,None,Pitch,None,Category,2,0.0,0,5.125,0,5.125,0,5.125,0,0.0,0.625,0,0,0,0,0,0,0,0,0,0.0,0,0.0,1,0.5,1,2.125,0,,,,,0,28,28,28,,,,,,,,,266.03337133399964,266.03337133399964,266.03337133399964,266.03337133399964,266.03337133399964,266.03337133399964,266.03337133399964,266.03337133399964,265.94947133333346,266.03337133399964,266.03337133399964,266.03337133399964,265.94947133333346,266.03337133399964,266.03337133399964,266.03337133399964,268.1346558340001,,266.03337133399964,266.03337133399964,271.2147622499997,266.03337133399964,266.03337133399964,266.03337133399964,266.03337133399964,266.500008,267.5739459999995,266.4697556666663,,268.1346558340001,269.20949887499955,268.1033162916667,,266.03337133399964,271.2147622499997,266.03337133399964,271.2147622499997,271.25588162500026,271.91063908399974,266.03337133399964,1,0,1.376396874999955,reldom2_s040,001,2025-03-19_17h40.48.425,Aud-A-Scan_AC,2022.2.5,None,
0,0.0,None,fixation,stimulus/audwhere_stim/blank_white.png,stimulus/audwhere_stim/blank_white.png,stimulus/audwhat_stim/blank_white.png,stimulus/audwhat_stim/blank_white.png,stimulus/audwhere_stim/blank_white.png,stimulus/audwhere_stim/blank_white.png,stimulus/audwhere_stim/blank_white.png,stimulus/audwhere_stim/blank_white.png,0.0,0.0,0.0,0.0,0,0.0,0,0.0,0,0.0,0,0.0,0,0.0,0.0,0,0,0,0,0,0,0,0,0,0.0,0,0.0,0,0.0,0,0.0,10,,,,,0,29,29,29,,,,,,,,,272.14350308400026,272.14350308400026,272.14350308400026,272.14350308400026,272.14350308400026,272.14350308400026,272.14350308400026,272.14350308400026,272.04397241733307,272.14350308400026,272.14350308400026,272.14350308400026,272.04397241733307,272.14350308400026,272.14350308400026,272.14350308400026,272.14350308400026,272.14350308400026,272.14350308400026,272.14350308400026,272.14350308400026,272.14350308400026,272.14350308400026,272.14350308400026,272.14350308400026,272.14350308400026,272.14350308400026,272.0939724173331,272.14350308400026,272.14350308400026,272.14350308400026,272.0939724173331,272.14350308400026,272.14350308400026,272.14350308400026,272.14350308400026,272.14350308400026,277.3535932089999,277.3535932089999,282.27285191699957,None,0,,reldom2_s040,001,2025-03-19_17h40.48.425,Aud-A-Scan_AC,2022.2.5,None,
23,Second_Order,4.0,audwhat,stimulus/audwhat_stim/string cello_low-pitch_F_loud.wav,stimulus/audwhat_stim/string cello_high-pitch_Ftri_loud.wav,stimulus/audwhat_stim/percussion mallet_high-pitch_Ftri_loud.wav,stimulus/audwhat_stim/percussion mallet_low-pitch_F_loud.wav,stimulus/audwhere_stim/match_blank.png,stimulus/audwhat_stim/match_box.png,stimulus/audwhere_stim/match_yes.png,stimulus/audwhere_stim/match_no.png,1.0,Match,Category,Category,1,5.125,0,5.125,0,5.125,0,5.125,0,0.75,0.75,0,0,0,0,0,0,0,0,1,0.5,1,2.125,1,0.5,1,2.125,0,,,,,0,30,30,30,,,,,,,,,282.27285191699957,287.3898461250001,282.27285191699957,282.27285191699957,282.27285191699957,282.27285191699957,282.7285218340003,283.7270422499996,282.74121575066624,,284.3496515420002,285.3473073750001,284.36184679166695,,287.3898461250001,288.24038383399966,290.2957005420003,294.24025079199964,288.24038383399966,288.24038383399966,293.4229482089995,288.24038383399966,288.24038383399966,288.24038383399966,288.24038383399966,288.6605194169997,289.735844584,288.63033370866674,,290.2957005420003,291.32552195900007,290.26546125066693,,288.24038383399966,293.4229482089995,288.24038383399966,293.4229482089995,293.4229482089995,,288.24038383399966,1,1,0.7884910829998262,reldom2_s040,001,2025-03-19_17h40.48.425,Aud-A-Scan_AC,2022.2.5,None,
24,Second_Order,4.0,audwhat,stimulus/audwhat_stim/percussion xylophone_high-pitch_Dtri_loud.wav,stimulus/audwhat_stim/percussion mallet_low-pitch_D_loud.wav,stimulus/audwhat_stim/string cello_low-pitch_Ftri_loud.wav,stimulus/audwhat_stim/string viola_high-pitch_D_loud.wav,stimulus/audwhere_stim/match_blank.png,stimulus/audwhat_stim/match_box.png,stimulus/audwhere_stim/match_yes.png,stimulus/audwhere_stim/match_no.png,1.0,Match,Category,Category,1,5.125,0,5.125,0,5.125,0,5.125,0,0.625,0.625,0,0,0,0,0,0,0,0,1,0.5,1,2.125,1,0.5,1,2.125,0,,,,,0,31,31,31,,,,,,,,,294.24025079199964,299.3635705839997,294.24025079199964,294.24025079199964,294.24025079199964,294.24025079199964,294.6896212920001,295.68845383400003,294.70246729166615,295.6918225419995,296.3231310000001,297.3124829999997,296.3256727916662,,299.3635705839997,300.0963015420002,302.14744512499965,306.2046978749995,300.0963015420002,300.0963015420002,305.27406508399963,300.0963015420002,300.0963015420002,300.0963015420002,300.0963015420002,300.51463474999946,301.58846854199965,300.4842837506669,,302.14744512499965,303.1778838749997,302.1172827916664,,300.0963015420002,305.27406508399963,300.0963015420002,305.27406508399963,305.27406508399963,305.92989149999994,300.0963015420002,1,1,0.8931673749993934,reldom2_s040,001,2025-03-19_17h40.48.425,Aud-A-Scan_AC,2022.2.5,None,
0,0.0,None,fixation,stimulus/audwhere_stim/blank_white.png,stimulus/audwhere_stim/blank_white.png,stimulus/audwhat_stim/blank_white.png,stimulus/audwhat_stim/blank_white.png,stimulus/audwhere_stim/blank_white.png,stimulus/audwhere_stim/blank_white.png,stimulus/audwhere_stim/blank_white.png,stimulus/audwhere_stim/blank_white.png,0.0,0.0,0.0,0.0,0,0.0,0,0.0,0,0.0,0,0.0,0,0.0,0.0,0,0,0,0,0,0,0,0,0,0.0,0,0.0,0,0.0,0,0.0,9,,,,,0,32,32,32,,,,,,,,,306.2046978749995,306.2046978749995,306.2046978749995,306.2046978749995,306.2046978749995,306.2046978749995,306.2046978749995,306.2046978749995,306.1042119583336,306.2046978749995,306.2046978749995,306.2046978749995,306.1042119583336,306.2046978749995,306.2046978749995,306.2046978749995,306.2046978749995,306.2046978749995,306.2046978749995,306.2046978749995,306.2046978749995,306.2046978749995,306.2046978749995,306.2046978749995,306.2046978749995,306.2046978749995,306.2046978749995,306.15421195833363,306.2046978749995,306.2046978749995,306.2046978749995,306.15421195833363,306.2046978749995,306.2046978749995,306.2046978749995,306.2046978749995,306.2046978749995,311.411854125,311.411854125,315.465821709,None,0,,reldom2_s040,001,2025-03-19_17h40.48.425,Aud-A-Scan_AC,2022.2.5,None,
25,First_Order,5.0,audwhere,stimulus/audwhere_stim/dummy.wav,stimulus/audwhere_stim/dummy.wav,stimulus/audwhere_stim/right_away_300h.wav,stimulus/audwhere_stim/right_toward_300h.wav,stimulus/audwhere_stim/blank_white.png,stimulus/audwhere_stim/direction_box.png,stimulus/audwhere_stim/direction_yes.png,stimulus/audwhere_stim/direction_no.png,None,Direction,None,Side,2,0.0,0,5.125,0,5.125,0,5.125,0,0.0,0.625,0,0,0,0,0,0,0,0,0,0.0,0,0.0,1,0.5,1,2.125,0,,,,,0,33,33,33,,,,,,,,,315.465821709,315.465821709,315.465821709,315.465821709,315.465821709,315.465821709,315.465821709,315.465821709,315.39342970866676,315.465821709,315.465821709,315.465821709,315.39342970866676,315.465821709,315.465821709,315.465821709,317.5769814999994,321.5861101669998,315.465821709,315.465821709,320.63091749999967,315.465821709,315.465821709,315.465821709,315.465821709,315.93494550000014,316.96808125000007,315.90477462566673,,317.5769814999994,318.61566604200016,317.5465347916663,,315.465821709,320.63091749999967,315.465821709,320.63091749999967,320.67240341700017,321.3321393750002,315.465821709,2,1,1.4418435829993541,reldom2_s040,001,2025-03-19_17h40.48.425,Aud-A-Scan_AC,2022.2.5,None,
26,First_Order,5.0,audwhere,stimulus/audwhere_stim/dummy.wav,stimulus/audwhere_stim/dummy.wav,stimulus/audwhere_stim/right_away_280h.wav,stimulus/audwhere_stim/left_away_270h.wav,stimulus/audwhere_stim/blank_white.png,stimulus/audwhere_stim/side_box.png,stimulus/audwhere_stim/side_yes.png,stimulus/audwhere_stim/side_no.png,None,Side,None,Direction,2,0.0,0,5.125,0,5.125,0,5.125,0,0.0,0.625,0,0,0,0,0,0,0,0,0,0.0,0,0.0,1,0.5,1,2.125,0,,,,,0,34,34,34,,,,,,,,,321.5861101669998,321.5861101669998,321.5861101669998,321.5861101669998,321.5861101669998,321.5861101669998,321.5861101669998,321.5861101669998,321.50636033333296,321.5861101669998,321.5861101669998,321.5861101669998,321.50636033333296,321.5861101669998,321.5861101669998,321.5861101669998,323.6821367089997,327.7130975,321.5861101669998,321.5861101669998,326.7589244999999,321.5861101669998,321.5861101669998,321.5861101669998,321.5861101669998,322.0520272920003,323.12369745900014,322.0217418336663,,323.6821367089997,324.75612545900003,323.6521075836665,,321.5861101669998,326.7589244999999,321.5861101669998,326.7589244999999,326.79998883400003,327.45845883399943,321.5861101669998,2,1,2.1229882500001622,reldom2_s040,001,2025-03-19_17h40.48.425,Aud-A-Scan_AC,2022.2.5,None,
27,First_Order,5.0,audwhere,stimulus/audwhere_stim/dummy.wav,stimulus/audwhere_stim/dummy.wav,stimulus/audwhere_stim/left_away_300h.wav,stimulus/audwhere_stim/right_away_290h.wav,stimulus/audwhere_stim/blank_white.png,stimulus/audwhere_stim/direction_box.png,stimulus/audwhere_stim/direction_yes.png,stimulus/audwhere_stim/direction_no.png,None,Direction,None,Direction,1,0.0,0,5.125,0,5.125,0,5.125,0,0.0,0.625,0,0,0,0,0,0,0,0,0,0.0,0,0.0,1,0.5,1,2.125,0,,,,,0,35,35,35,,,,,,,,,327.7130975,327.7130975,327.7130975,327.7130975,327.7130975,327.7130975,327.7130975,327.7130975,327.63280804233284,327.7130975,327.7130975,327.7130975,327.63280804233284,327.7130975,327.7130975,327.7130975,329.82504874999995,333.8294262090003,327.7130975,327.7130975,332.8738705420001,327.7130975,327.7130975,327.7130975,327.7130975,328.18228733399974,329.21669954200024,328.1518998336662,,329.82504874999995,330.8562482090001,329.79482783366643,,327.7130975,332.8738705420001,327.7130975,332.8738705420001,332.91522987499957,333.57592550000027,327.7130975,1,1,1.325783749999573,reldom2_s040,001,2025-03-19_17h40.48.425,Aud-A-Scan_AC,2022.2.5,None,
28,First_Order,5.0,audwhere,stimulus/audwhere_stim/dummy.wav,stimulus/audwhere_stim/dummy.wav,stimulus/audwhere_stim/left_away_290h.wav,stimulus/audwhere_stim/right_away_280h.wav,stimulus/audwhere_stim/blank_white.png,stimulus/audwhere_stim/direction_box.png,stimulus/audwhere_stim/direction_yes.png,stimulus/audwhere_stim/direction_no.png,None,Direction,None,Direction,1,0.0,0,5.125,0,5.125,0,5.125,0,0.0,0.625,0,0,0,0,0,0,0,0,0,0.0,0,0.0,1,0.5,1,2.125,0,,,,,0,36,36,36,,,,,,,,,333.8294262090003,333.8294262090003,333.8294262090003,333.8294262090003,333.8294262090003,333.8294262090003,333.8294262090003,333.8294262090003,333.7503512083332,333.8294262090003,333.8294262090003,333.8294262090003,333.7503512083332,333.8294262090003,333.8294262090003,333.8294262090003,335.9397334590003,339.96364025,333.8294262090003,333.8294262090003,338.9909079170002,333.8294262090003,333.8294262090003,333.8294262090003,333.8294262090003,334.29828516699945,335.33219541699964,334.2681357916665,,335.9397334590003,336.97467012499965,335.90950862566683,,333.8294262090003,338.9909079170002,333.8294262090003,338.9909079170002,339.0321104169998,339.68941666699993,333.8294262090003,1,1,1.1834116250001898,reldom2_s040,001,2025-03-19_17h40.48.425,Aud-A-Scan_AC,2022.2.5,None,
0,0.0,None,fixation,stimulus/audwhere_stim/blank_white.png,stimulus/audwhere_stim/blank_white.png,stimulus/audwhat_stim/blank_white.png,stimulus/audwhat_stim/blank_white.png,stimulus/audwhere_stim/blank_white.png,stimulus/audwhere_stim/blank_white.png,stimulus/audwhere_stim/blank_white.png,stimulus/audwhere_stim/blank_white.png,0.0,0.0,0.0,0.0,0,0.0,0,0.0,0,0.0,0,0.0,0,0.0,0.0,0,0,0,0,0,0,0,0,0,0.0,0,0.0,0,0.0,0,0.0,9,,,,,0,37,37,37,,,,,,,,,339.96364025,339.96364025,339.96364025,339.96364025,339.96364025,339.96364025,339.96364025,339.96364025,339.8633802083333,339.96364025,339.96364025,339.96364025,339.8633802083333,339.96364025,339.96364025,339.96364025,339.96364025,339.96364025,339.96364025,339.96364025,339.96364025,339.96364025,339.96364025,339.96364025,339.96364025,339.96364025,339.96364025,339.9133802083333,339.96364025,339.96364025,339.96364025,339.9133802083333,339.96364025,339.96364025,339.96364025,339.96364025,339.96364025,345.1809991250002,345.1809991250002,349.1405107089995,None,0,,reldom2_s040,001,2025-03-19_17h40.48.425,Aud-A-Scan_AC,2022.2.5,None,
29,Second_Order,5.0,audwhere,stimulus/audwhere_stim/right_toward_270h.wav,stimulus/audwhere_stim/right_away_280h.wav,stimulus/audwhere_stim/left_toward_290h.wav,stimulus/audwhere_stim/left_away_290h.wav,stimulus/audwhere_stim/match_blank.png,stimulus/audwhere_stim/match_box.png,stimulus/audwhere_stim/match_yes.png,stimulus/audwhere_stim/match_no.png,1.0,Match,Side,Side,1,5.125,0,5.125,0,5.125,0,5.125,0,0.75,0.75,0,0,0,0,0,0,0,0,1,0.5,1,2.125,1,0.5,1,2.125,0,,,,,0,38,38,38,,,,,,,,,349.1405107089995,354.26102695899954,349.1405107089995,349.1405107089995,349.1405107089995,349.1405107089995,349.6000452500002,350.59817479199955,349.612789875667,,351.22161337499983,352.218756792,351.23339904166664,,354.26102695899954,355.1029711250003,357.1553941249995,361.09910975,355.1029711250003,355.1029711250003,360.2821960000001,355.1029711250003,355.1029711250003,355.1029711250003,355.1029711250003,355.56961175000015,356.6422347919997,355.5394913336661,,357.1553941249995,358.2316437919999,357.12481795866665,,355.1029711250003,360.2821960000001,355.1029711250003,360.2821960000001,360.2821960000001,,355.1029711250003,1,1,0.7889189999996233,reldom2_s040,001,2025-03-19_17h40.48.425,Aud-A-Scan_AC,2022.2.5,None,
30,Second_Order,5.0,audwhere,stimulus/audwhere_stim/left_toward_300h.wav,stimulus/audwhere_stim/left_away_290h.wav,stimulus/audwhere_stim/right_away_290h.wav,stimulus/audwhere_stim/right_toward_280h.wav,stimulus/audwhere_stim/match_blank.png,stimulus/audwhere_stim/match_box.png,stimulus/audwhere_stim/match_yes.png,stimulus/audwhere_stim/match_no.png,1.0,Match,Side,Side,1,5.125,0,5.125,0,5.125,0,5.125,0,0.625,0.625,0,0,0,0,0,0,0,0,1,0.5,1,2.125,1,0.5,1,2.125,0,,,,,0,39,39,39,,,,,,,,,361.09910975,366.2231329999995,361.09910975,361.09910975,361.09910975,361.09910975,361.5563819170002,362.54654412499985,361.56006254166664,362.54654412499985,363.18162137499985,364.179660584,363.1938862506661,,366.2231329999995,366.9516383749997,368.99827687499965,373.05837987499945,366.9516383749997,366.9516383749997,372.12399341699984,366.9516383749997,366.9516383749997,366.9516383749997,366.9516383749997,367.37012074999984,368.4394937500001,367.3403201666663,,368.99827687499965,370.0281150419996,368.9678151256669,,366.9516383749997,372.12399341699984,366.9516383749997,372.12399341699984,372.12399341699984,372.78152870899976,366.9516383749997,1,1,0.8157913750001171,reldom2_s040,001,2025-03-19_17h40.48.425,Aud-A-Scan_AC,2022.2.5,None,
0,0.0,None,fixation,stimulus/audwhere_stim/blank_white.png,stimulus/audwhere_stim/blank_white.png,stimulus/audwhat_stim/blank_white.png,stimulus/audwhat_stim/blank_white.png,stimulus/audwhere_stim/blank_white.png,stimulus/audwhere_stim/blank_white.png,stimulus/audwhere_stim/blank_white.png,stimulus/audwhere_stim/blank_white.png,0.0,0.0,0.0,0.0,0,0.0,0,0.0,0,0.0,0,0.0,0,0.0,0.0,0,0,0,0,0,0,0,0,0,0.0,0,0.0,0,0.0,0,0.0,9,,,,,0,40,40,40,,,,,,,,,373.05837987499945,373.05837987499945,373.05837987499945,373.05837987499945,373.05837987499945,373.05837987499945,373.05837987499945,373.05837987499945,372.95595120833343,373.05837987499945,373.05837987499945,373.05837987499945,372.95595120833343,373.05837987499945,373.05837987499945,373.05837987499945,373.05837987499945,373.05837987499945,373.05837987499945,373.05837987499945,373.05837987499945,373.05837987499945,373.05837987499945,373.05837987499945,373.05837987499945,373.05837987499945,373.05837987499945,373.00595120833344,373.05837987499945,373.05837987499945,373.05837987499945,373.00595120833344,373.05837987499945,373.05837987499945,373.05837987499945,373.05837987499945,373.05837987499945,378.265222084,378.265222084,382.31633887499993,None,0,,reldom2_s040,001,2025-03-19_17h40.48.425,Aud-A-Scan_AC,2022.2.5,None,
31,First_Order,6.0,audwhere,stimulus/audwhere_stim/dummy.wav,stimulus/audwhere_stim/dummy.wav,stimulus/audwhere_stim/left_away_300h.wav,stimulus/audwhere_stim/left_toward_300h.wav,stimulus/audwhere_stim/blank_white.png,stimulus/audwhere_stim/side_box.png,stimulus/audwhere_stim/side_yes.png,stimulus/audwhere_stim/side_no.png,None,Side,None,Side,1,0.0,0,5.125,0,5.125,0,5.125,0,0.0,0.625,0,0,0,0,0,0,0,0,0,0.0,0,0.0,1,0.5,1,2.125,0,,,,,0,41,41,41,,,,,,,,,382.31633887499993,382.31633887499993,382.31633887499993,382.31633887499993,382.31633887499993,382.31633887499993,382.31633887499993,382.31633887499993,382.24388066666654,382.31633887499993,382.31633887499993,382.31633887499993,382.24388066666654,382.31633887499993,382.31633887499993,382.31633887499993,384.4131458339998,388.4388000839999,382.31633887499993,382.31633887499993,387.48865212500004,382.31633887499993,382.31633887499993,382.31633887499993,382.31633887499993,382.7825839999996,383.8547351669995,382.7526227506662,,384.4131458339998,385.4418814169994,384.3831393336661,,382.31633887499993,387.48865212500004,382.31633887499993,387.48865212500004,387.5297533749999,388.1856272089999,382.31633887499993,1,1,1.372964041999694,reldom2_s040,001,2025-03-19_17h40.48.425,Aud-A-Scan_AC,2022.2.5,None,
32,First_Order,6.0,audwhere,stimulus/audwhere_stim/dummy.wav,stimulus/audwhere_stim/dummy.wav,stimulus/audwhere_stim/right_away_270h.wav,stimulus/audwhere_stim/left_away_280h.wav,stimulus/audwhere_stim/blank_white.png,stimulus/audwhere_stim/side_box.png,stimulus/audwhere_stim/side_yes.png,stimulus/audwhere_stim/side_no.png,None,Side,None,Direction,2,0.0,0,5.125,0,5.125,0,5.125,0,0.0,0.625,0,0,0,0,0,0,0,0,0,0.0,0,0.0,1,0.5,1,2.125,0,,,,,0,42,42,42,,,,,,,,,388.4388000839999,388.4388000839999,388.4388000839999,388.4388000839999,388.4388000839999,388.4388000839999,388.4388000839999,388.4388000839999,388.35983416733336,388.4388000839999,388.4388000839999,388.4388000839999,388.35983416733336,388.4388000839999,388.4388000839999,388.4388000839999,390.5348347500003,394.5650703749998,388.4388000839999,388.4388000839999,393.61061599999994,388.4388000839999,388.4388000839999,388.4388000839999,388.4388000839999,388.90438616699976,389.9753120839996,388.8745267086663,,390.5348347500003,391.6089349169997,390.5048462916668,,388.4388000839999,393.61061599999994,388.4388000839999,393.61061599999994,393.6519344170001,394.31108820899954,388.4388000839999,2,1,1.2496910840000055,reldom2_s040,001,2025-03-19_17h40.48.425,Aud-A-Scan_AC,2022.2.5,None,
33,First_Order,6.0,audwhere,stimulus/audwhere_stim/dummy.wav,stimulus/audwhere_stim/dummy.wav,stimulus/audwhere_stim/left_toward_270h.wav,stimulus/audwhere_stim/left_away_270h.wav,stimulus/audwhere_stim/blank_white.png,stimulus/audwhere_stim/direction_box.png,stimulus/audwhere_stim/direction_yes.png,stimulus/audwhere_stim/direction_no.png,None,Direction,None,Side,2,0.0,0,5.125,0,5.125,0,5.125,0,0.0,0.625,0,0,0,0,0,0,0,0,0,0.0,0,0.0,1,0.5,1,2.125,0,,,,,0,43,43,43,,,,,,,,,394.5650703749998,394.5650703749998,394.5650703749998,394.5650703749998,394.5650703749998,394.5650703749998,394.5650703749998,394.5650703749998,394.48524933333294,394.5650703749998,394.5650703749998,394.5650703749998,394.48524933333294,394.5650703749998,394.5650703749998,394.5650703749998,396.6758549999995,400.6842444590002,394.5650703749998,394.5650703749998,399.7295771250001,394.5650703749998,394.5650703749998,394.5650703749998,394.5650703749998,395.03589133399964,396.06688954199944,395.0054425836663,,396.6758549999995,397.7110213340002,396.64564208366687,,394.5650703749998,399.7295771250001,394.5650703749998,399.7295771250001,399.7709639169998,400.430630459,394.5650703749998,2,1,1.1673662079992937,reldom2_s040,001,2025-03-19_17h40.48.425,Aud-A-Scan_AC,2022.2.5,None,
34,First_Order,6.0,audwhere,stimulus/audwhere_stim/dummy.wav,stimulus/audwhere_stim/dummy.wav,stimulus/audwhere_stim/left_toward_300h.wav,stimulus/audwhere_stim/left_away_300h.wav,stimulus/audwhere_stim/blank_white.png,stimulus/audwhere_stim/side_box.png,stimulus/audwhere_stim/side_yes.png,stimulus/audwhere_stim/side_no.png,None,Side,None,Side,1,0.0,0,5.125,0,5.125,0,5.125,0,0.0,0.625,0,0,0,0,0,0,0,0,0,0.0,0,0.0,1,0.5,1,2.125,0,,,,,0,44,44,44,,,,,,,,,400.6842444590002,400.6842444590002,400.6842444590002,400.6842444590002,400.6842444590002,400.6842444590002,400.6842444590002,400.6842444590002,400.6048125423332,400.6842444590002,400.6842444590002,400.6842444590002,400.6048125423332,400.6842444590002,400.6842444590002,400.6842444590002,402.7831624170003,406.8353544169995,400.6842444590002,400.6842444590002,405.86179025,400.6842444590002,400.6842444590002,400.6842444590002,400.6842444590002,401.1522464999998,402.2246131669999,401.12215433366623,,402.7831624170003,403.8592143750002,402.7530017086667,,400.6842444590002,405.86179025,400.6842444590002,405.86179025,405.90317549999963,406.561262792,400.6842444590002,1,1,1.0172204580003381,reldom2_s040,001,2025-03-19_17h40.48.425,Aud-A-Scan_AC,2022.2.5,None,
0,0.0,None,fixation,stimulus/audwhere_stim/blank_white.png,stimulus/audwhere_stim/blank_white.png,stimulus/audwhat_stim/blank_white.png,stimulus/audwhat_stim/blank_white.png,stimulus/audwhere_stim/blank_white.png,stimulus/audwhere_stim/blank_white.png,stimulus/audwhere_stim/blank_white.png,stimulus/audwhere_stim/blank_white.png,0.0,0.0,0.0,0.0,0,0.0,0,0.0,0,0.0,0,0.0,0,0.0,0.0,0,0,0,0,0,0,0,0,0,0.0,0,0.0,0,0.0,0,0.0,10,,,,,0,45,45,45,,,,,,,,,406.8353544169995,406.8353544169995,406.8353544169995,406.8353544169995,406.8353544169995,406.8353544169995,406.8353544169995,406.8353544169995,406.73545512533303,406.8353544169995,406.8353544169995,406.8353544169995,406.73545512533303,406.8353544169995,406.8353544169995,406.8353544169995,406.8353544169995,406.8353544169995,406.8353544169995,406.8353544169995,406.8353544169995,406.8353544169995,406.8353544169995,406.8353544169995,406.8353544169995,406.8353544169995,406.8353544169995,406.78545512533304,406.8353544169995,406.8353544169995,406.8353544169995,406.78545512533304,406.8353544169995,406.8353544169995,406.8353544169995,406.8353544169995,406.8353544169995,412.03957229200023,412.03957229200023,417.0152002089999,None,0,,reldom2_s040,001,2025-03-19_17h40.48.425,Aud-A-Scan_AC,2022.2.5,None,
35,Second_Order,6.0,audwhere,stimulus/audwhere_stim/left_away_280h.wav,stimulus/audwhere_stim/left_toward_300h.wav,stimulus/audwhere_stim/right_away_280h.wav,stimulus/audwhere_stim/right_toward_300h.wav,stimulus/audwhere_stim/match_blank.png,stimulus/audwhere_stim/match_box.png,stimulus/audwhere_stim/match_yes.png,stimulus/audwhere_stim/match_no.png,1.0,Match,Side,Side,1,5.125,0,5.125,0,5.125,0,5.125,0,0.75,0.75,0,0,0,0,0,0,0,0,1,0.5,1,2.125,1,0.5,1,2.125,0,,,,,0,46,46,46,,,,,,,,,417.0152002089999,422.1347100419998,417.0152002089999,417.0152002089999,417.0152002089999,417.0152002089999,417.4735712499996,418.47174300000006,417.4860427506667,,419.0936192090003,420.09216775000004,419.10621400066634,,422.1347100419998,422.98716774999957,425.04238687499947,428.98730470899955,422.98716774999957,422.98716774999957,428.1702373749995,422.98716774999957,422.98716774999957,422.98716774999957,422.98716774999957,423.40878112500013,424.481873834,423.3786341256666,,425.04238687499947,426.073373917,425.0122150836662,,422.98716774999957,428.1702373749995,422.98716774999957,428.1702373749995,428.1702373749995,,422.98716774999957,1,1,0.8103571249994275,reldom2_s040,001,2025-03-19_17h40.48.425,Aud-A-Scan_AC,2022.2.5,None,
36,Second_Order,6.0,audwhere,stimulus/audwhere_stim/left_away_290h.wav,stimulus/audwhere_stim/left_toward_270h.wav,stimulus/audwhere_stim/left_toward_290h.wav,stimulus/audwhere_stim/right_toward_270h.wav,stimulus/audwhere_stim/match_blank.png,stimulus/audwhere_stim/match_box.png,stimulus/audwhere_stim/match_yes.png,stimulus/audwhere_stim/match_no.png,2.0,Match,Side,Direction,2,5.125,0,5.125,0,5.125,0,5.125,0,0.625,0.625,0,0,0,0,0,0,0,0,1,0.5,1,2.125,1,0.5,1,2.125,0,,,,,0,47,47,47,,,,,,,,,428.98730470899955,434.1080671669997,428.98730470899955,428.98730470899955,428.98730470899955,428.98730470899955,429.44676179199996,430.43637404199944,429.449227041667,,431.0718184589996,432.0695160839996,431.08424754166685,,434.1080671669997,434.84286474999953,436.8982267089996,440.9567566249998,434.84286474999953,434.84286474999953,440.0244622499995,434.84286474999953,434.84286474999953,434.84286474999953,434.84286474999953,435.2655442089999,436.3387011670002,435.2355290006665,,436.8982267089996,437.9306242920002,436.86813304166685,,434.84286474999953,440.0244622499995,434.84286474999953,440.0244622499995,440.0244622499995,440.68026883399943,434.84286474999953,2,1,0.9486378330002481,reldom2_s040,001,2025-03-19_17h40.48.425,Aud-A-Scan_AC,2022.2.5,None,
0,0.0,None,fixation,stimulus/audwhere_stim/blank_white.png,stimulus/audwhere_stim/blank_white.png,stimulus/audwhat_stim/blank_white.png,stimulus/audwhat_stim/blank_white.png,stimulus/audwhere_stim/blank_white.png,stimulus/audwhere_stim/blank_white.png,stimulus/audwhere_stim/blank_white.png,stimulus/audwhere_stim/blank_white.png,0.0,0.0,0.0,0.0,0,0.0,0,0.0,0,0.0,0,0.0,0,0.0,0.0,0,0,0,0,0,0,0,0,0,0.0,0,0.0,0,0.0,0,0.0,9,,,,,0,48,48,48,,,,,,,,,440.9567566249998,440.9567566249998,440.9567566249998,440.9567566249998,440.9567566249998,440.9567566249998,440.9567566249998,440.9567566249998,440.85425779233276,440.9567566249998,440.9567566249998,440.9567566249998,440.85425779233276,440.9567566249998,440.9567566249998,440.9567566249998,440.9567566249998,440.9567566249998,440.9567566249998,440.9567566249998,440.9567566249998,440.9567566249998,440.9567566249998,440.9567566249998,440.9567566249998,440.9567566249998,440.9567566249998,440.90425779233277,440.9567566249998,440.9567566249998,440.9567566249998,440.90425779233277,440.9567566249998,440.9567566249998,440.9567566249998,440.9567566249998,440.9567566249998,446.15955841699997,446.15955841699997,450.20642212500024,None,0,,reldom2_s040,001,2025-03-19_17h40.48.425,Aud-A-Scan_AC,2022.2.5,None,
37,First_Order,7.0,audwhat,stimulus/audwhat_stim/dummy.wav,stimulus/audwhat_stim/dummy.wav,stimulus/audwhat_stim/string cello_low-pitch_Ftri_loud.wav,stimulus/audwhat_stim/string cello_high-pitch_D_loud.wav,stimulus/audwhat_stim/blank_white.png,stimulus/audwhat_stim/pitch_box.png,stimulus/audwhat_stim/pitch_yes.png,stimulus/audwhat_stim/pitch_no.png,None,Pitch,None,Category,2,0.0,0,5.125,0,5.125,0,5.125,0,0.0,0.625,0,0,0,0,0,0,0,0,0,0.0,0,0.0,1,0.5,1,2.125,0,,,,,0,49,49,49,,,,,,,,,450.20642212500024,450.20642212500024,450.20642212500024,450.20642212500024,450.20642212500024,450.20642212500024,450.20642212500024,450.20642212500024,450.13352662566615,450.20642212500024,450.20642212500024,450.20642212500024,450.13352662566615,450.20642212500024,450.20642212500024,450.20642212500024,452.305600875,,450.20642212500024,450.20642212500024,455.3858695839999,450.20642212500024,450.20642212500024,450.20642212500024,450.20642212500024,450.6732734999996,451.74602241699995,450.6429351256668,,452.305600875,453.33616529200026,452.27548304166635,,450.20642212500024,455.3858695839999,450.20642212500024,455.3858695839999,455.42709399999967,456.08265712499997,450.20642212500024,2,1,1.6721426659996723,reldom2_s040,001,2025-03-19_17h40.48.425,Aud-A-Scan_AC,2022.2.5,None,
38,First_Order,7.0,audwhat,stimulus/audwhat_stim/dummy.wav,stimulus/audwhat_stim/dummy.wav,stimulus/audwhat_stim/string cello_low-pitch_D_loud.wav,stimulus/audwhat_stim/string cello_high-pitch_Ftri_loud.wav,stimulus/audwhat_stim/blank_white.png,stimulus/audwhat_stim/pitch_box.png,stimulus/audwhat_stim/pitch_yes.png,stimulus/audwhat_stim/pitch_no.png,None,Pitch,None,Category,2,0.0,0,5.125,0,5.125,0,5.125,0,0.0,0.625,0,0,0,0,0,0,0,0,0,0.0,0,0.0,1,0.5,1,2.125,0,,,,,0,50,50,50,,,,,,,,,456.29578287499953,456.29578287499953,456.29578287499953,456.29578287499953,456.29578287499953,456.29578287499953,456.29578287499953,456.29578287499953,456.2159904583333,456.29578287499953,456.29578287499953,456.29578287499953,456.2159904583333,456.29578287499953,456.29578287499953,456.29578287499953,458.3963888749995,,456.29578287499953,456.29578287499953,461.4788282919999,456.29578287499953,456.29578287499953,456.29578287499953,456.29578287499953,456.7623487089995,457.83713179200004,456.7319121256662,,458.3963888749995,459.426966,458.3660137086665,,456.29578287499953,461.4788282919999,456.29578287499953,461.4788282919999,461.5200789999999,462.17806475,456.29578287499953,2,1,1.2103737500001444,reldom2_s040,001,2025-03-19_17h40.48.425,Aud-A-Scan_AC,2022.2.5,None,
39,First_Order,7.0,audwhat,stimulus/audwhat_stim/dummy.wav,stimulus/audwhat_stim/dummy.wav,stimulus/audwhat_stim/percussion xylophone_high-pitch_Dtri_loud.wav,stimulus/audwhat_stim/string cello_high-pitch_Dtri_loud.wav,stimulus/audwhat_stim/blank_white.png,stimulus/audwhat_stim/pitch_box.png,stimulus/audwhat_stim/pitch_yes.png,stimulus/audwhat_stim/pitch_no.png,None,Pitch,None,Pitch,1,0.0,0,5.125,0,5.125,0,5.125,0,0.0,0.625,0,0,0,0,0,0,0,0,0,0.0,0,0.0,1,0.5,1,2.125,0,,,,,0,51,51,51,,,,,,,,,462.39149216700025,462.39149216700025,462.39149216700025,462.39149216700025,462.39149216700025,462.39149216700025,462.39149216700025,462.39149216700025,462.3113980833333,462.39149216700025,462.39149216700025,462.39149216700025,462.3113980833333,462.39149216700025,462.39149216700025,462.39149216700025,464.49106674999985,,462.39149216700025,462.39149216700025,467.570449459,462.39149216700025,462.39149216700025,462.39149216700025,462.39149216700025,462.8574854589997,463.9317265419995,462.8272053756666,463.8851034999998,464.49106674999985,465.52086783399955,464.4609035006663,,462.39149216700025,467.570449459,462.39149216700025,467.570449459,467.6118995420002,468.27196291699966,462.39149216700025,1,1,1.2401187080004092,reldom2_s040,001,2025-03-19_17h40.48.425,Aud-A-Scan_AC,2022.2.5,None,
40,First_Order,7.0,audwhat,stimulus/audwhat_stim/dummy.wav,stimulus/audwhat_stim/dummy.wav,stimulus/audwhat_stim/string cello_low-pitch_D_loud.wav,stimulus/audwhat_stim/percussion mallet_low-pitch_D_loud.wav,stimulus/audwhat_stim/blank_white.png,stimulus/audwhat_stim/pitch_box.png,stimulus/audwhat_stim/pitch_yes.png,stimulus/audwhat_stim/pitch_no.png,None,Pitch,None,Pitch,1,0.0,0,5.125,0,5.125,0,5.125,0,0.0,0.625,0,0,0,0,0,0,0,0,0,0.0,0,0.0,1,0.5,1,2.125,0,,,,,0,52,52,52,,,,,,,,,468.48531695899965,468.48531695899965,468.48531695899965,468.48531695899965,468.48531695899965,468.48531695899965,468.48531695899965,468.48531695899965,468.405296250333,468.48531695899965,468.48531695899965,468.48531695899965,468.405296250333,468.48531695899965,468.48531695899965,468.48531695899965,470.5836229589995,474.63460695899994,468.48531695899965,468.48531695899965,473.66321741699994,468.48531695899965,468.48531695899965,468.48531695899965,468.48531695899965,468.9529297500003,470.02536574999976,468.9216210836669,,470.5836229589995,471.61404479199973,470.55364720866623,,468.48531695899965,473.66321741699994,468.48531695899965,473.66321741699994,473.7044111670002,474.36075449999953,468.48531695899965,2,0,1.670516416999817,reldom2_s040,001,2025-03-19_17h40.48.425,Aud-A-Scan_AC,2022.2.5,None,
0,0.0,None,fixation,stimulus/audwhere_stim/blank_white.png,stimulus/audwhere_stim/blank_white.png,stimulus/audwhat_stim/blank_white.png,stimulus/audwhat_stim/blank_white.png,stimulus/audwhere_stim/blank_white.png,stimulus/audwhere_stim/blank_white.png,stimulus/audwhere_stim/blank_white.png,stimulus/audwhere_stim/blank_white.png,0.0,0.0,0.0,0.0,0,0.0,0,0.0,0,0.0,0,0.0,0,0.0,0.0,0,0,0,0,0,0,0,0,0,0.0,0,0.0,0,0.0,0,0.0,10,,,,,0,53,53,53,,,,,,,,,474.63460695899994,474.63460695899994,474.63460695899994,474.63460695899994,474.63460695899994,474.63460695899994,474.63460695899994,474.63460695899994,474.53495416733324,474.63460695899994,474.63460695899994,474.63460695899994,474.53495416733324,474.63460695899994,474.63460695899994,474.63460695899994,474.63460695899994,474.63460695899994,474.63460695899994,474.63460695899994,474.63460695899994,474.63460695899994,474.63460695899994,474.63460695899994,474.63460695899994,474.63460695899994,474.63460695899994,474.58495416733325,474.63460695899994,474.63460695899994,474.63460695899994,474.58495416733325,474.63460695899994,474.63460695899994,474.63460695899994,474.63460695899994,474.63460695899994,479.8436915000002,479.8436915000002,484.7666733340002,None,0,,reldom2_s040,001,2025-03-19_17h40.48.425,Aud-A-Scan_AC,2022.2.5,None,
41,Second_Order,7.0,audwhat,stimulus/audwhat_stim/percussion xylophone_high-pitch_Ftri_loud.wav,stimulus/audwhat_stim/percussion mallet_low-pitch_Dtri_loud.wav,stimulus/audwhat_stim/string viola_low-pitch_Ftri_loud.wav,stimulus/audwhat_stim/percussion mallet_low-pitch_Ftri_loud.wav,stimulus/audwhere_stim/match_blank.png,stimulus/audwhat_stim/match_box.png,stimulus/audwhere_stim/match_yes.png,stimulus/audwhere_stim/match_no.png,2.0,Match,Category,Pitch,2,5.125,0,5.125,0,5.125,0,5.125,0,0.75,0.75,0,0,0,0,0,0,0,0,1,0.5,1,2.125,1,0.5,1,2.125,0,,,,,0,54,54,54,,,,,,,,,484.7666733340002,489.891989834,484.7666733340002,484.7666733340002,484.7666733340002,484.7666733340002,485.2113542090001,486.1986980419997,485.2256005836664,486.21525258400015,486.85191937499985,487.84847187499963,486.86327225066657,,489.891989834,490.7400110839999,492.7952210000003,,490.7400110839999,490.7400110839999,495.9305324999996,490.7400110839999,490.7400110839999,490.7400110839999,490.7400110839999,491.1626028339997,492.2368030839998,491.1318050006669,,492.7952210000003,493.82945841699984,492.76512129166645,,490.7400110839999,495.9305324999996,490.7400110839999,495.9305324999996,495.9305324999996,,490.7400110839999,1,0,1.772299333999399,reldom2_s040,001,2025-03-19_17h40.48.425,Aud-A-Scan_AC,2022.2.5,None,
42,Second_Order,7.0,audwhat,stimulus/audwhat_stim/string cello_high-pitch_Dtri_loud.wav,stimulus/audwhat_stim/percussion mallet_high-pitch_Dtri_loud.wav,stimulus/audwhat_stim/percussion mallet_low-pitch_D_loud.wav,stimulus/audwhat_stim/string cello_low-pitch_D_loud.wav,stimulus/audwhere_stim/match_blank.png,stimulus/audwhat_stim/match_box.png,stimulus/audwhere_stim/match_yes.png,stimulus/audwhere_stim/match_no.png,1.0,Match,Pitch,Pitch,1,5.125,0,5.125,0,5.125,0,5.125,0,0.625,0.625,0,0,0,0,0,0,0,0,1,0.5,1,2.125,1,0.5,1,2.125,0,,,,,0,55,55,55,,,,,,,,,496.70605429199986,501.8190165420001,496.70605429199986,496.70605429199986,496.70605429199986,496.70605429199986,497.15581733399995,498.14223737500015,497.1699715416664,,498.7906942090003,499.78000483399956,498.79383675066697,,501.8190165420001,502.5461411670003,504.5972889169998,508.65314333399965,502.5461411670003,502.5461411670003,507.7213942090002,502.5461411670003,502.5461411670003,502.5461411670003,502.5461411670003,502.9666799589995,504.03870058400025,502.93494762566684,,504.5972889169998,505.67160408400014,504.56739750066686,,502.5461411670003,507.7213942090002,502.5461411670003,507.7213942090002,507.7213942090002,508.37799870900017,502.5461411670003,2,0,1.5529500000002372,reldom2_s040,001,2025-03-19_17h40.48.425,Aud-A-Scan_AC,2022.2.5,None,
0,0.0,None,fixation,stimulus/audwhere_stim/blank_white.png,stimulus/audwhere_stim/blank_white.png,stimulus/audwhat_stim/blank_white.png,stimulus/audwhat_stim/blank_white.png,stimulus/audwhere_stim/blank_white.png,stimulus/audwhere_stim/blank_white.png,stimulus/audwhere_stim/blank_white.png,stimulus/audwhere_stim/blank_white.png,0.0,0.0,0.0,0.0,0,0.0,0,0.0,0,0.0,0,0.0,0,0.0,0.0,0,0,0,0,0,0,0,0,0,0.0,0,0.0,0,0.0,0,0.0,9,,,,,0,56,56,56,,,,,,,,,508.65314333399965,508.65314333399965,508.65314333399965,508.65314333399965,508.65314333399965,508.65314333399965,508.65314333399965,508.65314333399965,508.55184587533324,508.65314333399965,508.65314333399965,508.65314333399965,508.55184587533324,508.65314333399965,508.65314333399965,508.65314333399965,508.65314333399965,508.65314333399965,508.65314333399965,508.65314333399965,508.65314333399965,508.65314333399965,508.65314333399965,508.65314333399965,508.65314333399965,508.65314333399965,508.65314333399965,508.60184587533325,508.65314333399965,508.65314333399965,508.65314333399965,508.60184587533325,508.65314333399965,508.65314333399965,508.65314333399965,508.65314333399965,508.65314333399965,513.859197834,513.859197834,517.9099237089995,None,0,,reldom2_s040,001,2025-03-19_17h40.48.425,Aud-A-Scan_AC,2022.2.5,None,
43,First_Order,8.0,audwhat,stimulus/audwhat_stim/dummy.wav,stimulus/audwhat_stim/dummy.wav,stimulus/audwhat_stim/string viola_low-pitch_F_loud.wav,stimulus/audwhat_stim/percussion mallet_low-pitch_F_loud.wav,stimulus/audwhat_stim/blank_white.png,stimulus/audwhat_stim/category_box.png,stimulus/audwhat_stim/category_yes.png,stimulus/audwhat_stim/category_no.png,None,Category,None,Pitch,2,0.0,0,5.125,0,5.125,0,5.125,0,0.0,0.625,0,0,0,0,0,0,0,0,0,0.0,0,0.0,1,0.5,1,2.125,0,,,,,0,57,57,57,,,,,,,,,517.9099237089995,517.9099237089995,517.9099237089995,517.9099237089995,517.9099237089995,517.9099237089995,517.9099237089995,517.9099237089995,517.8365087506669,517.9099237089995,517.9099237089995,517.9099237089995,517.8365087506669,517.9099237089995,517.9099237089995,517.9099237089995,520.0182656249999,524.025053542,517.9099237089995,517.9099237089995,523.0668009999999,517.9099237089995,517.9099237089995,517.9099237089995,517.9099237089995,518.3793841249999,519.4103374589995,518.3490552506667,,520.0182656249999,521.0522351250002,519.9876124166669,,517.9099237089995,523.0668009999999,517.9099237089995,523.0668009999999,523.1093595419998,523.769374167,517.9099237089995,2,1,1.1599441250000382,reldom2_s040,001,2025-03-19_17h40.48.425,Aud-A-Scan_AC,2022.2.5,None,
44,First_Order,8.0,audwhat,stimulus/audwhat_stim/dummy.wav,stimulus/audwhat_stim/dummy.wav,stimulus/audwhat_stim/percussion mallet_low-pitch_Dtri_loud.wav,stimulus/audwhat_stim/percussion xylophone_high-pitch_F_loud.wav,stimulus/audwhat_stim/blank_white.png,stimulus/audwhat_stim/category_box.png,stimulus/audwhat_stim/category_yes.png,stimulus/audwhat_stim/category_no.png,None,Category,None,Category,1,0.0,0,5.125,0,5.125,0,5.125,0,0.0,0.625,0,0,0,0,0,0,0,0,0,0.0,0,0.0,1,0.5,1,2.125,0,,,,,0,58,58,58,,,,,,,,,524.025053542,524.025053542,524.025053542,524.025053542,524.025053542,524.025053542,524.025053542,524.025053542,523.9439767923333,524.025053542,524.025053542,524.025053542,523.9439767923333,524.025053542,524.025053542,524.025053542,526.1357031669995,530.1407867500002,524.025053542,524.025053542,529.1856735000001,524.025053542,524.025053542,524.025053542,524.025053542,524.4946792089995,525.5268290839995,524.4643771666663,,526.1357031669995,527.1699680000002,526.1053535836666,527.1699680000002,524.025053542,529.1856735000001,524.025053542,529.1856735000001,529.2268638340001,529.8852534170001,524.025053542,1,1,1.7640559999999823,reldom2_s040,001,2025-03-19_17h40.48.425,Aud-A-Scan_AC,2022.2.5,None,
45,First_Order,8.0,audwhat,stimulus/audwhat_stim/dummy.wav,stimulus/audwhat_stim/dummy.wav,stimulus/audwhat_stim/string cello_high-pitch_Dtri_loud.wav,stimulus/audwhat_stim/percussion xylophone_high-pitch_Dtri_loud.wav,stimulus/audwhat_stim/blank_white.png,stimulus/audwhat_stim/category_box.png,stimulus/audwhat_stim/category_yes.png,stimulus/audwhat_stim/category_no.png,None,Category,None,Pitch,2,0.0,0,5.125,0,5.125,0,5.125,0,0.0,0.625,0,0,0,0,0,0,0,0,0,0.0,0,0.0,1,0.5,1,2.125,0,,,,,0,59,59,59,,,,,,,,,530.1407867500002,530.1407867500002,530.1407867500002,530.1407867500002,530.1407867500002,530.1407867500002,530.1407867500002,530.1407867500002,530.0595577083333,530.1407867500002,530.1407867500002,530.1407867500002,530.0595577083333,530.1407867500002,530.1407867500002,530.1407867500002,532.2484379999996,,530.1407867500002,530.1407867500002,535.2946805419997,530.1407867500002,530.1407867500002,530.1407867500002,530.1407867500002,530.6091476249994,531.6404252089997,530.5787497506665,,532.2484379999996,533.2821078750003,532.2181960416667,533.2821078750003,530.1407867500002,535.2946805419997,530.1407867500002,535.2946805419997,535.3360449169995,535.9941425839997,530.1407867500002,2,1,1.5726867499997752,reldom2_s040,001,2025-03-19_17h40.48.425,Aud-A-Scan_AC,2022.2.5,None,
46,First_Order,8.0,audwhat,stimulus/audwhat_stim/dummy.wav,stimulus/audwhat_stim/dummy.wav,stimulus/audwhat_stim/percussion mallet_low-pitch_Ftri_loud.wav,stimulus/audwhat_stim/percussion mallet_high-pitch_F_loud.wav,stimulus/audwhat_stim/blank_white.png,stimulus/audwhat_stim/category_box.png,stimulus/audwhat_stim/category_yes.png,stimulus/audwhat_stim/category_no.png,None,Category,None,Category,1,0.0,0,5.125,0,5.125,0,5.125,0,0.0,0.625,0,0,0,0,0,0,0,0,0,0.0,0,0.0,1,0.5,1,2.125,0,,,,,0,60,60,60,,,,,,,,,536.2484317090002,536.2484317090002,536.2484317090002,536.2484317090002,536.2484317090002,536.2484317090002,536.2484317090002,536.2484317090002,536.1683551253328,536.2484317090002,536.2484317090002,536.2484317090002,536.1683551253328,536.2484317090002,536.2484317090002,536.2484317090002,538.3529877089995,,536.2484317090002,536.2484317090002,541.3985903749999,536.2484317090002,536.2484317090002,536.2484317090002,536.2484317090002,536.7166028339998,537.7462471250001,536.6864267916665,,538.3529877089995,539.3875653340001,538.3226425006662,,536.2484317090002,541.3985903749999,536.2484317090002,541.3985903749999,541.4397838750001,542.0984767499995,536.2484317090002,1,1,0.8002165419993617,reldom2_s040,001,2025-03-19_17h40.48.425,Aud-A-Scan_AC,2022.2.5,None,
0,0.0,None,fixation,stimulus/audwhere_stim/blank_white.png,stimulus/audwhere_stim/blank_white.png,stimulus/audwhat_stim/blank_white.png,stimulus/audwhat_stim/blank_white.png,stimulus/audwhere_stim/blank_white.png,stimulus/audwhere_stim/blank_white.png,stimulus/audwhere_stim/blank_white.png,stimulus/audwhere_stim/blank_white.png,0.0,0.0,0.0,0.0,0,0.0,0,0.0,0,0.0,0,0.0,0,0.0,0.0,0,0,0,0,0,0,0,0,0,0.0,0,0.0,0,0.0,0,0.0,8,,,,,0,61,61,61,,,,,,,,,542.374854875,542.374854875,542.374854875,542.374854875,542.374854875,542.374854875,542.374854875,542.374854875,542.2729572083337,542.374854875,542.374854875,542.374854875,542.2729572083337,542.374854875,542.374854875,542.374854875,542.374854875,542.374854875,542.374854875,542.374854875,542.374854875,542.374854875,542.374854875,542.374854875,542.374854875,542.374854875,542.374854875,542.3229572083336,542.374854875,542.374854875,542.374854875,542.3229572083336,542.374854875,542.374854875,542.374854875,542.374854875,542.374854875,547.591145542,547.591145542,550.5312803750003,None,0,,reldom2_s040,001,2025-03-19_17h40.48.425,Aud-A-Scan_AC,2022.2.5,None,
47,Second_Order,8.0,audwhat,stimulus/audwhat_stim/string cello_high-pitch_F_loud.wav,stimulus/audwhat_stim/string viola_low-pitch_D_loud.wav,stimulus/audwhat_stim/percussion mallet_low-pitch_Ftri_loud.wav,stimulus/audwhat_stim/percussion xylophone_high-pitch_F_loud.wav,stimulus/audwhere_stim/match_blank.png,stimulus/audwhat_stim/match_box.png,stimulus/audwhere_stim/match_yes.png,stimulus/audwhere_stim/match_no.png,1.0,Match,Category,Category,1,5.125,0,5.125,0,5.125,0,5.125,0,0.75,0.75,0,0,0,0,0,0,0,0,1,0.5,1,2.125,1,0.5,1,2.125,0,,,,,0,62,62,62,,,,,,,,,550.5312803750003,555.6551958339996,550.5312803750003,550.5312803750003,550.5312803750003,550.5312803750003,550.9798358339995,551.967156959,550.9939226666668,,552.6151812919998,553.6042081670003,552.6184922916666,,555.6551958339996,556.5058217919996,558.5589834169996,562.5037219589994,556.5058217919996,556.5058217919996,561.6876015420003,556.5058217919996,556.5058217919996,556.5058217919996,556.5058217919996,556.9266283750003,557.9993151250001,556.8961849586669,,558.5589834169996,559.5903586249997,558.5289867086669,559.5903586249997,556.5058217919996,561.6876015420003,556.5058217919996,561.6876015420003,561.6876015420003,,556.5058217919996,1,1,0.7766772920003859,reldom2_s040,001,2025-03-19_17h40.48.425,Aud-A-Scan_AC,2022.2.5,None,
48,Second_Order,8.0,audwhat,stimulus/audwhat_stim/percussion mallet_high-pitch_Ftri_loud.wav,stimulus/audwhat_stim/percussion mallet_low-pitch_D_loud.wav,stimulus/audwhat_stim/string cello_high-pitch_Ftri_loud.wav,stimulus/audwhat_stim/percussion xylophone_high-pitch_Ftri_loud.wav,stimulus/audwhere_stim/match_blank.png,stimulus/audwhat_stim/match_box.png,stimulus/audwhere_stim/match_yes.png,stimulus/audwhere_stim/match_no.png,2.0,Match,Category,Pitch,2,5.125,0,5.125,0,5.125,0,5.125,0,0.625,0.625,0,0,0,0,0,0,0,0,1,0.5,1,2.125,1,0.5,1,2.125,0,,,,,0,63,63,63,,,,,,,,,562.5037219589994,567.6204575000002,562.5037219589994,562.5037219589994,562.5037219589994,562.5037219589994,562.9571994999997,563.9440285419996,562.9716264166666,,564.5807314169997,565.5783009589995,564.5929330836664,,567.6204575000002,568.3492743340003,570.3975767499996,574.45973125,568.3492743340003,568.3492743340003,573.5279339589997,568.3492743340003,568.3492743340003,568.3492743340003,568.3492743340003,568.766909125,569.8400188340001,568.7369384166661,,570.3975767499996,571.4280539169995,570.3672044586667,571.4280539169995,568.3492743340003,573.5279339589997,568.3492743340003,573.5279339589997,573.5279339589997,574.1850480000003,568.3492743340003,2,1,1.2363182919998508,reldom2_s040,001,2025-03-19_17h40.48.425,Aud-A-Scan_AC,2022.2.5,None,
0,0.0,None,fixation,stimulus/audwhere_stim/blank_white.png,stimulus/audwhere_stim/blank_white.png,stimulus/audwhat_stim/blank_white.png,stimulus/audwhat_stim/blank_white.png,stimulus/audwhere_stim/blank_white.png,stimulus/audwhere_stim/blank_white.png,stimulus/audwhere_stim/blank_white.png,stimulus/audwhere_stim/blank_white.png,0.0,0.0,0.0,0.0,0,0.0,0,0.0,0,0.0,0,0.0,0,0.0,0.0,0,0,0,0,0,0,0,0,0,0.0,0,0.0,0,0.0,0,0.0,16,,,,,0,64,64,64,,,,,,,,,574.45973125,574.45973125,574.45973125,574.45973125,574.45973125,574.45973125,574.45973125,574.45973125,574.3588070003335,574.45973125,574.45973125,574.45973125,574.3588070003335,574.45973125,574.45973125,574.45973125,574.45973125,574.45973125,574.45973125,574.45973125,574.45973125,574.45973125,574.45973125,574.45973125,574.45973125,574.45973125,574.45973125,574.4088070003335,574.45973125,574.45973125,574.45973125,574.4088070003335,574.45973125,574.45973125,574.45973125,574.45973125,574.45973125,579.6604863749999,579.6604863749999,590.5834450419998,None,0,,reldom2_s040,001,2025-03-19_17h40.48.425,Aud-A-Scan_AC,2022.2.5,None,
