Trial,Order,Block,Type,Stimuli_File1,Stimuli_File2,Stimuli_File3,Stimuli_File4,Cue_File1,Cue_File2,Response_File_Yes,Response_File_No,Match,Cue_Dimension,Pair1_Dimension,Pair2_Dimension,Key,Cue1_Duration,Cue1_Onset,Cue2_Duration,Cue2_Onset,ResponseYes_Duration,ResponseYes_Onset,ResponseNo_Duration,ResponseNo_Onset,ITI_Within,ITI_Between,Image1_Duration,Image1_Onset,Image2_Duration,Image2_Onset,Image3_Duration,Image3_Onset,Image4_Duration,Image4_Onset,Sound1_Duration,Sound1_Onset,Sound2_Duration,Sound2_Onset,Sound3_Duration,Sound3_Onset,Sound4_Duration,Sound4_Onset,Fixation_Duration,trials_2.thisRepN,trials_2.thisTrialN,trials_2.thisN,trials_2.thisIndex,trials.thisRepN,trials.thisTrialN,trials.thisN,trials.thisIndex,text_start.started,key_resp_start.started,key_resp_start.keys,key_resp_start.rt,text2.started,key_resp_2.started,key_resp_2.keys,key_resp_2.rt,cue_file1.started,cue_file1.stopped,image_1.started,image_1.stopped,image_2.started,image_2.stopped,sound_icon1.started,sound_icon1.stopped,sound_1.started,sound_1.stopped,sound_icon2.started,sound_icon2.stopped,sound_2.started,sound_2.stopped,image_blank_1.started,image_blank_1.stopped,key_press.started,key_press.stopped,fixation_text.started,cue_file2.started,cue_file2.stopped,image_3.started,image_3.stopped,image_4.started,image_4.stopped,sound_icon3.started,sound_icon3.stopped,sound_3.started,sound_3.stopped,sound_icon4.started,sound_icon4.stopped,sound_4.started,sound_4.stopped,response_yes.started,response_yes.stopped,response_no.started,response_no.stopped,iti_blank.started,iti_blank.stopped,fixation_text.stopped,key_press.keys,key_press.corr,key_press.rt,participant,session,date,expName,psychopyVersion,frameRate,
,,,,,,,,,,,,,,,,,,,,,,,,,,,,,,,,,,,,,,,,,,,,,,,,,,,,7.000797167000201,7.000797167000201,2,1.5095048749999478,,,,,,,,,,,,,,,,,,,,,,,,,,,,,,,,,,,,,,,,,,,,,,,,reldom2_s040,001,2025-03-19_17h18.30.252,What-A-Scan_AC,2022.2.5,None,
,,,,,,,,,,,,,,,,,,,,,,,,,,,,,,,,,,,,,,,,,,,,0,0,0,0,,,,,,,,,8.549348917000316,8.549348917000316,5,17.690065832999608,,,,,,,,,,,,,,,,,,,,,,,,,,,,,,,,,,,,,,,,,,,,reldom2_s040,001,2025-03-19_17h18.30.252,What-A-Scan_AC,2022.2.5,None,
,,,,,,,,,,,,,,,,,,,,,,,,,,,,,,,,,,,,,,,,,,,,1,0,1,0,,,,,,,,,26.251835707999817,26.251835707999817,5,1.9871590419988934,,,,,,,,,,,,,,,,,,,,,,,,,,,,,,,,,,,,,,,,,,,,reldom2_s040,001,2025-03-19_17h18.30.252,What-A-Scan_AC,2022.2.5,None,
,,,,,,,,,,,,,,,,,,,,,,,,,,,,,,,,,,,,,,,,,,,,2,0,2,0,,,,,,,,,28.262408874999892,28.262408874999892,5,1.9768856249993405,,,,,,,,,,,,,,,,,,,,,,,,,,,,,,,,,,,,,,,,,,,,reldom2_s040,001,2025-03-19_17h18.30.252,What-A-Scan_AC,2022.2.5,None,
,,,,,,,,,,,,,,,,,,,,,,,,,,,,,,,,,,,,,,,,,,,,3,0,3,0,,,,,,,,,30.260401999999885,30.260401999999885,5,1.9811852919992816,,,,,,,,,,,,,,,,,,,,,,,,,,,,,,,,,,,,,,,,,,,,reldom2_s040,001,2025-03-19_17h18.30.252,What-A-Scan_AC,2022.2.5,None,
0,0.0,None,fixation,stimulus/audwhat_stim/blank_white.png,stimulus/audwhat_stim/blank_white.png,stimulus/viswhat_stim/blank_white.png,stimulus/viswhat_stim/blank_white.png,stimulus/audwhat_stim/blank_white.png,stimulus/audwhat_stim/blank_white.png,stimulus/audwhat_stim/blank_white.png,stimulus/audwhat_stim/blank_white.png,0.0,0.0,0.0,0.0,0,0.0,0,0.0,0,0.0,0,0.0,0,0.0,0.0,0,0.0,0,0.0,0,0.0,0,0.0,0,0.0,0,0.0,0,0.0,0,0.0,16,,,,,0,0,0,0,,,,,,,,,32.44843779199982,32.44843779199982,32.44843779199982,32.44843779199982,32.44843779199982,32.44843779199982,32.44843779199982,32.44843779199982,32.36045999966688,32.44843779199982,32.44843779199982,32.44843779199982,32.36045999966688,32.44843779199982,32.44843779199982,32.44843779199982,32.44843779199982,32.44843779199982,32.44843779199982,32.44843779199982,32.44843779199982,32.44843779199982,32.44843779199982,32.44843779199982,32.44843779199982,32.44843779199982,32.44843779199982,32.41045999966688,32.44843779199982,32.44843779199982,32.44843779199982,32.41045999966688,32.44843779199982,32.44843779199982,32.44843779199982,32.44843779199982,32.44843779199982,37.629184958000224,37.629184958000224,48.698649416999615,None,0,,reldom2_s040,001,2025-03-19_17h18.30.252,What-A-Scan_AC,2022.2.5,None,
1,First_Order,1.0,audwhat,stimulus/audwhat_stim/dummy.wav,stimulus/audwhat_stim/dummy.wav,stimulus/audwhat_stim/percussion mallet_low-pitch_Dtri_loud.wav,stimulus/audwhat_stim/percussion xylophone_high-pitch_F_loud.wav,stimulus/audwhat_stim/blank_white.png,stimulus/audwhat_stim/pitch_box.png,stimulus/audwhat_stim/pitch_yes.png,stimulus/audwhat_stim/pitch_no.png,None,Pitch,None,Category,2,0.0,0,5.125,0,5.125,0,5.125,0,0.0,0.625,0,0.0,0,0.0,0,0.0,0,0.0,0,0.0,0,0.0,1,0.5,1,2.125,0,,,,,0,1,1,1,,,,,,,,,48.698649416999615,48.698649416999615,48.698649416999615,48.698649416999615,48.698649416999615,48.698649416999615,48.698649416999615,48.698649416999615,48.62808325000005,48.698649416999615,48.698649416999615,48.698649416999615,48.62808325000005,48.698649416999615,48.698649416999615,48.698649416999615,50.7811337080002,,48.698649416999615,48.698649416999615,53.86055708300046,48.698649416999615,48.698649416999615,48.698649416999615,48.698649416999615,49.15205183299986,50.192617042000165,49.12284474966715,,50.7811337080002,51.823955542000476,50.752257458666705,51.823955542000476,48.698649416999615,53.86055708300046,48.698649416999615,53.86055708300046,53.900741458000084,54.5821088749999,48.698649416999615,2,1,1.299053124999773,reldom2_s040,001,2025-03-19_17h18.30.252,What-A-Scan_AC,2022.2.5,None,
2,First_Order,1.0,audwhat,stimulus/audwhat_stim/dummy.wav,stimulus/audwhat_stim/dummy.wav,stimulus/audwhat_stim/percussion xylophone_high-pitch_Dtri_loud.wav,stimulus/audwhat_stim/percussion mallet_low-pitch_D_loud.wav,stimulus/audwhat_stim/blank_white.png,stimulus/audwhat_stim/pitch_box.png,stimulus/audwhat_stim/pitch_yes.png,stimulus/audwhat_stim/pitch_no.png,None,Pitch,None,Category,2,0.0,0,5.125,0,5.125,0,5.125,0,0.0,0.625,0,0.0,0,0.0,0,0.0,0,0.0,0,0.0,0,0.0,1,0.5,1,2.125,0,,,,,0,2,2,2,,,,,,,,,54.790382791999946,54.790382791999946,54.790382791999946,54.790382791999946,54.790382791999946,54.790382791999946,54.790382791999946,54.790382791999946,54.715442208333236,54.790382791999946,54.790382791999946,54.790382791999946,54.715442208333236,54.790382791999946,54.790382791999946,54.790382791999946,56.891017750000174,,54.790382791999946,54.790382791999946,59.9483905420002,54.790382791999946,54.790382791999946,54.790382791999946,54.790382791999946,55.24645437500021,56.29721008300021,55.218010208667025,56.25169208300031,56.891017750000174,57.942129416999705,56.86182987466715,,54.790382791999946,59.9483905420002,54.790382791999946,59.9483905420002,59.98876591699991,60.67214695799976,54.790382791999946,2,1,1.312876416999643,reldom2_s040,001,2025-03-19_17h18.30.252,What-A-Scan_AC,2022.2.5,None,
3,First_Order,1.0,audwhat,stimulus/audwhat_stim/dummy.wav,stimulus/audwhat_stim/dummy.wav,stimulus/audwhat_stim/percussion mallet_low-pitch_F_loud.wav,stimulus/audwhat_stim/percussion xylophone_high-pitch_Ftri_loud.wav,stimulus/audwhat_stim/blank_white.png,stimulus/audwhat_stim/category_box.png,stimulus/audwhat_stim/category_yes.png,stimulus/audwhat_stim/category_no.png,None,Category,None,Category,1,0.0,0,5.125,0,5.125,0,5.125,0,0.0,0.625,0,0.0,0,0.0,0,0.0,0,0.0,0,0.0,0,0.0,1,0.5,1,2.125,0,,,,,0,3,3,3,,,,,,,,,60.88414091699997,60.88414091699997,60.88414091699997,60.88414091699997,60.88414091699997,60.88414091699997,60.88414091699997,60.88414091699997,60.80548029133309,60.88414091699997,60.88414091699997,60.88414091699997,60.80548029133309,60.88414091699997,60.88414091699997,60.88414091699997,62.954187542,,60.88414091699997,60.88414091699997,66.04334091700002,60.88414091699997,60.88414091699997,60.88414091699997,60.88414091699997,61.342895957999644,62.40375879200019,61.314282208666796,,62.954187542,64.01631045799968,62.9250294586666,63.97012879199974,60.88414091699997,66.04334091700002,60.88414091699997,66.04334091700002,66.08490079199964,66.73674429200037,60.88414091699997,1,1,0.9716456669993931,reldom2_s040,001,2025-03-19_17h18.30.252,What-A-Scan_AC,2022.2.5,None,
4,First_Order,1.0,audwhat,stimulus/audwhat_stim/dummy.wav,stimulus/audwhat_stim/dummy.wav,stimulus/audwhat_stim/percussion mallet_low-pitch_Dtri_loud.wav,stimulus/audwhat_stim/percussion mallet_high-pitch_F_loud.wav,stimulus/audwhat_stim/blank_white.png,stimulus/audwhat_stim/category_box.png,stimulus/audwhat_stim/category_yes.png,stimulus/audwhat_stim/category_no.png,None,Category,None,Category,1,0.0,0,5.125,0,5.125,0,5.125,0,0.0,0.625,0,0.0,0,0.0,0,0.0,0,0.0,0,0.0,0,0.0,1,0.5,1,2.125,0,,,,,0,4,4,4,,,,,,,,,66.98994445799963,66.98994445799963,66.98994445799963,66.98994445799963,66.98994445799963,66.98994445799963,66.98994445799963,66.98994445799963,66.9103207503332,66.98994445799963,66.98994445799963,66.98994445799963,66.9103207503332,66.98994445799963,66.98994445799963,66.98994445799963,69.06939833300021,73.13741095800015,66.98994445799963,66.98994445799963,72.17371325000022,66.98994445799963,66.98994445799963,66.98994445799963,66.98994445799963,67.45049770800051,68.5141902080004,67.42113833366717,,69.06939833300021,70.13974074999987,69.03986654166717,,66.98994445799963,72.17371325000022,66.98994445799963,72.17371325000022,72.21421395800007,72.8654795829998,66.98994445799963,1,1,0.8179209589998209,reldom2_s040,001,2025-03-19_17h18.30.252,What-A-Scan_AC,2022.2.5,None,
0,0.0,None,fixation,stimulus/audwhat_stim/blank_white.png,stimulus/audwhat_stim/blank_white.png,stimulus/viswhat_stim/blank_white.png,stimulus/viswhat_stim/blank_white.png,stimulus/audwhat_stim/blank_white.png,stimulus/audwhat_stim/blank_white.png,stimulus/audwhat_stim/blank_white.png,stimulus/audwhat_stim/blank_white.png,0.0,0.0,0.0,0.0,0,0.0,0,0.0,0,0.0,0,0.0,0,0.0,0.0,0,0.0,0,0.0,0,0.0,0,0.0,0,0.0,0,0.0,0,0.0,0,0.0,10,,,,,0,5,5,5,,,,,,,,,73.13741095800015,73.13741095800015,73.13741095800015,73.13741095800015,73.13741095800015,73.13741095800015,73.13741095800015,73.13741095800015,73.0390627913331,73.13741095800015,73.13741095800015,73.13741095800015,73.0390627913331,73.13741095800015,73.13741095800015,73.13741095800015,73.13741095800015,73.13741095800015,73.13741095800015,73.13741095800015,73.13741095800015,73.13741095800015,73.13741095800015,73.13741095800015,73.13741095800015,73.13741095800015,73.13741095800015,73.0890627913331,73.13741095800015,73.13741095800015,73.13741095800015,73.0890627913331,73.13741095800015,73.13741095800015,73.13741095800015,73.13741095800015,73.13741095800015,78.34596941699965,78.34596941699965,83.2867026670001,None,0,,reldom2_s040,001,2025-03-19_17h18.30.252,What-A-Scan_AC,2022.2.5,None,
5,Second_Order,1.0,audwhat,stimulus/audwhat_stim/string cello_low-pitch_D_loud.wav,stimulus/audwhat_stim/string viola_high-pitch_Dtri_loud.wav,stimulus/audwhat_stim/percussion mallet_low-pitch_D_loud.wav,stimulus/audwhat_stim/string viola_low-pitch_D_loud.wav,stimulus/audwhat_stim/match_blank.png,stimulus/audwhat_stim/match_box.png,stimulus/audwhat_stim/match_yes.png,stimulus/audwhat_stim/match_no.png,2.0,Match,Category,Pitch,2,5.125,0,5.125,0,5.125,0,5.125,0,0.75,0.75,0,0.0,0,0.0,0,0.0,0,0.0,1,0.5,1,2.125,1,0.5,1,2.125,0,,,,,0,6,6,6,,,,,,,,,83.2867026670001,88.4083856670004,83.2867026670001,83.2867026670001,83.2867026670001,83.2867026670001,83.74559950000003,84.74397483299981,83.75853345866678,,85.36696325000048,86.36456312500013,85.37937241666647,,88.4083856670004,89.25433591700039,91.31808591699973,,89.25433591700039,89.25433591700039,94.4157862080001,89.25433591700039,89.25433591700039,89.25433591700039,89.25433591700039,89.71066520800014,90.76853870800005,89.68166554166716,,91.31808591699973,92.38176612500047,91.28854154166699,,89.25433591700039,94.4157862080001,89.25433591700039,94.4157862080001,94.4157862080001,,89.25433591700039,2,1,1.4660510009989594,reldom2_s040,001,2025-03-19_17h18.30.252,What-A-Scan_AC,2022.2.5,None,
6,Second_Order,1.0,audwhat,stimulus/audwhat_stim/string cello_high-pitch_Dtri_loud.wav,stimulus/audwhat_stim/percussion mallet_high-pitch_Dtri_loud.wav,stimulus/audwhat_stim/percussion mallet_low-pitch_Ftri_loud.wav,stimulus/audwhat_stim/string cello_low-pitch_Ftri_loud.wav,stimulus/audwhat_stim/match_blank.png,stimulus/audwhat_stim/match_box.png,stimulus/audwhat_stim/match_yes.png,stimulus/audwhat_stim/match_no.png,1.0,Match,Pitch,Pitch,1,5.125,0,5.125,0,5.125,0,5.125,0,0.625,0.625,0,0.0,0,0.0,0,0.0,0,0.0,1,0.5,1,2.125,1,0.5,1,2.125,0,,,,,0,7,7,7,,,,,,,,,95.22384579200025,100.34692854199966,95.22384579200025,95.22384579200025,95.22384579200025,95.22384579200025,95.67260341699966,96.67169900000044,95.68569291666633,,97.30653687500035,98.29548750000049,97.30961024966679,98.29548750000049,100.34692854199966,101.08084879200032,103.13664204199995,,101.08084879200032,101.08084879200032,106.25932466700033,101.08084879200032,101.08084879200032,101.08084879200032,101.08084879200032,101.53536650000024,102.58790150000004,101.50621329166667,,103.13664204199995,104.1932040419997,103.10790370866677,,101.08084879200032,106.25932466700033,101.08084879200032,106.25932466700033,106.25932466700033,106.90730062500006,101.08084879200032,2,0,1.1380185419993722,reldom2_s040,001,2025-03-19_17h18.30.252,What-A-Scan_AC,2022.2.5,None,
0,0.0,None,fixation,stimulus/audwhat_stim/blank_white.png,stimulus/audwhat_stim/blank_white.png,stimulus/viswhat_stim/blank_white.png,stimulus/viswhat_stim/blank_white.png,stimulus/audwhat_stim/blank_white.png,stimulus/audwhat_stim/blank_white.png,stimulus/audwhat_stim/blank_white.png,stimulus/audwhat_stim/blank_white.png,0.0,0.0,0.0,0.0,0,0.0,0,0.0,0,0.0,0,0.0,0,0.0,0.0,0,0.0,0,0.0,0,0.0,0,0.0,0,0.0,0,0.0,0,0.0,0,0.0,9,,,,,0,8,8,8,,,,,,,,,107.17897495800025,107.17897495800025,107.17897495800025,107.17897495800025,107.17897495800025,107.17897495800025,107.17897495800025,107.17897495800025,107.08102558333314,107.17897495800025,107.17897495800025,107.17897495800025,107.08102558333314,107.17897495800025,107.17897495800025,107.17897495800025,107.17897495800025,107.17897495800025,107.17897495800025,107.17897495800025,107.17897495800025,107.17897495800025,107.17897495800025,107.17897495800025,107.17897495800025,107.17897495800025,107.17897495800025,107.13102558333316,107.17897495800025,107.17897495800025,107.17897495800025,107.13102558333316,107.17897495800025,107.17897495800025,107.17897495800025,107.17897495800025,107.17897495800025,112.3828419170004,112.3828419170004,116.44033333300013,None,0,,reldom2_s040,001,2025-03-19_17h18.30.252,What-A-Scan_AC,2022.2.5,None,
7,First_Order,2.0,audwhat,stimulus/audwhat_stim/dummy.wav,stimulus/audwhat_stim/dummy.wav,stimulus/audwhat_stim/string cello_low-pitch_F_loud.wav,stimulus/audwhat_stim/percussion mallet_low-pitch_F_loud.wav,stimulus/audwhat_stim/blank_white.png,stimulus/audwhat_stim/pitch_box.png,stimulus/audwhat_stim/pitch_yes.png,stimulus/audwhat_stim/pitch_no.png,None,Pitch,None,Pitch,1,0.0,0,5.125,0,5.125,0,5.125,0,0.0,0.625,0,0.0,0,0.0,0,0.0,0,0.0,0,0.0,0,0.0,1,0.5,1,2.125,0,,,,,0,9,9,9,,,,,,,,,116.44033333300013,116.44033333300013,116.44033333300013,116.44033333300013,116.44033333300013,116.44033333300013,116.44033333300013,116.44033333300013,116.36847983366685,116.44033333300013,116.44033333300013,116.44033333300013,116.36847983366685,116.44033333300013,116.44033333300013,116.44033333300013,118.52333779200035,122.5687123329999,116.44033333300013,116.44033333300013,121.62186183300037,116.44033333300013,116.44033333300013,116.44033333300013,116.44033333300013,116.90360616700036,117.96783408299962,116.87403949966689,,118.52333779200035,119.58814816700033,118.49330270866655,,116.44033333300013,121.62186183300037,116.44033333300013,121.62186183300037,121.66279754199968,122.31549287500002,116.44033333300013,2,0,1.4575545839998085,reldom2_s040,001,2025-03-19_17h18.30.252,What-A-Scan_AC,2022.2.5,None,
8,First_Order,2.0,audwhat,stimulus/audwhat_stim/dummy.wav,stimulus/audwhat_stim/dummy.wav,stimulus/audwhat_stim/string cello_low-pitch_Dtri_loud.wav,stimulus/audwhat_stim/percussion mallet_low-pitch_Dtri_loud.wav,stimulus/audwhat_stim/blank_white.png,stimulus/audwhat_stim/category_box.png,stimulus/audwhat_stim/category_yes.png,stimulus/audwhat_stim/category_no.png,None,Category,None,Pitch,2,0.0,0,5.125,0,5.125,0,5.125,0,0.0,0.625,0,0.0,0,0.0,0,0.0,0,0.0,0,0.0,0,0.0,1,0.5,1,2.125,0,,,,,0,10,10,10,,,,,,,,,122.5687123329999,122.5687123329999,122.5687123329999,122.5687123329999,122.5687123329999,122.5687123329999,122.5687123329999,122.5687123329999,122.4894197503337,122.5687123329999,122.5687123329999,122.5687123329999,122.4894197503337,122.5687123329999,122.5687123329999,122.5687123329999,124.66295366699978,128.68827854200026,122.5687123329999,122.5687123329999,127.73621487499986,122.5687123329999,122.5687123329999,122.5687123329999,122.5687123329999,123.03393770799994,124.103839333,123.00421570866662,,124.66295366699978,125.73394345799989,124.63353574966665,,122.5687123329999,127.73621487499986,122.5687123329999,127.73621487499986,127.77747154200006,128.43391466699995,122.5687123329999,2,1,1.2427899579997757,reldom2_s040,001,2025-03-19_17h18.30.252,What-A-Scan_AC,2022.2.5,None,
9,First_Order,2.0,audwhat,stimulus/audwhat_stim/dummy.wav,stimulus/audwhat_stim/dummy.wav,stimulus/audwhat_stim/string cello_high-pitch_F_loud.wav,stimulus/audwhat_stim/percussion mallet_high-pitch_F_loud.wav,stimulus/audwhat_stim/blank_white.png,stimulus/audwhat_stim/pitch_box.png,stimulus/audwhat_stim/pitch_yes.png,stimulus/audwhat_stim/pitch_no.png,None,Pitch,None,Pitch,1,0.0,0,5.125,0,5.125,0,5.125,0,0.0,0.625,0,0.0,0,0.0,0,0.0,0,0.0,0,0.0,0,0.0,1,0.5,1,2.125,0,,,,,0,11,11,11,,,,,,,,,128.68827854200026,128.68827854200026,128.68827854200026,128.68827854200026,128.68827854200026,128.68827854200026,128.68827854200026,128.68827854200026,128.60800104133355,128.68827854200026,128.68827854200026,128.68827854200026,128.60800104133355,128.68827854200026,128.68827854200026,128.68827854200026,130.77445458300008,,128.68827854200026,128.68827854200026,133.8419005830001,128.68827854200026,128.68827854200026,128.68827854200026,128.68827854200026,129.15387708300022,130.21723029199984,129.123706624667,,130.77445458300008,131.8449635420002,130.74444062466708,,128.68827854200026,133.8419005830001,128.68827854200026,133.8419005830001,133.88342058299986,134.53813216700019,128.68827854200026,2,0,1.2136725840000508,reldom2_s040,001,2025-03-19_17h18.30.252,What-A-Scan_AC,2022.2.5,None,
10,First_Order,2.0,audwhat,stimulus/audwhat_stim/dummy.wav,stimulus/audwhat_stim/dummy.wav,stimulus/audwhat_stim/percussion xylophone_high-pitch_D_loud.wav,stimulus/audwhat_stim/string cello_high-pitch_D_loud.wav,stimulus/audwhat_stim/blank_white.png,stimulus/audwhat_stim/category_box.png,stimulus/audwhat_stim/category_yes.png,stimulus/audwhat_stim/category_no.png,None,Category,None,Pitch,2,0.0,0,5.125,0,5.125,0,5.125,0,0.0,0.625,0,0.0,0,0.0,0,0.0,0,0.0,0,0.0,0,0.0,1,0.5,1,2.125,0,,,,,0,12,12,12,,,,,,,,,134.79169145800006,134.79169145800006,134.79169145800006,134.79169145800006,134.79169145800006,134.79169145800006,134.79169145800006,134.79169145800006,134.71208062533347,134.79169145800006,134.79169145800006,134.79169145800006,134.71208062533347,134.79169145800006,134.79169145800006,134.79169145800006,136.8948714170001,,134.79169145800006,134.79169145800006,139.97627408300013,134.79169145800006,134.79169145800006,134.79169145800006,134.79169145800006,135.2598649170004,136.33588829200016,135.22897520866653,136.2892108750002,136.8948714170001,137.96956529199997,136.86502166666676,,134.79169145800006,139.97627408300013,134.79169145800006,139.97627408300013,140.01774179200038,140.67659091699988,134.79169145800006,2,1,1.250676750999446,reldom2_s040,001,2025-03-19_17h18.30.252,What-A-Scan_AC,2022.2.5,None,
0,0.0,None,fixation,stimulus/audwhat_stim/blank_white.png,stimulus/audwhat_stim/blank_white.png,stimulus/viswhat_stim/blank_white.png,stimulus/viswhat_stim/blank_white.png,stimulus/audwhat_stim/blank_white.png,stimulus/audwhat_stim/blank_white.png,stimulus/audwhat_stim/blank_white.png,stimulus/audwhat_stim/blank_white.png,0.0,0.0,0.0,0.0,0,0.0,0,0.0,0,0.0,0,0.0,0,0.0,0.0,0,0.0,0,0.0,0,0.0,0,0.0,0,0.0,0,0.0,0,0.0,0,0.0,10,,,,,0,13,13,13,,,,,,,,,140.90992237499995,140.90992237499995,140.90992237499995,140.90992237499995,140.90992237499995,140.90992237499995,140.90992237499995,140.90992237499995,140.80992425033324,140.90992237499995,140.90992237499995,140.90992237499995,140.80992425033324,140.90992237499995,140.90992237499995,140.90992237499995,140.90992237499995,140.90992237499995,140.90992237499995,140.90992237499995,140.90992237499995,140.90992237499995,140.90992237499995,140.90992237499995,140.90992237499995,140.90992237499995,140.90992237499995,140.85992425033322,140.90992237499995,140.90992237499995,140.90992237499995,140.85992425033322,140.90992237499995,140.90992237499995,140.90992237499995,140.90992237499995,140.90992237499995,146.1181082080002,146.1181082080002,151.04653250000047,None,0,,reldom2_s040,001,2025-03-19_17h18.30.252,What-A-Scan_AC,2022.2.5,None,
11,Second_Order,2.0,audwhat,stimulus/audwhat_stim/string viola_high-pitch_D_loud.wav,stimulus/audwhat_stim/percussion xylophone_high-pitch_D_loud.wav,stimulus/audwhat_stim/percussion mallet_low-pitch_F_loud.wav,stimulus/audwhat_stim/string viola_low-pitch_F_loud.wav,stimulus/audwhat_stim/match_blank.png,stimulus/audwhat_stim/match_box.png,stimulus/audwhat_stim/match_yes.png,stimulus/audwhat_stim/match_no.png,1.0,Match,Pitch,Pitch,1,5.125,0,5.125,0,5.125,0,5.125,0,0.75,0.75,0,0.0,0,0.0,0,0.0,0,0.0,1,0.5,1,2.125,1,0.5,1,2.125,0,,,,,0,14,14,14,,,,,,,,,151.04653250000047,156.1639833750005,151.04653250000047,151.04653250000047,151.04653250000047,151.04653250000047,151.50144654199994,152.48706537500038,151.5150859996668,,153.1236622919996,154.12118566699974,153.13561979166687,154.12456570799986,156.1639833750005,157.01374895800018,159.054694208,,157.01374895800018,157.01374895800018,162.16300887499983,157.01374895800018,157.01374895800018,157.01374895800018,157.01374895800018,157.42972091699994,158.49768500000027,157.39995579166705,,159.054694208,160.12407487499968,159.02449949966675,,157.01374895800018,162.16300887499983,157.01374895800018,162.16300887499983,162.20458166699973,,157.01374895800018,2,0,2.256029999999555,reldom2_s040,001,2025-03-19_17h18.30.252,What-A-Scan_AC,2022.2.5,None,
12,Second_Order,2.0,audwhat,stimulus/audwhat_stim/percussion mallet_high-pitch_Dtri_loud.wav,stimulus/audwhat_stim/string viola_high-pitch_Dtri_loud.wav,stimulus/audwhat_stim/string viola_low-pitch_Dtri_loud.wav,stimulus/audwhat_stim/percussion mallet_low-pitch_Dtri_loud.wav,stimulus/audwhat_stim/match_blank.png,stimulus/audwhat_stim/match_box.png,stimulus/audwhat_stim/match_yes.png,stimulus/audwhat_stim/match_no.png,1.0,Match,Pitch,Pitch,1,5.125,0,5.125,0,5.125,0,5.125,0,0.625,0.625,0,0.0,0,0.0,0,0.0,0,0.0,1,0.5,1,2.125,1,0.5,1,2.125,0,,,,,0,15,15,15,,,,,,,,,162.97742241699962,168.0912013750003,162.97742241699962,162.97742241699962,162.97742241699962,162.97742241699962,163.42828183300026,164.41510129200014,163.4420224586668,,165.05092637500002,166.0488984169997,165.0631214166663,,168.0912013750003,168.819953833,170.89986729199973,174.92556349999995,168.819953833,168.819953833,173.99984312499964,168.819953833,168.819953833,168.819953833,168.819953833,169.2346089169996,170.29818595800043,169.20510654166654,,170.89986729199973,171.96527095800047,170.86985299966662,,168.819953833,173.99984312499964,168.819953833,173.99984312499964,173.99984312499964,174.65156470800048,168.819953833,1,1,2.210113000000092,reldom2_s040,001,2025-03-19_17h18.30.252,What-A-Scan_AC,2022.2.5,None,
0,0.0,None,fixation,stimulus/audwhat_stim/blank_white.png,stimulus/audwhat_stim/blank_white.png,stimulus/viswhat_stim/blank_white.png,stimulus/viswhat_stim/blank_white.png,stimulus/audwhat_stim/blank_white.png,stimulus/audwhat_stim/blank_white.png,stimulus/audwhat_stim/blank_white.png,stimulus/audwhat_stim/blank_white.png,0.0,0.0,0.0,0.0,0,0.0,0,0.0,0,0.0,0,0.0,0,0.0,0.0,0,0.0,0,0.0,0,0.0,0,0.0,0,0.0,0,0.0,0,0.0,0,0.0,8,,,,,0,16,16,16,,,,,,,,,174.92556349999995,174.92556349999995,174.92556349999995,174.92556349999995,174.92556349999995,174.92556349999995,174.92556349999995,174.92556349999995,174.82588512533326,174.92556349999995,174.92556349999995,174.92556349999995,174.82588512533326,174.92556349999995,174.92556349999995,174.92556349999995,174.92556349999995,174.92556349999995,174.92556349999995,174.92556349999995,174.92556349999995,174.92556349999995,174.92556349999995,174.92556349999995,174.92556349999995,174.92556349999995,174.92556349999995,174.87588512533324,174.92556349999995,174.92556349999995,174.92556349999995,174.87588512533324,174.92556349999995,174.92556349999995,174.92556349999995,174.92556349999995,174.92556349999995,180.15491120800016,180.15491120800016,183.29553120800028,None,0,,reldom2_s040,001,2025-03-19_17h18.30.252,What-A-Scan_AC,2022.2.5,None,
13,First_Order,3.0,viswhat,stimulus/viswhat_stim/blank_white.png,stimulus/viswhat_stim/blank_white.png,stimulus/viswhat_stim/water_vehicle-cruiseship.png,stimulus/viswhat_stim/land_vehicle-pickuptruck.png,stimulus/viswhat_stim/blank_white.png,stimulus/viswhat_stim/type_box.png,stimulus/viswhat_stim/type_yes.png,stimulus/viswhat_stim/type_no.png,None,Type,None,Type,1,0.0,0,5.125,0,5.125,0,5.125,0,0.0,0.625,0,0.0,0,0.0,1,0.5,1,2.125,0,0.0,0,0.0,0,0.0,0,0.0,0,,,,,0,17,17,17,,,,,,,,,183.29553120800028,183.29553120800028,183.29553120800028,183.29553120800028,183.29553120800028,183.29553120800028,183.29553120800028,183.29553120800028,183.10199941666696,183.29553120800028,183.29553120800028,183.29553120800028,183.10199941666696,183.29553120800028,183.29553120800028,183.29553120800028,185.3239242919999,,183.29553120800028,183.29553120800028,188.5105660830004,183.68185045799964,184.84204220799984,185.3239242919999,186.48516012500022,183.29553120800028,183.29553120800028,183.20199941666695,183.29553120800028,183.29553120800028,183.29553120800028,183.20199941666695,183.29553120800028,183.29553120800028,188.5105660830004,183.29553120800028,188.5105660830004,188.41995916700034,189.7313017919996,183.29553120800028,1,1,1.2392063759998564,reldom2_s040,001,2025-03-19_17h18.30.252,What-A-Scan_AC,2022.2.5,None,
14,First_Order,3.0,viswhat,stimulus/viswhat_stim/blank_white.png,stimulus/viswhat_stim/blank_white.png,stimulus/viswhat_stim/water_animal-lobster.png,stimulus/viswhat_stim/water_vehicle-cruiseship.png,stimulus/viswhat_stim/blank_white.png,stimulus/viswhat_stim/location_box.png,stimulus/viswhat_stim/location_yes.png,stimulus/viswhat_stim/location_no.png,None,Location,None,Location,1,0.0,0,5.125,0,5.125,0,5.125,0,0.0,0.625,0,0.0,0,0.0,1,0.5,1,2.125,0,0.0,0,0.0,0,0.0,0,0.0,0,,,,,0,18,18,18,,,,,,,,,189.7313017919996,189.7313017919996,189.7313017919996,189.7313017919996,189.7313017919996,189.7313017919996,189.7313017919996,189.7313017919996,189.28943995833356,189.7313017919996,189.7313017919996,189.7313017919996,189.28943995833356,189.7313017919996,189.7313017919996,189.7313017919996,191.7161241670001,,189.7313017919996,189.7313017919996,195.2432303329997,190.17273766699964,191.49554545800038,191.7161241670001,193.04416975000004,189.7313017919996,189.7313017919996,189.50610662500023,189.7313017919996,189.7313017919996,189.7313017919996,189.50610662500023,189.7313017919996,189.7313017919996,195.2432303329997,189.7313017919996,195.2432303329997,194.80747874999997,,189.7313017919996,1,1,0.7324920419996488,reldom2_s040,001,2025-03-19_17h18.30.252,What-A-Scan_AC,2022.2.5,None,
15,First_Order,3.0,viswhat,stimulus/viswhat_stim/blank_white.png,stimulus/viswhat_stim/blank_white.png,stimulus/viswhat_stim/water_vehicle-cruiseship.png,stimulus/viswhat_stim/land_vehicle-bus.png,stimulus/viswhat_stim/blank_white.png,stimulus/viswhat_stim/location_box.png,stimulus/viswhat_stim/location_yes.png,stimulus/viswhat_stim/location_no.png,None,Location,None,Type,2,0.0,0,5.125,0,5.125,0,5.125,0,0.0,0.625,0,0.0,0,0.0,1,0.5,1,2.125,0,0.0,0,0.0,0,0.0,0,0.0,0,,,,,0,19,19,19,,,,,,,,,195.92102437500034,195.92102437500034,195.92102437500034,195.92102437500034,195.92102437500034,195.92102437500034,195.92102437500034,195.92102437500034,195.72656366633305,195.92102437500034,195.92102437500034,195.92102437500034,195.72656366633305,195.92102437500034,195.92102437500034,195.92102437500034,197.94253412499984,,195.92102437500034,195.92102437500034,201.1711087499998,196.32669033300044,197.43864833299995,197.94253412499984,199.05521879200023,195.92102437500034,195.92102437500034,195.82656366633304,195.92102437500034,195.92102437500034,195.92102437500034,195.82656366633304,195.92102437500034,195.92102437500034,201.1711087499998,195.92102437500034,201.1711087499998,201.07614116700006,,195.92102437500034,2,1,1.1931937919998745,reldom2_s040,001,2025-03-19_17h18.30.252,What-A-Scan_AC,2022.2.5,None,
16,First_Order,3.0,viswhat,stimulus/viswhat_stim/blank_white.png,stimulus/viswhat_stim/blank_white.png,stimulus/viswhat_stim/land_vehicle-oldcar.png,stimulus/viswhat_stim/water_vehicle-pirateship.png,stimulus/viswhat_stim/blank_white.png,stimulus/viswhat_stim/type_box.png,stimulus/viswhat_stim/type_yes.png,stimulus/viswhat_stim/type_no.png,None,Type,None,Type,1,0.0,0,5.125,0,5.125,0,5.125,0,0.0,0.625,0,0.0,0,0.0,1,0.5,1,2.125,0,0.0,0,0.0,0,0.0,0,0.0,0,,,,,0,20,20,20,,,,,,,,,201.9654095830001,201.9654095830001,201.9654095830001,201.9654095830001,201.9654095830001,201.9654095830001,201.9654095830001,201.9654095830001,201.89690179199988,201.9654095830001,201.9654095830001,201.9654095830001,201.89690179199988,201.9654095830001,201.9654095830001,201.9654095830001,204.06232966700009,,201.9654095830001,201.9654095830001,207.14418579199992,202.436896833,203.46440904199972,204.06232966700009,205.0938132500005,201.9654095830001,201.9654095830001,201.93023512533324,201.9654095830001,201.9654095830001,201.9654095830001,201.93023512533324,201.9654095830001,201.9654095830001,207.14418579199992,201.9654095830001,207.14418579199992,207.1815913749997,207.8526848749998,201.9654095830001,1,1,0.8401793329994689,reldom2_s040,001,2025-03-19_17h18.30.252,What-A-Scan_AC,2022.2.5,None,
0,0.0,None,fixation,stimulus/audwhat_stim/blank_white.png,stimulus/audwhat_stim/blank_white.png,stimulus/viswhat_stim/blank_white.png,stimulus/viswhat_stim/blank_white.png,stimulus/audwhat_stim/blank_white.png,stimulus/audwhat_stim/blank_white.png,stimulus/audwhat_stim/blank_white.png,stimulus/audwhat_stim/blank_white.png,0.0,0.0,0.0,0.0,0,0.0,0,0.0,0,0.0,0,0.0,0,0.0,0.0,0,0.0,0,0.0,0,0.0,0,0.0,0,0.0,0,0.0,0,0.0,0,0.0,9,,,,,0,21,21,21,,,,,,,,,208.0814107920005,208.0814107920005,208.0814107920005,208.0814107920005,208.0814107920005,208.0814107920005,208.0814107920005,208.0814107920005,207.98601820833315,208.0814107920005,208.0814107920005,208.0814107920005,207.98601820833315,208.0814107920005,208.0814107920005,208.0814107920005,208.0814107920005,208.0814107920005,208.0814107920005,208.0814107920005,208.0814107920005,208.0814107920005,208.0814107920005,208.0814107920005,208.0814107920005,208.0814107920005,208.0814107920005,208.03601820833313,208.0814107920005,208.0814107920005,208.0814107920005,208.03601820833313,208.0814107920005,208.0814107920005,208.0814107920005,208.0814107920005,208.0814107920005,213.29504537499997,213.29504537499997,217.24438604199986,None,0,,reldom2_s040,001,2025-03-19_17h18.30.252,What-A-Scan_AC,2022.2.5,None,
17,Second_Order,3.0,viswhat,stimulus/viswhat_stim/water_animal-shark.png,stimulus/viswhat_stim/water_vehicle-pirateship.png,stimulus/viswhat_stim/water_animal-squid.png,stimulus/viswhat_stim/land_animal-elephant.png,stimulus/audwhat_stim/match_blank.png,stimulus/audwhat_stim/match_box.png,stimulus/audwhat_stim/match_yes.png,stimulus/audwhat_stim/match_no.png,2.0,Match,Location,Type,2,5.125,0,5.125,0,5.125,0,5.125,0,0.75,0.75,1,0.5,1,2.125,1,0.5,1,2.125,0,0.0,0,0.0,0,0.0,0,0.0,0,,,,,0,22,22,22,,,,,,,,,217.24438604199986,222.36645487500027,217.70378916699974,218.690483417,219.32623779200003,220.32407554200017,217.24438604199986,217.24438604199986,217.2549601249997,217.24438604199986,217.24438604199986,217.24438604199986,217.2549601249997,217.24438604199986,222.36645487500027,223.26278016699962,225.33530670799973,229.22940941700017,223.26278016699962,223.26278016699962,228.4805772919999,223.6631077080001,224.7340802079998,225.33530670799973,226.40984562500034,223.26278016699962,223.26278016699962,223.20168670799978,223.26278016699962,223.26278016699962,223.26278016699962,223.20168670799978,223.26278016699962,223.26278016699962,228.4805772919999,223.26278016699962,228.4805772919999,228.4190969580004,,223.26278016699962,2,1,2.190699166999366,reldom2_s040,001,2025-03-19_17h18.30.252,What-A-Scan_AC,2022.2.5,None,
18,Second_Order,3.0,viswhat,stimulus/viswhat_stim/land_vehicle-pickuptruck.png,stimulus/viswhat_stim/water_vehicle-pirateship.png,stimulus/viswhat_stim/water_animal-jellyfish.png,stimulus/viswhat_stim/land_animal-snake.png,stimulus/audwhat_stim/match_blank.png,stimulus/audwhat_stim/match_box.png,stimulus/audwhat_stim/match_yes.png,stimulus/audwhat_stim/match_no.png,1.0,Match,Type,Type,1,5.125,0,5.125,0,5.125,0,5.125,0,0.625,0.625,1,0.5,1,2.125,1,0.5,1,2.125,0,0.0,0,0.0,0,0.0,0,0.0,0,,,,,0,23,23,23,,,,,,,,,229.22940941700017,234.34361075000015,229.69967341699976,230.69780733300013,231.33295875000022,232.3215557499998,229.22940941700017,229.22940941700017,229.2420307080005,229.22940941700017,229.22940941700017,229.22940941700017,229.2420307080005,229.22940941700017,234.34361075000015,235.03692287499962,237.1047418750004,,235.03692287499962,235.03692287499962,240.16942329199992,235.47854845799975,236.4994726670002,237.1047418750004,238.1290600000002,235.03692287499962,235.03692287499962,235.00810933299982,235.03692287499962,235.03692287499962,235.03692287499962,235.00810933299982,235.03692287499962,235.03692287499962,240.16942329199992,235.03692287499962,240.16942329199992,240.2134858749996,240.85201462500027,235.03692287499962,1,1,1.2828044589996352,reldom2_s040,001,2025-03-19_17h18.30.252,What-A-Scan_AC,2022.2.5,None,
0,0.0,None,fixation,stimulus/audwhat_stim/blank_white.png,stimulus/audwhat_stim/blank_white.png,stimulus/viswhat_stim/blank_white.png,stimulus/viswhat_stim/blank_white.png,stimulus/audwhat_stim/blank_white.png,stimulus/audwhat_stim/blank_white.png,stimulus/audwhat_stim/blank_white.png,stimulus/audwhat_stim/blank_white.png,0.0,0.0,0.0,0.0,0,0.0,0,0.0,0,0.0,0,0.0,0,0.0,0.0,0,0.0,0,0.0,0,0.0,0,0.0,0,0.0,0,0.0,0,0.0,0,0.0,8,,,,,0,24,24,24,,,,,,,,,241.13952470799995,241.13952470799995,241.13952470799995,241.13952470799995,241.13952470799995,241.13952470799995,241.13952470799995,241.13952470799995,241.03915691700024,241.13952470799995,241.13952470799995,241.13952470799995,241.03915691700024,241.13952470799995,241.13952470799995,241.13952470799995,241.13952470799995,241.13952470799995,241.13952470799995,241.13952470799995,241.13952470799995,241.13952470799995,241.13952470799995,241.13952470799995,241.13952470799995,241.13952470799995,241.13952470799995,241.08915691700022,241.13952470799995,241.13952470799995,241.13952470799995,241.08915691700022,241.13952470799995,241.13952470799995,241.13952470799995,241.13952470799995,241.13952470799995,246.3451447919997,246.3451447919997,249.34228220800014,None,0,,reldom2_s040,001,2025-03-19_17h18.30.252,What-A-Scan_AC,2022.2.5,None,
19,First_Order,4.0,viswhat,stimulus/viswhat_stim/blank_white.png,stimulus/viswhat_stim/blank_white.png,stimulus/viswhat_stim/land_animal-wolf.png,stimulus/viswhat_stim/water_animal-squid.png,stimulus/viswhat_stim/blank_white.png,stimulus/viswhat_stim/location_box.png,stimulus/viswhat_stim/location_yes.png,stimulus/viswhat_stim/location_no.png,None,Location,None,Type,2,0.0,0,5.125,0,5.125,0,5.125,0,0.0,0.625,0,0.0,0,0.0,1,0.5,1,2.125,0,0.0,0,0.0,0,0.0,0,0.0,0,,,,,0,25,25,25,,,,,,,,,249.34228220800014,249.34228220800014,249.34228220800014,249.34228220800014,249.34228220800014,249.34228220800014,249.34228220800014,249.34228220800014,249.299340416667,249.34228220800014,249.34228220800014,249.34228220800014,249.299340416667,249.34228220800014,249.34228220800014,249.34228220800014,251.44707091700002,255.41347808299997,249.34228220800014,249.34228220800014,254.50098900000012,249.82983375000003,250.86859129200002,251.44707091700002,252.4897175420001,249.34228220800014,249.34228220800014,249.31600708333366,249.34228220800014,249.34228220800014,249.34228220800014,249.31600708333366,249.34228220800014,249.34228220800014,254.50098900000012,249.34228220800014,254.50098900000012,254.550437375,255.19577670800027,249.34228220800014,2,1,1.5592624589999105,reldom2_s040,001,2025-03-19_17h18.30.252,What-A-Scan_AC,2022.2.5,None,
20,First_Order,4.0,viswhat,stimulus/viswhat_stim/blank_white.png,stimulus/viswhat_stim/blank_white.png,stimulus/viswhat_stim/water_animal-jellyfish.png,stimulus/viswhat_stim/water_vehicle-motorboatraft.png,stimulus/viswhat_stim/blank_white.png,stimulus/viswhat_stim/location_box.png,stimulus/viswhat_stim/location_yes.png,stimulus/viswhat_stim/location_no.png,None,Location,None,Location,1,0.0,0,5.125,0,5.125,0,5.125,0,0.0,0.625,0,0.0,0,0.0,1,0.5,1,2.125,0,0.0,0,0.0,0,0.0,0,0.0,0,,,,,0,26,26,26,,,,,,,,,255.41347808299997,255.41347808299997,255.41347808299997,255.41347808299997,255.41347808299997,255.41347808299997,255.41347808299997,255.41347808299997,255.36987883299992,255.41347808299997,255.41347808299997,255.41347808299997,255.36987883299992,255.41347808299997,255.41347808299997,255.41347808299997,257.5141159579998,261.59118041700003,255.41347808299997,255.41347808299997,260.5467856670002,255.8774992919998,256.8887450000002,257.5141159579998,258.52774908300034,255.41347808299997,255.41347808299997,255.38654549966657,255.41347808299997,255.41347808299997,255.41347808299997,255.38654549966657,255.41347808299997,255.41347808299997,260.5467856670002,255.41347808299997,260.5467856670002,260.6335574169998,261.28089587500017,255.41347808299997,1,1,1.559308749999218,reldom2_s040,001,2025-03-19_17h18.30.252,What-A-Scan_AC,2022.2.5,None,
21,First_Order,4.0,viswhat,stimulus/viswhat_stim/blank_white.png,stimulus/viswhat_stim/blank_white.png,stimulus/viswhat_stim/land_animal-elephant.png,stimulus/viswhat_stim/land_vehicle-buldozer.png,stimulus/viswhat_stim/blank_white.png,stimulus/viswhat_stim/type_box.png,stimulus/viswhat_stim/type_yes.png,stimulus/viswhat_stim/type_no.png,None,Type,None,Location,2,0.0,0,5.125,0,5.125,0,5.125,0,0.0,0.625,0,0.0,0,0.0,1,0.5,1,2.125,0,0.0,0,0.0,0,0.0,0,0.0,0,,,,,0,27,27,27,,,,,,,,,261.59118041700003,261.59118041700003,261.59118041700003,261.59118041700003,261.59118041700003,261.59118041700003,261.59118041700003,261.59118041700003,261.4671561669998,261.59118041700003,261.59118041700003,261.59118041700003,261.4671561669998,261.59118041700003,261.59118041700003,261.59118041700003,263.68275449999965,,261.59118041700003,261.59118041700003,266.81803483299973,262.0779674579999,263.19404266699985,263.68275449999965,264.7999317499998,261.59118041700003,261.59118041700003,261.5338228336665,261.59118041700003,261.59118041700003,261.59118041700003,261.5338228336665,261.59118041700003,261.59118041700003,266.81803483299973,261.59118041700003,266.81803483299973,266.81803483299973,,261.59118041700003,2,1,1.4000365419997252,reldom2_s040,001,2025-03-19_17h18.30.252,What-A-Scan_AC,2022.2.5,None,
22,First_Order,4.0,viswhat,stimulus/viswhat_stim/blank_white.png,stimulus/viswhat_stim/blank_white.png,stimulus/viswhat_stim/water_animal-shark.png,stimulus/viswhat_stim/water_vehicle-cabincruiser.png,stimulus/viswhat_stim/blank_white.png,stimulus/viswhat_stim/type_box.png,stimulus/viswhat_stim/type_yes.png,stimulus/viswhat_stim/type_no.png,None,Type,None,Location,2,0.0,0,5.125,0,5.125,0,5.125,0,0.0,0.625,0,0.0,0,0.0,1,0.5,1,2.125,0,0.0,0,0.0,0,0.0,0,0.0,0,,,,,0,28,28,28,,,,,,,,,267.6626416250001,267.6626416250001,267.6626416250001,267.6626416250001,267.6626416250001,267.6626416250001,267.6626416250001,267.6626416250001,267.5786432083332,267.6626416250001,267.6626416250001,267.6626416250001,267.5786432083332,267.6626416250001,267.6626416250001,267.6626416250001,269.76791349999985,,267.6626416250001,267.6626416250001,272.83279366700026,268.13978854200013,269.1951037079998,269.76791349999985,270.8263501669999,267.6626416250001,267.6626416250001,267.62864320833313,267.6626416250001,267.6626416250001,267.6626416250001,267.62864320833313,267.6626416250001,267.6626416250001,272.83279366700026,267.6626416250001,272.83279366700026,272.87519112500013,273.54896841699974,267.6626416250001,2,1,1.2388216249992183,reldom2_s040,001,2025-03-19_17h18.30.252,What-A-Scan_AC,2022.2.5,None,
0,0.0,None,fixation,stimulus/audwhat_stim/blank_white.png,stimulus/audwhat_stim/blank_white.png,stimulus/viswhat_stim/blank_white.png,stimulus/viswhat_stim/blank_white.png,stimulus/audwhat_stim/blank_white.png,stimulus/audwhat_stim/blank_white.png,stimulus/audwhat_stim/blank_white.png,stimulus/audwhat_stim/blank_white.png,0.0,0.0,0.0,0.0,0,0.0,0,0.0,0,0.0,0,0.0,0,0.0,0.0,0,0.0,0,0.0,0,0.0,0,0.0,0,0.0,0,0.0,0,0.0,0,0.0,9,,,,,0,29,29,29,,,,,,,,,273.78846387500016,273.78846387500016,273.78846387500016,273.78846387500016,273.78846387500016,273.78846387500016,273.78846387500016,273.78846387500016,273.68230175033307,273.78846387500016,273.78846387500016,273.78846387500016,273.68230175033307,273.78846387500016,273.78846387500016,273.78846387500016,273.78846387500016,273.78846387500016,273.78846387500016,273.78846387500016,273.78846387500016,273.78846387500016,273.78846387500016,273.78846387500016,273.78846387500016,273.78846387500016,273.78846387500016,273.74896841699973,273.78846387500016,273.78846387500016,273.78846387500016,273.74896841699973,273.78846387500016,273.78846387500016,273.78846387500016,273.78846387500016,273.78846387500016,278.99810595800045,278.99810595800045,282.94289458300045,None,0,,reldom2_s040,001,2025-03-19_17h18.30.252,What-A-Scan_AC,2022.2.5,None,
23,Second_Order,4.0,viswhat,stimulus/viswhat_stim/water_vehicle-canoe(1).png,stimulus/viswhat_stim/land_vehicle-vespa.png,stimulus/viswhat_stim/land_animal-dog.png,stimulus/viswhat_stim/water_animal-jellyfish.png,stimulus/audwhat_stim/match_blank.png,stimulus/audwhat_stim/match_box.png,stimulus/audwhat_stim/match_yes.png,stimulus/audwhat_stim/match_no.png,1.0,Match,Type,Type,1,5.125,0,5.125,0,5.125,0,5.125,0,0.75,0.75,1,0.5,1,2.125,1,0.5,1,2.125,0,0.0,0,0.0,0,0.0,0,0.0,0,,,,,0,30,30,30,,,,,,,,,282.94289458300045,288.06376716700015,283.40712316700046,284.405676458,285.02918379200037,286.0260741250004,282.94289458300045,282.94289458300045,282.9410387913332,282.94289458300045,282.94289458300045,282.94289458300045,282.9410387913332,282.94289458300045,288.06376716700015,288.8805903749999,290.93808391699986,294.84077700000034,288.8805903749999,288.8805903749999,294.0262174999998,289.33701145800023,290.3673286250005,290.93808391699986,291.9719302499998,288.8805903749999,288.8805903749999,288.8498303330005,288.8805903749999,288.8805903749999,288.8805903749999,288.8498303330005,288.8805903749999,288.8805903749999,294.0262174999998,288.8805903749999,294.0262174999998,294.0723344170001,,288.8805903749999,1,1,0.6693192919992725,reldom2_s040,001,2025-03-19_17h18.30.252,What-A-Scan_AC,2022.2.5,None,
24,Second_Order,4.0,viswhat,stimulus/viswhat_stim/land_vehicle-tank.png,stimulus/viswhat_stim/water_vehicle-canoe(1).png,stimulus/viswhat_stim/water_animal-orka.png,stimulus/viswhat_stim/water_vehicle-cabincruiser.png,stimulus/audwhat_stim/match_blank.png,stimulus/audwhat_stim/match_box.png,stimulus/audwhat_stim/match_yes.png,stimulus/audwhat_stim/match_no.png,2.0,Match,Type,Location,2,5.125,0,5.125,0,5.125,0,5.125,0,0.625,0.625,1,0.5,1,2.125,1,0.5,1,2.125,0,0.0,0,0.0,0,0.0,0,0.0,0,,,,,0,31,31,31,,,,,,,,,294.84077700000034,299.9622213749999,295.3165421670001,296.3028959579997,296.951001292,297.93991087500035,294.84077700000034,294.84077700000034,294.850336874667,294.84077700000034,294.84077700000034,294.84077700000034,294.850336874667,294.84077700000034,299.9622213749999,300.7590204580001,302.79059099999995,,300.7590204580001,300.7590204580001,305.9949751670001,301.14882704200045,302.2416472920004,302.79059099999995,303.8851767920005,300.7590204580001,300.7590204580001,300.69265474966676,300.7590204580001,300.7590204580001,300.7590204580001,300.69265474966676,300.7590204580001,300.7590204580001,305.9949751670001,300.7590204580001,305.9949751670001,305.9224187079999,,300.7590204580001,2,1,1.5018862079996325,reldom2_s040,001,2025-03-19_17h18.30.252,What-A-Scan_AC,2022.2.5,None,
0,0.0,None,fixation,stimulus/audwhat_stim/blank_white.png,stimulus/audwhat_stim/blank_white.png,stimulus/viswhat_stim/blank_white.png,stimulus/viswhat_stim/blank_white.png,stimulus/audwhat_stim/blank_white.png,stimulus/audwhat_stim/blank_white.png,stimulus/audwhat_stim/blank_white.png,stimulus/audwhat_stim/blank_white.png,0.0,0.0,0.0,0.0,0,0.0,0,0.0,0,0.0,0,0.0,0,0.0,0.0,0,0.0,0,0.0,0,0.0,0,0.0,0,0.0,0,0.0,0,0.0,0,0.0,9,,,,,0,32,32,32,,,,,,,,,306.8075268749999,306.8075268749999,306.8075268749999,306.8075268749999,306.8075268749999,306.8075268749999,306.8075268749999,306.8075268749999,306.70577562499983,306.8075268749999,306.8075268749999,306.8075268749999,306.70577562499983,306.8075268749999,306.8075268749999,306.8075268749999,306.8075268749999,306.8075268749999,306.8075268749999,306.8075268749999,306.8075268749999,306.8075268749999,306.8075268749999,306.8075268749999,306.8075268749999,306.8075268749999,306.8075268749999,306.75577562499984,306.8075268749999,306.8075268749999,306.8075268749999,306.75577562499984,306.8075268749999,306.8075268749999,306.8075268749999,306.8075268749999,306.8075268749999,311.99410012499993,311.99410012499993,316.0379745420005,None,0,,reldom2_s040,001,2025-03-19_17h18.30.252,What-A-Scan_AC,2022.2.5,None,
25,First_Order,5.0,audwhat,stimulus/audwhat_stim/dummy.wav,stimulus/audwhat_stim/dummy.wav,stimulus/audwhat_stim/string cello_low-pitch_Dtri_loud.wav,stimulus/audwhat_stim/percussion mallet_low-pitch_Dtri_loud.wav,stimulus/audwhat_stim/blank_white.png,stimulus/audwhat_stim/pitch_box.png,stimulus/audwhat_stim/pitch_yes.png,stimulus/audwhat_stim/pitch_no.png,None,Pitch,None,Pitch,1,0.0,0,5.125,0,5.125,0,5.125,0,0.0,0.625,0,0.0,0,0.0,0,0.0,0,0.0,0,0.0,0,0.0,1,0.5,1,2.125,0,,,,,0,33,33,33,,,,,,,,,316.0379745420005,316.0379745420005,316.0379745420005,316.0379745420005,316.0379745420005,316.0379745420005,316.0379745420005,316.0379745420005,315.9647754996664,316.0379745420005,316.0379745420005,316.0379745420005,315.9647754996664,316.0379745420005,316.0379745420005,316.0379745420005,318.13073104199975,322.15085420800006,316.0379745420005,316.0379745420005,321.20181366700035,316.0379745420005,316.0379745420005,316.0379745420005,316.0379745420005,316.5050912500001,317.5738811250003,316.47528937466654,,318.13073104199975,319.205423333,318.10073483366637,,316.0379745420005,321.20181366700035,316.0379745420005,321.20181366700035,321.2431810830003,321.89723216699986,316.0379745420005,2,0,1.6855576669995571,reldom2_s040,001,2025-03-19_17h18.30.252,What-A-Scan_AC,2022.2.5,None,
26,First_Order,5.0,audwhat,stimulus/audwhat_stim/dummy.wav,stimulus/audwhat_stim/dummy.wav,stimulus/audwhat_stim/string cello_low-pitch_F_loud.wav,stimulus/audwhat_stim/percussion mallet_low-pitch_F_loud.wav,stimulus/audwhat_stim/blank_white.png,stimulus/audwhat_stim/pitch_box.png,stimulus/audwhat_stim/pitch_yes.png,stimulus/audwhat_stim/pitch_no.png,None,Pitch,None,Pitch,1,0.0,0,5.125,0,5.125,0,5.125,0,0.0,0.625,0,0.0,0,0.0,0,0.0,0,0.0,0,0.0,0,0.0,1,0.5,1,2.125,0,,,,,0,34,34,34,,,,,,,,,322.15085420800006,322.15085420800006,322.15085420800006,322.15085420800006,322.15085420800006,322.15085420800006,322.15085420800006,322.15085420800006,322.0714584163335,322.15085420800006,322.15085420800006,322.15085420800006,322.0714584163335,322.15085420800006,322.15085420800006,322.15085420800006,324.24389125000016,328.2685948750004,322.15085420800006,322.15085420800006,327.31615404199965,322.15085420800006,322.15085420800006,322.15085420800006,322.15085420800006,322.6170711670002,323.6853111669998,322.5870075836667,,324.24389125000016,325.31702504199984,324.21303724966697,,322.15085420800006,327.31615404199965,322.15085420800006,327.31615404199965,327.3574276250001,328.01266987500003,322.15085420800006,2,0,1.077907874999255,reldom2_s040,001,2025-03-19_17h18.30.252,What-A-Scan_AC,2022.2.5,None,
27,First_Order,5.0,audwhat,stimulus/audwhat_stim/dummy.wav,stimulus/audwhat_stim/dummy.wav,stimulus/audwhat_stim/string cello_high-pitch_D_loud.wav,stimulus/audwhat_stim/percussion mallet_high-pitch_D_loud.wav,stimulus/audwhat_stim/blank_white.png,stimulus/audwhat_stim/category_box.png,stimulus/audwhat_stim/category_yes.png,stimulus/audwhat_stim/category_no.png,None,Category,None,Pitch,2,0.0,0,5.125,0,5.125,0,5.125,0,0.0,0.625,0,0.0,0,0.0,0,0.0,0,0.0,0,0.0,0,0.0,1,0.5,1,2.125,0,,,,,0,35,35,35,,,,,,,,,328.2685948750004,328.2685948750004,328.2685948750004,328.2685948750004,328.2685948750004,328.2685948750004,328.2685948750004,328.2685948750004,328.187152083333,328.2685948750004,328.2685948750004,328.2685948750004,328.187152083333,328.2685948750004,328.2685948750004,328.2685948750004,330.3765589579998,,328.2685948750004,328.2685948750004,333.41966991699974,328.2685948750004,328.2685948750004,328.2685948750004,328.2685948750004,328.7371868330001,329.81178566699964,328.70699079166684,,330.3765589579998,331.40796404200046,330.34619291666627,,328.2685948750004,333.41966991699974,328.2685948750004,333.41966991699974,333.4615344169997,334.1184339170004,328.2685948750004,2,1,1.0712675419990774,reldom2_s040,001,2025-03-19_17h18.30.252,What-A-Scan_AC,2022.2.5,None,
28,First_Order,5.0,audwhat,stimulus/audwhat_stim/dummy.wav,stimulus/audwhat_stim/dummy.wav,stimulus/audwhat_stim/percussion mallet_low-pitch_Ftri_loud.wav,stimulus/audwhat_stim/percussion mallet_high-pitch_F_loud.wav,stimulus/audwhat_stim/blank_white.png,stimulus/audwhat_stim/category_box.png,stimulus/audwhat_stim/category_yes.png,stimulus/audwhat_stim/category_no.png,None,Category,None,Category,1,0.0,0,5.125,0,5.125,0,5.125,0,0.0,0.625,0,0.0,0,0.0,0,0.0,0,0.0,0,0.0,0,0.0,1,0.5,1,2.125,0,,,,,0,36,36,36,,,,,,,,,334.37500720800017,334.37500720800017,334.37500720800017,334.37500720800017,334.37500720800017,334.37500720800017,334.37500720800017,334.37500720800017,334.29242179133337,334.37500720800017,334.37500720800017,334.37500720800017,334.29242179133337,334.37500720800017,334.37500720800017,334.37500720800017,336.4759832919999,,334.37500720800017,334.37500720800017,339.5613045,334.37500720800017,334.37500720800017,334.37500720800017,334.37500720800017,334.8415433749997,335.9150082080005,334.81139179166644,,336.4759832919999,337.50795279199974,336.4458911246668,,334.37500720800017,339.5613045,334.37500720800017,339.5613045,339.6027826669997,340.2620930000003,334.37500720800017,1,1,0.7021737499990195,reldom2_s040,001,2025-03-19_17h18.30.252,What-A-Scan_AC,2022.2.5,None,
0,0.0,None,fixation,stimulus/audwhat_stim/blank_white.png,stimulus/audwhat_stim/blank_white.png,stimulus/viswhat_stim/blank_white.png,stimulus/viswhat_stim/blank_white.png,stimulus/audwhat_stim/blank_white.png,stimulus/audwhat_stim/blank_white.png,stimulus/audwhat_stim/blank_white.png,stimulus/audwhat_stim/blank_white.png,0.0,0.0,0.0,0.0,0,0.0,0,0.0,0,0.0,0,0.0,0,0.0,0.0,0,0.0,0,0.0,0,0.0,0,0.0,0,0.0,0,0.0,0,0.0,0,0.0,8,,,,,0,37,37,37,,,,,,,,,340.4963478749996,340.4963478749996,340.4963478749996,340.4963478749996,340.4963478749996,340.4963478749996,340.4963478749996,340.4963478749996,340.3954263333336,340.4963478749996,340.4963478749996,340.4963478749996,340.3954263333336,340.4963478749996,340.4963478749996,340.4963478749996,340.4963478749996,340.4963478749996,340.4963478749996,340.4963478749996,340.4963478749996,340.4963478749996,340.4963478749996,340.4963478749996,340.4963478749996,340.4963478749996,340.4963478749996,340.4454263333336,340.4963478749996,340.4963478749996,340.4963478749996,340.4454263333336,340.4963478749996,340.4963478749996,340.4963478749996,340.4963478749996,340.4963478749996,345.7098076250004,345.7098076250004,348.6494885000002,None,0,,reldom2_s040,001,2025-03-19_17h18.30.252,What-A-Scan_AC,2022.2.5,None,
29,Second_Order,5.0,audwhat,stimulus/audwhat_stim/percussion xylophone_high-pitch_Dtri_loud.wav,stimulus/audwhat_stim/percussion mallet_low-pitch_Ftri_loud.wav,stimulus/audwhat_stim/string viola_high-pitch_Ftri_loud.wav,stimulus/audwhat_stim/string viola_low-pitch_Dtri_loud.wav,stimulus/audwhat_stim/match_blank.png,stimulus/audwhat_stim/match_box.png,stimulus/audwhat_stim/match_yes.png,stimulus/audwhat_stim/match_no.png,1.0,Match,Category,Category,1,5.125,0,5.125,0,5.125,0,5.125,0,0.75,0.75,0,0.0,0,0.0,0,0.0,0,0.0,1,0.5,1,2.125,1,0.5,1,2.125,0,,,,,0,38,38,38,,,,,,,,,348.6494885000002,353.77040441700046,348.6494885000002,348.6494885000002,348.6494885000002,348.6494885000002,349.108712792,350.1074347920003,349.12161666666657,350.1110483330003,350.7302765000004,351.7276521249996,350.7419373336663,,353.77040441700046,354.6173898750003,356.66805891700005,,354.6173898750003,354.6173898750003,359.7857425000002,354.6173898750003,354.6173898750003,354.6173898750003,354.6173898750003,355.03723291700044,356.10801100000026,355.00704766666627,,356.66805891700005,357.7389989579997,356.6379557916664,,354.6173898750003,359.7857425000002,354.6173898750003,359.7857425000002,359.7857425000002,,354.6173898750003,1,1,1.214269916999001,reldom2_s040,001,2025-03-19_17h18.30.252,What-A-Scan_AC,2022.2.5,None,
30,Second_Order,5.0,audwhat,stimulus/audwhat_stim/percussion mallet_low-pitch_F_loud.wav,stimulus/audwhat_stim/percussion mallet_high-pitch_Ftri_loud.wav,stimulus/audwhat_stim/string viola_low-pitch_F_loud.wav,stimulus/audwhat_stim/string viola_high-pitch_Ftri_loud.wav,stimulus/audwhat_stim/match_blank.png,stimulus/audwhat_stim/match_box.png,stimulus/audwhat_stim/match_yes.png,stimulus/audwhat_stim/match_no.png,1.0,Match,Category,Category,1,5.125,0,5.125,0,5.125,0,5.125,0,0.625,0.625,0,0.0,0,0.0,0,0.0,0,0.0,1,0.5,1,2.125,1,0.5,1,2.125,0,,,,,0,39,39,39,,,,,,,,,360.6033079580002,365.7265615420001,360.6033079580002,360.6033079580002,360.6033079580002,360.6033079580002,361.05129433300044,362.03815083300015,361.06552149966706,,362.68633704199965,363.67510025000047,362.6897222496666,,365.7265615420001,366.4617448750005,368.50487645799967,,366.4617448750005,366.4617448750005,371.6200895000002,366.4617448750005,366.4617448750005,366.4617448750005,366.4617448750005,366.87864979200003,367.9469619170004,366.8486136666663,,368.50487645799967,369.5771874580005,368.4747632496667,,366.4617448750005,371.6200895000002,366.4617448750005,371.6200895000002,371.6200895000002,372.2773062920005,366.4617448750005,1,1,0.7118861669996477,reldom2_s040,001,2025-03-19_17h18.30.252,What-A-Scan_AC,2022.2.5,None,
0,0.0,None,fixation,stimulus/audwhat_stim/blank_white.png,stimulus/audwhat_stim/blank_white.png,stimulus/viswhat_stim/blank_white.png,stimulus/viswhat_stim/blank_white.png,stimulus/audwhat_stim/blank_white.png,stimulus/audwhat_stim/blank_white.png,stimulus/audwhat_stim/blank_white.png,stimulus/audwhat_stim/blank_white.png,0.0,0.0,0.0,0.0,0,0.0,0,0.0,0,0.0,0,0.0,0,0.0,0.0,0,0.0,0,0.0,0,0.0,0,0.0,0,0.0,0,0.0,0,0.0,0,0.0,9,,,,,0,40,40,40,,,,,,,,,372.5530467919998,372.5530467919998,372.5530467919998,372.5530467919998,372.5530467919998,372.5530467919998,372.5530467919998,372.5530467919998,372.4520671253332,372.5530467919998,372.5530467919998,372.5530467919998,372.4520671253332,372.5530467919998,372.5530467919998,372.5530467919998,372.5530467919998,372.5530467919998,372.5530467919998,372.5530467919998,372.5530467919998,372.5530467919998,372.5530467919998,372.5530467919998,372.5530467919998,372.5530467919998,372.5530467919998,372.5020671253332,372.5530467919998,372.5530467919998,372.5530467919998,372.5020671253332,372.5530467919998,372.5530467919998,372.5530467919998,372.5530467919998,372.5530467919998,377.7547257920005,377.7547257920005,381.8065445000002,None,0,,reldom2_s040,001,2025-03-19_17h18.30.252,What-A-Scan_AC,2022.2.5,None,
31,First_Order,6.0,audwhat,stimulus/audwhat_stim/dummy.wav,stimulus/audwhat_stim/dummy.wav,stimulus/audwhat_stim/string viola_high-pitch_F_loud.wav,stimulus/audwhat_stim/percussion xylophone_high-pitch_F_loud.wav,stimulus/audwhat_stim/blank_white.png,stimulus/audwhat_stim/category_box.png,stimulus/audwhat_stim/category_yes.png,stimulus/audwhat_stim/category_no.png,None,Category,None,Pitch,2,0.0,0,5.125,0,5.125,0,5.125,0,0.0,0.625,0,0.0,0,0.0,0,0.0,0,0.0,0,0.0,0,0.0,1,0.5,1,2.125,0,,,,,0,41,41,41,,,,,,,,,381.8065445000002,381.8065445000002,381.8065445000002,381.8065445000002,381.8065445000002,381.8065445000002,381.8065445000002,381.8065445000002,381.73364537466625,381.8065445000002,381.8065445000002,381.8065445000002,381.73364537466625,381.8065445000002,381.8065445000002,381.8065445000002,383.90906016700046,,381.8065445000002,381.8065445000002,386.99511900000016,381.8065445000002,381.8065445000002,381.8065445000002,381.8065445000002,382.27605391700035,383.34960579200015,382.2444949166668,,383.90906016700046,384.94032208299996,383.8790432086664,384.94032208299996,381.8065445000002,386.99511900000016,381.8065445000002,386.99511900000016,386.99511900000016,387.6519990830002,381.8065445000002,2,1,1.3049132089990962,reldom2_s040,001,2025-03-19_17h18.30.252,What-A-Scan_AC,2022.2.5,None,
32,First_Order,6.0,audwhat,stimulus/audwhat_stim/dummy.wav,stimulus/audwhat_stim/dummy.wav,stimulus/audwhat_stim/percussion mallet_high-pitch_F_loud.wav,stimulus/audwhat_stim/percussion mallet_low-pitch_D_loud.wav,stimulus/audwhat_stim/blank_white.png,stimulus/audwhat_stim/pitch_box.png,stimulus/audwhat_stim/pitch_yes.png,stimulus/audwhat_stim/pitch_no.png,None,Pitch,None,Category,2,0.0,0,5.125,0,5.125,0,5.125,0,0.0,0.625,0,0.0,0,0.0,0,0.0,0,0.0,0,0.0,0,0.0,1,0.5,1,2.125,0,,,,,0,42,42,42,,,,,,,,,387.90656975,387.90656975,387.90656975,387.90656975,387.90656975,387.90656975,387.90656975,387.90656975,387.8263440413331,387.90656975,387.90656975,387.90656975,387.8263440413331,387.90656975,387.90656975,387.90656975,390.00192720799987,394.0334845420002,387.90656975,387.90656975,393.0828665830004,387.90656975,387.90656975,387.90656975,387.90656975,388.37362595800005,389.4442770830001,388.3436310836671,,390.00192720799987,391.0342244169997,389.972030666667,,387.90656975,393.0828665830004,387.90656975,393.0828665830004,393.12428870799977,393.77890908300014,387.90656975,1,0,2.3399235420001787,reldom2_s040,001,2025-03-19_17h18.30.252,What-A-Scan_AC,2022.2.5,None,
33,First_Order,6.0,audwhat,stimulus/audwhat_stim/dummy.wav,stimulus/audwhat_stim/dummy.wav,stimulus/audwhat_stim/string cello_high-pitch_D_loud.wav,stimulus/audwhat_stim/string cello_low-pitch_Dtri_loud.wav,stimulus/audwhat_stim/blank_white.png,stimulus/audwhat_stim/category_box.png,stimulus/audwhat_stim/category_yes.png,stimulus/audwhat_stim/category_no.png,None,Category,None,Category,1,0.0,0,5.125,0,5.125,0,5.125,0,0.0,0.625,0,0.0,0,0.0,0,0.0,0,0.0,0,0.0,0,0.0,1,0.5,1,2.125,0,,,,,0,43,43,43,,,,,,,,,394.0334845420002,394.0334845420002,394.0334845420002,394.0334845420002,394.0334845420002,394.0334845420002,394.0334845420002,394.0334845420002,393.9529392083333,394.0334845420002,394.0334845420002,394.0334845420002,393.9529392083333,394.0334845420002,394.0334845420002,394.0334845420002,396.1392208750003,,394.0334845420002,394.0334845420002,399.2267940419997,394.0334845420002,394.0334845420002,394.0334845420002,394.0334845420002,394.50364487499974,395.57901454199964,394.4737071246666,,396.1392208750003,397.1736894169999,396.10904416666676,,394.0334845420002,399.2267940419997,394.0334845420002,399.2267940419997,399.2267940419997,399.88532533299986,394.0334845420002,1,1,0.6820651250000083,reldom2_s040,001,2025-03-19_17h18.30.252,What-A-Scan_AC,2022.2.5,None,
34,First_Order,6.0,audwhat,stimulus/audwhat_stim/dummy.wav,stimulus/audwhat_stim/dummy.wav,stimulus/audwhat_stim/string cello_high-pitch_F_loud.wav,stimulus/audwhat_stim/string viola_low-pitch_Ftri_loud.wav,stimulus/audwhat_stim/blank_white.png,stimulus/audwhat_stim/pitch_box.png,stimulus/audwhat_stim/pitch_yes.png,stimulus/audwhat_stim/pitch_no.png,None,Pitch,None,Category,2,0.0,0,5.125,0,5.125,0,5.125,0,0.0,0.625,0,0.0,0,0.0,0,0.0,0,0.0,0,0.0,0,0.0,1,0.5,1,2.125,0,,,,,0,44,44,44,,,,,,,,,400.1410768750002,400.1410768750002,400.1410768750002,400.1410768750002,400.1410768750002,400.1410768750002,400.1410768750002,400.1410768750002,400.0595215413333,400.1410768750002,400.1410768750002,400.1410768750002,400.0595215413333,400.1410768750002,400.1410768750002,400.1410768750002,402.23823320799966,406.2863676670004,400.1410768750002,400.1410768750002,405.3134455420004,400.1410768750002,400.1410768750002,400.1410768750002,400.1410768750002,400.60899529200015,401.68049308300033,400.57878474966697,,402.23823320799966,403.3130568329998,402.2082780836665,,400.1410768750002,405.3134455420004,400.1410768750002,405.3134455420004,405.35447733300043,406.0096958330005,400.1410768750002,2,1,1.1430217919996721,reldom2_s040,001,2025-03-19_17h18.30.252,What-A-Scan_AC,2022.2.5,None,
0,0.0,None,fixation,stimulus/audwhat_stim/blank_white.png,stimulus/audwhat_stim/blank_white.png,stimulus/viswhat_stim/blank_white.png,stimulus/viswhat_stim/blank_white.png,stimulus/audwhat_stim/blank_white.png,stimulus/audwhat_stim/blank_white.png,stimulus/audwhat_stim/blank_white.png,stimulus/audwhat_stim/blank_white.png,0.0,0.0,0.0,0.0,0,0.0,0,0.0,0,0.0,0,0.0,0,0.0,0.0,0,0.0,0,0.0,0,0.0,0,0.0,0,0.0,0,0.0,0,0.0,0,0.0,10,,,,,0,45,45,45,,,,,,,,,406.2863676670004,406.2863676670004,406.2863676670004,406.2863676670004,406.2863676670004,406.2863676670004,406.2863676670004,406.2863676670004,406.1841479583337,406.2863676670004,406.2863676670004,406.2863676670004,406.1841479583337,406.2863676670004,406.2863676670004,406.2863676670004,406.2863676670004,406.2863676670004,406.2863676670004,406.2863676670004,406.2863676670004,406.2863676670004,406.2863676670004,406.2863676670004,406.2863676670004,406.2863676670004,406.2863676670004,406.2341479583337,406.2863676670004,406.2863676670004,406.2863676670004,406.2341479583337,406.2863676670004,406.2863676670004,406.2863676670004,406.2863676670004,406.2863676670004,411.49298033299965,411.49298033299965,416.4308753329997,None,0,,reldom2_s040,001,2025-03-19_17h18.30.252,What-A-Scan_AC,2022.2.5,None,
35,Second_Order,6.0,audwhat,stimulus/audwhat_stim/percussion xylophone_high-pitch_D_loud.wav,stimulus/audwhat_stim/string viola_high-pitch_D_loud.wav,stimulus/audwhat_stim/percussion mallet_high-pitch_Dtri_loud.wav,stimulus/audwhat_stim/percussion mallet_low-pitch_D_loud.wav,stimulus/audwhat_stim/match_blank.png,stimulus/audwhat_stim/match_box.png,stimulus/audwhat_stim/match_yes.png,stimulus/audwhat_stim/match_no.png,2.0,Match,Pitch,Category,2,5.125,0,5.125,0,5.125,0,5.125,0,0.75,0.75,0,0.0,0,0.0,0,0.0,0,0.0,1,0.5,1,2.125,1,0.5,1,2.125,0,,,,,0,46,46,46,,,,,,,,,416.4308753329997,421.5438464580002,416.4308753329997,416.4308753329997,416.4308753329997,416.4308753329997,416.880315333,417.8668559580001,416.8945941246668,417.88404620799975,418.50326225000026,419.50069016700036,418.51533462466637,,421.5438464580002,422.38486916700003,424.4355014169996,,422.38486916700003,422.38486916700003,427.5571532080003,422.38486916700003,422.38486916700003,422.38486916700003,422.38486916700003,422.8515119169997,423.92086924999967,422.82142833366674,,424.4355014169996,425.5067112079996,424.4049268746669,,422.38486916700003,427.5571532080003,422.38486916700003,427.5571532080003,427.5571532080003,,422.38486916700003,1,0,1.954825666999568,reldom2_s040,001,2025-03-19_17h18.30.252,What-A-Scan_AC,2022.2.5,None,
36,Second_Order,6.0,audwhat,stimulus/audwhat_stim/percussion mallet_high-pitch_Dtri_loud.wav,stimulus/audwhat_stim/string viola_high-pitch_Dtri_loud.wav,stimulus/audwhat_stim/string cello_high-pitch_Dtri_loud.wav,stimulus/audwhat_stim/string viola_low-pitch_F_loud.wav,stimulus/audwhat_stim/match_blank.png,stimulus/audwhat_stim/match_box.png,stimulus/audwhat_stim/match_yes.png,stimulus/audwhat_stim/match_no.png,2.0,Match,Pitch,Category,2,5.125,0,5.125,0,5.125,0,5.125,0,0.625,0.625,0,0.0,0,0.0,0,0.0,0,0.0,1,0.5,1,2.125,1,0.5,1,2.125,0,,,,,0,47,47,47,,,,,,,,,428.3727614999998,433.4879223750004,428.3727614999998,428.3727614999998,428.3727614999998,428.3727614999998,428.8258854169999,429.8247725829997,428.8388737496664,,430.44765454200024,431.44520858299984,430.4594734586665,,433.4879223750004,434.220642667,436.2682203330005,,434.220642667,434.220642667,439.38431175000005,434.220642667,434.220642667,434.220642667,434.220642667,434.64119308299996,435.70884908300013,434.6110650836665,,436.2682203330005,437.33805091700015,436.23700229166684,,434.220642667,439.38431175000005,434.220642667,439.38431175000005,439.38431175000005,440.03841445800026,434.220642667,2,1,1.4302277090000644,reldom2_s040,001,2025-03-19_17h18.30.252,What-A-Scan_AC,2022.2.5,None,
0,0.0,None,fixation,stimulus/audwhat_stim/blank_white.png,stimulus/audwhat_stim/blank_white.png,stimulus/viswhat_stim/blank_white.png,stimulus/viswhat_stim/blank_white.png,stimulus/audwhat_stim/blank_white.png,stimulus/audwhat_stim/blank_white.png,stimulus/audwhat_stim/blank_white.png,stimulus/audwhat_stim/blank_white.png,0.0,0.0,0.0,0.0,0,0.0,0,0.0,0,0.0,0,0.0,0,0.0,0.0,0,0.0,0,0.0,0,0.0,0,0.0,0,0.0,0,0.0,0,0.0,0,0.0,8,,,,,0,48,48,48,,,,,,,,,440.31488745800016,440.31488745800016,440.31488745800016,440.31488745800016,440.31488745800016,440.31488745800016,440.31488745800016,440.31488745800016,440.21248241633305,440.31488745800016,440.31488745800016,440.31488745800016,440.21248241633305,440.31488745800016,440.31488745800016,440.31488745800016,440.31488745800016,440.31488745800016,440.31488745800016,440.31488745800016,440.31488745800016,440.31488745800016,440.31488745800016,440.31488745800016,440.31488745800016,440.31488745800016,440.31488745800016,440.26248241633306,440.31488745800016,440.31488745800016,440.31488745800016,440.26248241633306,440.31488745800016,440.31488745800016,440.31488745800016,440.31488745800016,440.31488745800016,445.5111635000003,445.5111635000003,448.51620637500037,None,0,,reldom2_s040,001,2025-03-19_17h18.30.252,What-A-Scan_AC,2022.2.5,None,
37,First_Order,7.0,viswhat,stimulus/viswhat_stim/blank_white.png,stimulus/viswhat_stim/blank_white.png,stimulus/viswhat_stim/land_animal-zebra.png,stimulus/viswhat_stim/water_animal-squid.png,stimulus/viswhat_stim/blank_white.png,stimulus/viswhat_stim/type_box.png,stimulus/viswhat_stim/type_yes.png,stimulus/viswhat_stim/type_no.png,None,Type,None,Type,1,0.0,0,5.125,0,5.125,0,5.125,0,0.0,0.625,0,0.0,0,0.0,1,0.5,1,2.125,0,0.0,0,0.0,0,0.0,0,0.0,0,,,,,0,49,49,49,,,,,,,,,448.51620637500037,448.51620637500037,448.51620637500037,448.51620637500037,448.51620637500037,448.51620637500037,448.51620637500037,448.51620637500037,448.46781866666663,448.51620637500037,448.51620637500037,448.51620637500037,448.46781866666663,448.51620637500037,448.51620637500037,448.51620637500037,450.61330737499975,454.8483671670001,448.51620637500037,448.51620637500037,453.6775452080001,448.9986793750004,450.0324725829996,450.61330737499975,451.6491193330003,448.51620637500037,448.51620637500037,448.48448533333334,448.51620637500037,448.51620637500037,448.51620637500037,448.48448533333334,448.51620637500037,448.51620637500037,453.6775452080001,448.51620637500037,453.6775452080001,453.7308114999996,454.372623792,448.51620637500037,1,1,1.080188874999294,reldom2_s040,001,2025-03-19_17h18.30.252,What-A-Scan_AC,2022.2.5,None,
38,First_Order,7.0,viswhat,stimulus/viswhat_stim/blank_white.png,stimulus/viswhat_stim/blank_white.png,stimulus/viswhat_stim/water_vehicle-submarine.png,stimulus/viswhat_stim/water_animal-lobster.png,stimulus/viswhat_stim/blank_white.png,stimulus/viswhat_stim/location_box.png,stimulus/viswhat_stim/location_yes.png,stimulus/viswhat_stim/location_no.png,None,Location,None,Location,1,0.0,0,5.125,0,5.125,0,5.125,0,0.0,0.625,0,0.0,0,0.0,1,0.5,1,2.125,0,0.0,0,0.0,0,0.0,0,0.0,0,,,,,0,50,50,50,,,,,,,,,454.8483671670001,454.8483671670001,454.8483671670001,454.8483671670001,454.8483671670001,454.8483671670001,454.8483671670001,454.8483671670001,454.55213016700014,454.8483671670001,454.8483671670001,454.8483671670001,454.55213016700014,454.8483671670001,454.8483671670001,454.8483671670001,456.9603834999998,,454.8483671670001,454.8483671670001,460.12201429200013,455.3012320830003,456.50895087499975,456.9603834999998,458.16737145800016,454.8483671670001,454.8483671670001,454.7021301670002,454.8483671670001,454.8483671670001,454.8483671670001,454.7021301670002,454.8483671670001,454.8483671670001,460.12201429200013,454.8483671670001,460.12201429200013,459.97687029200006,,454.8483671670001,1,1,0.7057260829997176,reldom2_s040,001,2025-03-19_17h18.30.252,What-A-Scan_AC,2022.2.5,None,
39,First_Order,7.0,viswhat,stimulus/viswhat_stim/blank_white.png,stimulus/viswhat_stim/blank_white.png,stimulus/viswhat_stim/land_vehicle-vespa.png,stimulus/viswhat_stim/water_vehicle-yacht.png,stimulus/viswhat_stim/blank_white.png,stimulus/viswhat_stim/location_box.png,stimulus/viswhat_stim/location_yes.png,stimulus/viswhat_stim/location_no.png,None,Location,None,Type,2,0.0,0,5.125,0,5.125,0,5.125,0,0.0,0.625,0,0.0,0,0.0,1,0.5,1,2.125,0,0.0,0,0.0,0,0.0,0,0.0,0,,,,,0,51,51,51,,,,,,,,,460.8286091250002,460.8286091250002,460.8286091250002,460.8286091250002,460.8286091250002,460.8286091250002,460.8286091250002,460.8286091250002,460.7635892499998,460.8286091250002,460.8286091250002,460.8286091250002,460.7635892499998,460.8286091250002,460.8286091250002,460.8286091250002,462.93083591699997,,460.8286091250002,460.8286091250002,465.9969490000003,461.29072870799973,462.3434097919999,462.93083591699997,463.98364216699974,460.8286091250002,460.8286091250002,460.7969225833332,460.8286091250002,460.8286091250002,460.8286091250002,460.7969225833332,460.8286091250002,460.8286091250002,465.9969490000003,460.8286091250002,465.9969490000003,466.033491917,466.6887802500005,460.8286091250002,2,1,1.1480112090002876,reldom2_s040,001,2025-03-19_17h18.30.252,What-A-Scan_AC,2022.2.5,None,
40,First_Order,7.0,viswhat,stimulus/viswhat_stim/blank_white.png,stimulus/viswhat_stim/blank_white.png,stimulus/viswhat_stim/water_vehicle-canoe.png,stimulus/viswhat_stim/water_animal-whale (1).png,stimulus/viswhat_stim/blank_white.png,stimulus/viswhat_stim/location_box.png,stimulus/viswhat_stim/location_yes.png,stimulus/viswhat_stim/location_no.png,None,Location,None,Location,1,0.0,0,5.125,0,5.125,0,5.125,0,0.0,0.625,0,0.0,0,0.0,1,0.5,1,2.125,0,0.0,0,0.0,0,0.0,0,0.0,0,,,,,0,52,52,52,,,,,,,,,466.89714149999963,466.89714149999963,466.89714149999963,466.89714149999963,466.89714149999963,466.89714149999963,466.89714149999963,466.89714149999963,466.8579870833338,466.89714149999963,466.89714149999963,466.89714149999963,466.8579870833338,466.89714149999963,466.89714149999963,466.89714149999963,469.00815262499964,473.0448491670004,466.89714149999963,466.89714149999963,472.03704949999974,467.3659372080001,468.393562792,469.00815262499964,470.040482292,466.89714149999963,466.89714149999963,466.87465375000045,466.89714149999963,466.89714149999963,466.89714149999963,466.87465375000045,466.89714149999963,466.89714149999963,472.03704949999974,466.89714149999963,472.03704949999974,472.1079244579996,472.7490479170001,466.89714149999963,1,1,1.252557541999522,reldom2_s040,001,2025-03-19_17h18.30.252,What-A-Scan_AC,2022.2.5,None,
0,0.0,None,fixation,stimulus/audwhat_stim/blank_white.png,stimulus/audwhat_stim/blank_white.png,stimulus/viswhat_stim/blank_white.png,stimulus/viswhat_stim/blank_white.png,stimulus/audwhat_stim/blank_white.png,stimulus/audwhat_stim/blank_white.png,stimulus/audwhat_stim/blank_white.png,stimulus/audwhat_stim/blank_white.png,0.0,0.0,0.0,0.0,0,0.0,0,0.0,0,0.0,0,0.0,0,0.0,0.0,0,0.0,0,0.0,0,0.0,0,0.0,0,0.0,0,0.0,0,0.0,0,0.0,10,,,,,0,53,53,53,,,,,,,,,473.0448491670004,473.0448491670004,473.0448491670004,473.0448491670004,473.0448491670004,473.0448491670004,473.0448491670004,473.0448491670004,472.9432662920004,473.0448491670004,473.0448491670004,473.0448491670004,472.9432662920004,473.0448491670004,473.0448491670004,473.0448491670004,473.0448491670004,473.0448491670004,473.0448491670004,473.0448491670004,473.0448491670004,473.0448491670004,473.0448491670004,473.0448491670004,473.0448491670004,473.0448491670004,473.0448491670004,472.9932662920004,473.0448491670004,473.0448491670004,473.0448491670004,472.9932662920004,473.0448491670004,473.0448491670004,473.0448491670004,473.0448491670004,473.0448491670004,478.2598039579998,478.2598039579998,483.21781204200033,None,0,,reldom2_s040,001,2025-03-19_17h18.30.252,What-A-Scan_AC,2022.2.5,None,
41,Second_Order,7.0,viswhat,stimulus/viswhat_stim/water_vehicle-cruiser.png,stimulus/viswhat_stim/land_vehicle-bus.png,stimulus/viswhat_stim/land_animal-fox.png,stimulus/viswhat_stim/water_animal-dolphin.png,stimulus/audwhat_stim/match_blank.png,stimulus/audwhat_stim/match_box.png,stimulus/audwhat_stim/match_yes.png,stimulus/audwhat_stim/match_no.png,1.0,Match,Type,Type,1,5.125,0,5.125,0,5.125,0,5.125,0,0.75,0.75,1,0.5,1,2.125,1,0.5,1,2.125,0,0.0,0,0.0,0,0.0,0,0.0,0,,,,,0,54,54,54,,,,,,,,,483.21781204200033,488.33094979199996,483.64884283300034,484.6389642080003,485.27422637499967,486.27135658299994,483.21781204200033,483.21781204200033,483.229163541333,483.21781204200033,483.21781204200033,483.21781204200033,483.229163541333,483.21781204200033,488.33094979199996,489.1408382919999,491.2162182080001,495.1266856250004,489.1408382919999,489.1408382919999,494.27202170800047,489.58805208299964,490.6129547500004,491.2162182080001,492.24788029200045,489.1408382919999,489.1408382919999,489.11500829200014,489.1408382919999,489.1408382919999,489.1408382919999,489.11500829200014,489.1408382919999,489.1408382919999,494.27202170800047,489.1408382919999,494.27202170800047,494.33498741699987,,489.1408382919999,1,1,0.64492058399901,reldom2_s040,001,2025-03-19_17h18.30.252,What-A-Scan_AC,2022.2.5,None,
42,Second_Order,7.0,viswhat,stimulus/viswhat_stim/water_animal-whale.png,stimulus/viswhat_stim/water_vehicle-ferryboat.png,stimulus/viswhat_stim/land_vehicle-tank.png,stimulus/viswhat_stim/land_animal-wolf.png,stimulus/audwhat_stim/match_blank.png,stimulus/audwhat_stim/match_box.png,stimulus/audwhat_stim/match_yes.png,stimulus/audwhat_stim/match_no.png,1.0,Match,Location,Location,1,5.125,0,5.125,0,5.125,0,5.125,0,0.625,0.625,1,0.5,1,2.125,1,0.5,1,2.125,0,0.0,0,0.0,0,0.0,0,0.0,0,,,,,0,55,55,55,,,,,,,,,495.1266856250004,500.2418348330002,495.5934752920002,496.58225175000007,497.2185402920004,498.21606229200006,495.1266856250004,495.1266856250004,495.1414529163333,495.1266856250004,495.1266856250004,495.1266856250004,495.1414529163333,495.1266856250004,500.2418348330002,500.91786929200043,502.99379675,507.04245204200015,500.91786929200043,500.91786929200043,506.04795891699996,501.3651614999999,502.3820403330001,502.99379675,504.0146705420002,500.91786929200043,500.91786929200043,500.8886659583336,500.91786929200043,500.91786929200043,500.91786929200043,500.8886659583336,500.91786929200043,500.91786929200043,506.04795891699996,500.91786929200043,506.04795891699996,506.1103061249996,506.737362375,500.91786929200043,1,1,1.0035456249988783,reldom2_s040,001,2025-03-19_17h18.30.252,What-A-Scan_AC,2022.2.5,None,
0,0.0,None,fixation,stimulus/audwhat_stim/blank_white.png,stimulus/audwhat_stim/blank_white.png,stimulus/viswhat_stim/blank_white.png,stimulus/viswhat_stim/blank_white.png,stimulus/audwhat_stim/blank_white.png,stimulus/audwhat_stim/blank_white.png,stimulus/audwhat_stim/blank_white.png,stimulus/audwhat_stim/blank_white.png,0.0,0.0,0.0,0.0,0,0.0,0,0.0,0,0.0,0,0.0,0,0.0,0.0,0,0.0,0,0.0,0,0.0,0,0.0,0,0.0,0,0.0,0,0.0,0,0.0,9,,,,,0,56,56,56,,,,,,,,,507.04245204200015,507.04245204200015,507.04245204200015,507.04245204200015,507.04245204200015,507.04245204200015,507.04245204200015,507.04245204200015,506.93748025033375,507.04245204200015,507.04245204200015,507.04245204200015,506.93748025033375,507.04245204200015,507.04245204200015,507.04245204200015,507.04245204200015,507.04245204200015,507.04245204200015,507.04245204200015,507.04245204200015,507.04245204200015,507.04245204200015,507.04245204200015,507.04245204200015,507.04245204200015,507.04245204200015,507.0041469170004,507.04245204200015,507.04245204200015,507.04245204200015,507.0041469170004,507.04245204200015,507.04245204200015,507.04245204200015,507.04245204200015,507.04245204200015,512.2514021249999,512.2514021249999,516.2785726250004,None,0,,reldom2_s040,001,2025-03-19_17h18.30.252,What-A-Scan_AC,2022.2.5,None,
43,First_Order,8.0,viswhat,stimulus/viswhat_stim/blank_white.png,stimulus/viswhat_stim/blank_white.png,stimulus/viswhat_stim/water_vehicle-canoe.png,stimulus/viswhat_stim/water_animal-octopus.png,stimulus/viswhat_stim/blank_white.png,stimulus/viswhat_stim/type_box.png,stimulus/viswhat_stim/type_yes.png,stimulus/viswhat_stim/type_no.png,None,Type,None,Location,2,0.0,0,5.125,0,5.125,0,5.125,0,0.0,0.625,0,0.0,0,0.0,1,0.5,1,2.125,0,0.0,0,0.0,0,0.0,0,0.0,0,,,,,0,57,57,57,,,,,,,,,516.2785726250004,516.2785726250004,516.2785726250004,516.2785726250004,516.2785726250004,516.2785726250004,516.2785726250004,516.2785726250004,516.2262281246664,516.2785726250004,516.2785726250004,516.2785726250004,516.2262281246664,516.2785726250004,516.2785726250004,516.2785726250004,518.3649180829998,522.3710366249998,516.2785726250004,516.2785726250004,521.4409514170002,516.7562828330001,517.7818065000001,518.3649180829998,519.3924875000002,516.2785726250004,516.2785726250004,516.242894791333,516.2785726250004,516.2785726250004,516.2785726250004,516.242894791333,516.2785726250004,516.2785726250004,521.4409514170002,516.2785726250004,521.4409514170002,521.4983539579998,522.1547938330004,516.2785726250004,2,1,1.8270739169993249,reldom2_s040,001,2025-03-19_17h18.30.252,What-A-Scan_AC,2022.2.5,None,
44,First_Order,8.0,viswhat,stimulus/viswhat_stim/blank_white.png,stimulus/viswhat_stim/blank_white.png,stimulus/viswhat_stim/water_animal-octopus.png,stimulus/viswhat_stim/land_animal-snake.png,stimulus/viswhat_stim/blank_white.png,stimulus/viswhat_stim/type_box.png,stimulus/viswhat_stim/type_yes.png,stimulus/viswhat_stim/type_no.png,None,Type,None,Type,1,0.0,0,5.125,0,5.125,0,5.125,0,0.0,0.625,0,0.0,0,0.0,1,0.5,1,2.125,0,0.0,0,0.0,0,0.0,0,0.0,0,,,,,0,58,58,58,,,,,,,,,522.3710366249998,522.3710366249998,522.3710366249998,522.3710366249998,522.3710366249998,522.3710366249998,522.3710366249998,522.3710366249998,522.3282130836668,522.3710366249998,522.3710366249998,522.3710366249998,522.3282130836668,522.3710366249998,522.3710366249998,522.3710366249998,524.4613192500001,528.4563642920002,522.3710366249998,522.3710366249998,527.51873875,522.8393501669998,523.8679279170001,524.4613192500001,525.4958624580004,522.3710366249998,522.3710366249998,522.3448797503335,522.3710366249998,522.3710366249998,522.3710366249998,522.3448797503335,522.3710366249998,522.3710366249998,527.51873875,522.3710366249998,527.51873875,527.5955204580005,528.2337177919999,522.3710366249998,1,1,0.6890033749996292,reldom2_s040,001,2025-03-19_17h18.30.252,What-A-Scan_AC,2022.2.5,None,
45,First_Order,8.0,viswhat,stimulus/viswhat_stim/blank_white.png,stimulus/viswhat_stim/blank_white.png,stimulus/viswhat_stim/land_vehicle-schoolbus.png,stimulus/viswhat_stim/land_animal-pig.png,stimulus/viswhat_stim/blank_white.png,stimulus/viswhat_stim/type_box.png,stimulus/viswhat_stim/type_yes.png,stimulus/viswhat_stim/type_no.png,None,Type,None,Location,2,0.0,0,5.125,0,5.125,0,5.125,0,0.0,0.625,0,0.0,0,0.0,1,0.5,1,2.125,0,0.0,0,0.0,0,0.0,0,0.0,0,,,,,0,59,59,59,,,,,,,,,528.4563642920002,528.4563642920002,528.4563642920002,528.4563642920002,528.4563642920002,528.4563642920002,528.4563642920002,528.4563642920002,528.4115829999997,528.4563642920002,528.4563642920002,528.4563642920002,528.4115829999997,528.4563642920002,528.4563642920002,528.4563642920002,530.5463097080001,534.573698958,528.4563642920002,528.4563642920002,533.5968487500004,528.9319457080001,529.9639172079997,530.5463097080001,531.5554925420001,528.4563642920002,528.4563642920002,528.444916333333,528.4563642920002,528.4563642920002,528.4563642920002,528.444916333333,528.4563642920002,528.4563642920002,533.5968487500004,528.4563642920002,533.5968487500004,533.6798102920002,534.3268624580005,528.4563642920002,2,1,1.4833767499994792,reldom2_s040,001,2025-03-19_17h18.30.252,What-A-Scan_AC,2022.2.5,None,
46,First_Order,8.0,viswhat,stimulus/viswhat_stim/blank_white.png,stimulus/viswhat_stim/blank_white.png,stimulus/viswhat_stim/land_vehicle-oldcar.png,stimulus/viswhat_stim/water_vehicle-powercruiser.png,stimulus/viswhat_stim/blank_white.png,stimulus/viswhat_stim/location_box.png,stimulus/viswhat_stim/location_yes.png,stimulus/viswhat_stim/location_no.png,None,Location,None,Type,2,0.0,0,5.125,0,5.125,0,5.125,0,0.0,0.625,0,0.0,0,0.0,1,0.5,1,2.125,0,0.0,0,0.0,0,0.0,0,0.0,0,,,,,0,60,60,60,,,,,,,,,534.573698958,534.573698958,534.573698958,534.573698958,534.573698958,534.573698958,534.573698958,534.573698958,534.5096879170002,534.573698958,534.573698958,534.573698958,534.5096879170002,534.573698958,534.573698958,534.573698958,536.6793325830004,,534.573698958,534.573698958,539.7315442079998,535.0274656250003,536.0593737500003,536.6793325830004,537.7116933750003,534.573698958,534.573698958,534.5430212503335,534.573698958,534.573698958,534.573698958,534.5430212503335,534.573698958,534.573698958,539.7315442079998,534.573698958,539.7315442079998,539.7670747499997,540.4444762499998,534.573698958,2,1,1.1486004170001252,reldom2_s040,001,2025-03-19_17h18.30.252,What-A-Scan_AC,2022.2.5,None,
0,0.0,None,fixation,stimulus/audwhat_stim/blank_white.png,stimulus/audwhat_stim/blank_white.png,stimulus/viswhat_stim/blank_white.png,stimulus/viswhat_stim/blank_white.png,stimulus/audwhat_stim/blank_white.png,stimulus/audwhat_stim/blank_white.png,stimulus/audwhat_stim/blank_white.png,stimulus/audwhat_stim/blank_white.png,0.0,0.0,0.0,0.0,0,0.0,0,0.0,0,0.0,0,0.0,0,0.0,0.0,0,0.0,0,0.0,0,0.0,0,0.0,0,0.0,0,0.0,0,0.0,0,0.0,9,,,,,0,61,61,61,,,,,,,,,540.7051521250005,540.7051521250005,540.7051521250005,540.7051521250005,540.7051521250005,540.7051521250005,540.7051521250005,540.7051521250005,540.6130083333338,540.7051521250005,540.7051521250005,540.7051521250005,540.6130083333338,540.7051521250005,540.7051521250005,540.7051521250005,540.7051521250005,540.7051521250005,540.7051521250005,540.7051521250005,540.7051521250005,540.7051521250005,540.7051521250005,540.7051521250005,540.7051521250005,540.7051521250005,540.7051521250005,540.6630083333338,540.7051521250005,540.7051521250005,540.7051521250005,540.6630083333338,540.7051521250005,540.7051521250005,540.7051521250005,540.7051521250005,540.7051521250005,545.920002625,545.920002625,549.9407968329997,None,0,,reldom2_s040,001,2025-03-19_17h18.30.252,What-A-Scan_AC,2022.2.5,None,
47,Second_Order,8.0,viswhat,stimulus/viswhat_stim/water_animal-dolphin.png,stimulus/viswhat_stim/water_vehicle-cruiseship.png,stimulus/viswhat_stim/land_vehicle-oldcar.png,stimulus/viswhat_stim/land_animal-giraffe.png,stimulus/audwhat_stim/match_blank.png,stimulus/audwhat_stim/match_box.png,stimulus/audwhat_stim/match_yes.png,stimulus/audwhat_stim/match_no.png,1.0,Match,Location,Location,1,5.125,0,5.125,0,5.125,0,5.125,0,0.75,0.75,1,0.5,1,2.125,1,0.5,1,2.125,0,0.0,0,0.0,0,0.0,0,0.0,0,,,,,0,62,62,62,,,,,,,,,549.9407968329997,555.0641970420002,550.3386212920004,551.3251970000001,551.9632684580001,552.9590480830002,549.9407968329997,549.9407968329997,549.9553389586667,549.9407968329997,549.9407968329997,549.9407968329997,549.9553389586667,549.9407968329997,555.0641970420002,555.9606509579999,558.0221684999997,,555.9606509579999,555.9606509579999,561.1465505830001,556.3610530830001,557.4251826250002,558.0221684999997,559.0883711670003,555.9606509579999,555.9606509579999,555.8992763749999,555.9606509579999,555.9606509579999,555.9606509579999,555.8992763749999,555.9606509579999,555.9606509579999,561.1465505830001,555.9606509579999,561.1465505830001,561.1465505830001,,555.9606509579999,1,1,1.3871674999991228,reldom2_s040,001,2025-03-19_17h18.30.252,What-A-Scan_AC,2022.2.5,None,
48,Second_Order,8.0,viswhat,stimulus/viswhat_stim/land_animal-ostrich.png,stimulus/viswhat_stim/water_animal-shark.png,stimulus/viswhat_stim/water_animal-whale.png,stimulus/viswhat_stim/water_vehicle-cargoboat.png,stimulus/audwhat_stim/match_blank.png,stimulus/audwhat_stim/match_box.png,stimulus/audwhat_stim/match_yes.png,stimulus/audwhat_stim/match_no.png,2.0,Match,Type,Location,2,5.125,0,5.125,0,5.125,0,5.125,0,0.625,0.625,1,0.5,1,2.125,1,0.5,1,2.125,0,0.0,0,0.0,0,0.0,0,0.0,0,,,,,0,63,63,63,,,,,,,,,561.9070704579999,567.0298696250002,562.3683565000001,563.3665094580001,563.9894652499997,564.9869397499997,561.9070704579999,561.9070704579999,561.9205096246666,561.9070704579999,561.9070704579999,561.9070704579999,561.9205096246666,561.9070704579999,567.0298696250002,567.7205748750002,569.783907,573.83695575,567.7205748750002,567.7205748750002,572.8509552920004,568.1773583330005,569.197686042,569.783907,570.8107639999998,567.7205748750002,567.7205748750002,567.6932778750004,567.7205748750002,567.7205748750002,567.7205748750002,567.6932778750004,567.7205748750002,567.7205748750002,572.8509552920004,567.7205748750002,572.8509552920004,572.9148227080004,573.5509322079997,567.7205748750002,2,1,1.5708384169993224,reldom2_s040,001,2025-03-19_17h18.30.252,What-A-Scan_AC,2022.2.5,None,
0,0.0,None,fixation,stimulus/audwhat_stim/blank_white.png,stimulus/audwhat_stim/blank_white.png,stimulus/viswhat_stim/blank_white.png,stimulus/viswhat_stim/blank_white.png,stimulus/audwhat_stim/blank_white.png,stimulus/audwhat_stim/blank_white.png,stimulus/audwhat_stim/blank_white.png,stimulus/audwhat_stim/blank_white.png,0.0,0.0,0.0,0.0,0,0.0,0,0.0,0,0.0,0,0.0,0,0.0,0.0,0,0.0,0,0.0,0,0.0,0,0.0,0,0.0,0,0.0,0,0.0,0,0.0,16,,,,,0,64,64,64,,,,,,,,,573.83695575,573.83695575,573.83695575,573.83695575,573.83695575,573.83695575,573.83695575,573.83695575,573.7354970829998,573.83695575,573.83695575,573.83695575,573.7354970829998,573.83695575,573.83695575,573.83695575,573.83695575,573.83695575,573.83695575,573.83695575,573.83695575,573.83695575,573.83695575,573.83695575,573.83695575,573.83695575,573.83695575,573.7854970829998,573.83695575,573.83695575,573.83695575,573.7854970829998,573.83695575,573.83695575,573.83695575,573.83695575,573.83695575,579.0477837919998,579.0477837919998,589.9833266249998,None,0,,reldom2_s040,001,2025-03-19_17h18.30.252,What-A-Scan_AC,2022.2.5,None,
