Trial,Order,Block,Type,Stimuli_File1,Stimuli_File2,Stimuli_File3,Stimuli_File4,Cue_File1,Cue_File2,Response_File_Yes,Response_File_No,Match,Cue_Dimension,Pair1_Dimension,Pair2_Dimension,Key,Cue1_Duration,Cue1_Onset,Cue2_Duration,Cue2_Onset,ResponseYes_Duration,ResponseYes_Onset,ResponseNo_Duration,ResponseNo_Onset,ITI_Within,ITI_Between,Image1_Duration,Image1_Onset,Image2_Duration,Image2_Onset,Image3_Duration,Image3_Onset,Image4_Duration,Image4_Onset,Sound1_Duration,Sound1_Onset,Sound2_Duration,Sound2_Onset,Sound3_Duration,Sound3_Onset,Sound4_Duration,Sound4_Onset,Fixation_Duration,trials_2.thisRepN,trials_2.thisTrialN,trials_2.thisN,trials_2.thisIndex,trials.thisRepN,trials.thisTrialN,trials.thisN,trials.thisIndex,text_start.started,key_resp_start.started,key_resp_start.keys,key_resp_start.rt,text2.started,key_resp_2.started,key_resp_2.keys,key_resp_2.rt,cue_file1.started,cue_file1.stopped,image_1.started,image_1.stopped,image_2.started,image_2.stopped,sound_icon1.started,sound_icon1.stopped,sound_1.started,sound_1.stopped,sound_icon2.started,sound_icon2.stopped,sound_2.started,sound_2.stopped,image_blank_1.started,image_blank_1.stopped,key_press.started,key_press.stopped,fixation_text.started,cue_file2.started,cue_file2.stopped,image_3.started,image_3.stopped,image_4.started,image_4.stopped,sound_icon3.started,sound_icon3.stopped,sound_3.started,sound_3.stopped,sound_icon4.started,sound_icon4.stopped,sound_4.started,sound_4.stopped,response_yes.started,response_yes.stopped,response_no.started,response_no.stopped,iti_blank.started,iti_blank.stopped,fixation_text.stopped,key_press.keys,key_press.corr,key_press.rt,participant,session,date,expName,psychopyVersion,frameRate,
,,,,,,,,,,,,,,,,,,,,,,,,,,,,,,,,,,,,,,,,,,,,,,,,,,,,6.710750458999428,6.710750458999428,2,1.6884179170001516,,,,,,,,,,,,,,,,,,,,,,,,,,,,,,,,,,,,,,,,,,,,,,,,reldom2_s040,001,2025-03-19_17h29.45.515,Where-A-Scan_AC,2022.2.5,None,
,,,,,,,,,,,,,,,,,,,,,,,,,,,,,,,,,,,,,,,,,,,,0,0,0,0,,,,,,,,,8.442128292000234,8.442128292000234,5,17.994745917000728,,,,,,,,,,,,,,,,,,,,,,,,,,,,,,,,,,,,,,,,,,,,reldom2_s040,001,2025-03-19_17h29.45.515,Where-A-Scan_AC,2022.2.5,None,
,,,,,,,,,,,,,,,,,,,,,,,,,,,,,,,,,,,,,,,,,,,,1,0,1,0,,,,,,,,,26.447135458999583,26.447135458999583,5,1.9889070839999476,,,,,,,,,,,,,,,,,,,,,,,,,,,,,,,,,,,,,,,,,,,,reldom2_s040,001,2025-03-19_17h29.45.515,Where-A-Scan_AC,2022.2.5,None,
,,,,,,,,,,,,,,,,,,,,,,,,,,,,,,,,,,,,,,,,,,,,2,0,2,0,,,,,,,,,28.459553833999962,28.459553833999962,5,1.9767436250003811,,,,,,,,,,,,,,,,,,,,,,,,,,,,,,,,,,,,,,,,,,,,reldom2_s040,001,2025-03-19_17h29.45.515,Where-A-Scan_AC,2022.2.5,None,
,,,,,,,,,,,,,,,,,,,,,,,,,,,,,,,,,,,,,,,,,,,,3,0,3,0,,,,,,,,,30.455982999999833,30.455982999999833,5,1.9811924579998959,,,,,,,,,,,,,,,,,,,,,,,,,,,,,,,,,,,,,,,,,,,,reldom2_s040,001,2025-03-19_17h29.45.515,Where-A-Scan_AC,2022.2.5,None,
0,0.0,None,fixation,stimulus/viswhere_stim/blank_white.png,stimulus/viswhere_stim/blank_white.png,stimulus/audwhere_stim/blank_white.png,stimulus/audwhere_stim/blank_white.png,stimulus/viswhere_stim/blank_white.png,stimulus/viswhere_stim/blank_white.png,stimulus/viswhere_stim/blank_white.png,stimulus/viswhere_stim/blank_white.png,0.0,0.0,0.0,0.0,0,0.0,0,0.0,0,0.0,0,0.0,0,0.0,0.0,0,0.0,0,0.0,0,0.0,0,0.0,0,0.0,0,0.0,0,0.0,0,0.0,16,,,,,0,0,0,0,,,,,,,,,32.65037866700004,32.65037866700004,32.65037866700004,32.65037866700004,32.65037866700004,32.65037866700004,32.65037866700004,32.65037866700004,32.55574916666671,32.65037866700004,32.65037866700004,32.65037866700004,32.55574916666671,32.65037866700004,32.65037866700004,32.65037866700004,32.65037866700004,32.65037866700004,32.65037866700004,32.65037866700004,32.65037866700004,32.65037866700004,32.65037866700004,32.65037866700004,32.65037866700004,32.65037866700004,32.65037866700004,32.605749166666705,32.65037866700004,32.65037866700004,32.65037866700004,32.605749166666705,32.65037866700004,32.65037866700004,32.65037866700004,32.65037866700004,32.65037866700004,37.87625004199981,37.87625004199981,48.8496454999995,None,0,,reldom2_s040,001,2025-03-19_17h29.45.515,Where-A-Scan_AC,2022.2.5,None,
1,First_Order,1.0,viswhere,stimulus/viswhere_stim/blank_white.png,stimulus/viswhere_stim/blank_white.png,stimulus/viswhere_stim/60-deg_dot-left_peru.png,stimulus/viswhere_stim/60-deg_dot-right_turquoise.png,stimulus/viswhere_stim/blank_white.png,stimulus/viswhere_stim/dot_box.png,stimulus/viswhere_stim/dot_yes.png,stimulus/viswhere_stim/dot_no.png,None,Dot,None,Line,2,0.0,0,5.125,0,5.125,0,5.125,0,0.0,0.625,0,0.0,0,0.0,1,0.5,1,2.125,0,0.0,0,0.0,0,0.0,0,0.0,0,,,,,0,1,1,1,,,,,,,,,48.8496454999995,48.8496454999995,48.8496454999995,48.8496454999995,48.8496454999995,48.8496454999995,48.8496454999995,48.8496454999995,48.82410079199999,48.8496454999995,48.8496454999995,48.8496454999995,48.82410079199999,48.8496454999995,48.8496454999995,48.8496454999995,50.958806333999746,54.92265241699988,48.8496454999995,48.8496454999995,54.00051566699949,49.32491287499943,50.330806541999664,50.958806333999746,51.969364792000306,48.8496454999995,48.8496454999995,48.840767458666654,48.8496454999995,48.8496454999995,48.8496454999995,48.840767458666654,48.8496454999995,48.8496454999995,54.00051566699949,48.8496454999995,54.00051566699949,54.07139945899962,54.692795916999785,48.8496454999995,2,1,2.8295133750007153,reldom2_s040,001,2025-03-19_17h29.45.515,Where-A-Scan_AC,2022.2.5,None,
2,First_Order,1.0,viswhere,stimulus/viswhere_stim/blank_white.png,stimulus/viswhere_stim/blank_white.png,stimulus/viswhere_stim/60-deg_dot-right_turquoise.png,stimulus/viswhere_stim/60-deg_dot-left_turquoise.png,stimulus/viswhere_stim/blank_white.png,stimulus/viswhere_stim/line_box.png,stimulus/viswhere_stim/line_yes.png,stimulus/viswhere_stim/line_no.png,None,Line,None,Line,1,0.0,0,5.125,0,5.125,0,5.125,0,0.0,0.625,0,0.0,0,0.0,1,0.5,1,2.125,0,0.0,0,0.0,0,0.0,0,0.0,0,,,,,0,2,2,2,,,,,,,,,54.92265241699988,54.92265241699988,54.92265241699988,54.92265241699988,54.92265241699988,54.92265241699988,54.92265241699988,54.92265241699988,54.90242979233275,54.92265241699988,54.92265241699988,54.92265241699988,54.90242979233275,54.92265241699988,54.92265241699988,54.92265241699988,57.0206709590002,60.980478083999515,54.92265241699988,54.92265241699988,60.057540042000255,55.39979258399944,56.41097570900001,57.0206709590002,58.03599733400006,54.92265241699988,54.92265241699988,54.91909645899941,54.92265241699988,54.92265241699988,54.92265241699988,54.91909645899941,54.92265241699988,54.92265241699988,60.057540042000255,54.92265241699988,60.057540042000255,60.14522316700004,60.77629158400032,54.92265241699988,1,1,1.1834304579997479,reldom2_s040,001,2025-03-19_17h29.45.515,Where-A-Scan_AC,2022.2.5,None,
3,First_Order,1.0,viswhere,stimulus/viswhere_stim/blank_white.png,stimulus/viswhere_stim/blank_white.png,stimulus/viswhere_stim/30-deg_dot-left_salmon.png,stimulus/viswhere_stim/120-deg_dot-left_royalblue.png,stimulus/viswhere_stim/blank_white.png,stimulus/viswhere_stim/line_box.png,stimulus/viswhere_stim/line_yes.png,stimulus/viswhere_stim/line_no.png,None,Line,None,Dot,2,0.0,0,5.125,0,5.125,0,5.125,0,0.0,0.625,0,0.0,0,0.0,1,0.5,1,2.125,0,0.0,0,0.0,0,0.0,0,0.0,0,,,,,0,3,3,3,,,,,,,,,60.980478083999515,60.980478083999515,60.980478083999515,60.980478083999515,60.980478083999515,60.980478083999515,60.980478083999515,60.980478083999515,60.96002608333341,60.980478083999515,60.980478083999515,60.980478083999515,60.96002608333341,60.980478083999515,60.980478083999515,60.980478083999515,63.09565937499974,67.04161608399954,60.980478083999515,60.980478083999515,66.11579220899966,61.4574604999998,62.46846070900028,63.09565937499974,64.10979212500024,60.980478083999515,60.980478083999515,60.976692750000076,60.980478083999515,60.980478083999515,60.980478083999515,60.976692750000076,60.980478083999515,60.980478083999515,66.11579220899966,60.980478083999515,66.11579220899966,66.19939254200017,66.82668224999998,60.980478083999515,2,1,1.5554118749996633,reldom2_s040,001,2025-03-19_17h29.45.515,Where-A-Scan_AC,2022.2.5,None,
4,First_Order,1.0,viswhere,stimulus/viswhere_stim/blank_white.png,stimulus/viswhere_stim/blank_white.png,stimulus/viswhere_stim/150-deg_dot-right_salmon.png,stimulus/viswhere_stim/90-deg_dot-right_goldenrod.png,stimulus/viswhere_stim/blank_white.png,stimulus/viswhere_stim/line_box.png,stimulus/viswhere_stim/line_yes.png,stimulus/viswhere_stim/line_no.png,None,Line,None,Dot,2,0.0,0,5.125,0,5.125,0,5.125,0,0.0,0.625,0,0.0,0,0.0,1,0.5,1,2.125,0,0.0,0,0.0,0,0.0,0,0.0,0,,,,,0,4,4,4,,,,,,,,,67.04161608399954,67.04161608399954,67.04161608399954,67.04161608399954,67.04161608399954,67.04161608399954,67.04161608399954,67.04161608399954,67.02077212533307,67.04161608399954,67.04161608399954,67.04161608399954,67.02077212533307,67.04161608399954,67.04161608399954,67.04161608399954,69.14186704199983,73.18612349999967,67.04161608399954,67.04161608399954,72.17873545899965,67.52165645900004,68.52668087500024,69.14186704199983,70.1520604999996,67.04161608399954,67.04161608399954,67.03743879199973,67.04161608399954,67.04161608399954,67.04161608399954,67.03743879199973,67.04161608399954,67.04161608399954,72.17873545899965,67.04161608399954,72.17873545899965,72.26184541699968,72.89408133399957,67.04161608399954,2,1,0.9512064999998984,reldom2_s040,001,2025-03-19_17h29.45.515,Where-A-Scan_AC,2022.2.5,None,
0,0.0,None,fixation,stimulus/viswhere_stim/blank_white.png,stimulus/viswhere_stim/blank_white.png,stimulus/audwhere_stim/blank_white.png,stimulus/audwhere_stim/blank_white.png,stimulus/viswhere_stim/blank_white.png,stimulus/viswhere_stim/blank_white.png,stimulus/viswhere_stim/blank_white.png,stimulus/viswhere_stim/blank_white.png,0.0,0.0,0.0,0.0,0,0.0,0,0.0,0,0.0,0,0.0,0,0.0,0.0,0,0.0,0,0.0,0,0.0,0,0.0,0,0.0,0,0.0,0,0.0,0,0.0,9,,,,,0,5,5,5,,,,,,,,,73.18612349999967,73.18612349999967,73.18612349999967,73.18612349999967,73.18612349999967,73.18612349999967,73.18612349999967,73.18612349999967,73.08844125033313,73.18612349999967,73.18612349999967,73.18612349999967,73.08844125033313,73.18612349999967,73.18612349999967,73.18612349999967,73.18612349999967,73.18612349999967,73.18612349999967,73.18612349999967,73.18612349999967,73.18612349999967,73.18612349999967,73.18612349999967,73.18612349999967,73.18612349999967,73.18612349999967,73.13844125033313,73.18612349999967,73.18612349999967,73.18612349999967,73.13844125033313,73.18612349999967,73.18612349999967,73.18612349999967,73.18612349999967,73.18612349999967,78.39868104200013,78.39868104200013,82.3334381249997,None,0,,reldom2_s040,001,2025-03-19_17h29.45.515,Where-A-Scan_AC,2022.2.5,None,
5,Second_Order,1.0,viswhere,stimulus/viswhere_stim/90-deg_dot-right_mediumslateblue.png,stimulus/viswhere_stim/90-deg_dot-left_peru.png,stimulus/viswhere_stim/150-deg_dot-left_seagreen.png,stimulus/viswhere_stim/120-deg_dot-left_mediumslateblue.png,stimulus/viswhere_stim/match_blank.png,stimulus/viswhere_stim/match_box.png,stimulus/viswhere_stim/match_yes.png,stimulus/viswhere_stim/match_no.png,2.0,Match,Line,Dot,2,5.125,0,5.125,0,5.125,0,5.125,0,0.75,0.75,1,0.5,1,2.125,1,0.5,1,2.125,0,0.0,0,0.0,0,0.0,0,0.0,0,,,,,0,6,6,6,,,,,,,,,82.3334381249997,87.45038124999974,82.81764695899983,83.80677087499953,84.446078209,85.44416674999957,82.3334381249997,82.3334381249997,82.34757829233342,82.3334381249997,82.3334381249997,82.3334381249997,82.34757829233342,82.3334381249997,87.45038124999974,88.24533604199951,90.3129364589995,94.2134972089998,88.24533604199951,88.24533604199951,93.36881458399967,88.69449050000003,89.69743733399991,90.3129364589995,91.32171179200031,88.24533604199951,88.24533604199951,88.2179716253336,88.24533604199951,88.24533604199951,88.24533604199951,88.2179716253336,88.24533604199951,88.24533604199951,93.36881458399967,88.24533604199951,93.36881458399967,93.43903654199949,94.2134972089998,88.24533604199951,2,1,2.364351958000043,reldom2_s040,001,2025-03-19_17h29.45.515,Where-A-Scan_AC,2022.2.5,None,
6,Second_Order,1.0,viswhere,stimulus/viswhere_stim/60-deg_dot-right_salmon.png,stimulus/viswhere_stim/150-deg_dot-right_cyan.png,stimulus/viswhere_stim/120-deg_dot-left_lightsseagreen.png,stimulus/viswhere_stim/90-deg_dot-left_goldenrod.png,stimulus/viswhere_stim/match_blank.png,stimulus/viswhere_stim/match_box.png,stimulus/viswhere_stim/match_yes.png,stimulus/viswhere_stim/match_no.png,1.0,Match,Dot,Dot,1,5.125,0,5.125,0,5.125,0,5.125,0,0.625,0.625,1,0.5,1,2.125,1,0.5,1,2.125,0,0.0,0,0.0,0,0.0,0,0.0,0,,,,,0,7,7,7,,,,,,,,,94.2134972089998,99.32758599999943,94.69915545899948,95.69799095899998,96.32050416699985,97.31857345899971,94.2134972089998,94.2134972089998,94.22664370900002,94.2134972089998,94.2134972089998,94.2134972089998,94.22664370900002,94.2134972089998,99.32758599999943,99.9980577919996,102.07669604199964,106.11168420899958,99.9980577919996,99.9980577919996,105.12115149999954,100.46432691700011,101.48294370900021,102.07669604199964,103.08156583399978,99.9980577919996,99.9980577919996,99.97442670833291,99.9980577919996,99.9980577919996,99.9980577919996,99.97442670833291,99.9980577919996,99.9980577919996,105.12115149999954,99.9980577919996,105.12115149999954,105.18961087499974,105.81699641700015,99.9980577919996,1,1,2.5293949589995464,reldom2_s040,001,2025-03-19_17h29.45.515,Where-A-Scan_AC,2022.2.5,None,
0,0.0,None,fixation,stimulus/viswhere_stim/blank_white.png,stimulus/viswhere_stim/blank_white.png,stimulus/audwhere_stim/blank_white.png,stimulus/audwhere_stim/blank_white.png,stimulus/viswhere_stim/blank_white.png,stimulus/viswhere_stim/blank_white.png,stimulus/viswhere_stim/blank_white.png,stimulus/viswhere_stim/blank_white.png,0.0,0.0,0.0,0.0,0,0.0,0,0.0,0,0.0,0,0.0,0,0.0,0.0,0,0.0,0,0.0,0,0.0,0,0.0,0,0.0,0,0.0,0,0.0,0,0.0,8,,,,,0,8,8,8,,,,,,,,,106.11168420899958,106.11168420899958,106.11168420899958,106.11168420899958,106.11168420899958,106.11168420899958,106.11168420899958,106.11168420899958,106.01107966733282,106.11168420899958,106.11168420899958,106.11168420899958,106.01107966733282,106.11168420899958,106.11168420899958,106.11168420899958,106.11168420899958,106.11168420899958,106.11168420899958,106.11168420899958,106.11168420899958,106.11168420899958,106.11168420899958,106.11168420899958,106.11168420899958,106.11168420899958,106.11168420899958,106.06107966733282,106.11168420899958,106.11168420899958,106.11168420899958,106.06107966733282,106.11168420899958,106.11168420899958,106.11168420899958,106.11168420899958,106.11168420899958,111.32263020899973,111.32263020899973,114.29789774999972,None,0,,reldom2_s040,001,2025-03-19_17h29.45.515,Where-A-Scan_AC,2022.2.5,None,
7,First_Order,2.0,viswhere,stimulus/viswhere_stim/blank_white.png,stimulus/viswhere_stim/blank_white.png,stimulus/viswhere_stim/30-deg_dot-right_cyan.png,stimulus/viswhere_stim/30-deg_dot-left_cyan.png,stimulus/viswhere_stim/blank_white.png,stimulus/viswhere_stim/line_box.png,stimulus/viswhere_stim/line_yes.png,stimulus/viswhere_stim/line_no.png,None,Line,None,Line,1,0.0,0,5.125,0,5.125,0,5.125,0,0.0,0.625,0,0.0,0,0.0,1,0.5,1,2.125,0,0.0,0,0.0,0,0.0,0,0.0,0,,,,,0,9,9,9,,,,,,,,,114.29789774999972,114.29789774999972,114.29789774999972,114.29789774999972,114.29789774999972,114.29789774999972,114.29789774999972,114.29789774999972,114.27774854166698,114.29789774999972,114.29789774999972,114.29789774999972,114.27774854166698,114.29789774999972,114.29789774999972,114.29789774999972,116.40273029199943,120.3615521669999,114.29789774999972,114.29789774999972,119.42263029199967,114.77829974999986,115.79261370899985,116.40273029199943,117.40622187499957,114.29789774999972,114.29789774999972,114.29441520833365,114.29789774999972,114.29789774999972,114.29789774999972,114.29441520833365,114.29789774999972,114.29789774999972,119.42263029199967,114.29789774999972,119.42263029199967,119.52155416699952,120.14696887500031,114.29789774999972,1,1,1.5474114999997255,reldom2_s040,001,2025-03-19_17h29.45.515,Where-A-Scan_AC,2022.2.5,None,
8,First_Order,2.0,viswhere,stimulus/viswhere_stim/blank_white.png,stimulus/viswhere_stim/blank_white.png,stimulus/viswhere_stim/60-deg_dot-right_slateblue.png,stimulus/viswhere_stim/60-deg_dot-left_goldenrod.png,stimulus/viswhere_stim/blank_white.png,stimulus/viswhere_stim/dot_box.png,stimulus/viswhere_stim/dot_yes.png,stimulus/viswhere_stim/dot_no.png,None,Dot,None,Line,2,0.0,0,5.125,0,5.125,0,5.125,0,0.0,0.625,0,0.0,0,0.0,1,0.5,1,2.125,0,0.0,0,0.0,0,0.0,0,0.0,0,,,,,0,10,10,10,,,,,,,,,120.3615521669999,120.3615521669999,120.3615521669999,120.3615521669999,120.3615521669999,120.3615521669999,120.3615521669999,120.3615521669999,120.34109008333355,120.3615521669999,120.3615521669999,120.3615521669999,120.34109008333355,120.3615521669999,120.3615521669999,120.3615521669999,122.46145745899958,126.42464837500029,120.3615521669999,120.3615521669999,125.50161095899966,120.8409346669996,121.85079920899989,122.46145745899958,123.47869212499972,120.3615521669999,120.3615521669999,120.35775675000022,120.3615521669999,120.3615521669999,120.3615521669999,120.35775675000022,120.3615521669999,120.3615521669999,125.50161095899966,120.3615521669999,125.50161095899966,125.58510341700003,126.21074562499962,120.3615521669999,2,1,1.8841459169998416,reldom2_s040,001,2025-03-19_17h29.45.515,Where-A-Scan_AC,2022.2.5,None,
9,First_Order,2.0,viswhere,stimulus/viswhere_stim/blank_white.png,stimulus/viswhere_stim/blank_white.png,stimulus/viswhere_stim/90-deg_dot-right_cyan.png,stimulus/viswhere_stim/60-deg_dot-right_slateblue.png,stimulus/viswhere_stim/blank_white.png,stimulus/viswhere_stim/dot_box.png,stimulus/viswhere_stim/dot_yes.png,stimulus/viswhere_stim/dot_no.png,None,Dot,None,Dot,1,0.0,0,5.125,0,5.125,0,5.125,0,0.0,0.625,0,0.0,0,0.0,1,0.5,1,2.125,0,0.0,0,0.0,0,0.0,0,0.0,0,,,,,0,11,11,11,,,,,,,,,126.42464837500029,126.42464837500029,126.42464837500029,126.42464837500029,126.42464837500029,126.42464837500029,126.42464837500029,126.42464837500029,126.404735583333,126.42464837500029,126.42464837500029,126.42464837500029,126.404735583333,126.42464837500029,126.42464837500029,126.42464837500029,128.52919008400022,132.48416412499955,126.42464837500029,126.42464837500029,131.55811266699948,126.90407770899947,127.91704445899995,128.52919008400022,129.5492538339995,126.42464837500029,126.42464837500029,126.42140224999966,126.42464837500029,126.42464837500029,126.42464837500029,126.42140224999966,126.42464837500029,126.42464837500029,131.55811266699948,126.42464837500029,131.55811266699948,131.6539964169997,132.28134591700018,126.42464837500029,1,1,1.0146195830002398,reldom2_s040,001,2025-03-19_17h29.45.515,Where-A-Scan_AC,2022.2.5,None,
10,First_Order,2.0,viswhere,stimulus/viswhere_stim/blank_white.png,stimulus/viswhere_stim/blank_white.png,stimulus/viswhere_stim/60-deg_dot-left_mediumslateblue.png,stimulus/viswhere_stim/150-deg_dot-left_peru.png,stimulus/viswhere_stim/blank_white.png,stimulus/viswhere_stim/dot_box.png,stimulus/viswhere_stim/dot_yes.png,stimulus/viswhere_stim/dot_no.png,None,Dot,None,Dot,1,0.0,0,5.125,0,5.125,0,5.125,0,0.0,0.625,0,0.0,0,0.0,1,0.5,1,2.125,0,0.0,0,0.0,0,0.0,0,0.0,0,,,,,0,12,12,12,,,,,,,,,132.48416412499955,132.48416412499955,132.48416412499955,132.48416412499955,132.48416412499955,132.48416412499955,132.48416412499955,132.48416412499955,132.46215262533346,132.48416412499955,132.48416412499955,132.48416412499955,132.46215262533346,132.48416412499955,132.48416412499955,132.48416412499955,134.59556616699956,138.6248218339997,132.48416412499955,132.48416412499955,137.60661033399992,132.96349224999994,133.98164737499974,134.59556616699956,135.60352020899973,132.48416412499955,132.48416412499955,132.47881929200014,132.48416412499955,132.48416412499955,132.48416412499955,132.47881929200014,132.48416412499955,132.48416412499955,137.60661033399992,132.48416412499955,137.60661033399992,137.70459195900003,138.33102687500013,132.48416412499955,1,1,1.356029249999665,reldom2_s040,001,2025-03-19_17h29.45.515,Where-A-Scan_AC,2022.2.5,None,
0,0.0,None,fixation,stimulus/viswhere_stim/blank_white.png,stimulus/viswhere_stim/blank_white.png,stimulus/audwhere_stim/blank_white.png,stimulus/audwhere_stim/blank_white.png,stimulus/viswhere_stim/blank_white.png,stimulus/viswhere_stim/blank_white.png,stimulus/viswhere_stim/blank_white.png,stimulus/viswhere_stim/blank_white.png,0.0,0.0,0.0,0.0,0,0.0,0,0.0,0,0.0,0,0.0,0,0.0,0.0,0,0.0,0,0.0,0,0.0,0,0.0,0,0.0,0,0.0,0,0.0,0,0.0,10,,,,,0,13,13,13,,,,,,,,,138.6248218339997,138.6248218339997,138.6248218339997,138.6248218339997,138.6248218339997,138.6248218339997,138.6248218339997,138.6248218339997,138.52677891733342,138.6248218339997,138.6248218339997,138.6248218339997,138.52677891733342,138.6248218339997,138.6248218339997,138.6248218339997,138.6248218339997,138.6248218339997,138.6248218339997,138.6248218339997,138.6248218339997,138.6248218339997,138.6248218339997,138.6248218339997,138.6248218339997,138.6248218339997,138.6248218339997,138.57677891733343,138.6248218339997,138.6248218339997,138.6248218339997,138.57677891733343,138.6248218339997,138.6248218339997,138.6248218339997,138.6248218339997,138.6248218339997,143.83909133399993,143.83909133399993,148.73778991699965,None,0,,reldom2_s040,001,2025-03-19_17h29.45.515,Where-A-Scan_AC,2022.2.5,None,
11,Second_Order,2.0,viswhere,stimulus/viswhere_stim/120-deg_dot-right_turquoise.png,stimulus/viswhere_stim/120-deg_dot-left_goldenrod.png,stimulus/viswhere_stim/60-deg_dot-left_turquoise.png,stimulus/viswhere_stim/150-deg_dot-left_seagreen.png,stimulus/viswhere_stim/match_blank.png,stimulus/viswhere_stim/match_box.png,stimulus/viswhere_stim/match_yes.png,stimulus/viswhere_stim/match_no.png,2.0,Match,Line,Dot,2,5.125,0,5.125,0,5.125,0,5.125,0,0.75,0.75,1,0.5,1,2.125,1,0.5,1,2.125,0,0.0,0,0.0,0,0.0,0,0.0,0,,,,,0,14,14,14,,,,,,,,,148.73778991699965,153.8534344589998,149.22107937500004,150.2114894589995,150.84585354199953,151.8441676249995,148.73778991699965,148.73778991699965,148.75146229233283,148.73778991699965,148.73778991699965,148.73778991699965,148.75146229233283,148.73778991699965,153.8534344589998,154.64350504199956,156.73178341699986,160.6167100419998,154.64350504199956,154.64350504199956,159.77020149999953,155.0908264589998,156.09517070899983,156.73178341699986,157.7385630839999,154.64350504199956,154.64350504199956,154.62040016733278,154.64350504199956,154.64350504199956,154.64350504199956,154.62040016733278,154.64350504199956,154.64350504199956,159.77020149999953,154.64350504199956,159.77020149999953,159.83920404199944,160.6167100419998,154.64350504199956,1,0,2.028309000000263,reldom2_s040,001,2025-03-19_17h29.45.515,Where-A-Scan_AC,2022.2.5,None,
12,Second_Order,2.0,viswhere,stimulus/viswhere_stim/30-deg_dot-right_mediumslateblue.png,stimulus/viswhere_stim/30-deg_dot-left_seagreen.png,stimulus/viswhere_stim/120-deg_dot-right_goldenrod.png,stimulus/viswhere_stim/120-deg_dot-left_salmon.png,stimulus/viswhere_stim/match_blank.png,stimulus/viswhere_stim/match_box.png,stimulus/viswhere_stim/match_yes.png,stimulus/viswhere_stim/match_no.png,1.0,Match,Line,Line,1,5.125,0,5.125,0,5.125,0,5.125,0,0.625,0.625,1,0.5,1,2.125,1,0.5,1,2.125,0,0.0,0,0.0,0,0.0,0,0.0,0,,,,,0,15,15,15,,,,,,,,,160.6167100419998,165.73068841700024,161.11583966699982,162.10485362500003,162.72319070899994,163.72118324999974,160.6167100419998,160.6167100419998,160.6299045419999,160.6167100419998,160.6167100419998,160.6167100419998,160.6299045419999,160.6167100419998,165.73068841700024,166.40140291700027,168.4756983340003,172.5263191670001,166.40140291700027,166.40140291700027,171.53363633400022,166.84786554199945,167.8617505000002,168.4756983340003,169.47942658400007,166.40140291700027,166.40140291700027,166.37785387533364,166.40140291700027,166.40140291700027,166.40140291700027,166.37785387533364,166.40140291700027,166.40140291700027,171.53363633400022,166.40140291700027,171.53363633400022,171.60264800000004,172.2278795000002,166.40140291700027,1,1,0.8568235840002671,reldom2_s040,001,2025-03-19_17h29.45.515,Where-A-Scan_AC,2022.2.5,None,
0,0.0,None,fixation,stimulus/viswhere_stim/blank_white.png,stimulus/viswhere_stim/blank_white.png,stimulus/audwhere_stim/blank_white.png,stimulus/audwhere_stim/blank_white.png,stimulus/viswhere_stim/blank_white.png,stimulus/viswhere_stim/blank_white.png,stimulus/viswhere_stim/blank_white.png,stimulus/viswhere_stim/blank_white.png,0.0,0.0,0.0,0.0,0,0.0,0,0.0,0,0.0,0,0.0,0,0.0,0.0,0,0.0,0,0.0,0,0.0,0,0.0,0,0.0,0,0.0,0,0.0,0,0.0,8,,,,,0,16,16,16,,,,,,,,,172.5263191670001,172.5263191670001,172.5263191670001,172.5263191670001,172.5263191670001,172.5263191670001,172.5263191670001,172.5263191670001,172.42402745833292,172.5263191670001,172.5263191670001,172.5263191670001,172.42402745833292,172.5263191670001,172.5263191670001,172.5263191670001,172.5263191670001,172.5263191670001,172.5263191670001,172.5263191670001,172.5263191670001,172.5263191670001,172.5263191670001,172.5263191670001,172.5263191670001,172.5263191670001,172.5263191670001,172.47402745833293,172.5263191670001,172.5263191670001,172.5263191670001,172.47402745833293,172.5263191670001,172.5263191670001,172.5263191670001,172.5263191670001,172.5263191670001,177.73529316700024,177.73529316700024,180.76689375000024,None,0,,reldom2_s040,001,2025-03-19_17h29.45.515,Where-A-Scan_AC,2022.2.5,None,
13,First_Order,3.0,audwhere,stimulus/audwhere_stim/dummy.wav,stimulus/audwhere_stim/dummy.wav,stimulus/audwhere_stim/right_away_290h.wav,stimulus/audwhere_stim/right_toward_280h.wav,stimulus/audwhere_stim/blank_white.png,stimulus/audwhere_stim/side_box.png,stimulus/audwhere_stim/side_yes.png,stimulus/audwhere_stim/side_no.png,None,Side,None,Side,1,0.0,0,5.125,0,5.125,0,5.125,0,0.0,0.625,0,0.0,0,0.0,0,0.0,0,0.0,0,0.0,0,0.0,1,0.5,1,2.125,0,,,,,0,17,17,17,,,,,,,,,180.76689375000024,180.76689375000024,180.76689375000024,180.76689375000024,180.76689375000024,180.76689375000024,180.76689375000024,180.76689375000024,180.69227712566652,180.76689375000024,180.76689375000024,180.76689375000024,180.69227712566652,180.76689375000024,180.76689375000024,180.76689375000024,182.86333874999946,186.8889836669996,180.76689375000024,180.76689375000024,185.93446979199962,180.76689375000024,180.76689375000024,180.76689375000024,180.76689375000024,181.23255020899978,182.30325295900002,181.2024902086662,,182.86333874999946,183.93505341699984,182.83312687566675,,180.76689375000024,185.93446979199962,180.76689375000024,185.93446979199962,185.97576466699957,186.63300629199966,180.76689375000024,1,1,1.8141964579999694,reldom2_s040,001,2025-03-19_17h29.45.515,Where-A-Scan_AC,2022.2.5,None,
14,First_Order,3.0,audwhere,stimulus/audwhere_stim/dummy.wav,stimulus/audwhere_stim/dummy.wav,stimulus/audwhere_stim/right_away_300h.wav,stimulus/audwhere_stim/left_away_300h.wav,stimulus/audwhere_stim/blank_white.png,stimulus/audwhere_stim/side_box.png,stimulus/audwhere_stim/side_yes.png,stimulus/audwhere_stim/side_no.png,None,Side,None,Direction,2,0.0,0,5.125,0,5.125,0,5.125,0,0.0,0.625,0,0.0,0,0.0,0,0.0,0,0.0,0,0.0,0,0.0,1,0.5,1,2.125,0,,,,,0,18,18,18,,,,,,,,,186.8889836669996,186.8889836669996,186.8889836669996,186.8889836669996,186.8889836669996,186.8889836669996,186.8889836669996,186.8889836669996,186.80747541733322,186.8889836669996,186.8889836669996,186.8889836669996,186.80747541733322,186.8889836669996,186.8889836669996,186.8889836669996,188.98174920899964,193.00295254199955,186.8889836669996,186.8889836669996,192.051431459,186.8889836669996,186.8889836669996,186.8889836669996,186.8889836669996,187.35338704199967,188.42235554199942,187.32349491666653,,188.98174920899964,190.0538629169996,188.95200062566644,,186.8889836669996,192.051431459,186.8889836669996,192.051431459,192.09254962500017,192.7491300419997,186.8889836669996,2,1,1.1043445839995911,reldom2_s040,001,2025-03-19_17h29.45.515,Where-A-Scan_AC,2022.2.5,None,
15,First_Order,3.0,audwhere,stimulus/audwhere_stim/dummy.wav,stimulus/audwhere_stim/dummy.wav,stimulus/audwhere_stim/left_away_290h.wav,stimulus/audwhere_stim/right_away_280h.wav,stimulus/audwhere_stim/blank_white.png,stimulus/audwhere_stim/direction_box.png,stimulus/audwhere_stim/direction_yes.png,stimulus/audwhere_stim/direction_no.png,None,Direction,None,Direction,1,0.0,0,5.125,0,5.125,0,5.125,0,0.0,0.625,0,0.0,0,0.0,0,0.0,0,0.0,0,0.0,0,0.0,1,0.5,1,2.125,0,,,,,0,19,19,19,,,,,,,,,193.00295254199955,193.00295254199955,193.00295254199955,193.00295254199955,193.00295254199955,193.00295254199955,193.00295254199955,193.00295254199955,192.9232978753336,193.00295254199955,193.00295254199955,193.00295254199955,192.9232978753336,193.00295254199955,193.00295254199955,193.00295254199955,195.11253854200004,,193.00295254199955,193.00295254199955,198.15613920899978,193.00295254199955,193.00295254199955,193.00295254199955,193.00295254199955,193.4710576669995,194.50185862499984,193.44078550066686,,195.11253854200004,196.14458729199941,195.08154000066614,,193.00295254199955,198.15613920899978,193.00295254199955,198.15613920899978,198.19723499999964,198.85802299999978,193.00295254199955,1,1,1.2841615839997758,reldom2_s040,001,2025-03-19_17h29.45.515,Where-A-Scan_AC,2022.2.5,None,
16,First_Order,3.0,audwhere,stimulus/audwhere_stim/dummy.wav,stimulus/audwhere_stim/dummy.wav,stimulus/audwhere_stim/right_toward_270h.wav,stimulus/audwhere_stim/right_away_300h.wav,stimulus/audwhere_stim/blank_white.png,stimulus/audwhere_stim/direction_box.png,stimulus/audwhere_stim/direction_yes.png,stimulus/audwhere_stim/direction_no.png,None,Direction,None,Side,2,0.0,0,5.125,0,5.125,0,5.125,0,0.0,0.625,0,0.0,0,0.0,0,0.0,0,0.0,0,0.0,0,0.0,1,0.5,1,2.125,0,,,,,0,20,20,20,,,,,,,,,199.1125466249996,199.1125466249996,199.1125466249996,199.1125466249996,199.1125466249996,199.1125466249996,199.1125466249996,199.1125466249996,199.0326008333333,199.1125466249996,199.1125466249996,199.1125466249996,199.0326008333333,199.1125466249996,199.1125466249996,199.1125466249996,201.22050962499998,,199.1125466249996,199.1125466249996,204.2642429589996,199.1125466249996,199.1125466249996,199.1125466249996,199.1125466249996,199.57975195899962,200.61140637500012,199.54943758366633,,201.22050962499998,202.2523425419995,201.19021891666696,,199.1125466249996,204.2642429589996,199.1125466249996,204.2642429589996,204.30552129199987,204.96546341700014,199.1125466249996,2,1,1.23171850000017,reldom2_s040,001,2025-03-19_17h29.45.515,Where-A-Scan_AC,2022.2.5,None,
0,0.0,None,fixation,stimulus/viswhere_stim/blank_white.png,stimulus/viswhere_stim/blank_white.png,stimulus/audwhere_stim/blank_white.png,stimulus/audwhere_stim/blank_white.png,stimulus/viswhere_stim/blank_white.png,stimulus/viswhere_stim/blank_white.png,stimulus/viswhere_stim/blank_white.png,stimulus/viswhere_stim/blank_white.png,0.0,0.0,0.0,0.0,0,0.0,0,0.0,0,0.0,0,0.0,0,0.0,0.0,0,0.0,0,0.0,0,0.0,0,0.0,0,0.0,0,0.0,0,0.0,0,0.0,9,,,,,0,21,21,21,,,,,,,,,205.2401409590002,205.2401409590002,205.2401409590002,205.2401409590002,205.2401409590002,205.2401409590002,205.2401409590002,205.2401409590002,205.13986725033297,205.2401409590002,205.2401409590002,205.2401409590002,205.13986725033297,205.2401409590002,205.2401409590002,205.2401409590002,205.2401409590002,205.2401409590002,205.2401409590002,205.2401409590002,205.2401409590002,205.2401409590002,205.2401409590002,205.2401409590002,205.2401409590002,205.2401409590002,205.2401409590002,205.18986725033295,205.2401409590002,205.2401409590002,205.2401409590002,205.18986725033295,205.2401409590002,205.2401409590002,205.2401409590002,205.2401409590002,205.2401409590002,210.45603816699986,210.45603816699986,214.415421875,None,0,,reldom2_s040,001,2025-03-19_17h29.45.515,Where-A-Scan_AC,2022.2.5,None,
17,Second_Order,3.0,audwhere,stimulus/audwhere_stim/right_away_270h.wav,stimulus/audwhere_stim/left_away_270h.wav,stimulus/audwhere_stim/right_toward_280h.wav,stimulus/audwhere_stim/left_toward_280h.wav,stimulus/viswhere_stim/match_blank.png,stimulus/audwhere_stim/match_box.png,stimulus/viswhere_stim/match_yes.png,stimulus/viswhere_stim/match_no.png,1.0,Match,Direction,Direction,1,5.125,0,5.125,0,5.125,0,5.125,0,0.75,0.75,0,0.0,0,0.0,0,0.0,0,0.0,1,0.5,1,2.125,1,0.5,1,2.125,0,,,,,0,22,22,22,,,,,,,,,214.415421875,219.5382633749996,214.415421875,214.415421875,214.415421875,214.415421875,214.87264708400016,215.86254895899947,214.8750785836667,215.86254895899947,216.49803129199972,217.49566445900018,216.51011216666691,,219.5382633749996,220.38793645900023,222.44192779199966,226.38070287499977,220.38793645900023,220.38793645900023,225.56567533399993,220.38793645900023,220.38793645900023,220.38793645900023,220.38793645900023,220.80953429199963,221.88259199999993,220.77961120866647,,222.44192779199966,223.51597762500023,222.41072362566618,,220.38793645900023,225.56567533399993,220.38793645900023,225.56567533399993,225.56567533399993,,220.38793645900023,1,1,1.1305001669998092,reldom2_s040,001,2025-03-19_17h29.45.515,Where-A-Scan_AC,2022.2.5,None,
18,Second_Order,3.0,audwhere,stimulus/audwhere_stim/left_away_300h.wav,stimulus/audwhere_stim/right_away_290h.wav,stimulus/audwhere_stim/left_toward_300h.wav,stimulus/audwhere_stim/left_away_290h.wav,stimulus/viswhere_stim/match_blank.png,stimulus/audwhere_stim/match_box.png,stimulus/viswhere_stim/match_yes.png,stimulus/viswhere_stim/match_no.png,2.0,Match,Direction,Side,2,5.125,0,5.125,0,5.125,0,5.125,0,0.625,0.625,0,0.0,0,0.0,0,0.0,0,0.0,1,0.5,1,2.125,1,0.5,1,2.125,0,,,,,0,23,23,23,,,,,,,,,226.38070287499977,231.49976695900023,226.38070287499977,226.38070287499977,226.38070287499977,226.38070287499977,226.83771758399962,227.83648149999954,226.85049370866662,,228.4586655840003,229.45685620899985,228.47095091666623,,231.49976695900023,232.2297880420001,234.2771138749995,,232.2297880420001,232.2297880420001,237.39719849999983,232.2297880420001,232.2297880420001,232.2297880420001,232.2297880420001,232.6502834590001,233.71929395899951,232.62025537566686,,234.2771138749995,235.34979887499958,234.2470015006668,,232.2297880420001,237.39719849999983,232.2297880420001,237.39719849999983,237.39719849999983,238.05322604199955,232.2297880420001,2,1,1.2162744580000435,reldom2_s040,001,2025-03-19_17h29.45.515,Where-A-Scan_AC,2022.2.5,None,
0,0.0,None,fixation,stimulus/viswhere_stim/blank_white.png,stimulus/viswhere_stim/blank_white.png,stimulus/audwhere_stim/blank_white.png,stimulus/audwhere_stim/blank_white.png,stimulus/viswhere_stim/blank_white.png,stimulus/viswhere_stim/blank_white.png,stimulus/viswhere_stim/blank_white.png,stimulus/viswhere_stim/blank_white.png,0.0,0.0,0.0,0.0,0,0.0,0,0.0,0,0.0,0,0.0,0,0.0,0.0,0,0.0,0,0.0,0,0.0,0,0.0,0,0.0,0,0.0,0,0.0,0,0.0,9,,,,,0,24,24,24,,,,,,,,,238.32827841699964,238.32827841699964,238.32827841699964,238.32827841699964,238.32827841699964,238.32827841699964,238.32827841699964,238.32827841699964,238.22748991733366,238.32827841699964,238.32827841699964,238.32827841699964,238.22748991733366,238.32827841699964,238.32827841699964,238.32827841699964,238.32827841699964,238.32827841699964,238.32827841699964,238.32827841699964,238.32827841699964,238.32827841699964,238.32827841699964,238.32827841699964,238.32827841699964,238.32827841699964,238.32827841699964,238.27748991733364,238.32827841699964,238.32827841699964,238.32827841699964,238.27748991733364,238.32827841699964,238.32827841699964,238.32827841699964,238.32827841699964,238.32827841699964,243.53575304199967,243.53575304199967,247.5858330000001,None,0,,reldom2_s040,001,2025-03-19_17h29.45.515,Where-A-Scan_AC,2022.2.5,None,
19,First_Order,4.0,audwhere,stimulus/audwhere_stim/dummy.wav,stimulus/audwhere_stim/dummy.wav,stimulus/audwhere_stim/right_away_300h.wav,stimulus/audwhere_stim/left_away_280h.wav,stimulus/audwhere_stim/blank_white.png,stimulus/audwhere_stim/direction_box.png,stimulus/audwhere_stim/direction_yes.png,stimulus/audwhere_stim/direction_no.png,None,Direction,None,Direction,1,0.0,0,5.125,0,5.125,0,5.125,0,0.0,0.625,0,0.0,0,0.0,0,0.0,0,0.0,0,0.0,0,0.0,1,0.5,1,2.125,0,,,,,0,25,25,25,,,,,,,,,247.5858330000001,247.5858330000001,247.5858330000001,247.5858330000001,247.5858330000001,247.5858330000001,247.5858330000001,247.5858330000001,247.51212104166615,247.5858330000001,247.5858330000001,247.5858330000001,247.51212104166615,247.5858330000001,247.5858330000001,247.5858330000001,249.69136620900008,,247.5858330000001,247.5858330000001,252.77731262499947,247.5858330000001,247.5858330000001,247.5858330000001,247.5858330000001,248.0526674169996,249.0838506250002,248.0226459586668,,249.69136620900008,250.72232912500021,249.66104116666637,,247.5858330000001,252.77731262499947,247.5858330000001,252.77731262499947,252.77731262499947,253.43497812500027,247.5858330000001,None,0,,reldom2_s040,001,2025-03-19_17h29.45.515,Where-A-Scan_AC,2022.2.5,None,
20,First_Order,4.0,audwhere,stimulus/audwhere_stim/dummy.wav,stimulus/audwhere_stim/dummy.wav,stimulus/audwhere_stim/right_toward_270h.wav,stimulus/audwhere_stim/right_away_280h.wav,stimulus/audwhere_stim/blank_white.png,stimulus/audwhere_stim/direction_box.png,stimulus/audwhere_stim/direction_yes.png,stimulus/audwhere_stim/direction_no.png,None,Direction,None,Side,2,0.0,0,5.125,0,5.125,0,5.125,0,0.0,0.625,0,0.0,0,0.0,0,0.0,0,0.0,0,0.0,0,0.0,1,0.5,1,2.125,0,,,,,0,26,26,26,,,,,,,,,253.68877541700022,253.68877541700022,253.68877541700022,253.68877541700022,253.68877541700022,253.68877541700022,253.68877541700022,253.68877541700022,253.609373583333,253.68877541700022,253.68877541700022,253.68877541700022,253.609373583333,253.68877541700022,253.68877541700022,253.68877541700022,255.80099395900015,259.8054207919995,253.68877541700022,253.68877541700022,258.85058033399946,253.68877541700022,253.68877541700022,253.68877541700022,253.68877541700022,254.1571640000002,255.1917605839999,254.1267504166665,,255.80099395900015,256.8371205000003,255.7703666666669,,253.68877541700022,258.85058033399946,253.68877541700022,258.85058033399946,258.8919332919995,259.55111175,253.68877541700022,2,1,1.0918353340002795,reldom2_s040,001,2025-03-19_17h29.45.515,Where-A-Scan_AC,2022.2.5,None,
21,First_Order,4.0,audwhere,stimulus/audwhere_stim/dummy.wav,stimulus/audwhere_stim/dummy.wav,stimulus/audwhere_stim/left_toward_300h.wav,stimulus/audwhere_stim/left_away_300h.wav,stimulus/audwhere_stim/blank_white.png,stimulus/audwhere_stim/side_box.png,stimulus/audwhere_stim/side_yes.png,stimulus/audwhere_stim/side_no.png,None,Side,None,Side,1,0.0,0,5.125,0,5.125,0,5.125,0,0.0,0.625,0,0.0,0,0.0,0,0.0,0,0.0,0,0.0,0,0.0,1,0.5,1,2.125,0,,,,,0,27,27,27,,,,,,,,,259.8054207919995,259.8054207919995,259.8054207919995,259.8054207919995,259.8054207919995,259.8054207919995,259.8054207919995,259.8054207919995,259.7256788753331,259.8054207919995,259.8054207919995,259.8054207919995,259.7256788753331,259.8054207919995,259.8054207919995,259.8054207919995,261.9026210840002,265.92929854199974,259.8054207919995,259.8054207919995,264.97925912499977,259.8054207919995,259.8054207919995,259.8054207919995,259.8054207919995,260.27169029200013,261.34394679199977,260.24171450066683,,261.9026210840002,262.9332018340001,261.87274404166624,,259.8054207919995,264.97925912499977,259.8054207919995,264.97925912499977,265.020369375,265.67632920899996,259.8054207919995,1,1,0.9659495410005547,reldom2_s040,001,2025-03-19_17h29.45.515,Where-A-Scan_AC,2022.2.5,None,
22,First_Order,4.0,audwhere,stimulus/audwhere_stim/dummy.wav,stimulus/audwhere_stim/dummy.wav,stimulus/audwhere_stim/right_away_270h.wav,stimulus/audwhere_stim/left_away_300h.wav,stimulus/audwhere_stim/blank_white.png,stimulus/audwhere_stim/side_box.png,stimulus/audwhere_stim/side_yes.png,stimulus/audwhere_stim/side_no.png,None,Side,None,Direction,2,0.0,0,5.125,0,5.125,0,5.125,0,0.0,0.625,0,0.0,0,0.0,0,0.0,0,0.0,0,0.0,0,0.0,1,0.5,1,2.125,0,,,,,0,28,28,28,,,,,,,,,265.92929854199974,265.92929854199974,265.92929854199974,265.92929854199974,265.92929854199974,265.92929854199974,265.92929854199974,265.92929854199974,265.85052133333295,265.92929854199974,265.92929854199974,265.92929854199974,265.85052133333295,265.92929854199974,265.92929854199974,265.92929854199974,268.02473754199946,272.07425491699996,265.92929854199974,265.92929854199974,271.1025558749998,265.92929854199974,265.92929854199974,265.92929854199974,265.92929854199974,266.3954559169997,267.4668032919999,266.3652329166664,,268.02473754199946,269.05659512500006,267.9947726256662,,265.92929854199974,271.1025558749998,265.92929854199974,271.1025558749998,271.14370987500024,271.79985299999953,265.92929854199974,2,1,0.9651152919996093,reldom2_s040,001,2025-03-19_17h29.45.515,Where-A-Scan_AC,2022.2.5,None,
0,0.0,None,fixation,stimulus/viswhere_stim/blank_white.png,stimulus/viswhere_stim/blank_white.png,stimulus/audwhere_stim/blank_white.png,stimulus/audwhere_stim/blank_white.png,stimulus/viswhere_stim/blank_white.png,stimulus/viswhere_stim/blank_white.png,stimulus/viswhere_stim/blank_white.png,stimulus/viswhere_stim/blank_white.png,0.0,0.0,0.0,0.0,0,0.0,0,0.0,0,0.0,0,0.0,0,0.0,0.0,0,0.0,0,0.0,0,0.0,0,0.0,0,0.0,0,0.0,0,0.0,0,0.0,9,,,,,0,29,29,29,,,,,,,,,272.07425491699996,272.07425491699996,272.07425491699996,272.07425491699996,272.07425491699996,272.07425491699996,272.07425491699996,272.07425491699996,271.9738848753333,272.07425491699996,272.07425491699996,272.07425491699996,271.9738848753333,272.07425491699996,272.07425491699996,272.07425491699996,272.07425491699996,272.07425491699996,272.07425491699996,272.07425491699996,272.07425491699996,272.07425491699996,272.07425491699996,272.07425491699996,272.07425491699996,272.07425491699996,272.07425491699996,272.0238848753333,272.07425491699996,272.07425491699996,272.07425491699996,272.0238848753333,272.07425491699996,272.07425491699996,272.07425491699996,272.07425491699996,272.07425491699996,277.2861875419994,277.2861875419994,281.2242530000003,None,0,,reldom2_s040,001,2025-03-19_17h29.45.515,Where-A-Scan_AC,2022.2.5,None,
23,Second_Order,4.0,audwhere,stimulus/audwhere_stim/left_away_270h.wav,stimulus/audwhere_stim/left_toward_290h.wav,stimulus/audwhere_stim/left_toward_300h.wav,stimulus/audwhere_stim/right_toward_280h.wav,stimulus/viswhere_stim/match_blank.png,stimulus/audwhere_stim/match_box.png,stimulus/viswhere_stim/match_yes.png,stimulus/viswhere_stim/match_no.png,2.0,Match,Side,Direction,2,5.125,0,5.125,0,5.125,0,5.125,0,0.75,0.75,0,0.0,0,0.0,0,0.0,0,0.0,1,0.5,1,2.125,1,0.5,1,2.125,0,,,,,0,30,30,30,,,,,,,,,281.2242530000003,286.3427447920003,281.2242530000003,281.2242530000003,281.2242530000003,281.2242530000003,281.6798543750001,282.6659172919999,281.69327512566656,,283.3028009999998,284.30003520900027,283.31465804166623,,286.3427447920003,287.19191745900025,289.24494566700014,293.1906533749998,287.19191745900025,287.19191745900025,292.37387775000025,287.19191745900025,287.19191745900025,287.19191745900025,287.19191745900025,287.61284683400027,288.68598504199963,287.5823357916663,,289.24494566700014,290.27514008399976,289.2146796666668,,287.19191745900025,292.37387775000025,287.19191745900025,292.37387775000025,292.37387775000025,,287.19191745900025,2,1,0.7757818329992006,reldom2_s040,001,2025-03-19_17h29.45.515,Where-A-Scan_AC,2022.2.5,None,
24,Second_Order,4.0,audwhere,stimulus/audwhere_stim/right_toward_290h.wav,stimulus/audwhere_stim/right_away_290h.wav,stimulus/audwhere_stim/left_away_300h.wav,stimulus/audwhere_stim/left_toward_270h.wav,stimulus/viswhere_stim/match_blank.png,stimulus/audwhere_stim/match_box.png,stimulus/viswhere_stim/match_yes.png,stimulus/viswhere_stim/match_no.png,1.0,Match,Side,Side,1,5.125,0,5.125,0,5.125,0,5.125,0,0.625,0.625,0,0.0,0,0.0,0,0.0,0,0.0,1,0.5,1,2.125,1,0.5,1,2.125,0,,,,,0,31,31,31,,,,,,,,,293.1906533749998,298.3032653749997,293.1906533749998,293.1906533749998,293.1906533749998,293.1906533749998,293.6405610840002,294.6270846669995,293.65466366666647,,295.2753912090002,296.2647484170002,295.27885445866673,,298.3032653749997,299.03335629199955,301.08479216700016,305.14069279199975,299.03335629199955,299.03335629199955,304.2070217499995,299.03335629199955,299.03335629199955,299.03335629199955,299.03335629199955,299.45271537499957,300.52623612499974,299.4225991666665,,301.08479216700016,302.1586855839996,301.0546497086664,,299.03335629199955,304.2070217499995,299.03335629199955,304.2070217499995,304.2070217499995,304.86380287500015,299.03335629199955,1,1,2.7023781249999956,reldom2_s040,001,2025-03-19_17h29.45.515,Where-A-Scan_AC,2022.2.5,None,
0,0.0,None,fixation,stimulus/viswhere_stim/blank_white.png,stimulus/viswhere_stim/blank_white.png,stimulus/audwhere_stim/blank_white.png,stimulus/audwhere_stim/blank_white.png,stimulus/viswhere_stim/blank_white.png,stimulus/viswhere_stim/blank_white.png,stimulus/viswhere_stim/blank_white.png,stimulus/viswhere_stim/blank_white.png,0.0,0.0,0.0,0.0,0,0.0,0,0.0,0,0.0,0,0.0,0,0.0,0.0,0,0.0,0,0.0,0,0.0,0,0.0,0,0.0,0,0.0,0,0.0,0,0.0,10,,,,,0,32,32,32,,,,,,,,,305.14069279199975,305.14069279199975,305.14069279199975,305.14069279199975,305.14069279199975,305.14069279199975,305.14069279199975,305.14069279199975,305.0379254173332,305.14069279199975,305.14069279199975,305.14069279199975,305.0379254173332,305.14069279199975,305.14069279199975,305.14069279199975,305.14069279199975,305.14069279199975,305.14069279199975,305.14069279199975,305.14069279199975,305.14069279199975,305.14069279199975,305.14069279199975,305.14069279199975,305.14069279199975,305.14069279199975,305.0879254173332,305.14069279199975,305.14069279199975,305.14069279199975,305.0879254173332,305.14069279199975,305.14069279199975,305.14069279199975,305.14069279199975,305.14069279199975,310.34310404200005,310.34310404200005,315.3167943339995,None,0,,reldom2_s040,001,2025-03-19_17h29.45.515,Where-A-Scan_AC,2022.2.5,None,
25,First_Order,5.0,viswhere,stimulus/viswhere_stim/blank_white.png,stimulus/viswhere_stim/blank_white.png,stimulus/viswhere_stim/120-deg_dot-right_goldenrod.png,stimulus/viswhere_stim/150-deg_dot-right_turquoise.png,stimulus/viswhere_stim/blank_white.png,stimulus/viswhere_stim/dot_box.png,stimulus/viswhere_stim/dot_yes.png,stimulus/viswhere_stim/dot_no.png,None,Dot,None,Dot,1,0.0,0,5.125,0,5.125,0,5.125,0,0.0,0.625,0,0.0,0,0.0,1,0.5,1,2.125,0,0.0,0,0.0,0,0.0,0,0.0,0,,,,,0,33,33,33,,,,,,,,,315.3167943339995,315.3167943339995,315.3167943339995,315.3167943339995,315.3167943339995,315.3167943339995,315.3167943339995,315.3167943339995,315.2941232086665,315.3167943339995,315.3167943339995,315.3167943339995,315.2941232086665,315.3167943339995,315.3167943339995,315.3167943339995,317.41338562500005,321.3829797090002,315.3167943339995,315.3167943339995,320.4563729169995,315.79882199999975,316.81918662499993,317.41338562500005,318.41594712499955,315.3167943339995,315.3167943339995,315.3107898753332,315.3167943339995,315.3167943339995,315.3167943339995,315.3107898753332,315.3167943339995,315.3167943339995,320.4563729169995,315.3167943339995,320.4563729169995,320.540529375,321.16771362500003,315.3167943339995,1,1,1.1753847919999316,reldom2_s040,001,2025-03-19_17h29.45.515,Where-A-Scan_AC,2022.2.5,None,
26,First_Order,5.0,viswhere,stimulus/viswhere_stim/blank_white.png,stimulus/viswhere_stim/blank_white.png,stimulus/viswhere_stim/90-deg_dot-right_royalblue.png,stimulus/viswhere_stim/120-deg_dot-right_seagreen.png,stimulus/viswhere_stim/blank_white.png,stimulus/viswhere_stim/line_box.png,stimulus/viswhere_stim/line_yes.png,stimulus/viswhere_stim/line_no.png,None,Line,None,Dot,2,0.0,0,5.125,0,5.125,0,5.125,0,0.0,0.625,0,0.0,0,0.0,1,0.5,1,2.125,0,0.0,0,0.0,0,0.0,0,0.0,0,,,,,0,34,34,34,,,,,,,,,321.3829797090002,321.3829797090002,321.3829797090002,321.3829797090002,321.3829797090002,321.3829797090002,321.3829797090002,321.3829797090002,321.3619250003333,321.3829797090002,321.3829797090002,321.3829797090002,321.3619250003333,321.3829797090002,321.3829797090002,321.3829797090002,323.4948743340001,327.44659437500013,321.3829797090002,321.3829797090002,326.5219484170002,321.863113417,322.88265712500015,323.4948743340001,324.5061850000002,321.3829797090002,321.3829797090002,321.37859166699997,321.3829797090002,321.3829797090002,321.3829797090002,321.37859166699997,321.3829797090002,321.3829797090002,326.5219484170002,321.3829797090002,326.5219484170002,326.6047969169995,327.23174025000026,321.3829797090002,2,1,0.9293617089997497,reldom2_s040,001,2025-03-19_17h29.45.515,Where-A-Scan_AC,2022.2.5,None,
27,First_Order,5.0,viswhere,stimulus/viswhere_stim/blank_white.png,stimulus/viswhere_stim/blank_white.png,stimulus/viswhere_stim/60-deg_dot-left_lightsseagreen.png,stimulus/viswhere_stim/60-deg_dot-right_slateblue.png,stimulus/viswhere_stim/blank_white.png,stimulus/viswhere_stim/line_box.png,stimulus/viswhere_stim/line_yes.png,stimulus/viswhere_stim/line_no.png,None,Line,None,Line,1,0.0,0,5.125,0,5.125,0,5.125,0,0.0,0.625,0,0.0,0,0.0,1,0.5,1,2.125,0,0.0,0,0.0,0,0.0,0,0.0,0,,,,,0,35,35,35,,,,,,,,,327.44659437500013,327.44659437500013,327.44659437500013,327.44659437500013,327.44659437500013,327.44659437500013,327.44659437500013,327.44659437500013,327.4256307923336,327.44659437500013,327.44659437500013,327.44659437500013,327.4256307923336,327.44659437500013,327.44659437500013,327.44659437500013,329.5521794999995,333.5078257089999,327.44659437500013,327.44659437500013,332.5774871249996,327.9246096249999,328.94144874999984,329.5521794999995,330.55524162500024,327.44659437500013,327.44659437500013,327.44229745900026,327.44659437500013,327.44659437500013,327.44659437500013,327.44229745900026,327.44659437500013,327.44659437500013,332.5774871249996,327.44659437500013,332.5774871249996,332.6744964170002,333.30586645899984,327.44659437500013,1,1,0.9196404580006856,reldom2_s040,001,2025-03-19_17h29.45.515,Where-A-Scan_AC,2022.2.5,None,
28,First_Order,5.0,viswhere,stimulus/viswhere_stim/blank_white.png,stimulus/viswhere_stim/blank_white.png,stimulus/viswhere_stim/120-deg_dot-right_slateblue.png,stimulus/viswhere_stim/90-deg_dot-right_cyan.png,stimulus/viswhere_stim/blank_white.png,stimulus/viswhere_stim/dot_box.png,stimulus/viswhere_stim/dot_yes.png,stimulus/viswhere_stim/dot_no.png,None,Dot,None,Dot,1,0.0,0,5.125,0,5.125,0,5.125,0,0.0,0.625,0,0.0,0,0.0,1,0.5,1,2.125,0,0.0,0,0.0,0,0.0,0,0.0,0,,,,,0,36,36,36,,,,,,,,,333.5078257089999,333.5078257089999,333.5078257089999,333.5078257089999,333.5078257089999,333.5078257089999,333.5078257089999,333.5078257089999,333.48666625033303,333.5078257089999,333.5078257089999,333.5078257089999,333.48666625033303,333.5078257089999,333.5078257089999,333.5078257089999,335.61976391699955,339.6518129999995,333.5078257089999,333.5078257089999,338.64670220900007,333.9884095420002,335.00739650000014,335.61976391699955,336.628338042,333.5078257089999,333.5078257089999,333.5033329169997,333.5078257089999,333.5078257089999,333.5078257089999,333.5033329169997,333.5078257089999,333.5078257089999,338.64670220900007,333.5078257089999,338.64670220900007,338.72980191700026,339.359732375,333.5078257089999,1,1,0.6974052080004185,reldom2_s040,001,2025-03-19_17h29.45.515,Where-A-Scan_AC,2022.2.5,None,
0,0.0,None,fixation,stimulus/viswhere_stim/blank_white.png,stimulus/viswhere_stim/blank_white.png,stimulus/audwhere_stim/blank_white.png,stimulus/audwhere_stim/blank_white.png,stimulus/viswhere_stim/blank_white.png,stimulus/viswhere_stim/blank_white.png,stimulus/viswhere_stim/blank_white.png,stimulus/viswhere_stim/blank_white.png,0.0,0.0,0.0,0.0,0,0.0,0,0.0,0,0.0,0,0.0,0,0.0,0.0,0,0.0,0,0.0,0,0.0,0,0.0,0,0.0,0,0.0,0,0.0,0,0.0,9,,,,,0,37,37,37,,,,,,,,,339.6518129999995,339.6518129999995,339.6518129999995,339.6518129999995,339.6518129999995,339.6518129999995,339.6518129999995,339.6518129999995,339.5540061253335,339.6518129999995,339.6518129999995,339.6518129999995,339.5540061253335,339.6518129999995,339.6518129999995,339.6518129999995,339.6518129999995,339.6518129999995,339.6518129999995,339.6518129999995,339.6518129999995,339.6518129999995,339.6518129999995,339.6518129999995,339.6518129999995,339.6518129999995,339.6518129999995,339.6040061253335,339.6518129999995,339.6518129999995,339.6518129999995,339.6040061253335,339.6518129999995,339.6518129999995,339.6518129999995,339.6518129999995,339.6518129999995,344.8613437089998,344.8613437089998,348.7887829169995,None,0,,reldom2_s040,001,2025-03-19_17h29.45.515,Where-A-Scan_AC,2022.2.5,None,
29,Second_Order,5.0,viswhere,stimulus/viswhere_stim/150-deg_dot-right_cyan.png,stimulus/viswhere_stim/150-deg_dot-left_peru.png,stimulus/viswhere_stim/90-deg_dot-left_goldenrod.png,stimulus/viswhere_stim/90-deg_dot-right_mediumslateblue.png,stimulus/viswhere_stim/match_blank.png,stimulus/viswhere_stim/match_box.png,stimulus/viswhere_stim/match_yes.png,stimulus/viswhere_stim/match_no.png,1.0,Match,Line,Line,1,5.125,0,5.125,0,5.125,0,5.125,0,0.75,0.75,1,0.5,1,2.125,1,0.5,1,2.125,0,0.0,0,0.0,0,0.0,0,0.0,0,,,,,0,38,38,38,,,,,,,,,348.7887829169995,353.91095012499954,349.2688144169997,350.25555754200013,350.89266679199955,351.8898492919998,348.7887829169995,348.7887829169995,348.8024822923336,348.7887829169995,348.7887829169995,348.7887829169995,348.8024822923336,348.7887829169995,353.91095012499954,354.70534820899957,356.7738073749997,360.6469193339999,354.70534820899957,354.70534820899957,359.83415883399994,355.15185733399994,356.1553847089999,356.7738073749997,357.7841903339995,354.70534820899957,354.70534820899957,354.67915587533344,354.70534820899957,354.70534820899957,354.70534820899957,354.67915587533344,354.70534820899957,354.70534820899957,359.83415883399994,354.70534820899957,359.83415883399994,359.9045157089995,360.68375775000004,354.70534820899957,1,1,0.9388359999993554,reldom2_s040,001,2025-03-19_17h29.45.515,Where-A-Scan_AC,2022.2.5,None,
30,Second_Order,5.0,viswhere,stimulus/viswhere_stim/90-deg_dot-right_royalblue.png,stimulus/viswhere_stim/60-deg_dot-right_peru.png,stimulus/viswhere_stim/30-deg_dot-left_slateblue.png,stimulus/viswhere_stim/90-deg_dot-left_seagreen.png,stimulus/viswhere_stim/match_blank.png,stimulus/viswhere_stim/match_box.png,stimulus/viswhere_stim/match_yes.png,stimulus/viswhere_stim/match_no.png,1.0,Match,Dot,Dot,1,5.125,0,5.125,0,5.125,0,5.125,0,0.625,0.625,1,0.5,1,2.125,1,0.5,1,2.125,0,0.0,0,0.0,0,0.0,0,0.0,0,,,,,0,39,39,39,,,,,,,,,360.68375775000004,365.8051356670003,361.1653052499996,362.16334579199975,362.7860093749996,363.78413504199943,360.68375775000004,360.68375775000004,360.6969193339999,360.68375775000004,360.68375775000004,360.68375775000004,360.6969193339999,360.68375775000004,365.8051356670003,366.4804618749995,368.5645420000001,372.6020061669997,366.4804618749995,366.4804618749995,371.613496209,366.92709749999995,367.9477735419996,368.5645420000001,369.57044291700004,366.4804618749995,366.4804618749995,366.45625654233345,366.4804618749995,366.4804618749995,366.4804618749995,366.45625654233345,366.4804618749995,366.4804618749995,371.613496209,366.4804618749995,371.613496209,371.7011190000003,372.3327864590001,366.4804618749995,1,1,2.145946916999492,reldom2_s040,001,2025-03-19_17h29.45.515,Where-A-Scan_AC,2022.2.5,None,
0,0.0,None,fixation,stimulus/viswhere_stim/blank_white.png,stimulus/viswhere_stim/blank_white.png,stimulus/audwhere_stim/blank_white.png,stimulus/audwhere_stim/blank_white.png,stimulus/viswhere_stim/blank_white.png,stimulus/viswhere_stim/blank_white.png,stimulus/viswhere_stim/blank_white.png,stimulus/viswhere_stim/blank_white.png,0.0,0.0,0.0,0.0,0,0.0,0,0.0,0,0.0,0,0.0,0,0.0,0.0,0,0.0,0,0.0,0,0.0,0,0.0,0,0.0,0,0.0,0,0.0,0,0.0,8,,,,,0,40,40,40,,,,,,,,,372.6020061669997,372.6020061669997,372.6020061669997,372.6020061669997,372.6020061669997,372.6020061669997,372.6020061669997,372.6020061669997,372.49961875033324,372.6020061669997,372.6020061669997,372.6020061669997,372.49961875033324,372.6020061669997,372.6020061669997,372.6020061669997,372.6020061669997,372.6020061669997,372.6020061669997,372.6020061669997,372.6020061669997,372.6020061669997,372.6020061669997,372.6020061669997,372.6020061669997,372.6020061669997,372.6020061669997,372.54961875033325,372.6020061669997,372.6020061669997,372.6020061669997,372.54961875033325,372.6020061669997,372.6020061669997,372.6020061669997,372.6020061669997,372.6020061669997,377.81831383400004,377.81831383400004,380.8063278749996,None,0,,reldom2_s040,001,2025-03-19_17h29.45.515,Where-A-Scan_AC,2022.2.5,None,
31,First_Order,6.0,viswhere,stimulus/viswhere_stim/blank_white.png,stimulus/viswhere_stim/blank_white.png,stimulus/viswhere_stim/90-deg_dot-right_lightsseagreen.png,stimulus/viswhere_stim/90-deg_dot-left_turquoise.png,stimulus/viswhere_stim/blank_white.png,stimulus/viswhere_stim/line_box.png,stimulus/viswhere_stim/line_yes.png,stimulus/viswhere_stim/line_no.png,None,Line,None,Line,1,0.0,0,5.125,0,5.125,0,5.125,0,0.0,0.625,0,0.0,0,0.0,1,0.5,1,2.125,0,0.0,0,0.0,0,0.0,0,0.0,0,,,,,0,41,41,41,,,,,,,,,380.8063278749996,380.8063278749996,380.8063278749996,380.8063278749996,380.8063278749996,380.8063278749996,380.8063278749996,380.8063278749996,380.78505533366626,380.8063278749996,380.8063278749996,380.8063278749996,380.78505533366626,380.8063278749996,380.8063278749996,380.8063278749996,382.9022516670002,386.86729870899944,380.8063278749996,380.8063278749996,385.92756462499983,381.2870586250001,382.306474125,382.9022516670002,383.9052046249999,380.8063278749996,380.8063278749996,380.801722000333,380.8063278749996,380.8063278749996,380.8063278749996,380.801722000333,380.8063278749996,380.8063278749996,385.92756462499983,380.8063278749996,385.92756462499983,386.025040042,386.6522811249997,380.8063278749996,1,1,1.4169516250003653,reldom2_s040,001,2025-03-19_17h29.45.515,Where-A-Scan_AC,2022.2.5,None,
32,First_Order,6.0,viswhere,stimulus/viswhere_stim/blank_white.png,stimulus/viswhere_stim/blank_white.png,stimulus/viswhere_stim/30-deg_dot-right_goldenrod.png,stimulus/viswhere_stim/30-deg_dot-left_seagreen.png,stimulus/viswhere_stim/blank_white.png,stimulus/viswhere_stim/dot_box.png,stimulus/viswhere_stim/dot_yes.png,stimulus/viswhere_stim/dot_no.png,None,Dot,None,Line,2,0.0,0,5.125,0,5.125,0,5.125,0,0.0,0.625,0,0.0,0,0.0,1,0.5,1,2.125,0,0.0,0,0.0,0,0.0,0,0.0,0,,,,,0,42,42,42,,,,,,,,,386.86729870899944,386.86729870899944,386.86729870899944,386.86729870899944,386.86729870899944,386.86729870899944,386.86729870899944,386.86729870899944,386.846309750333,386.86729870899944,386.86729870899944,386.86729870899944,386.846309750333,386.86729870899944,386.86729870899944,386.86729870899944,388.9746844169995,392.93707833400003,386.86729870899944,386.86729870899944,391.9892052919995,387.3455636669996,388.3615949590003,388.9746844169995,389.9938874999998,386.86729870899944,386.86729870899944,386.86297641699963,386.86729870899944,386.86729870899944,386.86729870899944,386.86297641699963,386.86729870899944,386.86729870899944,391.9892052919995,386.86729870899944,391.9892052919995,392.0856736249998,392.7070167089996,386.86729870899944,2,1,1.3554924170002778,reldom2_s040,001,2025-03-19_17h29.45.515,Where-A-Scan_AC,2022.2.5,None,
33,First_Order,6.0,viswhere,stimulus/viswhere_stim/blank_white.png,stimulus/viswhere_stim/blank_white.png,stimulus/viswhere_stim/150-deg_dot-left_lightsseagreen.png,stimulus/viswhere_stim/150-deg_dot-right_royalblue.png,stimulus/viswhere_stim/blank_white.png,stimulus/viswhere_stim/dot_box.png,stimulus/viswhere_stim/dot_yes.png,stimulus/viswhere_stim/dot_no.png,None,Dot,None,Line,2,0.0,0,5.125,0,5.125,0,5.125,0,0.0,0.625,0,0.0,0,0.0,1,0.5,1,2.125,0,0.0,0,0.0,0,0.0,0,0.0,0,,,,,0,43,43,43,,,,,,,,,392.93707833400003,392.93707833400003,392.93707833400003,392.93707833400003,392.93707833400003,392.93707833400003,392.93707833400003,392.93707833400003,392.91651525033313,392.93707833400003,392.93707833400003,392.93707833400003,392.91651525033313,392.93707833400003,392.93707833400003,392.93707833400003,395.04783079200024,399.0065544170002,392.93707833400003,392.93707833400003,398.0647089590002,393.4217870000002,394.42869845899986,395.04783079200024,396.0608453340001,392.93707833400003,392.93707833400003,392.9331819169998,392.93707833400003,392.93707833400003,392.93707833400003,392.9331819169998,392.93707833400003,392.93707833400003,398.0647089590002,392.93707833400003,398.0647089590002,398.16220966699984,398.79148183399957,392.93707833400003,2,1,1.4643763749991194,reldom2_s040,001,2025-03-19_17h29.45.515,Where-A-Scan_AC,2022.2.5,None,
34,First_Order,6.0,viswhere,stimulus/viswhere_stim/blank_white.png,stimulus/viswhere_stim/blank_white.png,stimulus/viswhere_stim/120-deg_dot-left_peru.png,stimulus/viswhere_stim/90-deg_dot-left_royalblue.png,stimulus/viswhere_stim/blank_white.png,stimulus/viswhere_stim/line_box.png,stimulus/viswhere_stim/line_yes.png,stimulus/viswhere_stim/line_no.png,None,Line,None,Dot,2,0.0,0,5.125,0,5.125,0,5.125,0,0.0,0.625,0,0.0,0,0.0,1,0.5,1,2.125,0,0.0,0,0.0,0,0.0,0,0.0,0,,,,,0,44,44,44,,,,,,,,,399.0065544170002,399.0065544170002,399.0065544170002,399.0065544170002,399.0065544170002,399.0065544170002,399.0065544170002,399.0065544170002,398.9856133753331,399.0065544170002,399.0065544170002,399.0065544170002,398.9856133753331,399.0065544170002,399.0065544170002,399.0065544170002,401.1048407090002,405.15036687500015,399.0065544170002,399.0065544170002,404.1311850840002,399.4877395000003,400.49052795900025,401.1048407090002,402.11011450000024,399.0065544170002,399.0065544170002,399.00228004199977,399.0065544170002,399.0065544170002,399.0065544170002,399.00228004199977,399.0065544170002,399.0065544170002,404.1311850840002,399.0065544170002,404.1311850840002,404.22893241699967,404.8577607919997,399.0065544170002,2,1,0.9289405420004186,reldom2_s040,001,2025-03-19_17h29.45.515,Where-A-Scan_AC,2022.2.5,None,
0,0.0,None,fixation,stimulus/viswhere_stim/blank_white.png,stimulus/viswhere_stim/blank_white.png,stimulus/audwhere_stim/blank_white.png,stimulus/audwhere_stim/blank_white.png,stimulus/viswhere_stim/blank_white.png,stimulus/viswhere_stim/blank_white.png,stimulus/viswhere_stim/blank_white.png,stimulus/viswhere_stim/blank_white.png,0.0,0.0,0.0,0.0,0,0.0,0,0.0,0,0.0,0,0.0,0,0.0,0.0,0,0.0,0,0.0,0,0.0,0,0.0,0,0.0,0,0.0,0,0.0,0,0.0,10,,,,,0,45,45,45,,,,,,,,,405.15036687500015,405.15036687500015,405.15036687500015,405.15036687500015,405.15036687500015,405.15036687500015,405.15036687500015,405.15036687500015,405.0518764173333,405.15036687500015,405.15036687500015,405.15036687500015,405.0518764173333,405.15036687500015,405.15036687500015,405.15036687500015,405.15036687500015,405.15036687500015,405.15036687500015,405.15036687500015,405.15036687500015,405.15036687500015,405.15036687500015,405.15036687500015,405.15036687500015,405.15036687500015,405.15036687500015,405.1018764173333,405.15036687500015,405.15036687500015,405.15036687500015,405.1018764173333,405.15036687500015,405.15036687500015,405.15036687500015,405.15036687500015,405.15036687500015,410.360729,410.360729,415.2640740420002,None,0,,reldom2_s040,001,2025-03-19_17h29.45.515,Where-A-Scan_AC,2022.2.5,None,
35,Second_Order,6.0,viswhere,stimulus/viswhere_stim/60-deg_dot-right_mediumslateblue.png,stimulus/viswhere_stim/150-deg_dot-right_turquoise.png,stimulus/viswhere_stim/90-deg_dot-right_slateblue.png,stimulus/viswhere_stim/90-deg_dot-left_seagreen.png,stimulus/viswhere_stim/match_blank.png,stimulus/viswhere_stim/match_box.png,stimulus/viswhere_stim/match_yes.png,stimulus/viswhere_stim/match_no.png,2.0,Match,Dot,Line,2,5.125,0,5.125,0,5.125,0,5.125,0,0.75,0.75,1,0.5,1,2.125,1,0.5,1,2.125,0,0.0,0,0.0,0,0.0,0,0.0,0,,,,,0,46,46,46,,,,,,,,,415.2640740420002,420.3850635839999,415.7405669589998,416.7394060839997,417.3615596669997,418.3598919169999,415.2640740420002,415.2640740420002,415.2782450003334,415.2640740420002,415.2640740420002,415.2640740420002,415.2782450003334,415.2640740420002,420.3850635839999,421.17718824999974,423.24775491699984,427.1201499589997,421.17718824999974,421.17718824999974,426.30716495900015,421.6242375419997,422.6303612499996,423.24775491699984,424.25711104199945,421.17718824999974,421.17718824999974,421.1526775423331,421.17718824999974,421.17718824999974,421.17718824999974,421.1526775423331,421.17718824999974,421.17718824999974,426.30716495900015,421.17718824999974,426.30716495900015,426.377553542,427.15626041699943,421.17718824999974,2,1,2.2914278750004087,reldom2_s040,001,2025-03-19_17h29.45.515,Where-A-Scan_AC,2022.2.5,None,
36,Second_Order,6.0,viswhere,stimulus/viswhere_stim/120-deg_dot-left_royalblue.png,stimulus/viswhere_stim/120-deg_dot-right_cyan.png,stimulus/viswhere_stim/90-deg_dot-left_slateblue.png,stimulus/viswhere_stim/90-deg_dot-right_turquoise.png,stimulus/viswhere_stim/match_blank.png,stimulus/viswhere_stim/match_box.png,stimulus/viswhere_stim/match_yes.png,stimulus/viswhere_stim/match_no.png,1.0,Match,Line,Line,1,5.125,0,5.125,0,5.125,0,5.125,0,0.625,0.625,1,0.5,1,2.125,1,0.5,1,2.125,0,0.0,0,0.0,0,0.0,0,0.0,0,,,,,0,47,47,47,,,,,,,,,427.15626041699943,432.27989154199986,427.63473745899955,428.6335830420003,429.26847595900017,430.25778075000017,427.15626041699943,427.15626041699943,427.17014995899973,427.15626041699943,427.15626041699943,427.15626041699943,427.17014995899973,427.15626041699943,432.27989154199986,432.9490597920003,435.03169012499984,439.0657890419998,432.9490597920003,432.9490597920003,438.07997108400014,433.4151514590003,434.43445837499985,435.03169012499984,436.04954983399966,432.9490597920003,432.9490597920003,432.92665254233316,432.9490597920003,432.9490597920003,432.9490597920003,432.92665254233316,432.9490597920003,432.9490597920003,438.07997108400014,432.9490597920003,438.07997108400014,438.1489068339997,438.7833045839998,432.9490597920003,1,1,0.7085976670005039,reldom2_s040,001,2025-03-19_17h29.45.515,Where-A-Scan_AC,2022.2.5,None,
0,0.0,None,fixation,stimulus/viswhere_stim/blank_white.png,stimulus/viswhere_stim/blank_white.png,stimulus/audwhere_stim/blank_white.png,stimulus/audwhere_stim/blank_white.png,stimulus/viswhere_stim/blank_white.png,stimulus/viswhere_stim/blank_white.png,stimulus/viswhere_stim/blank_white.png,stimulus/viswhere_stim/blank_white.png,0.0,0.0,0.0,0.0,0,0.0,0,0.0,0,0.0,0,0.0,0,0.0,0.0,0,0.0,0,0.0,0,0.0,0,0.0,0,0.0,0,0.0,0,0.0,0,0.0,9,,,,,0,48,48,48,,,,,,,,,439.0657890419998,439.0657890419998,439.0657890419998,439.0657890419998,439.0657890419998,439.0657890419998,439.0657890419998,439.0657890419998,438.96386183333317,439.0657890419998,439.0657890419998,439.0657890419998,438.96386183333317,439.0657890419998,439.0657890419998,439.0657890419998,439.0657890419998,439.0657890419998,439.0657890419998,439.0657890419998,439.0657890419998,439.0657890419998,439.0657890419998,439.0657890419998,439.0657890419998,439.0657890419998,439.0657890419998,439.0138618333332,439.0657890419998,439.0657890419998,439.0657890419998,439.0138618333332,439.0657890419998,439.0657890419998,439.0657890419998,439.0657890419998,439.0657890419998,444.28155329199944,444.28155329199944,448.33477066700016,None,0,,reldom2_s040,001,2025-03-19_17h29.45.515,Where-A-Scan_AC,2022.2.5,None,
37,First_Order,7.0,audwhere,stimulus/audwhere_stim/dummy.wav,stimulus/audwhere_stim/dummy.wav,stimulus/audwhere_stim/left_toward_280h.wav,stimulus/audwhere_stim/left_away_290h.wav,stimulus/audwhere_stim/blank_white.png,stimulus/audwhere_stim/direction_box.png,stimulus/audwhere_stim/direction_yes.png,stimulus/audwhere_stim/direction_no.png,None,Direction,None,Side,2,0.0,0,5.125,0,5.125,0,5.125,0,0.0,0.625,0,0.0,0,0.0,0,0.0,0,0.0,0,0.0,0,0.0,1,0.5,1,2.125,0,,,,,0,49,49,49,,,,,,,,,448.33477066700016,448.33477066700016,448.33477066700016,448.33477066700016,448.33477066700016,448.33477066700016,448.33477066700016,448.33477066700016,448.26198758366684,448.33477066700016,448.33477066700016,448.33477066700016,448.26198758366684,448.33477066700016,448.33477066700016,448.33477066700016,450.4442675,454.44716141699973,448.33477066700016,448.33477066700016,453.49167208400013,448.33477066700016,448.33477066700016,448.33477066700016,448.33477066700016,448.8050001249994,449.83479841699955,448.7745761256667,,450.4442675,451.47694466699977,450.41268154166687,,448.33477066700016,453.49167208400013,448.33477066700016,453.49167208400013,453.5326207090002,454.19223058399984,448.33477066700016,2,1,1.7794705830001476,reldom2_s040,001,2025-03-19_17h29.45.515,Where-A-Scan_AC,2022.2.5,None,
38,First_Order,7.0,audwhere,stimulus/audwhere_stim/dummy.wav,stimulus/audwhere_stim/dummy.wav,stimulus/audwhere_stim/left_away_300h.wav,stimulus/audwhere_stim/right_away_280h.wav,stimulus/audwhere_stim/blank_white.png,stimulus/audwhere_stim/side_box.png,stimulus/audwhere_stim/side_yes.png,stimulus/audwhere_stim/side_no.png,None,Side,None,Direction,2,0.0,0,5.125,0,5.125,0,5.125,0,0.0,0.625,0,0.0,0,0.0,0,0.0,0,0.0,0,0.0,0,0.0,1,0.5,1,2.125,0,,,,,0,50,50,50,,,,,,,,,454.44716141699973,454.44716141699973,454.44716141699973,454.44716141699973,454.44716141699973,454.44716141699973,454.44716141699973,454.44716141699973,454.36643187533275,454.44716141699973,454.44716141699973,454.44716141699973,454.36643187533275,454.44716141699973,454.44716141699973,454.44716141699973,456.5464794589998,460.5772351249998,454.44716141699973,454.44716141699973,459.624778417,454.44716141699973,454.44716141699973,454.44716141699973,454.44716141699973,454.9141712499995,455.9865389589995,454.88414058366675,,456.5464794589998,457.6216909169998,456.51640770866675,,454.44716141699973,459.624778417,454.44716141699973,459.624778417,459.66588049999973,460.3224374169995,454.44716141699973,2,1,0.881186333000187,reldom2_s040,001,2025-03-19_17h29.45.515,Where-A-Scan_AC,2022.2.5,None,
39,First_Order,7.0,audwhere,stimulus/audwhere_stim/dummy.wav,stimulus/audwhere_stim/dummy.wav,stimulus/audwhere_stim/right_toward_280h.wav,stimulus/audwhere_stim/right_away_300h.wav,stimulus/audwhere_stim/blank_white.png,stimulus/audwhere_stim/side_box.png,stimulus/audwhere_stim/side_yes.png,stimulus/audwhere_stim/side_no.png,None,Side,None,Side,1,0.0,0,5.125,0,5.125,0,5.125,0,0.0,0.625,0,0.0,0,0.0,0,0.0,0,0.0,0,0.0,0,0.0,1,0.5,1,2.125,0,,,,,0,51,51,51,,,,,,,,,460.5772351249998,460.5772351249998,460.5772351249998,460.5772351249998,460.5772351249998,460.5772351249998,460.5772351249998,460.5772351249998,460.49669591733357,460.5772351249998,460.5772351249998,460.5772351249998,460.49669591733357,460.5772351249998,460.5772351249998,460.5772351249998,462.6716385419995,466.70309295900006,460.5772351249998,460.5772351249998,465.7499967920003,460.5772351249998,460.5772351249998,460.5772351249998,460.5772351249998,461.0428018339999,462.1118020419999,461.0130100416666,,462.6716385419995,463.74656137500006,462.64170208366636,,460.5772351249998,465.7499967920003,460.5772351249998,465.7499967920003,465.79111550000016,466.4490829589995,460.5772351249998,1,1,1.0908367080000971,reldom2_s040,001,2025-03-19_17h29.45.515,Where-A-Scan_AC,2022.2.5,None,
40,First_Order,7.0,audwhere,stimulus/audwhere_stim/dummy.wav,stimulus/audwhere_stim/dummy.wav,stimulus/audwhere_stim/left_away_280h.wav,stimulus/audwhere_stim/left_toward_300h.wav,stimulus/audwhere_stim/blank_white.png,stimulus/audwhere_stim/side_box.png,stimulus/audwhere_stim/side_yes.png,stimulus/audwhere_stim/side_no.png,None,Side,None,Side,1,0.0,0,5.125,0,5.125,0,5.125,0,0.0,0.625,0,0.0,0,0.0,0,0.0,0,0.0,0,0.0,0,0.0,1,0.5,1,2.125,0,,,,,0,52,52,52,,,,,,,,,466.70309295900006,466.70309295900006,466.70309295900006,466.70309295900006,466.70309295900006,466.70309295900006,466.70309295900006,466.70309295900006,466.62371600033305,466.70309295900006,466.70309295900006,466.70309295900006,466.62371600033305,466.70309295900006,466.70309295900006,466.70309295900006,468.79872295899986,472.84699399999954,466.70309295900006,466.70309295900006,471.87235016700015,466.70309295900006,466.70309295900006,466.70309295900006,466.70309295900006,467.1689079589996,468.23885095900005,467.1389920836666,,468.79872295899986,469.8706184169996,468.7685489166663,,466.70309295900006,471.87235016700015,466.70309295900006,471.87235016700015,471.91387441699953,472.5725859590002,466.70309295900006,1,1,0.9974566250002681,reldom2_s040,001,2025-03-19_17h29.45.515,Where-A-Scan_AC,2022.2.5,None,
0,0.0,None,fixation,stimulus/viswhere_stim/blank_white.png,stimulus/viswhere_stim/blank_white.png,stimulus/audwhere_stim/blank_white.png,stimulus/audwhere_stim/blank_white.png,stimulus/viswhere_stim/blank_white.png,stimulus/viswhere_stim/blank_white.png,stimulus/viswhere_stim/blank_white.png,stimulus/viswhere_stim/blank_white.png,0.0,0.0,0.0,0.0,0,0.0,0,0.0,0,0.0,0,0.0,0,0.0,0.0,0,0.0,0,0.0,0,0.0,0,0.0,0,0.0,0,0.0,0,0.0,0,0.0,8,,,,,0,53,53,53,,,,,,,,,472.84699399999954,472.84699399999954,472.84699399999954,472.84699399999954,472.84699399999954,472.84699399999954,472.84699399999954,472.84699399999954,472.7469884583335,472.84699399999954,472.84699399999954,472.84699399999954,472.7469884583335,472.84699399999954,472.84699399999954,472.84699399999954,472.84699399999954,472.84699399999954,472.84699399999954,472.84699399999954,472.84699399999954,472.84699399999954,472.84699399999954,472.84699399999954,472.84699399999954,472.84699399999954,472.84699399999954,472.7969884583335,472.84699399999954,472.84699399999954,472.84699399999954,472.7969884583335,472.84699399999954,472.84699399999954,472.84699399999954,472.84699399999954,472.84699399999954,478.0590000840002,478.0590000840002,480.9983915419998,None,0,,reldom2_s040,001,2025-03-19_17h29.45.515,Where-A-Scan_AC,2022.2.5,None,
41,Second_Order,7.0,audwhere,stimulus/audwhere_stim/left_away_300h.wav,stimulus/audwhere_stim/left_toward_300h.wav,stimulus/audwhere_stim/right_away_290h.wav,stimulus/audwhere_stim/right_toward_290h.wav,stimulus/viswhere_stim/match_blank.png,stimulus/audwhere_stim/match_box.png,stimulus/viswhere_stim/match_yes.png,stimulus/viswhere_stim/match_no.png,1.0,Match,Side,Side,1,5.125,0,5.125,0,5.125,0,5.125,0,0.75,0.75,0,0.0,0,0.0,0,0.0,0,0.0,1,0.5,1,2.125,1,0.5,1,2.125,0,,,,,0,54,54,54,,,,,,,,,480.9983915419998,486.1202907500001,480.9983915419998,480.9983915419998,480.9983915419998,480.9983915419998,481.45555349999995,482.4447210420003,481.45892920866686,,483.0800904589996,484.07848758399996,483.09263704166665,,486.1202907500001,486.9708885,489.0230295419997,492.9633011249998,486.9708885,486.9708885,492.1458416249998,486.9708885,486.9708885,486.9708885,486.9708885,487.39084766699943,488.46336808399974,487.3607490416664,,489.0230295419997,490.0526554999997,488.9929677086668,,486.9708885,492.1458416249998,486.9708885,492.1458416249998,492.1458416249998,,486.9708885,1,1,0.8591893749999144,reldom2_s040,001,2025-03-19_17h29.45.515,Where-A-Scan_AC,2022.2.5,None,
42,Second_Order,7.0,audwhere,stimulus/audwhere_stim/left_away_280h.wav,stimulus/audwhere_stim/right_away_270h.wav,stimulus/audwhere_stim/right_toward_270h.wav,stimulus/audwhere_stim/left_toward_280h.wav,stimulus/viswhere_stim/match_blank.png,stimulus/audwhere_stim/match_box.png,stimulus/viswhere_stim/match_yes.png,stimulus/viswhere_stim/match_no.png,1.0,Match,Direction,Direction,1,5.125,0,5.125,0,5.125,0,5.125,0,0.625,0.625,0,0.0,0,0.0,0,0.0,0,0.0,1,0.5,1,2.125,1,0.5,1,2.125,0,,,,,0,55,55,55,,,,,,,,,492.9633011249998,498.0810329169999,492.9633011249998,492.9633011249998,492.9633011249998,492.9633011249998,493.4204949169998,494.4186144590003,493.4332165006665,,495.0405729590002,496.0393059170001,495.05360070866686,496.04290149999997,498.0810329169999,498.81217837500026,500.8665343749999,504.9187887500002,498.81217837500026,498.81217837500026,503.98739229199964,498.81217837500026,498.81217837500026,498.81217837500026,498.81217837500026,499.23337100000026,500.3053089590003,499.20311416666686,,500.8665343749999,501.9399567089995,500.8364603336661,,498.81217837500026,503.98739229199964,498.81217837500026,503.98739229199964,503.98739229199964,504.64379020900014,498.81217837500026,1,1,1.1169005410001773,reldom2_s040,001,2025-03-19_17h29.45.515,Where-A-Scan_AC,2022.2.5,None,
0,0.0,None,fixation,stimulus/viswhere_stim/blank_white.png,stimulus/viswhere_stim/blank_white.png,stimulus/audwhere_stim/blank_white.png,stimulus/audwhere_stim/blank_white.png,stimulus/viswhere_stim/blank_white.png,stimulus/viswhere_stim/blank_white.png,stimulus/viswhere_stim/blank_white.png,stimulus/viswhere_stim/blank_white.png,0.0,0.0,0.0,0.0,0,0.0,0,0.0,0,0.0,0,0.0,0,0.0,0.0,0,0.0,0,0.0,0,0.0,0,0.0,0,0.0,0,0.0,0,0.0,0,0.0,10,,,,,0,56,56,56,,,,,,,,,504.9187887500002,504.9187887500002,504.9187887500002,504.9187887500002,504.9187887500002,504.9187887500002,504.9187887500002,504.9187887500002,504.8181589583329,504.9187887500002,504.9187887500002,504.9187887500002,504.8181589583329,504.9187887500002,504.9187887500002,504.9187887500002,504.9187887500002,504.9187887500002,504.9187887500002,504.9187887500002,504.9187887500002,504.9187887500002,504.9187887500002,504.9187887500002,504.9187887500002,504.9187887500002,504.9187887500002,504.8681589583329,504.9187887500002,504.9187887500002,504.9187887500002,504.8681589583329,504.9187887500002,504.9187887500002,504.9187887500002,504.9187887500002,504.9187887500002,510.12227658400025,510.12227658400025,515.1481721669998,None,0,,reldom2_s040,001,2025-03-19_17h29.45.515,Where-A-Scan_AC,2022.2.5,None,
43,First_Order,8.0,audwhere,stimulus/audwhere_stim/dummy.wav,stimulus/audwhere_stim/dummy.wav,stimulus/audwhere_stim/left_away_270h.wav,stimulus/audwhere_stim/right_away_300h.wav,stimulus/audwhere_stim/blank_white.png,stimulus/audwhere_stim/direction_box.png,stimulus/audwhere_stim/direction_yes.png,stimulus/audwhere_stim/direction_no.png,None,Direction,None,Direction,1,0.0,0,5.125,0,5.125,0,5.125,0,0.0,0.625,0,0.0,0,0.0,0,0.0,0,0.0,0,0.0,0,0.0,1,0.5,1,2.125,0,,,,,0,57,57,57,,,,,,,,,515.1481721669998,515.1481721669998,515.1481721669998,515.1481721669998,515.1481721669998,515.1481721669998,515.1481721669998,515.1481721669998,515.0759176666667,515.1481721669998,515.1481721669998,515.1481721669998,515.0759176666667,515.1481721669998,515.1481721669998,515.1481721669998,517.2575002499998,521.2601532090002,515.1481721669998,515.1481721669998,520.3022304589995,515.1481721669998,515.1481721669998,515.1481721669998,515.1481721669998,515.6171322499995,516.649238084,515.5867167086665,,517.2575002499998,518.2896790839995,517.2269693336668,,515.1481721669998,520.3022304589995,515.1481721669998,520.3022304589995,520.3440222500003,521.0053410419996,515.1481721669998,1,1,1.6333660419995795,reldom2_s040,001,2025-03-19_17h29.45.515,Where-A-Scan_AC,2022.2.5,None,
44,First_Order,8.0,audwhere,stimulus/audwhere_stim/dummy.wav,stimulus/audwhere_stim/dummy.wav,stimulus/audwhere_stim/left_toward_300h.wav,stimulus/audwhere_stim/left_away_280h.wav,stimulus/audwhere_stim/blank_white.png,stimulus/audwhere_stim/direction_box.png,stimulus/audwhere_stim/direction_yes.png,stimulus/audwhere_stim/direction_no.png,None,Direction,None,Side,2,0.0,0,5.125,0,5.125,0,5.125,0,0.0,0.625,0,0.0,0,0.0,0,0.0,0,0.0,0,0.0,0,0.0,1,0.5,1,2.125,0,,,,,0,58,58,58,,,,,,,,,521.2601532090002,521.2601532090002,521.2601532090002,521.2601532090002,521.2601532090002,521.2601532090002,521.2601532090002,521.2601532090002,521.1799423753329,521.2601532090002,521.2601532090002,521.2601532090002,521.1799423753329,521.2601532090002,521.2601532090002,521.2601532090002,523.3650022089996,,521.2601532090002,521.2601532090002,526.4127678340001,521.2601532090002,521.2601532090002,521.2601532090002,521.2601532090002,521.7283473749994,522.7583293749994,521.6983679166663,,523.3650022089996,524.3972628749998,523.3347704586661,,521.2601532090002,526.4127678340001,521.2601532090002,526.4127678340001,526.455338875,527.1145716669998,521.2601532090002,2,1,1.3553277920000255,reldom2_s040,001,2025-03-19_17h29.45.515,Where-A-Scan_AC,2022.2.5,None,
45,First_Order,8.0,audwhere,stimulus/audwhere_stim/dummy.wav,stimulus/audwhere_stim/dummy.wav,stimulus/audwhere_stim/right_away_290h.wav,stimulus/audwhere_stim/left_away_280h.wav,stimulus/audwhere_stim/blank_white.png,stimulus/audwhere_stim/side_box.png,stimulus/audwhere_stim/side_yes.png,stimulus/audwhere_stim/side_no.png,None,Side,None,Direction,2,0.0,0,5.125,0,5.125,0,5.125,0,0.0,0.625,0,0.0,0,0.0,0,0.0,0,0.0,0,0.0,0,0.0,1,0.5,1,2.125,0,,,,,0,59,59,59,,,,,,,,,527.3690619999998,527.3690619999998,527.3690619999998,527.3690619999998,527.3690619999998,527.3690619999998,527.3690619999998,527.3690619999998,527.2888061673331,527.3690619999998,527.3690619999998,527.3690619999998,527.2888061673331,527.3690619999998,527.3690619999998,527.3690619999998,529.464609875,533.4916402919998,527.3690619999998,527.3690619999998,532.5410949589996,527.3690619999998,527.3690619999998,527.3690619999998,527.3690619999998,527.8345719589997,528.9063168749999,527.8046314166661,,529.464609875,530.5405584170003,529.4345247506665,,527.3690619999998,532.5410949589996,527.3690619999998,532.5410949589996,532.5820752089994,533.2379093339996,527.3690619999998,2,1,1.3867632499996034,reldom2_s040,001,2025-03-19_17h29.45.515,Where-A-Scan_AC,2022.2.5,None,
46,First_Order,8.0,audwhere,stimulus/audwhere_stim/dummy.wav,stimulus/audwhere_stim/dummy.wav,stimulus/audwhere_stim/left_away_270h.wav,stimulus/audwhere_stim/right_away_290h.wav,stimulus/audwhere_stim/blank_white.png,stimulus/audwhere_stim/direction_box.png,stimulus/audwhere_stim/direction_yes.png,stimulus/audwhere_stim/direction_no.png,None,Direction,None,Direction,1,0.0,0,5.125,0,5.125,0,5.125,0,0.0,0.625,0,0.0,0,0.0,0,0.0,0,0.0,0,0.0,0,0.0,1,0.5,1,2.125,0,,,,,0,60,60,60,,,,,,,,,533.4916402919998,533.4916402919998,533.4916402919998,533.4916402919998,533.4916402919998,533.4916402919998,533.4916402919998,533.4916402919998,533.4120903753329,533.4916402919998,533.4916402919998,533.4916402919998,533.4120903753329,533.4916402919998,533.4916402919998,533.4916402919998,535.6020168340001,,533.4916402919998,533.4916402919998,538.648855292,533.4916402919998,533.4916402919998,533.4916402919998,533.4916402919998,533.9608601250002,534.9936072089995,533.9306996256666,,535.6020168340001,536.6356631250001,535.5717317086667,,533.4916402919998,538.648855292,533.4916402919998,538.648855292,538.6902421670002,539.3493887089999,533.4916402919998,1,1,1.24545712500003,reldom2_s040,001,2025-03-19_17h29.45.515,Where-A-Scan_AC,2022.2.5,None,
0,0.0,None,fixation,stimulus/viswhere_stim/blank_white.png,stimulus/viswhere_stim/blank_white.png,stimulus/audwhere_stim/blank_white.png,stimulus/audwhere_stim/blank_white.png,stimulus/viswhere_stim/blank_white.png,stimulus/viswhere_stim/blank_white.png,stimulus/viswhere_stim/blank_white.png,stimulus/viswhere_stim/blank_white.png,0.0,0.0,0.0,0.0,0,0.0,0,0.0,0,0.0,0,0.0,0,0.0,0.0,0,0.0,0,0.0,0,0.0,0,0.0,0,0.0,0,0.0,0,0.0,0,0.0,9,,,,,0,61,61,61,,,,,,,,,539.6239969999997,539.6239969999997,539.6239969999997,539.6239969999997,539.6239969999997,539.6239969999997,539.6239969999997,539.6239969999997,539.5236317923328,539.6239969999997,539.6239969999997,539.6239969999997,539.5236317923328,539.6239969999997,539.6239969999997,539.6239969999997,539.6239969999997,539.6239969999997,539.6239969999997,539.6239969999997,539.6239969999997,539.6239969999997,539.6239969999997,539.6239969999997,539.6239969999997,539.6239969999997,539.6239969999997,539.5736317923328,539.6239969999997,539.6239969999997,539.6239969999997,539.5736317923328,539.6239969999997,539.6239969999997,539.6239969999997,539.6239969999997,539.6239969999997,544.8437555840001,544.8437555840001,548.7584967499997,None,0,,reldom2_s040,001,2025-03-19_17h29.45.515,Where-A-Scan_AC,2022.2.5,None,
47,Second_Order,8.0,audwhere,stimulus/audwhere_stim/right_away_280h.wav,stimulus/audwhere_stim/left_away_290h.wav,stimulus/audwhere_stim/right_toward_300h.wav,stimulus/audwhere_stim/right_away_300h.wav,stimulus/viswhere_stim/match_blank.png,stimulus/audwhere_stim/match_box.png,stimulus/viswhere_stim/match_yes.png,stimulus/viswhere_stim/match_no.png,2.0,Match,Direction,Side,2,5.125,0,5.125,0,5.125,0,5.125,0,0.75,0.75,0,0.0,0,0.0,0,0.0,0,0.0,1,0.5,1,2.125,1,0.5,1,2.125,0,,,,,0,62,62,62,,,,,,,,,548.7584967499997,553.8778734999996,548.7584967499997,548.7584967499997,548.7584967499997,548.7584967499997,549.2153438340001,550.214517292,549.2286235836666,,550.8366707089999,551.834716542,550.8489801666667,,553.8778734999996,554.7258638339999,556.7800681669996,,554.7258638339999,554.7258638339999,559.8920464169996,554.7258638339999,554.7258638339999,554.7258638339999,554.7258638339999,555.1456930839995,556.2201277089998,555.1153534166663,,556.7800681669996,557.8525485419996,556.7501247086668,,554.7258638339999,559.8920464169996,554.7258638339999,559.8920464169996,559.8920464169996,,554.7258638339999,1,0,1.804162166000424,reldom2_s040,001,2025-03-19_17h29.45.515,Where-A-Scan_AC,2022.2.5,None,
48,Second_Order,8.0,audwhere,stimulus/audwhere_stim/left_away_280h.wav,stimulus/audwhere_stim/right_away_290h.wav,stimulus/audwhere_stim/left_toward_280h.wav,stimulus/audwhere_stim/right_toward_300h.wav,stimulus/viswhere_stim/match_blank.png,stimulus/audwhere_stim/match_box.png,stimulus/viswhere_stim/match_yes.png,stimulus/viswhere_stim/match_no.png,1.0,Match,Direction,Direction,1,5.125,0,5.125,0,5.125,0,5.125,0,0.625,0.625,0,0.0,0,0.0,0,0.0,0,0.0,1,0.5,1,2.125,1,0.5,1,2.125,0,,,,,0,63,63,63,,,,,,,,,560.7096270840002,565.821483959,560.7096270840002,560.7096270840002,560.7096270840002,560.7096270840002,561.1599021669999,562.1591050420002,561.1730324166667,,562.7931562499998,563.7828266249999,562.7964820416666,,565.821483959,566.5540848749997,568.6044139999995,572.659626959,566.5540848749997,566.5540848749997,571.7264255,566.5540848749997,566.5540848749997,566.5540848749997,566.5540848749997,566.973693334,568.044643792,566.9435695006662,,568.6044139999995,569.6788449169999,568.5742187916669,,566.5540848749997,571.7264255,566.5540848749997,571.7264255,571.7264255,572.38245775,566.5540848749997,1,1,0.9795980000008058,reldom2_s040,001,2025-03-19_17h29.45.515,Where-A-Scan_AC,2022.2.5,None,
0,0.0,None,fixation,stimulus/viswhere_stim/blank_white.png,stimulus/viswhere_stim/blank_white.png,stimulus/audwhere_stim/blank_white.png,stimulus/audwhere_stim/blank_white.png,stimulus/viswhere_stim/blank_white.png,stimulus/viswhere_stim/blank_white.png,stimulus/viswhere_stim/blank_white.png,stimulus/viswhere_stim/blank_white.png,0.0,0.0,0.0,0.0,0,0.0,0,0.0,0,0.0,0,0.0,0,0.0,0.0,0,0.0,0,0.0,0,0.0,0,0.0,0,0.0,0,0.0,0,0.0,0,0.0,16,,,,,0,64,64,64,,,,,,,,,572.659626959,572.659626959,572.659626959,572.659626959,572.659626959,572.659626959,572.659626959,572.659626959,572.5566185423332,572.659626959,572.659626959,572.659626959,572.5566185423332,572.659626959,572.659626959,572.659626959,572.659626959,572.659626959,572.659626959,572.659626959,572.659626959,572.659626959,572.659626959,572.659626959,572.659626959,572.659626959,572.659626959,572.6066185423332,572.659626959,572.659626959,572.659626959,572.6066185423332,572.659626959,572.659626959,572.659626959,572.659626959,572.659626959,577.8666993750003,577.8666993750003,588.7926773339996,None,0,,reldom2_s040,001,2025-03-19_17h29.45.515,Where-A-Scan_AC,2022.2.5,None,
