Trial,Order,Block,Type,Stimuli_File1,Stimuli_File2,Stimuli_File3,Stimuli_File4,Cue_File1,Cue_File2,Response_File_Yes,Response_File_No,Match,Cue_Dimension,Pair1_Dimension,Pair2_Dimension,Key,Cue1_Duration,Cue1_Onset,Cue2_Duration,Cue2_Onset,ResponseYes_Duration,ResponseYes_Onset,ResponseNo_Duration,ResponseNo_Onset,ITI_Within,ITI_Between,Image1_Duration,Image1_Onset,Image2_Duration,Image2_Onset,Image3_Duration,Image3_Onset,Image4_Duration,Image4_Onset,Sound1_Duration,Sound1_Onset,Sound2_Duration,Sound2_Onset,Sound3_Duration,Sound3_Onset,Sound4_Duration,Sound4_Onset,Fixation_Duration,trials_2.thisRepN,trials_2.thisTrialN,trials_2.thisN,trials_2.thisIndex,trials.thisRepN,trials.thisTrialN,trials.thisN,trials.thisIndex,text_start.started,key_resp_start.started,key_resp_start.keys,key_resp_start.rt,text2.started,key_resp_2.started,key_resp_2.keys,key_resp_2.rt,cue_file1.started,cue_file1.stopped,image_1.started,image_1.stopped,image_2.started,image_2.stopped,sound_icon1.started,sound_icon1.stopped,sound_1.started,sound_1.stopped,sound_icon2.started,sound_icon2.stopped,sound_2.started,sound_2.stopped,image_blank_1.started,image_blank_1.stopped,key_press.started,key_press.stopped,fixation_text.started,cue_file2.started,cue_file2.stopped,image_3.started,image_3.stopped,image_4.started,image_4.stopped,sound_icon3.started,sound_icon3.stopped,sound_3.started,sound_3.stopped,sound_icon4.started,sound_icon4.stopped,sound_4.started,sound_4.stopped,response_yes.started,response_yes.stopped,response_no.started,response_no.stopped,iti_blank.started,iti_blank.stopped,fixation_text.stopped,key_press.keys,key_press.corr,key_press.rt,participant,session,date,expName,psychopyVersion,frameRate,
,,,,,,,,,,,,,,,,,,,,,,,,,,,,,,,,,,,,,,,,,,,,,,,,,,,,6.770135624999966,6.770135624999966,2,0.8412753749998956,,,,,,,,,,,,,,,,,,,,,,,,,,,,,,,,,,,,,,,,,,,,,,,,reldom2_s040,001,2025-03-19_17h54.59.341,Vis-A-Scan_AC,2022.2.5,None,
,,,,,,,,,,,,,,,,,,,,,,,,,,,,,,,,,,,,,,,,,,,,0,0,0,0,,,,,,,,,7.644049416998314,7.644049416998314,5,17.770965292000255,,,,,,,,,,,,,,,,,,,,,,,,,,,,,,,,,,,,,,,,,,,,reldom2_s040,001,2025-03-19_17h54.59.341,Vis-A-Scan_AC,2022.2.5,None,
,,,,,,,,,,,,,,,,,,,,,,,,,,,,,,,,,,,,,,,,,,,,1,0,1,0,,,,,,,,,25.429087332999188,25.429087332999188,5,1.9868907500003843,,,,,,,,,,,,,,,,,,,,,,,,,,,,,,,,,,,,,,,,,,,,reldom2_s040,001,2025-03-19_17h54.59.341,Vis-A-Scan_AC,2022.2.5,None,
,,,,,,,,,,,,,,,,,,,,,,,,,,,,,,,,,,,,,,,,,,,,2,0,2,0,,,,,,,,,27.422810291998758,27.422810291998758,5,1.993323959000918,,,,,,,,,,,,,,,,,,,,,,,,,,,,,,,,,,,,,,,,,,,,reldom2_s040,001,2025-03-19_17h54.59.341,Vis-A-Scan_AC,2022.2.5,None,
,,,,,,,,,,,,,,,,,,,,,,,,,,,,,,,,,,,,,,,,,,,,3,0,3,0,,,,,,,,,29.430831624998973,29.430831624998973,5,1.983784125000966,,,,,,,,,,,,,,,,,,,,,,,,,,,,,,,,,,,,,,,,,,,,reldom2_s040,001,2025-03-19_17h54.59.341,Vis-A-Scan_AC,2022.2.5,None,
0,0.0,None,fixation,stimulus/viswhat_stim/blank_white.png,stimulus/viswhat_stim/blank_white.png,stimulus/viswhere_stim/blank_white.png,stimulus/viswhere_stim/blank_white.png,stimulus/viswhat_stim/blank_white.png,stimulus/viswhat_stim/blank_white.png,stimulus/viswhat_stim/blank_white.png,stimulus/viswhat_stim/blank_white.png,0.0,0.0,0.0,0.0,0,0.0,0,0.0,0,0.0,0,0.0,0,0.0,0.0,0,0.0,0,0.0,0,0.0,0,0.0,0,0,0,0,0,0,0,0,16,,,,,0,0,0,0,,,,,,,,,31.636689791999743,31.636689791999743,31.636689791999743,31.636689791999743,31.636689791999743,31.636689791999743,31.636689791999743,31.636689791999743,31.54324037466528,31.636689791999743,31.636689791999743,31.636689791999743,31.54324037466528,31.636689791999743,31.636689791999743,31.636689791999743,31.636689791999743,31.636689791999743,31.636689791999743,31.636689791999743,31.636689791999743,31.636689791999743,31.636689791999743,31.636689791999743,31.636689791999743,31.636689791999743,31.636689791999743,31.593240374665278,31.636689791999743,31.636689791999743,31.636689791999743,31.593240374665278,31.636689791999743,31.636689791999743,31.636689791999743,31.636689791999743,31.636689791999743,36.82639679199929,36.82639679199929,47.871920124998724,None,0,,reldom2_s040,001,2025-03-19_17h54.59.341,Vis-A-Scan_AC,2022.2.5,None,
1,First_Order,1.0,viswhat,stimulus/viswhat_stim/blank_white.png,stimulus/viswhat_stim/blank_white.png,stimulus/viswhat_stim/land_animal-moose.png,stimulus/viswhat_stim/water_animal-seaturtle.png,stimulus/viswhat_stim/blank_white.png,stimulus/viswhat_stim/type_box.png,stimulus/viswhat_stim/type_yes.png,stimulus/viswhat_stim/type_no.png,None,Type,None,Type,1,0.0,0,5.125,0,5.125,0,5.125,0,0.0,0.625,0,0.0,0,0.0,1,0.5,1,2.125,0,0,0,0,0,0,0,0,0,,,,,0,1,1,1,,,,,,,,,47.871920124998724,47.871920124998724,47.871920124998724,47.871920124998724,47.871920124998724,47.871920124998724,47.871920124998724,47.871920124998724,47.77275041699831,47.871920124998724,47.871920124998724,47.871920124998724,47.77275041699831,47.871920124998724,47.871920124998724,47.871920124998724,49.930587416998605,53.953806957999404,47.871920124998724,47.871920124998724,53.08270299999822,48.32787566699881,49.41408741699888,49.930587416998605,51.020378499999424,47.871920124998724,47.871920124998724,47.82275041699831,47.871920124998724,47.871920124998724,47.871920124998724,47.82275041699831,47.871920124998724,47.871920124998724,53.08270299999822,47.871920124998724,53.08270299999822,53.08270299999822,53.76057433299866,47.871920124998724,1,1,0.9720771669999522,reldom2_s040,001,2025-03-19_17h54.59.341,Vis-A-Scan_AC,2022.2.5,None,
2,First_Order,1.0,viswhat,stimulus/viswhat_stim/blank_white.png,stimulus/viswhat_stim/blank_white.png,stimulus/viswhat_stim/water_vehicle-submarine.png,stimulus/viswhat_stim/land_vehicle-firetruck.png,stimulus/viswhat_stim/blank_white.png,stimulus/viswhat_stim/type_box.png,stimulus/viswhat_stim/type_yes.png,stimulus/viswhat_stim/type_no.png,None,Type,None,Type,1,0.0,0,5.125,0,5.125,0,5.125,0,0.0,0.625,0,0.0,0,0.0,1,0.5,1,2.125,0,0,0,0,0,0,0,0,0,,,,,0,2,2,2,,,,,,,,,53.953806957999404,53.953806957999404,53.953806957999404,53.953806957999404,53.953806957999404,53.953806957999404,53.953806957999404,53.953806957999404,53.91057433299866,53.953806957999404,53.953806957999404,53.953806957999404,53.91057433299866,53.953806957999404,53.953806957999404,53.953806957999404,56.0530945419996,60.047132124998825,53.953806957999404,53.953806957999404,59.10001937499874,54.43323133299964,55.44535066699973,56.0530945419996,57.072548707999886,53.953806957999404,53.953806957999404,53.94390766633199,53.953806957999404,53.953806957999404,53.953806957999404,53.94390766633199,53.953806957999404,53.953806957999404,59.10001937499874,53.953806957999404,59.10001937499874,59.17928974999995,59.81687054199938,53.953806957999404,1,1,0.8713225419996888,reldom2_s040,001,2025-03-19_17h54.59.341,Vis-A-Scan_AC,2022.2.5,None,
3,First_Order,1.0,viswhat,stimulus/viswhat_stim/blank_white.png,stimulus/viswhat_stim/blank_white.png,stimulus/viswhat_stim/water_vehicle-kayak.png,stimulus/viswhat_stim/land_vehicle-vespa.png,stimulus/viswhat_stim/blank_white.png,stimulus/viswhat_stim/location_box.png,stimulus/viswhat_stim/location_yes.png,stimulus/viswhat_stim/location_no.png,None,Location,None,Type,2,0.0,0,5.125,0,5.125,0,5.125,0,0.0,0.625,0,0.0,0,0.0,1,0.5,1,2.125,0,0,0,0,0,0,0,0,0,,,,,0,3,3,3,,,,,,,,,60.047132124998825,60.047132124998825,60.047132124998825,60.047132124998825,60.047132124998825,60.047132124998825,60.047132124998825,60.047132124998825,59.995214207999744,60.047132124998825,60.047132124998825,60.047132124998825,59.995214207999744,60.047132124998825,60.047132124998825,60.047132124998825,62.14921116699952,66.14992099999836,60.047132124998825,60.047132124998825,65.20998824999879,60.51708129199869,61.56910512499962,62.14921116699952,63.171743041999434,60.047132124998825,60.047132124998825,60.01188087466641,60.047132124998825,60.047132124998825,60.047132124998825,60.01188087466641,60.047132124998825,60.047132124998825,65.20998824999879,60.047132124998825,65.20998824999879,65.27163854199898,65.919772792,60.047132124998825,2,1,0.819495375999395,reldom2_s040,001,2025-03-19_17h54.59.341,Vis-A-Scan_AC,2022.2.5,None,
4,First_Order,1.0,viswhat,stimulus/viswhat_stim/blank_white.png,stimulus/viswhat_stim/blank_white.png,stimulus/viswhat_stim/water_vehicle-pirateship.png,stimulus/viswhat_stim/land_vehicle-buldozer.png,stimulus/viswhat_stim/blank_white.png,stimulus/viswhat_stim/location_box.png,stimulus/viswhat_stim/location_yes.png,stimulus/viswhat_stim/location_no.png,None,Location,None,Type,2,0.0,0,5.125,0,5.125,0,5.125,0,0.0,0.625,0,0.0,0,0.0,1,0.5,1,2.125,0,0,0,0,0,0,0,0,0,,,,,0,4,4,4,,,,,,,,,66.14992099999836,66.14992099999836,66.14992099999836,66.14992099999836,66.14992099999836,66.14992099999836,66.14992099999836,66.14992099999836,66.09749716666543,66.14992099999836,66.14992099999836,66.14992099999836,66.09749716666543,66.14992099999836,66.14992099999836,66.14992099999836,68.25898662499822,,66.14992099999836,66.14992099999836,71.29837074999887,66.62590962499962,67.6460445419998,68.25898662499822,69.28690949999873,66.14992099999836,66.14992099999836,66.13083049999878,66.14992099999836,66.14992099999836,66.14992099999836,66.13083049999878,66.14992099999836,66.14992099999836,71.29837074999887,66.14992099999836,71.29837074999887,71.35508212499917,72.01062091699896,66.14992099999836,2,1,0.8419600000015635,reldom2_s040,001,2025-03-19_17h54.59.341,Vis-A-Scan_AC,2022.2.5,None,
0,0.0,None,fixation,stimulus/viswhat_stim/blank_white.png,stimulus/viswhat_stim/blank_white.png,stimulus/viswhere_stim/blank_white.png,stimulus/viswhere_stim/blank_white.png,stimulus/viswhat_stim/blank_white.png,stimulus/viswhat_stim/blank_white.png,stimulus/viswhat_stim/blank_white.png,stimulus/viswhat_stim/blank_white.png,0.0,0.0,0.0,0.0,0,0.0,0,0.0,0,0.0,0,0.0,0,0.0,0.0,0,0.0,0,0.0,0,0.0,0,0.0,0,0,0,0,0,0,0,0,9,,,,,0,5,5,5,,,,,,,,,72.27484133299913,72.27484133299913,72.27484133299913,72.27484133299913,72.27484133299913,72.27484133299913,72.27484133299913,72.27484133299913,72.18395820866486,72.27484133299913,72.27484133299913,72.27484133299913,72.18395820866486,72.27484133299913,72.27484133299913,72.27484133299913,72.27484133299913,72.27484133299913,72.27484133299913,72.27484133299913,72.27484133299913,72.27484133299913,72.27484133299913,72.27484133299913,72.27484133299913,72.27484133299913,72.27484133299913,72.23395820866487,72.27484133299913,72.27484133299913,72.27484133299913,72.23395820866487,72.27484133299913,72.27484133299913,72.27484133299913,72.27484133299913,72.27484133299913,77.50078279199988,77.50078279199988,81.44207512499997,None,0,,reldom2_s040,001,2025-03-19_17h54.59.341,Vis-A-Scan_AC,2022.2.5,None,
5,Second_Order,1.0,viswhat,stimulus/viswhat_stim/water_vehicle-cruiser.png,stimulus/viswhat_stim/land_vehicle-pickuptruck.png,stimulus/viswhat_stim/land_animal-snake.png,stimulus/viswhat_stim/land_vehicle-trolley.png,stimulus/viswhat_stim/match_blank.png,stimulus/viswhat_stim/match_box.png,stimulus/viswhat_stim/match_yes.png,stimulus/viswhat_stim/match_no.png,2.0,Match,Type,Location,2,5.125,0,5.125,0,5.125,0,5.125,0,0.75,0.75,1,0.5,1,2.125,1,0.5,1,2.125,0,0,0,0,0,0,0,0,0,,,,,0,6,6,6,,,,,,,,,81.44207512499997,86.55860074999873,81.86167354199824,82.84868370799995,83.49658962499961,84.48592720799934,81.44207512499997,81.44207512499997,81.45518308333243,81.44207512499997,81.44207512499997,81.44207512499997,81.45518308333243,81.44207512499997,86.55860074999873,87.35907104199941,89.4303825829993,93.33857887499835,87.35907104199941,87.35907104199941,92.49158033299864,87.81049208299919,88.8225135419998,89.4303825829993,90.44865766699877,87.35907104199941,87.35907104199941,87.34278733299907,87.35907104199941,87.35907104199941,87.35907104199941,87.34278733299907,87.35907104199941,87.35907104199941,92.49158033299864,87.35907104199941,92.49158033299864,92.55969958299829,,87.35907104199941,2,1,2.1364599999997154,reldom2_s040,001,2025-03-19_17h54.59.341,Vis-A-Scan_AC,2022.2.5,None,
6,Second_Order,1.0,viswhat,stimulus/viswhat_stim/land_vehicle-firetruck.png,stimulus/viswhat_stim/land_animal-dog.png,stimulus/viswhat_stim/water_animal-seaturtle.png,stimulus/viswhat_stim/water_vehicle-sailboat.png,stimulus/viswhat_stim/match_blank.png,stimulus/viswhat_stim/match_box.png,stimulus/viswhat_stim/match_yes.png,stimulus/viswhat_stim/match_no.png,1.0,Match,Location,Location,1,5.125,0,5.125,0,5.125,0,5.125,0,0.625,0.625,1,0.5,1,2.125,1,0.5,1,2.125,0,0,0,0,0,0,0,0,0,,,,,0,7,7,7,,,,,,,,,93.33857887499835,98.45278541699918,93.8074414169987,94.80614808299833,95.44090629199854,96.4300504999992,93.33857887499835,93.33857887499835,93.33820449999875,93.33857887499835,93.33857887499835,93.33857887499835,93.33820449999875,93.33857887499835,98.45278541699918,99.19823999999971,101.2304054999986,,99.19823999999971,99.19823999999971,104.37598429199898,99.61547937499927,100.65774887499902,101.2304054999986,102.28263779199915,99.19823999999971,99.19823999999971,99.14936358333155,99.19823999999971,99.19823999999971,99.19823999999971,99.14936358333155,99.19823999999971,99.19823999999971,104.37598429199898,99.19823999999971,104.37598429199898,104.37598429199898,105.03063416699842,99.19823999999971,1,1,0.7943730840015633,reldom2_s040,001,2025-03-19_17h54.59.341,Vis-A-Scan_AC,2022.2.5,None,
0,0.0,None,fixation,stimulus/viswhat_stim/blank_white.png,stimulus/viswhat_stim/blank_white.png,stimulus/viswhere_stim/blank_white.png,stimulus/viswhere_stim/blank_white.png,stimulus/viswhat_stim/blank_white.png,stimulus/viswhat_stim/blank_white.png,stimulus/viswhat_stim/blank_white.png,stimulus/viswhat_stim/blank_white.png,0.0,0.0,0.0,0.0,0,0.0,0,0.0,0,0.0,0,0.0,0,0.0,0.0,0,0.0,0,0.0,0,0.0,0,0.0,0,0,0,0,0,0,0,0,9,,,,,0,8,8,8,,,,,,,,,105.27840662499875,105.27840662499875,105.27840662499875,105.27840662499875,105.27840662499875,105.27840662499875,105.27840662499875,105.27840662499875,105.18063416699843,105.27840662499875,105.27840662499875,105.27840662499875,105.18063416699843,105.27840662499875,105.27840662499875,105.27840662499875,105.27840662499875,105.27840662499875,105.27840662499875,105.27840662499875,105.27840662499875,105.27840662499875,105.27840662499875,105.27840662499875,105.27840662499875,105.27840662499875,105.27840662499875,105.23063416699843,105.27840662499875,105.27840662499875,105.27840662499875,105.23063416699843,105.27840662499875,105.27840662499875,105.27840662499875,105.27840662499875,105.27840662499875,110.46416116699947,110.46416116699947,114.563503166999,None,0,,reldom2_s040,001,2025-03-19_17h54.59.341,Vis-A-Scan_AC,2022.2.5,None,
7,First_Order,2.0,viswhat,stimulus/viswhat_stim/blank_white.png,stimulus/viswhat_stim/blank_white.png,stimulus/viswhat_stim/water_vehicle-ship.png,stimulus/viswhat_stim/water_animal-stingray.png,stimulus/viswhat_stim/blank_white.png,stimulus/viswhat_stim/type_box.png,stimulus/viswhat_stim/type_yes.png,stimulus/viswhat_stim/type_no.png,None,Type,None,Location,2,0.0,0,5.125,0,5.125,0,5.125,0,0.0,0.625,0,0.0,0,0.0,1,0.5,1,2.125,0,0,0,0,0,0,0,0,0,,,,,0,9,9,9,,,,,,,,,114.563503166999,114.563503166999,114.563503166999,114.563503166999,114.563503166999,114.563503166999,114.563503166999,114.563503166999,114.47184562466525,114.563503166999,114.563503166999,114.563503166999,114.47184562466525,114.563503166999,114.563503166999,114.563503166999,116.66020174999903,120.62580070799959,114.563503166999,114.563503166999,119.74902895799823,115.00435299999845,116.05408862499826,116.66020174999903,117.70960487499906,114.563503166999,114.563503166999,114.52184562466525,114.563503166999,114.563503166999,114.563503166999,114.52184562466525,114.563503166999,114.563503166999,119.74902895799823,114.563503166999,119.74902895799823,119.74902895799823,120.44288908299859,114.563503166999,2,1,1.3495073330013838,reldom2_s040,001,2025-03-19_17h54.59.341,Vis-A-Scan_AC,2022.2.5,None,
8,First_Order,2.0,viswhat,stimulus/viswhat_stim/blank_white.png,stimulus/viswhat_stim/blank_white.png,stimulus/viswhat_stim/land_vehicle-train.png,stimulus/viswhat_stim/land_animal-fox.png,stimulus/viswhat_stim/blank_white.png,stimulus/viswhat_stim/type_box.png,stimulus/viswhat_stim/type_yes.png,stimulus/viswhat_stim/type_no.png,None,Type,None,Location,2,0.0,0,5.125,0,5.125,0,5.125,0,0.0,0.625,0,0.0,0,0.0,1,0.5,1,2.125,0,0,0,0,0,0,0,0,0,,,,,0,10,10,10,,,,,,,,,120.62580070799959,120.62580070799959,120.62580070799959,120.62580070799959,120.62580070799959,120.62580070799959,120.62580070799959,120.62580070799959,120.5928890829986,120.62580070799959,120.62580070799959,120.62580070799959,120.5928890829986,120.62580070799959,120.62580070799959,120.62580070799959,122.73187929199958,126.73064812499979,120.62580070799959,120.62580070799959,125.75925895799992,121.09853495799871,122.11086841699944,122.73187929199958,123.75557299999855,120.62580070799959,120.62580070799959,120.60955574966526,120.62580070799959,120.62580070799959,120.62580070799959,120.60955574966526,120.62580070799959,120.62580070799959,125.75925895799992,120.62580070799959,125.75925895799992,125.83986458299842,126.4640155829984,120.62580070799959,2,1,1.2434855419996893,reldom2_s040,001,2025-03-19_17h54.59.341,Vis-A-Scan_AC,2022.2.5,None,
9,First_Order,2.0,viswhat,stimulus/viswhat_stim/blank_white.png,stimulus/viswhat_stim/blank_white.png,stimulus/viswhat_stim/land_animal-lion.png,stimulus/viswhat_stim/land_vehicle-bus.png,stimulus/viswhat_stim/blank_white.png,stimulus/viswhat_stim/location_box.png,stimulus/viswhat_stim/location_yes.png,stimulus/viswhat_stim/location_no.png,None,Location,None,Location,1,0.0,0,5.125,0,5.125,0,5.125,0,0.0,0.625,0,0.0,0,0.0,1,0.5,1,2.125,0,0,0,0,0,0,0,0,0,,,,,0,11,11,11,,,,,,,,,126.73064812499979,126.73064812499979,126.73064812499979,126.73064812499979,126.73064812499979,126.73064812499979,126.73064812499979,126.73064812499979,126.66425895833284,126.73064812499979,126.73064812499979,126.73064812499979,126.66425895833284,126.73064812499979,126.73064812499979,126.73064812499979,128.83623433299908,132.8873980419994,126.73064812499979,126.73064812499979,131.89905758299938,127.18950329199834,128.22641304199897,128.83623433299908,129.87295504199938,126.73064812499979,126.73064812499979,126.69759229166617,126.73064812499979,126.73064812499979,126.73064812499979,126.69759229166617,126.73064812499979,126.73064812499979,131.89905758299938,126.73064812499979,131.89905758299938,131.9319311249983,132.58275108299858,126.73064812499979,1,1,0.6319415839989233,reldom2_s040,001,2025-03-19_17h54.59.341,Vis-A-Scan_AC,2022.2.5,None,
10,First_Order,2.0,viswhat,stimulus/viswhat_stim/blank_white.png,stimulus/viswhat_stim/blank_white.png,stimulus/viswhat_stim/land_animal-elephant.png,stimulus/viswhat_stim/land_vehicle-motorcycle.png,stimulus/viswhat_stim/blank_white.png,stimulus/viswhat_stim/location_box.png,stimulus/viswhat_stim/location_yes.png,stimulus/viswhat_stim/location_no.png,None,Location,None,Location,1,0.0,0,5.125,0,5.125,0,5.125,0,0.0,0.625,0,0.0,0,0.0,1,0.5,1,2.125,0,0,0,0,0,0,0,0,0,,,,,0,12,12,12,,,,,,,,,132.8873980419994,132.8873980419994,132.8873980419994,132.8873980419994,132.8873980419994,132.8873980419994,132.8873980419994,132.8873980419994,132.7646477086654,132.8873980419994,132.8873980419994,132.8873980419994,132.7646477086654,132.8873980419994,132.8873980419994,132.8873980419994,134.96702979199836,,132.8873980419994,132.8873980419994,138.1207474169987,133.35677329199825,134.4329304999992,134.96702979199836,136.04542816699905,132.8873980419994,132.8873980419994,132.83131437533206,132.8873980419994,132.8873980419994,132.8873980419994,132.83131437533206,132.8873980419994,132.8873980419994,138.1207474169987,132.8873980419994,138.1207474169987,138.1207474169987,139.010182,132.8873980419994,1,1,0.6154496670005756,reldom2_s040,001,2025-03-19_17h54.59.341,Vis-A-Scan_AC,2022.2.5,None,
0,0.0,None,fixation,stimulus/viswhat_stim/blank_white.png,stimulus/viswhat_stim/blank_white.png,stimulus/viswhere_stim/blank_white.png,stimulus/viswhere_stim/blank_white.png,stimulus/viswhat_stim/blank_white.png,stimulus/viswhat_stim/blank_white.png,stimulus/viswhat_stim/blank_white.png,stimulus/viswhat_stim/blank_white.png,0.0,0.0,0.0,0.0,0,0.0,0,0.0,0,0.0,0,0.0,0,0.0,0.0,0,0.0,0,0.0,0,0.0,0,0.0,0,0,0,0,0,0,0,0,10,,,,,0,13,13,13,,,,,,,,,139.010182,139.010182,139.010182,139.010182,139.010182,139.010182,139.010182,139.010182,138.91694475033268,139.010182,139.010182,139.010182,138.91694475033268,139.010182,139.010182,139.010182,139.010182,139.010182,139.010182,139.010182,139.010182,139.010182,139.010182,139.010182,139.010182,139.010182,139.010182,138.9669447503327,139.010182,139.010182,139.010182,138.9669447503327,139.010182,139.010182,139.010182,139.010182,139.010182,144.1921864169999,144.1921864169999,149.13023383299878,None,0,,reldom2_s040,001,2025-03-19_17h54.59.341,Vis-A-Scan_AC,2022.2.5,None,
11,Second_Order,2.0,viswhat,stimulus/viswhat_stim/water_vehicle-cabincruiser.png,stimulus/viswhat_stim/land_vehicle-scooter.png,stimulus/viswhat_stim/land_animal-giraffe.png,stimulus/viswhat_stim/water_animal-squid.png,stimulus/viswhat_stim/match_blank.png,stimulus/viswhat_stim/match_box.png,stimulus/viswhat_stim/match_yes.png,stimulus/viswhat_stim/match_no.png,1.0,Match,Type,Type,1,5.125,0,5.125,0,5.125,0,5.125,0,0.75,0.75,1,0.5,1,2.125,1,0.5,1,2.125,0,0,0,0,0,0,0,0,0,,,,,0,14,14,14,,,,,,,,,149.13023383299878,154.24798591699982,149.58633033299884,150.58506179199867,151.2244678749994,152.22215799999867,149.13023383299878,149.13023383299878,149.12920604133265,149.13023383299878,149.13023383299878,149.13023383299878,149.12920604133265,149.13023383299878,154.24798591699982,155.11818941699858,157.15079949999927,161.1165121669983,155.11818941699858,155.11818941699858,160.28327458299827,155.55767308299983,156.60051816699888,157.15079949999927,158.19939604199863,155.11818941699858,155.11818941699858,155.06557908333284,155.11818941699858,155.11818941699858,155.11818941699858,155.06557908333284,155.11818941699858,155.11818941699858,160.28327458299827,155.11818941699858,160.28327458299827,160.28327458299827,,155.11818941699858,1,1,0.8151972920004482,reldom2_s040,001,2025-03-19_17h54.59.341,Vis-A-Scan_AC,2022.2.5,None,
12,Second_Order,2.0,viswhat,stimulus/viswhat_stim/land_animal-bunny.png,stimulus/viswhat_stim/land_vehicle-shortbus.png,stimulus/viswhat_stim/water_vehicle-sailboat.png,stimulus/viswhat_stim/water_animal-whale.png,stimulus/viswhat_stim/match_blank.png,stimulus/viswhat_stim/match_box.png,stimulus/viswhat_stim/match_yes.png,stimulus/viswhat_stim/match_no.png,1.0,Match,Location,Location,1,5.125,0,5.125,0,5.125,0,5.125,0,0.625,0.625,1,0.5,1,2.125,1,0.5,1,2.125,0,0,0,0,0,0,0,0,0,,,,,0,15,15,15,,,,,,,,,161.1165121669983,166.23749208299887,161.5625369999998,162.54942604199823,163.1851543749999,164.18293466699834,161.1165121669983,161.1165121669983,161.12302829199908,161.1165121669983,161.1165121669983,161.1165121669983,161.12302829199908,161.1165121669983,166.23749208299887,166.98803658299948,169.05367470799865,173.10929779199978,166.98803658299948,166.98803658299948,172.1636815419988,167.39956679199895,168.43544895799823,169.05367470799865,170.09589541699825,166.98803658299948,166.98803658299948,166.93933258333286,166.98803658299948,166.98803658299948,166.98803658299948,166.93933258333286,166.98803658299948,166.98803658299948,172.1636815419988,166.98803658299948,172.1636815419988,172.1636815419988,172.8594029169999,166.98803658299948,1,1,0.5096272920000047,reldom2_s040,001,2025-03-19_17h54.59.341,Vis-A-Scan_AC,2022.2.5,None,
0,0.0,None,fixation,stimulus/viswhat_stim/blank_white.png,stimulus/viswhat_stim/blank_white.png,stimulus/viswhere_stim/blank_white.png,stimulus/viswhere_stim/blank_white.png,stimulus/viswhat_stim/blank_white.png,stimulus/viswhat_stim/blank_white.png,stimulus/viswhat_stim/blank_white.png,stimulus/viswhat_stim/blank_white.png,0.0,0.0,0.0,0.0,0,0.0,0,0.0,0,0.0,0,0.0,0,0.0,0.0,0,0.0,0,0.0,0,0.0,0,0.0,0,0,0,0,0,0,0,0,9,,,,,0,16,16,16,,,,,,,,,173.10929779199978,173.10929779199978,173.10929779199978,173.10929779199978,173.10929779199978,173.10929779199978,173.10929779199978,173.10929779199978,173.0094029169999,173.10929779199978,173.10929779199978,173.10929779199978,173.0094029169999,173.10929779199978,173.10929779199978,173.10929779199978,173.10929779199978,173.10929779199978,173.10929779199978,173.10929779199978,173.10929779199978,173.10929779199978,173.10929779199978,173.10929779199978,173.10929779199978,173.10929779199978,173.10929779199978,173.05940291699991,173.10929779199978,173.10929779199978,173.10929779199978,173.05940291699991,173.10929779199978,173.10929779199978,173.10929779199978,173.10929779199978,173.10929779199978,178.31858762499905,178.31858762499905,182.28477649999877,None,0,,reldom2_s040,001,2025-03-19_17h54.59.341,Vis-A-Scan_AC,2022.2.5,None,
13,First_Order,3.0,viswhere,stimulus/viswhere_stim/blank_white.png,stimulus/viswhere_stim/blank_white.png,stimulus/viswhere_stim/90-deg_dot-left_slateblue.png,stimulus/viswhere_stim/120-deg_dot-left_slateblue.png,stimulus/viswhere_stim/blank_white.png,stimulus/viswhere_stim/dot_box.png,stimulus/viswhere_stim/dot_yes.png,stimulus/viswhere_stim/dot_no.png,None,Dot,None,Dot,1,0.0,0,5.125,0,5.125,0,5.125,0,0.0,0.625,0,0.0,0,0.0,1,0.5,1,2.125,0,0,0,0,0,0,0,0,0,,,,,0,17,17,17,,,,,,,,,182.28477649999877,182.28477649999877,182.28477649999877,182.28477649999877,182.28477649999877,182.28477649999877,182.28477649999877,182.28477649999877,182.26419308366593,182.28477649999877,182.28477649999877,182.28477649999877,182.26419308366593,182.28477649999877,182.28477649999877,182.28477649999877,184.3840664169984,188.35139645799973,182.28477649999877,182.28477649999877,187.41926995799986,182.76053229199897,183.7750082499988,184.3840664169984,185.396566292,182.28477649999877,182.28477649999877,182.28085975033258,182.28477649999877,182.28477649999877,182.28477649999877,182.28085975033258,182.28477649999877,182.28477649999877,187.41926995799986,182.28477649999877,187.41926995799986,187.50267187499958,188.13431454199963,182.28477649999877,1,1,1.5763715840002988,reldom2_s040,001,2025-03-19_17h54.59.341,Vis-A-Scan_AC,2022.2.5,None,
14,First_Order,3.0,viswhere,stimulus/viswhere_stim/blank_white.png,stimulus/viswhere_stim/blank_white.png,stimulus/viswhere_stim/30-deg_dot-left_royalblue.png,stimulus/viswhere_stim/30-deg_dot-right_peru.png,stimulus/viswhere_stim/blank_white.png,stimulus/viswhere_stim/dot_box.png,stimulus/viswhere_stim/dot_yes.png,stimulus/viswhere_stim/dot_no.png,None,Dot,None,Line,2,0.0,0,5.125,0,5.125,0,5.125,0,0.0,0.625,0,0.0,0,0.0,1,0.5,1,2.125,0,0,0,0,0,0,0,0,0,,,,,0,18,18,18,,,,,,,,,188.35139645799973,188.35139645799973,188.35139645799973,188.35139645799973,188.35139645799973,188.35139645799973,188.35139645799973,188.35139645799973,188.33109837533206,188.35139645799973,188.35139645799973,188.35139645799973,188.33109837533206,188.35139645799973,188.35139645799973,188.35139645799973,190.46385041699978,194.4138613749983,188.35139645799973,188.35139645799973,193.47739170799832,188.82611779199942,189.83736758299892,190.46385041699978,191.4785904579985,188.35139645799973,188.35139645799973,188.34776504199874,188.35139645799973,188.35139645799973,188.35139645799973,188.34776504199874,188.35139645799973,188.35139645799973,193.47739170799832,188.35139645799973,193.47739170799832,193.57438258299953,194.20838554199872,188.35139645799973,2,1,1.0546955000008893,reldom2_s040,001,2025-03-19_17h54.59.341,Vis-A-Scan_AC,2022.2.5,None,
15,First_Order,3.0,viswhere,stimulus/viswhere_stim/blank_white.png,stimulus/viswhere_stim/blank_white.png,stimulus/viswhere_stim/150-deg_dot-right_turquoise.png,stimulus/viswhere_stim/150-deg_dot-left_cyan.png,stimulus/viswhere_stim/blank_white.png,stimulus/viswhere_stim/line_box.png,stimulus/viswhere_stim/line_yes.png,stimulus/viswhere_stim/line_no.png,None,Line,None,Line,1,0.0,0,5.125,0,5.125,0,5.125,0,0.0,0.625,0,0.0,0,0.0,1,0.5,1,2.125,0,0,0,0,0,0,0,0,0,,,,,0,19,19,19,,,,,,,,,194.4138613749983,194.4138613749983,194.4138613749983,194.4138613749983,194.4138613749983,194.4138613749983,194.4138613749983,194.4138613749983,194.39192466633298,194.4138613749983,194.4138613749983,194.4138613749983,194.39192466633298,194.4138613749983,194.4138613749983,194.4138613749983,196.51478404199952,200.47786045799876,194.4138613749983,194.4138613749983,199.56402337499821,194.8957424579985,195.89919958299834,196.51478404199952,197.52169887499986,194.4138613749983,194.4138613749983,194.40859133299966,194.4138613749983,194.4138613749983,194.4138613749983,194.40859133299966,194.4138613749983,194.4138613749983,199.56402337499821,194.4138613749983,199.56402337499821,199.6356911669991,200.26245862499854,194.4138613749983,1,1,1.0578201669995906,reldom2_s040,001,2025-03-19_17h54.59.341,Vis-A-Scan_AC,2022.2.5,None,
16,First_Order,3.0,viswhere,stimulus/viswhere_stim/blank_white.png,stimulus/viswhere_stim/blank_white.png,stimulus/viswhere_stim/120-deg_dot-right_mediumslateblue.png,stimulus/viswhere_stim/150-deg_dot-right_royalblue.png,stimulus/viswhere_stim/blank_white.png,stimulus/viswhere_stim/line_box.png,stimulus/viswhere_stim/line_yes.png,stimulus/viswhere_stim/line_no.png,None,Line,None,Dot,2,0.0,0,5.125,0,5.125,0,5.125,0,0.0,0.625,0,0.0,0,0.0,1,0.5,1,2.125,0,0,0,0,0,0,0,0,0,,,,,0,20,20,20,,,,,,,,,200.47786045799876,200.47786045799876,200.47786045799876,200.47786045799876,200.47786045799876,200.47786045799876,200.47786045799876,200.47786045799876,200.45635704133323,200.47786045799876,200.47786045799876,200.47786045799876,200.45635704133323,200.47786045799876,200.47786045799876,200.47786045799876,202.5838258749991,206.62440566699843,200.47786045799876,200.47786045799876,205.61554891699961,200.9573636669993,201.97403683299854,202.5838258749991,203.58749758299928,200.47786045799876,200.47786045799876,200.47302370799991,200.47786045799876,200.47786045799876,200.47786045799876,200.47302370799991,200.47786045799876,200.47786045799876,205.61554891699961,200.47786045799876,205.61554891699961,205.69953762499972,206.33205658299994,200.47786045799876,2,1,0.7923672920005629,reldom2_s040,001,2025-03-19_17h54.59.341,Vis-A-Scan_AC,2022.2.5,None,
0,0.0,None,fixation,stimulus/viswhat_stim/blank_white.png,stimulus/viswhat_stim/blank_white.png,stimulus/viswhere_stim/blank_white.png,stimulus/viswhere_stim/blank_white.png,stimulus/viswhat_stim/blank_white.png,stimulus/viswhat_stim/blank_white.png,stimulus/viswhat_stim/blank_white.png,stimulus/viswhat_stim/blank_white.png,0.0,0.0,0.0,0.0,0,0.0,0,0.0,0,0.0,0,0.0,0,0.0,0.0,0,0.0,0,0.0,0,0.0,0,0.0,0,0,0,0,0,0,0,0,8,,,,,0,21,21,21,,,,,,,,,206.62440566699843,206.62440566699843,206.62440566699843,206.62440566699843,206.62440566699843,206.62440566699843,206.62440566699843,206.62440566699843,206.52676020833255,206.62440566699843,206.62440566699843,206.62440566699843,206.52676020833255,206.62440566699843,206.62440566699843,206.62440566699843,206.62440566699843,206.62440566699843,206.62440566699843,206.62440566699843,206.62440566699843,206.62440566699843,206.62440566699843,206.62440566699843,206.62440566699843,206.62440566699843,206.62440566699843,206.57676020833256,206.62440566699843,206.62440566699843,206.62440566699843,206.57676020833256,206.62440566699843,206.62440566699843,206.62440566699843,206.62440566699843,206.62440566699843,211.82629070799885,211.82629070799885,214.732140832999,None,0,,reldom2_s040,001,2025-03-19_17h54.59.341,Vis-A-Scan_AC,2022.2.5,None,
17,Second_Order,3.0,viswhere,stimulus/viswhere_stim/60-deg_dot-right_seagreen.png,stimulus/viswhere_stim/150-deg_dot-right_seagreen.png,stimulus/viswhere_stim/90-deg_dot-right_salmon.png,stimulus/viswhere_stim/90-deg_dot-left_seagreen.png,stimulus/viswhat_stim/match_blank.png,stimulus/viswhat_stim/match_box.png,stimulus/viswhat_stim/match_yes.png,stimulus/viswhat_stim/match_no.png,2.0,Match,Dot,Line,2,5.125,0,5.125,0,5.125,0,5.125,0,0.75,0.75,1,0.5,1,2.125,1,0.5,1,2.125,0,0,0,0,0,0,0,0,0,,,,,0,22,22,22,,,,,,,,,214.732140832999,219.84890933299903,215.20461074999912,216.20303404199876,216.83841516699977,217.82684687499932,214.732140832999,214.732140832999,214.74578850033336,214.732140832999,214.732140832999,214.732140832999,214.74578850033336,214.732140832999,219.84890933299903,220.6431762079992,222.7227238329997,226.61554762499873,220.6431762079992,220.6431762079992,225.76612854199993,221.0894833329985,222.10872033299893,222.7227238329997,223.728173083,220.6431762079992,220.6431762079992,220.6173896663318,220.6431762079992,220.6431762079992,220.6431762079992,220.6173896663318,220.6431762079992,220.6431762079992,225.76612854199993,220.6431762079992,225.76612854199993,225.8414143329992,226.61554762499873,220.6431762079992,2,1,1.0718265840005188,reldom2_s040,001,2025-03-19_17h54.59.341,Vis-A-Scan_AC,2022.2.5,None,
18,Second_Order,3.0,viswhere,stimulus/viswhere_stim/150-deg_dot-right_goldenrod.png,stimulus/viswhere_stim/150-deg_dot-left_cyan.png,stimulus/viswhere_stim/120-deg_dot-left_royalblue.png,stimulus/viswhere_stim/60-deg_dot-left_royalblue.png,stimulus/viswhat_stim/match_blank.png,stimulus/viswhat_stim/match_box.png,stimulus/viswhat_stim/match_yes.png,stimulus/viswhat_stim/match_no.png,2.0,Match,Line,Dot,2,5.125,0,5.125,0,5.125,0,5.125,0,0.625,0.625,1,0.5,1,2.125,1,0.5,1,2.125,0,0,0,0,0,0,0,0,0,,,,,0,23,23,23,,,,,,,,,226.61554762499873,231.73924920799982,227.09874512499846,228.0843260419988,228.72011674999885,229.71787354199842,226.61554762499873,226.61554762499873,226.6287752919987,226.61554762499873,226.61554762499873,226.61554762499873,226.6287752919987,226.61554762499873,231.73924920799982,232.41433233299904,234.4982517919998,238.5288087079989,232.41433233299904,232.41433233299904,237.5402786249997,232.87738804199944,233.88998266699855,234.4982517919998,235.51713149999887,232.41433233299904,232.41433233299904,232.3907447913321,232.41433233299904,232.41433233299904,232.41433233299904,232.3907447913321,232.41433233299904,232.41433233299904,237.5402786249997,232.41433233299904,237.5402786249997,237.60923724999884,238.23665558299945,232.41433233299904,1,0,0.6677632090013503,reldom2_s040,001,2025-03-19_17h54.59.341,Vis-A-Scan_AC,2022.2.5,None,
0,0.0,None,fixation,stimulus/viswhat_stim/blank_white.png,stimulus/viswhat_stim/blank_white.png,stimulus/viswhere_stim/blank_white.png,stimulus/viswhere_stim/blank_white.png,stimulus/viswhat_stim/blank_white.png,stimulus/viswhat_stim/blank_white.png,stimulus/viswhat_stim/blank_white.png,stimulus/viswhat_stim/blank_white.png,0.0,0.0,0.0,0.0,0,0.0,0,0.0,0,0.0,0,0.0,0,0.0,0.0,0,0.0,0,0.0,0,0.0,0,0.0,0,0,0,0,0,0,0,0,10,,,,,0,24,24,24,,,,,,,,,238.5288087079989,238.5288087079989,238.5288087079989,238.5288087079989,238.5288087079989,238.5288087079989,238.5288087079989,238.5288087079989,238.43011720833178,238.5288087079989,238.5288087079989,238.5288087079989,238.43011720833178,238.5288087079989,238.5288087079989,238.5288087079989,238.5288087079989,238.5288087079989,238.5288087079989,238.5288087079989,238.5288087079989,238.5288087079989,238.5288087079989,238.5288087079989,238.5288087079989,238.5288087079989,238.5288087079989,238.4801172083318,238.5288087079989,238.5288087079989,238.5288087079989,238.4801172083318,238.5288087079989,238.5288087079989,238.5288087079989,238.5288087079989,238.5288087079989,243.71571695799867,243.71571695799867,248.71751137499996,None,0,,reldom2_s040,001,2025-03-19_17h54.59.341,Vis-A-Scan_AC,2022.2.5,None,
19,First_Order,4.0,viswhere,stimulus/viswhere_stim/blank_white.png,stimulus/viswhere_stim/blank_white.png,stimulus/viswhere_stim/90-deg_dot-right_royalblue.png,stimulus/viswhere_stim/120-deg_dot-right_goldenrod.png,stimulus/viswhere_stim/blank_white.png,stimulus/viswhere_stim/dot_box.png,stimulus/viswhere_stim/dot_yes.png,stimulus/viswhere_stim/dot_no.png,None,Dot,None,Dot,1,0.0,0,5.125,0,5.125,0,5.125,0,0.0,0.625,0,0.0,0,0.0,1,0.5,1,2.125,0,0,0,0,0,0,0,0,0,,,,,0,25,25,25,,,,,,,,,248.71751137499996,248.71751137499996,248.71751137499996,248.71751137499996,248.71751137499996,248.71751137499996,248.71751137499996,248.71751137499996,248.69887654166513,248.71751137499996,248.71751137499996,248.71751137499996,248.69887654166513,248.71751137499996,248.71751137499996,248.71751137499996,250.8311418329995,254.77554329199847,248.71751137499996,248.71751137499996,253.8498046249988,249.1939531249991,250.20470408299843,250.8311418329995,251.8502869999993,248.71751137499996,248.71751137499996,248.69887654166513,248.71751137499996,248.71751137499996,248.71751137499996,248.69887654166513,248.71751137499996,248.71751137499996,253.8498046249988,248.71751137499996,253.8498046249988,253.93377212499945,254.5710724169985,248.71751137499996,1,1,0.8194672509998782,reldom2_s040,001,2025-03-19_17h54.59.341,Vis-A-Scan_AC,2022.2.5,None,
20,First_Order,4.0,viswhere,stimulus/viswhere_stim/blank_white.png,stimulus/viswhere_stim/blank_white.png,stimulus/viswhere_stim/90-deg_dot-left_peru.png,stimulus/viswhere_stim/90-deg_dot-right_royalblue.png,stimulus/viswhere_stim/blank_white.png,stimulus/viswhere_stim/dot_box.png,stimulus/viswhere_stim/dot_yes.png,stimulus/viswhere_stim/dot_no.png,None,Dot,None,Line,2,0.0,0,5.125,0,5.125,0,5.125,0,0.0,0.625,0,0.0,0,0.0,1,0.5,1,2.125,0,0,0,0,0,0,0,0,0,,,,,0,26,26,26,,,,,,,,,254.77554329199847,254.77554329199847,254.77554329199847,254.77554329199847,254.77554329199847,254.77554329199847,254.77554329199847,254.77554329199847,254.7547970413319,254.77554329199847,254.77554329199847,254.77554329199847,254.7547970413319,254.77554329199847,254.77554329199847,254.77554329199847,256.874472083,260.8429362499992,254.77554329199847,254.77554329199847,259.90336291699896,255.25145987499855,256.2654597919991,256.874472083,257.89494212499994,254.77554329199847,254.77554329199847,254.77146370799858,254.77554329199847,254.77554329199847,254.77554329199847,254.77146370799858,254.77554329199847,254.77554329199847,259.90336291699896,254.77554329199847,259.90336291699896,260.0006062079992,260.62603908299934,254.77554329199847,2,1,0.9766515420014912,reldom2_s040,001,2025-03-19_17h54.59.341,Vis-A-Scan_AC,2022.2.5,None,
21,First_Order,4.0,viswhere,stimulus/viswhere_stim/blank_white.png,stimulus/viswhere_stim/blank_white.png,stimulus/viswhere_stim/120-deg_dot-left_cyan.png,stimulus/viswhere_stim/150-deg_dot-left_seagreen.png,stimulus/viswhere_stim/blank_white.png,stimulus/viswhere_stim/line_box.png,stimulus/viswhere_stim/line_yes.png,stimulus/viswhere_stim/line_no.png,None,Line,None,Dot,2,0.0,0,5.125,0,5.125,0,5.125,0,0.0,0.625,0,0.0,0,0.0,1,0.5,1,2.125,0,0,0,0,0,0,0,0,0,,,,,0,27,27,27,,,,,,,,,260.8429362499992,260.8429362499992,260.8429362499992,260.8429362499992,260.8429362499992,260.8429362499992,260.8429362499992,260.8429362499992,260.8218738753324,260.8429362499992,260.8429362499992,260.8429362499992,260.8218738753324,260.8429362499992,260.8429362499992,260.8429362499992,262.9403913749993,266.9033192499992,260.8429362499992,260.8429362499992,265.97952816699944,261.32334479199926,262.32561333299964,262.9403913749993,263.94679854199967,260.8429362499992,260.8429362499992,260.83854054199907,260.8429362499992,260.8429362499992,260.8429362499992,260.83854054199907,260.8429362499992,260.8429362499992,265.97952816699944,260.8429362499992,265.97952816699944,266.06155987499915,266.68831529199997,260.8429362499992,2,1,0.843279626000367,reldom2_s040,001,2025-03-19_17h54.59.341,Vis-A-Scan_AC,2022.2.5,None,
22,First_Order,4.0,viswhere,stimulus/viswhere_stim/blank_white.png,stimulus/viswhere_stim/blank_white.png,stimulus/viswhere_stim/150-deg_dot-right_seagreen.png,stimulus/viswhere_stim/150-deg_dot-left_slateblue.png,stimulus/viswhere_stim/blank_white.png,stimulus/viswhere_stim/line_box.png,stimulus/viswhere_stim/line_yes.png,stimulus/viswhere_stim/line_no.png,None,Line,None,Line,1,0.0,0,5.125,0,5.125,0,5.125,0,0.0,0.625,0,0.0,0,0.0,1,0.5,1,2.125,0,0,0,0,0,0,0,0,0,,,,,0,28,28,28,,,,,,,,,266.9033192499992,266.9033192499992,266.9033192499992,266.9033192499992,266.9033192499992,266.9033192499992,266.9033192499992,266.9033192499992,266.88262316633273,266.9033192499992,266.9033192499992,266.9033192499992,266.88262316633273,266.9033192499992,266.9033192499992,266.9033192499992,269.0055104999992,273.04117358299845,266.9033192499992,266.9033192499992,272.0251647919995,267.3851242919991,268.3898004579987,269.0055104999992,270.0162518749985,266.9033192499992,266.9033192499992,266.8992898329994,266.9033192499992,266.9033192499992,266.9033192499992,266.8992898329994,266.9033192499992,266.9033192499992,272.0251647919995,266.9033192499992,272.0251647919995,272.12341608299903,272.74964808299956,266.9033192499992,1,1,0.9274612089993752,reldom2_s040,001,2025-03-19_17h54.59.341,Vis-A-Scan_AC,2022.2.5,None,
0,0.0,None,fixation,stimulus/viswhat_stim/blank_white.png,stimulus/viswhat_stim/blank_white.png,stimulus/viswhere_stim/blank_white.png,stimulus/viswhere_stim/blank_white.png,stimulus/viswhat_stim/blank_white.png,stimulus/viswhat_stim/blank_white.png,stimulus/viswhat_stim/blank_white.png,stimulus/viswhat_stim/blank_white.png,0.0,0.0,0.0,0.0,0,0.0,0,0.0,0,0.0,0,0.0,0,0.0,0.0,0,0.0,0,0.0,0,0.0,0,0.0,0,0,0,0,0,0,0,0,9,,,,,0,29,29,29,,,,,,,,,273.04117358299845,273.04117358299845,273.04117358299845,273.04117358299845,273.04117358299845,273.04117358299845,273.04117358299845,273.04117358299845,272.9439824163322,273.04117358299845,273.04117358299845,273.04117358299845,272.9439824163322,273.04117358299845,273.04117358299845,273.04117358299845,273.04117358299845,273.04117358299845,273.04117358299845,273.04117358299845,273.04117358299845,273.04117358299845,273.04117358299845,273.04117358299845,273.04117358299845,273.04117358299845,273.04117358299845,272.9939824163322,273.04117358299845,273.04117358299845,273.04117358299845,272.9939824163322,273.04117358299845,273.04117358299845,273.04117358299845,273.04117358299845,273.04117358299845,278.2454119169997,278.2454119169997,282.1690468329998,None,0,,reldom2_s040,001,2025-03-19_17h54.59.341,Vis-A-Scan_AC,2022.2.5,None,
23,Second_Order,4.0,viswhere,stimulus/viswhere_stim/90-deg_dot-right_salmon.png,stimulus/viswhere_stim/150-deg_dot-right_seagreen.png,stimulus/viswhere_stim/150-deg_dot-right_mediumslateblue.png,stimulus/viswhere_stim/150-deg_dot-left_lightsseagreen.png,stimulus/viswhat_stim/match_blank.png,stimulus/viswhat_stim/match_box.png,stimulus/viswhat_stim/match_yes.png,stimulus/viswhat_stim/match_no.png,2.0,Match,Dot,Line,2,5.125,0,5.125,0,5.125,0,5.125,0,0.75,0.75,1,0.5,1,2.125,1,0.5,1,2.125,0,0,0,0,0,0,0,0,0,,,,,0,30,30,30,,,,,,,,,282.1690468329998,287.2893358329984,282.64396399999896,283.64271474999987,284.2771891249995,285.26682079199963,282.1690468329998,282.1690468329998,282.1678342086651,282.1690468329998,282.1690468329998,282.1690468329998,282.1678342086651,282.1690468329998,287.2893358329984,288.0822131249988,290.158424792,294.0496098329986,288.0822131249988,288.0822131249988,293.20592274999944,288.5310153749997,289.53970279199893,290.158424792,291.1721843749983,288.0822131249988,288.0822131249988,288.0555365003315,288.0822131249988,288.0822131249988,288.0822131249988,288.0555365003315,288.0822131249988,288.0822131249988,293.20592274999944,288.0822131249988,293.20592274999944,293.2805824579991,,288.0822131249988,2,1,0.8026375839999673,reldom2_s040,001,2025-03-19_17h54.59.341,Vis-A-Scan_AC,2022.2.5,None,
24,Second_Order,4.0,viswhere,stimulus/viswhere_stim/90-deg_dot-left_cyan.png,stimulus/viswhere_stim/60-deg_dot-left_slateblue.png,stimulus/viswhere_stim/120-deg_dot-right_goldenrod.png,stimulus/viswhere_stim/90-deg_dot-right_seagreen.png,stimulus/viswhat_stim/match_blank.png,stimulus/viswhat_stim/match_box.png,stimulus/viswhat_stim/match_yes.png,stimulus/viswhat_stim/match_no.png,1.0,Match,Dot,Dot,1,5.125,0,5.125,0,5.125,0,5.125,0,0.625,0.625,1,0.5,1,2.125,1,0.5,1,2.125,0,0,0,0,0,0,0,0,0,,,,,0,31,31,31,,,,,,,,,294.0496098329986,299.1654462079987,294.53427162499975,295.52287691699894,296.1588507919987,297.1567355829993,294.0496098329986,294.0496098329986,294.0626465829999,294.0496098329986,294.0496098329986,294.0496098329986,294.0626465829999,294.0496098329986,299.1654462079987,299.8384811249998,301.91470016699895,305.95321149999836,299.8384811249998,299.8384811249998,304.9599400419993,300.28318258299987,301.2993959999985,301.91470016699895,302.9196607499998,299.8384811249998,299.8384811249998,299.8134074583327,299.8384811249998,299.8384811249998,299.8384811249998,299.8134074583327,299.8384811249998,299.8384811249998,304.9599400419993,299.8384811249998,304.9599400419993,305.0288308329982,305.6590108329983,299.8384811249998,1,1,2.9076055840014305,reldom2_s040,001,2025-03-19_17h54.59.341,Vis-A-Scan_AC,2022.2.5,None,
0,0.0,None,fixation,stimulus/viswhat_stim/blank_white.png,stimulus/viswhat_stim/blank_white.png,stimulus/viswhere_stim/blank_white.png,stimulus/viswhere_stim/blank_white.png,stimulus/viswhat_stim/blank_white.png,stimulus/viswhat_stim/blank_white.png,stimulus/viswhat_stim/blank_white.png,stimulus/viswhat_stim/blank_white.png,0.0,0.0,0.0,0.0,0,0.0,0,0.0,0,0.0,0,0.0,0,0.0,0.0,0,0.0,0,0.0,0,0.0,0,0.0,0,0,0,0,0,0,0,0,10,,,,,0,32,32,32,,,,,,,,,305.95321149999836,305.95321149999836,305.95321149999836,305.95321149999836,305.95321149999836,305.95321149999836,305.95321149999836,305.95321149999836,305.8529119583321,305.95321149999836,305.95321149999836,305.95321149999836,305.8529119583321,305.95321149999836,305.95321149999836,305.95321149999836,305.95321149999836,305.95321149999836,305.95321149999836,305.95321149999836,305.95321149999836,305.95321149999836,305.95321149999836,305.95321149999836,305.95321149999836,305.95321149999836,305.95321149999836,305.9029119583321,305.95321149999836,305.95321149999836,305.95321149999836,305.9029119583321,305.95321149999836,305.95321149999836,305.95321149999836,305.95321149999836,305.95321149999836,311.1513468329995,311.1513468329995,316.1796207919997,None,0,,reldom2_s040,001,2025-03-19_17h54.59.341,Vis-A-Scan_AC,2022.2.5,None,
25,First_Order,5.0,viswhat,stimulus/viswhat_stim/blank_white.png,stimulus/viswhat_stim/blank_white.png,stimulus/viswhat_stim/land_vehicle-shortbus.png,stimulus/viswhat_stim/land_animal-pig.png,stimulus/viswhat_stim/blank_white.png,stimulus/viswhat_stim/location_box.png,stimulus/viswhat_stim/location_yes.png,stimulus/viswhat_stim/location_no.png,None,Location,None,Location,1,0.0,0,5.125,0,5.125,0,5.125,0,0.0,0.625,0,0.0,0,0.0,1,0.5,1,2.125,0,0,0,0,0,0,0,0,0,,,,,0,33,33,33,,,,,,,,,316.1796207919997,316.1796207919997,316.1796207919997,316.1796207919997,316.1796207919997,316.1796207919997,316.1796207919997,316.1796207919997,316.1388096246652,316.1796207919997,316.1796207919997,316.1796207919997,316.1388096246652,316.1796207919997,316.1796207919997,316.1796207919997,318.2863127499986,,316.1796207919997,316.1796207919997,321.33265237499836,316.6466398749999,317.67334333299914,318.2863127499986,319.3138022919993,316.1796207919997,316.1796207919997,316.1554762913319,316.1796207919997,316.1796207919997,316.1796207919997,316.1554762913319,316.1796207919997,316.1796207919997,321.33265237499836,316.1796207919997,321.33265237499836,321.4034052499992,322.0381184579983,316.1796207919997,1,1,1.052318751000712,reldom2_s040,001,2025-03-19_17h54.59.341,Vis-A-Scan_AC,2022.2.5,None,
26,First_Order,5.0,viswhat,stimulus/viswhat_stim/blank_white.png,stimulus/viswhat_stim/blank_white.png,stimulus/viswhat_stim/land_vehicle-rv.png,stimulus/viswhat_stim/land_animal-bunny.png,stimulus/viswhat_stim/blank_white.png,stimulus/viswhat_stim/type_box.png,stimulus/viswhat_stim/type_yes.png,stimulus/viswhat_stim/type_no.png,None,Type,None,Location,2,0.0,0,5.125,0,5.125,0,5.125,0,0.0,0.625,0,0.0,0,0.0,1,0.5,1,2.125,0,0,0,0,0,0,0,0,0,,,,,0,34,34,34,,,,,,,,,322.29264820799835,322.29264820799835,322.29264820799835,322.29264820799835,322.29264820799835,322.29264820799835,322.29264820799835,322.29264820799835,322.20795024999967,322.29264820799835,322.29264820799835,322.29264820799835,322.20795024999967,322.29264820799835,322.29264820799835,322.29264820799835,324.38911904199995,328.41422412499924,322.29264820799835,322.29264820799835,327.48748041699946,322.7685697499983,323.8179451249998,324.38911904199995,325.44208824999987,322.29264820799835,322.29264820799835,322.2579502499997,322.29264820799835,322.29264820799835,322.29264820799835,322.2579502499997,322.29264820799835,322.29264820799835,327.48748041699946,322.29264820799835,327.48748041699946,327.48748041699946,328.1595204999994,322.29264820799835,2,1,0.983664334000423,reldom2_s040,001,2025-03-19_17h54.59.341,Vis-A-Scan_AC,2022.2.5,None,
27,First_Order,5.0,viswhat,stimulus/viswhat_stim/blank_white.png,stimulus/viswhat_stim/blank_white.png,stimulus/viswhat_stim/land_animal-zebra.png,stimulus/viswhat_stim/land_vehicle-oldcar.png,stimulus/viswhat_stim/blank_white.png,stimulus/viswhat_stim/location_box.png,stimulus/viswhat_stim/location_yes.png,stimulus/viswhat_stim/location_no.png,None,Location,None,Location,1,0.0,0,5.125,0,5.125,0,5.125,0,0.0,0.625,0,0.0,0,0.0,1,0.5,1,2.125,0,0,0,0,0,0,0,0,0,,,,,0,35,35,35,,,,,,,,,328.41422412499924,328.41422412499924,328.41422412499924,328.41422412499924,328.41422412499924,328.41422412499924,328.41422412499924,328.41422412499924,328.3346834163332,328.41422412499924,328.41422412499924,328.41422412499924,328.3346834163332,328.41422412499924,328.41422412499924,328.41422412499924,330.5265262919984,,328.41422412499924,328.41422412499924,333.56793641699915,328.8976492919992,329.95408266699997,330.5265262919984,331.589804457999,328.41422412499924,328.41422412499924,328.3846834163332,328.41422412499924,328.41422412499924,328.41422412499924,328.3846834163332,328.41422412499924,328.41422412499924,333.56793641699915,328.41422412499924,333.56793641699915,333.60665920799875,334.2575331249991,328.41422412499924,1,1,0.8369291670005623,reldom2_s040,001,2025-03-19_17h54.59.341,Vis-A-Scan_AC,2022.2.5,None,
28,First_Order,5.0,viswhat,stimulus/viswhat_stim/blank_white.png,stimulus/viswhat_stim/blank_white.png,stimulus/viswhat_stim/water_vehicle-canoe.png,stimulus/viswhat_stim/land_vehicle-trolley.png,stimulus/viswhat_stim/blank_white.png,stimulus/viswhat_stim/type_box.png,stimulus/viswhat_stim/type_yes.png,stimulus/viswhat_stim/type_no.png,None,Type,None,Type,1,0.0,0,5.125,0,5.125,0,5.125,0,0.0,0.625,0,0.0,0,0.0,1,0.5,1,2.125,0,0,0,0,0,0,0,0,0,,,,,0,36,36,36,,,,,,,,,334.4649006669988,334.4649006669988,334.4649006669988,334.4649006669988,334.4649006669988,334.4649006669988,334.4649006669988,334.4649006669988,334.4291570413317,334.4649006669988,334.4649006669988,334.4649006669988,334.4291570413317,334.4649006669988,334.4649006669988,334.4649006669988,336.5767074999985,340.61229833299876,334.4649006669988,334.4649006669988,339.59395329199833,334.95433779199993,335.98528041699865,336.5767074999985,337.5868606669992,334.4649006669988,334.4649006669988,334.44582370799833,334.4649006669988,334.4649006669988,334.4649006669988,334.44582370799833,334.4649006669988,334.4649006669988,339.59395329199833,334.4649006669988,339.59395329199833,339.67461408299823,340.3177060829985,334.4649006669988,1,1,0.6580491669992625,reldom2_s040,001,2025-03-19_17h54.59.341,Vis-A-Scan_AC,2022.2.5,None,
0,0.0,None,fixation,stimulus/viswhat_stim/blank_white.png,stimulus/viswhat_stim/blank_white.png,stimulus/viswhere_stim/blank_white.png,stimulus/viswhere_stim/blank_white.png,stimulus/viswhat_stim/blank_white.png,stimulus/viswhat_stim/blank_white.png,stimulus/viswhat_stim/blank_white.png,stimulus/viswhat_stim/blank_white.png,0.0,0.0,0.0,0.0,0,0.0,0,0.0,0,0.0,0,0.0,0,0.0,0.0,0,0.0,0,0.0,0,0.0,0,0.0,0,0,0,0,0,0,0,0,9,,,,,0,37,37,37,,,,,,,,,340.61229833299876,340.61229833299876,340.61229833299876,340.61229833299876,340.61229833299876,340.61229833299876,340.61229833299876,340.61229833299876,340.5182759999985,340.61229833299876,340.61229833299876,340.61229833299876,340.5182759999985,340.61229833299876,340.61229833299876,340.61229833299876,340.61229833299876,340.61229833299876,340.61229833299876,340.61229833299876,340.61229833299876,340.61229833299876,340.61229833299876,340.61229833299876,340.61229833299876,340.61229833299876,340.61229833299876,340.5682759999985,340.61229833299876,340.61229833299876,340.61229833299876,340.5682759999985,340.61229833299876,340.61229833299876,340.61229833299876,340.61229833299876,340.61229833299876,345.81470391699986,345.81470391699986,349.74936245799836,None,0,,reldom2_s040,001,2025-03-19_17h54.59.341,Vis-A-Scan_AC,2022.2.5,None,
29,Second_Order,5.0,viswhat,stimulus/viswhat_stim/land_vehicle-schoolbus.png,stimulus/viswhat_stim/land_animal-snake.png,stimulus/viswhat_stim/water_vehicle-cruiser.png,stimulus/viswhat_stim/water_animal-whale.png,stimulus/viswhat_stim/match_blank.png,stimulus/viswhat_stim/match_box.png,stimulus/viswhat_stim/match_yes.png,stimulus/viswhat_stim/match_no.png,1.0,Match,Location,Location,1,5.125,0,5.125,0,5.125,0,5.125,0,0.75,0.75,1,0.5,1,2.125,1,0.5,1,2.125,0,0,0,0,0,0,0,0,0,,,,,0,38,38,38,,,,,,,,,349.74936245799836,354.8617622919992,350.215950374999,351.2022339999985,351.8501257079988,352.8385142499992,349.74936245799836,349.74936245799836,349.7562314163316,349.74936245799836,349.74936245799836,349.74936245799836,349.7562314163316,349.74936245799836,354.8617622919992,355.7636423749991,357.8338456249985,,355.7636423749991,355.7636423749991,361.0031630829999,356.1769849169996,357.28121929199915,357.8338456249985,358.9377142919984,355.7636423749991,355.7636423749991,355.6959987499991,355.7636423749991,355.7636423749991,355.7636423749991,355.6959987499991,355.7636423749991,355.7636423749991,361.0031630829999,355.7636423749991,361.0031630829999,360.9397823329982,,355.7636423749991,1,1,1.2438875009993353,reldom2_s040,001,2025-03-19_17h54.59.341,Vis-A-Scan_AC,2022.2.5,None,
30,Second_Order,5.0,viswhat,stimulus/viswhat_stim/land_vehicle-tank.png,stimulus/viswhat_stim/water_vehicle-cabincruiser.png,stimulus/viswhat_stim/land_animal-pig.png,stimulus/viswhat_stim/water_animal-stingray.png,stimulus/viswhat_stim/match_blank.png,stimulus/viswhat_stim/match_box.png,stimulus/viswhat_stim/match_yes.png,stimulus/viswhat_stim/match_no.png,1.0,Match,Type,Type,1,5.125,0,5.125,0,5.125,0,5.125,0,0.625,0.625,1,0.5,1,2.125,1,0.5,1,2.125,0,0,0,0,0,0,0,0,0,,,,,0,39,39,39,,,,,,,,,361.72634791699966,366.839420667,362.1943281249987,363.1931920419993,363.8160234579991,364.8134217499992,361.72634791699966,361.72634791699966,361.74079320866497,361.72634791699966,361.72634791699966,361.72634791699966,361.74079320866497,361.72634791699966,366.839420667,367.5154356669991,369.59091654199983,373.6412433329988,367.5154356669991,367.5154356669991,372.65955454199866,367.9762529169984,369.0017718329982,369.59091654199983,370.60188599999856,367.5154356669991,367.5154356669991,367.502492208,367.5154356669991,367.5154356669991,367.5154356669991,367.502492208,367.5154356669991,367.5154356669991,372.65955454199866,367.5154356669991,372.65955454199866,372.70906733299853,373.33453658299914,367.5154356669991,1,1,0.9411261259992898,reldom2_s040,001,2025-03-19_17h54.59.341,Vis-A-Scan_AC,2022.2.5,None,
0,0.0,None,fixation,stimulus/viswhat_stim/blank_white.png,stimulus/viswhat_stim/blank_white.png,stimulus/viswhere_stim/blank_white.png,stimulus/viswhere_stim/blank_white.png,stimulus/viswhat_stim/blank_white.png,stimulus/viswhat_stim/blank_white.png,stimulus/viswhat_stim/blank_white.png,stimulus/viswhat_stim/blank_white.png,0.0,0.0,0.0,0.0,0,0.0,0,0.0,0,0.0,0,0.0,0,0.0,0.0,0,0.0,0,0.0,0,0.0,0,0.0,0,0,0,0,0,0,0,0,10,,,,,0,40,40,40,,,,,,,,,373.6412433329988,373.6412433329988,373.6412433329988,373.6412433329988,373.6412433329988,373.6412433329988,373.6412433329988,373.6412433329988,373.5354031663331,373.6412433329988,373.6412433329988,373.6412433329988,373.5354031663331,373.6412433329988,373.6412433329988,373.6412433329988,373.6412433329988,373.6412433329988,373.6412433329988,373.6412433329988,373.6412433329988,373.6412433329988,373.6412433329988,373.6412433329988,373.6412433329988,373.6412433329988,373.6412433329988,373.60206983299975,373.6412433329988,373.6412433329988,373.6412433329988,373.60206983299975,373.6412433329988,373.6412433329988,373.6412433329988,373.6412433329988,373.6412433329988,378.83384683299846,378.83384683299846,383.85016016699956,None,0,,reldom2_s040,001,2025-03-19_17h54.59.341,Vis-A-Scan_AC,2022.2.5,None,
31,First_Order,6.0,viswhat,stimulus/viswhat_stim/blank_white.png,stimulus/viswhat_stim/blank_white.png,stimulus/viswhat_stim/land_vehicle-rv.png,stimulus/viswhat_stim/land_animal-ostrich.png,stimulus/viswhat_stim/blank_white.png,stimulus/viswhat_stim/type_box.png,stimulus/viswhat_stim/type_yes.png,stimulus/viswhat_stim/type_no.png,None,Type,None,Location,2,0.0,0,5.125,0,5.125,0,5.125,0,0.0,0.625,0,0.0,0,0.0,1,0.5,1,2.125,0,0,0,0,0,0,0,0,0,,,,,0,41,41,41,,,,,,,,,383.85016016699956,383.85016016699956,383.85016016699956,383.85016016699956,383.85016016699956,383.85016016699956,383.85016016699956,383.85016016699956,383.8199409996656,383.85016016699956,383.85016016699956,383.85016016699956,383.8199409996656,383.85016016699956,383.85016016699956,383.85016016699956,385.9400620419983,390.0004857919994,383.85016016699956,383.85016016699956,388.9934304999988,384.32971904199985,385.33753929199884,385.9400620419983,386.9509026249998,383.85016016699956,383.85016016699956,383.8366076663323,383.85016016699956,383.85016016699956,383.85016016699956,383.8366076663323,383.85016016699956,383.85016016699956,388.9934304999988,383.85016016699956,388.9934304999988,389.06764312499945,389.69579720799993,383.85016016699956,2,1,1.2786230000001524,reldom2_s040,001,2025-03-19_17h54.59.341,Vis-A-Scan_AC,2022.2.5,None,
32,First_Order,6.0,viswhat,stimulus/viswhat_stim/blank_white.png,stimulus/viswhat_stim/blank_white.png,stimulus/viswhat_stim/land_animal-moose.png,stimulus/viswhat_stim/water_animal-dolphin.png,stimulus/viswhat_stim/blank_white.png,stimulus/viswhat_stim/type_box.png,stimulus/viswhat_stim/type_yes.png,stimulus/viswhat_stim/type_no.png,None,Type,None,Type,1,0.0,0,5.125,0,5.125,0,5.125,0,0.0,0.625,0,0.0,0,0.0,1,0.5,1,2.125,0,0,0,0,0,0,0,0,0,,,,,0,42,42,42,,,,,,,,,390.0004857919994,390.0004857919994,390.0004857919994,390.0004857919994,390.0004857919994,390.0004857919994,390.0004857919994,390.0004857919994,389.90534008299943,390.0004857919994,390.0004857919994,390.0004857919994,389.90534008299943,390.0004857919994,390.0004857919994,390.0004857919994,392.11367133299973,,390.0004857919994,390.0004857919994,395.16122687499956,390.46974829199826,391.52593974999945,392.11367133299973,393.1725032079994,390.0004857919994,390.0004857919994,389.95534008299944,390.0004857919994,390.0004857919994,390.0004857919994,389.95534008299944,390.0004857919994,390.0004857919994,395.16122687499956,390.0004857919994,395.16122687499956,395.21465566699953,396.0724067919982,390.0004857919994,1,1,0.7700503330015636,reldom2_s040,001,2025-03-19_17h54.59.341,Vis-A-Scan_AC,2022.2.5,None,
33,First_Order,6.0,viswhat,stimulus/viswhat_stim/blank_white.png,stimulus/viswhat_stim/blank_white.png,stimulus/viswhat_stim/land_vehicle-buldozer.png,stimulus/viswhat_stim/water_vehicle-canoe.png,stimulus/viswhat_stim/blank_white.png,stimulus/viswhat_stim/location_box.png,stimulus/viswhat_stim/location_yes.png,stimulus/viswhat_stim/location_no.png,None,Location,None,Type,2,0.0,0,5.125,0,5.125,0,5.125,0,0.0,0.625,0,0.0,0,0.0,1,0.5,1,2.125,0,0,0,0,0,0,0,0,0,,,,,0,43,43,43,,,,,,,,,396.0724067919982,396.0724067919982,396.0724067919982,396.0724067919982,396.0724067919982,396.0724067919982,396.0724067919982,396.0724067919982,396.02020158366633,396.0724067919982,396.0724067919982,396.0724067919982,396.02020158366633,396.0724067919982,396.0724067919982,396.0724067919982,398.175298958,,396.0724067919982,396.0724067919982,401.217617332999,396.5435469169988,397.5962912499999,398.175298958,399.2274621669985,396.0724067919982,396.0724067919982,396.03686825033304,396.0724067919982,396.0724067919982,396.0724067919982,396.03686825033304,396.0724067919982,396.0724067919982,401.217617332999,396.0724067919982,401.217617332999,401.2789872499998,401.9211239999986,396.0724067919982,2,1,1.247091334000288,reldom2_s040,001,2025-03-19_17h54.59.341,Vis-A-Scan_AC,2022.2.5,None,
34,First_Order,6.0,viswhat,stimulus/viswhat_stim/blank_white.png,stimulus/viswhat_stim/blank_white.png,stimulus/viswhat_stim/land_vehicle-scooter.png,stimulus/viswhat_stim/water_vehicle-motorboatraft.png,stimulus/viswhat_stim/blank_white.png,stimulus/viswhat_stim/location_box.png,stimulus/viswhat_stim/location_yes.png,stimulus/viswhat_stim/location_no.png,None,Location,None,Type,2,0.0,0,5.125,0,5.125,0,5.125,0,0.0,0.625,0,0.0,0,0.0,1,0.5,1,2.125,0,0,0,0,0,0,0,0,0,,,,,0,44,44,44,,,,,,,,,402.12550091699995,402.12550091699995,402.12550091699995,402.12550091699995,402.12550091699995,402.12550091699995,402.12550091699995,402.12550091699995,402.09894083366623,402.12550091699995,402.12550091699995,402.12550091699995,402.09894083366623,402.12550091699995,402.12550091699995,402.12550091699995,404.2213547079991,408.2596720419988,402.12550091699995,402.12550091699995,407.256642291999,402.60181312499844,403.62161899999955,404.2213547079991,405.2428730419997,402.12550091699995,402.12550091699995,402.1156075003329,402.12550091699995,402.12550091699995,402.12550091699995,402.1156075003329,402.12550091699995,402.12550091699995,407.256642291999,402.12550091699995,407.256642291999,407.3472117499987,407.9810884169983,402.12550091699995,2,1,1.09856879200197,reldom2_s040,001,2025-03-19_17h54.59.341,Vis-A-Scan_AC,2022.2.5,None,
0,0.0,None,fixation,stimulus/viswhat_stim/blank_white.png,stimulus/viswhat_stim/blank_white.png,stimulus/viswhere_stim/blank_white.png,stimulus/viswhere_stim/blank_white.png,stimulus/viswhat_stim/blank_white.png,stimulus/viswhat_stim/blank_white.png,stimulus/viswhat_stim/blank_white.png,stimulus/viswhat_stim/blank_white.png,0.0,0.0,0.0,0.0,0,0.0,0,0.0,0,0.0,0,0.0,0,0.0,0.0,0,0.0,0,0.0,0,0.0,0,0.0,0,0,0,0,0,0,0,0,8,,,,,0,45,45,45,,,,,,,,,408.2596720419988,408.2596720419988,408.2596720419988,408.2596720419988,408.2596720419988,408.2596720419988,408.2596720419988,408.2596720419988,408.1591985413318,408.2596720419988,408.2596720419988,408.2596720419988,408.1591985413318,408.2596720419988,408.2596720419988,408.2596720419988,408.2596720419988,408.2596720419988,408.2596720419988,408.2596720419988,408.2596720419988,408.2596720419988,408.2596720419988,408.2596720419988,408.2596720419988,408.2596720419988,408.2596720419988,408.20919854133183,408.2596720419988,408.2596720419988,408.2596720419988,408.20919854133183,408.2596720419988,408.2596720419988,408.2596720419988,408.2596720419988,408.2596720419988,413.46763241699955,413.46763241699955,416.4111902079985,None,0,,reldom2_s040,001,2025-03-19_17h54.59.341,Vis-A-Scan_AC,2022.2.5,None,
35,Second_Order,6.0,viswhat,stimulus/viswhat_stim/land_vehicle-train.png,stimulus/viswhat_stim/land_animal-moose.png,stimulus/viswhat_stim/land_vehicle-schoolbus.png,stimulus/viswhat_stim/water_vehicle-sailboat.png,stimulus/viswhat_stim/match_blank.png,stimulus/viswhat_stim/match_box.png,stimulus/viswhat_stim/match_yes.png,stimulus/viswhat_stim/match_no.png,2.0,Match,Location,Type,2,5.125,0,5.125,0,5.125,0,5.125,0,0.75,0.75,1,0.5,1,2.125,1,0.5,1,2.125,0,0,0,0,0,0,0,0,0,,,,,0,46,46,46,,,,,,,,,416.4111902079985,421.5321220829992,416.8522080419989,417.83912599999894,418.4751259169989,419.47279233299923,416.4111902079985,416.4111902079985,416.4226964166652,416.4111902079985,416.4111902079985,416.4111902079985,416.4226964166652,416.4111902079985,421.5321220829992,422.3942322499988,424.45702054199865,,422.3942322499988,422.3942322499988,427.5518020829986,422.806943874999,423.8913697079988,424.45702054199865,425.49423924999974,422.3942322499988,422.3942322499988,422.3498862503323,422.3942322499988,422.3942322499988,422.3942322499988,422.3498862503323,422.3942322499988,422.3942322499988,427.5518020829986,422.3942322499988,427.5518020829986,427.5518020829986,,422.3942322499988,2,1,1.541236791999836,reldom2_s040,001,2025-03-19_17h54.59.341,Vis-A-Scan_AC,2022.2.5,None,
36,Second_Order,6.0,viswhat,stimulus/viswhat_stim/land_animal-moose.png,stimulus/viswhat_stim/land_vehicle-schoolbus.png,stimulus/viswhat_stim/land_vehicle-pickuptruck.png,stimulus/viswhat_stim/water_vehicle-canoe(1).png,stimulus/viswhat_stim/match_blank.png,stimulus/viswhat_stim/match_box.png,stimulus/viswhat_stim/match_yes.png,stimulus/viswhat_stim/match_no.png,2.0,Match,Location,Type,2,5.125,0,5.125,0,5.125,0,5.125,0,0.625,0.625,1,0.5,1,2.125,1,0.5,1,2.125,0,0,0,0,0,0,0,0,0,,,,,0,47,47,47,,,,,,,,,428.3805562919988,433.4929150829994,428.82770954199987,429.8166148329983,430.4522434999999,431.4509962919983,428.3805562919988,428.3805562919988,428.38995962499973,428.3805562919988,428.3805562919988,428.3805562919988,428.38995962499973,428.3805562919988,433.4929150829994,434.1711603749991,436.23782841699904,440.2947420829987,434.1711603749991,434.1711603749991,439.3012270419986,434.6244610829999,435.6379899579988,436.23782841699904,437.2541211249991,434.1711603749991,434.1711603749991,434.15647354199865,434.1711603749991,434.1711603749991,434.1711603749991,434.15647354199865,434.1711603749991,434.1711603749991,439.3012270419986,434.1711603749991,439.3012270419986,439.36514120799984,440.0050496669992,434.1711603749991,2,1,1.1463683330002823,reldom2_s040,001,2025-03-19_17h54.59.341,Vis-A-Scan_AC,2022.2.5,None,
0,0.0,None,fixation,stimulus/viswhat_stim/blank_white.png,stimulus/viswhat_stim/blank_white.png,stimulus/viswhere_stim/blank_white.png,stimulus/viswhere_stim/blank_white.png,stimulus/viswhat_stim/blank_white.png,stimulus/viswhat_stim/blank_white.png,stimulus/viswhat_stim/blank_white.png,stimulus/viswhat_stim/blank_white.png,0.0,0.0,0.0,0.0,0,0.0,0,0.0,0,0.0,0,0.0,0,0.0,0.0,0,0.0,0,0.0,0,0.0,0,0.0,0,0,0,0,0,0,0,0,8,,,,,0,48,48,48,,,,,,,,,440.2947420829987,440.2947420829987,440.2947420829987,440.2947420829987,440.2947420829987,440.2947420829987,440.2947420829987,440.2947420829987,440.1887988333322,440.2947420829987,440.2947420829987,440.2947420829987,440.1887988333322,440.2947420829987,440.2947420829987,440.2947420829987,440.2947420829987,440.2947420829987,440.2947420829987,440.2947420829987,440.2947420829987,440.2947420829987,440.2947420829987,440.2947420829987,440.2947420829987,440.2947420829987,440.2947420829987,440.2554654999989,440.2947420829987,440.2947420829987,440.2947420829987,440.2554654999989,440.2947420829987,440.2947420829987,440.2947420829987,440.2947420829987,440.2947420829987,445.50029933299993,445.50029933299993,448.4750717499992,None,0,,reldom2_s040,001,2025-03-19_17h54.59.341,Vis-A-Scan_AC,2022.2.5,None,
37,First_Order,7.0,viswhere,stimulus/viswhere_stim/blank_white.png,stimulus/viswhere_stim/blank_white.png,stimulus/viswhere_stim/120-deg_dot-right_turquoise.png,stimulus/viswhere_stim/120-deg_dot-left_slateblue.png,stimulus/viswhere_stim/blank_white.png,stimulus/viswhere_stim/line_box.png,stimulus/viswhere_stim/line_yes.png,stimulus/viswhere_stim/line_no.png,None,Line,None,Line,1,0.0,0,5.125,0,5.125,0,5.125,0,0.0,0.625,0,0.0,0,0.0,1,0.5,1,2.125,0,0,0,0,0,0,0,0,0,,,,,0,49,49,49,,,,,,,,,448.4750717499992,448.4750717499992,448.4750717499992,448.4750717499992,448.4750717499992,448.4750717499992,448.4750717499992,448.4750717499992,448.4564595416656,448.4750717499992,448.4750717499992,448.4750717499992,448.4564595416656,448.4750717499992,448.4750717499992,448.4750717499992,450.5708524579986,454.53037508299894,448.4750717499992,448.4750717499992,453.6106913749991,448.950771374999,449.96344837499964,450.5708524579986,451.58680891699987,448.4750717499992,448.4750717499992,448.4564595416656,448.4750717499992,448.4750717499992,448.4750717499992,448.4564595416656,448.4750717499992,448.4750717499992,453.6106913749991,448.4750717499992,453.6106913749991,453.6983107499982,454.32611324999925,448.4750717499992,1,1,1.1118784169993887,reldom2_s040,001,2025-03-19_17h54.59.341,Vis-A-Scan_AC,2022.2.5,None,
38,First_Order,7.0,viswhere,stimulus/viswhere_stim/blank_white.png,stimulus/viswhere_stim/blank_white.png,stimulus/viswhere_stim/30-deg_dot-right_royalblue.png,stimulus/viswhere_stim/30-deg_dot-left_royalblue.png,stimulus/viswhere_stim/blank_white.png,stimulus/viswhere_stim/dot_box.png,stimulus/viswhere_stim/dot_yes.png,stimulus/viswhere_stim/dot_no.png,None,Dot,None,Line,2,0.0,0,5.125,0,5.125,0,5.125,0,0.0,0.625,0,0.0,0,0.0,1,0.5,1,2.125,0,0,0,0,0,0,0,0,0,,,,,0,50,50,50,,,,,,,,,454.53037508299894,454.53037508299894,454.53037508299894,454.53037508299894,454.53037508299894,454.53037508299894,454.53037508299894,454.53037508299894,454.5099571253316,454.53037508299894,454.53037508299894,454.53037508299894,454.5099571253316,454.53037508299894,454.53037508299894,454.53037508299894,456.62937987499936,460.59455974999946,454.53037508299894,454.53037508299894,459.6526908329997,455.00693554199825,456.0193101249988,456.62937987499936,457.6476642079997,454.53037508299894,454.53037508299894,454.52662379199825,454.53037508299894,454.53037508299894,454.53037508299894,454.52662379199825,454.53037508299894,454.53037508299894,459.6526908329997,454.53037508299894,459.6526908329997,459.7505006249994,460.3766166669993,454.53037508299894,2,1,0.9498060840014659,reldom2_s040,001,2025-03-19_17h54.59.341,Vis-A-Scan_AC,2022.2.5,None,
39,First_Order,7.0,viswhere,stimulus/viswhere_stim/blank_white.png,stimulus/viswhere_stim/blank_white.png,stimulus/viswhere_stim/150-deg_dot-left_peru.png,stimulus/viswhere_stim/30-deg_dot-left_goldenrod.png,stimulus/viswhere_stim/blank_white.png,stimulus/viswhere_stim/line_box.png,stimulus/viswhere_stim/line_yes.png,stimulus/viswhere_stim/line_no.png,None,Line,None,Dot,2,0.0,0,5.125,0,5.125,0,5.125,0,0.0,0.625,0,0.0,0,0.0,1,0.5,1,2.125,0,0,0,0,0,0,0,0,0,,,,,0,51,51,51,,,,,,,,,460.59455974999946,460.59455974999946,460.59455974999946,460.59455974999946,460.59455974999946,460.59455974999946,460.59455974999946,460.59455974999946,460.5738864163316,460.59455974999946,460.59455974999946,460.59455974999946,460.5738864163316,460.59455974999946,460.59455974999946,460.59455974999946,462.6920716249988,466.6589816249998,460.59455974999946,460.59455974999946,465.7209697499984,461.0765183329986,462.09738195799946,462.6920716249988,463.6968098749985,460.59455974999946,460.59455974999946,460.59055308299827,460.59455974999946,460.59455974999946,460.59455974999946,460.59055308299827,460.59455974999946,460.59455974999946,465.7209697499984,460.59455974999946,465.7209697499984,465.8168687079997,466.44387258299867,460.59455974999946,1,0,1.1436627510011022,reldom2_s040,001,2025-03-19_17h54.59.341,Vis-A-Scan_AC,2022.2.5,None,
40,First_Order,7.0,viswhere,stimulus/viswhere_stim/blank_white.png,stimulus/viswhere_stim/blank_white.png,stimulus/viswhere_stim/120-deg_dot-left_royalblue.png,stimulus/viswhere_stim/120-deg_dot-right_slateblue.png,stimulus/viswhere_stim/blank_white.png,stimulus/viswhere_stim/dot_box.png,stimulus/viswhere_stim/dot_yes.png,stimulus/viswhere_stim/dot_no.png,None,Dot,None,Line,2,0.0,0,5.125,0,5.125,0,5.125,0,0.0,0.625,0,0.0,0,0.0,1,0.5,1,2.125,0,0,0,0,0,0,0,0,0,,,,,0,52,52,52,,,,,,,,,466.6589816249998,466.6589816249998,466.6589816249998,466.6589816249998,466.6589816249998,466.6589816249998,466.6589816249998,466.6589816249998,466.63818262533215,466.6589816249998,466.6589816249998,466.6589816249998,466.63818262533215,466.6589816249998,466.6589816249998,466.6589816249998,468.77485349999915,472.796946208,466.6589816249998,466.6589816249998,471.79557170799853,467.13588674999846,468.1478942499998,468.77485349999915,469.79004079199876,466.6589816249998,466.6589816249998,466.6548492919988,466.6589816249998,466.6589816249998,466.6589816249998,466.6548492919988,466.6589816249998,466.6589816249998,471.79557170799853,466.6589816249998,471.79557170799853,471.878719332999,472.50484033299836,466.6589816249998,2,1,1.1400886250012263,reldom2_s040,001,2025-03-19_17h54.59.341,Vis-A-Scan_AC,2022.2.5,None,
0,0.0,None,fixation,stimulus/viswhat_stim/blank_white.png,stimulus/viswhat_stim/blank_white.png,stimulus/viswhere_stim/blank_white.png,stimulus/viswhere_stim/blank_white.png,stimulus/viswhat_stim/blank_white.png,stimulus/viswhat_stim/blank_white.png,stimulus/viswhat_stim/blank_white.png,stimulus/viswhat_stim/blank_white.png,0.0,0.0,0.0,0.0,0,0.0,0,0.0,0,0.0,0,0.0,0,0.0,0.0,0,0.0,0,0.0,0,0.0,0,0.0,0,0,0,0,0,0,0,0,9,,,,,0,53,53,53,,,,,,,,,472.796946208,472.796946208,472.796946208,472.796946208,472.796946208,472.796946208,472.796946208,472.796946208,472.69850950033225,472.796946208,472.796946208,472.796946208,472.69850950033225,472.796946208,472.796946208,472.796946208,472.796946208,472.796946208,472.796946208,472.796946208,472.796946208,472.796946208,472.796946208,472.796946208,472.796946208,472.796946208,472.796946208,472.74850950033226,472.796946208,472.796946208,472.796946208,472.74850950033226,472.796946208,472.796946208,472.796946208,472.796946208,472.796946208,478.00209337499837,478.00209337499837,481.9292724579991,None,0,,reldom2_s040,001,2025-03-19_17h54.59.341,Vis-A-Scan_AC,2022.2.5,None,
41,Second_Order,7.0,viswhere,stimulus/viswhere_stim/90-deg_dot-right_seagreen.png,stimulus/viswhere_stim/90-deg_dot-left_salmon.png,stimulus/viswhere_stim/60-deg_dot-left_slateblue.png,stimulus/viswhere_stim/60-deg_dot-right_lightsseagreen.png,stimulus/viswhat_stim/match_blank.png,stimulus/viswhat_stim/match_box.png,stimulus/viswhat_stim/match_yes.png,stimulus/viswhat_stim/match_no.png,1.0,Match,Line,Line,1,5.125,0,5.125,0,5.125,0,5.125,0,0.75,0.75,1,0.5,1,2.125,1,0.5,1,2.125,0,0,0,0,0,0,0,0,0,,,,,0,54,54,54,,,,,,,,,481.9292724579991,487.05044008299956,482.4059884579983,483.4033029579987,484.0268982079997,485.0240408749996,481.9292724579991,481.9292724579991,481.94308641633154,481.9292724579991,481.9292724579991,481.9292724579991,481.94308641633154,481.9292724579991,487.05044008299956,487.84325870799876,489.9154037919998,493.78444262499943,487.84325870799876,487.84325870799876,492.98296191699956,488.30731141699835,489.32204699999966,489.9154037919998,490.9351861669984,487.84325870799876,487.84325870799876,487.8185603333318,487.84325870799876,487.84325870799876,487.84325870799876,487.8185603333318,487.84325870799876,487.84325870799876,492.98296191699956,487.84325870799876,492.98296191699956,493.03899558299963,493.8202057079998,487.84325870799876,1,1,0.7683324590016127,reldom2_s040,001,2025-03-19_17h54.59.341,Vis-A-Scan_AC,2022.2.5,None,
42,Second_Order,7.0,viswhere,stimulus/viswhere_stim/150-deg_dot-left_cyan.png,stimulus/viswhere_stim/60-deg_dot-left_royalblue.png,stimulus/viswhere_stim/30-deg_dot-right_mediumslateblue.png,stimulus/viswhere_stim/90-deg_dot-right_peru.png,stimulus/viswhat_stim/match_blank.png,stimulus/viswhat_stim/match_box.png,stimulus/viswhat_stim/match_yes.png,stimulus/viswhat_stim/match_no.png,1.0,Match,Dot,Dot,1,5.125,0,5.125,0,5.125,0,5.125,0,0.625,0.625,1,0.5,1,2.125,1,0.5,1,2.125,0,0,0,0,0,0,0,0,0,,,,,0,55,55,55,,,,,,,,,493.8202057079998,498.943801333,494.2996368749991,495.2977791669982,495.9327900829994,496.9217549169989,493.8202057079998,493.8202057079998,493.83444262499944,493.8202057079998,493.8202057079998,493.8202057079998,493.83444262499944,493.8202057079998,498.943801333,499.61276374999943,501.6886542079992,505.73755829199945,499.61276374999943,499.61276374999943,504.7457621249996,500.0775038749998,501.09397270799855,501.6886542079992,502.6918968329992,499.61276374999943,499.61276374999943,499.59124987533187,499.61276374999943,499.61276374999943,499.61276374999943,499.59124987533187,499.61276374999943,499.61276374999943,504.7457621249996,499.61276374999943,504.7457621249996,504.8161078329995,505.4428868749983,499.61276374999943,1,1,0.9208521260006819,reldom2_s040,001,2025-03-19_17h54.59.341,Vis-A-Scan_AC,2022.2.5,None,
0,0.0,None,fixation,stimulus/viswhat_stim/blank_white.png,stimulus/viswhat_stim/blank_white.png,stimulus/viswhere_stim/blank_white.png,stimulus/viswhere_stim/blank_white.png,stimulus/viswhat_stim/blank_white.png,stimulus/viswhat_stim/blank_white.png,stimulus/viswhat_stim/blank_white.png,stimulus/viswhat_stim/blank_white.png,0.0,0.0,0.0,0.0,0,0.0,0,0.0,0,0.0,0,0.0,0,0.0,0.0,0,0.0,0,0.0,0,0.0,0,0.0,0,0,0,0,0,0,0,0,8,,,,,0,56,56,56,,,,,,,,,505.73755829199945,505.73755829199945,505.73755829199945,505.73755829199945,505.73755829199945,505.73755829199945,505.73755829199945,505.73755829199945,505.6375004163322,505.73755829199945,505.73755829199945,505.73755829199945,505.6375004163322,505.73755829199945,505.73755829199945,505.73755829199945,505.73755829199945,505.73755829199945,505.73755829199945,505.73755829199945,505.73755829199945,505.73755829199945,505.73755829199945,505.73755829199945,505.73755829199945,505.73755829199945,505.73755829199945,505.6875004163322,505.73755829199945,505.73755829199945,505.73755829199945,505.6875004163322,505.73755829199945,505.73755829199945,505.73755829199945,505.73755829199945,505.73755829199945,510.9365470419998,510.9365470419998,513.9121429169991,None,0,,reldom2_s040,001,2025-03-19_17h54.59.341,Vis-A-Scan_AC,2022.2.5,None,
43,First_Order,8.0,viswhere,stimulus/viswhere_stim/blank_white.png,stimulus/viswhere_stim/blank_white.png,stimulus/viswhere_stim/150-deg_dot-left_lightsseagreen.png,stimulus/viswhere_stim/30-deg_dot-left_salmon.png,stimulus/viswhere_stim/blank_white.png,stimulus/viswhere_stim/dot_box.png,stimulus/viswhere_stim/dot_yes.png,stimulus/viswhere_stim/dot_no.png,None,Dot,None,Dot,1,0.0,0,5.125,0,5.125,0,5.125,0,0.0,0.625,0,0.0,0,0.0,1,0.5,1,2.125,0,0,0,0,0,0,0,0,0,,,,,0,57,57,57,,,,,,,,,513.9121429169991,513.9121429169991,513.9121429169991,513.9121429169991,513.9121429169991,513.9121429169991,513.9121429169991,513.9121429169991,513.8911076246665,513.9121429169991,513.9121429169991,513.9121429169991,513.8911076246665,513.9121429169991,513.9121429169991,513.9121429169991,516.0225599999994,519.9689197499993,513.9121429169991,513.9121429169991,519.0377062499992,514.3916752079986,515.407975958,516.0225599999994,517.0241895419986,513.9121429169991,513.9121429169991,513.9077742913331,513.9121429169991,513.9121429169991,513.9121429169991,513.9077742913331,513.9121429169991,513.9121429169991,519.0377062499992,513.9121429169991,519.0377062499992,519.1354836249993,519.7672387079983,513.9121429169991,1,1,1.1398763750003127,reldom2_s040,001,2025-03-19_17h54.59.341,Vis-A-Scan_AC,2022.2.5,None,
44,First_Order,8.0,viswhere,stimulus/viswhere_stim/blank_white.png,stimulus/viswhere_stim/blank_white.png,stimulus/viswhere_stim/150-deg_dot-right_seagreen.png,stimulus/viswhere_stim/150-deg_dot-left_goldenrod.png,stimulus/viswhere_stim/blank_white.png,stimulus/viswhere_stim/line_box.png,stimulus/viswhere_stim/line_yes.png,stimulus/viswhere_stim/line_no.png,None,Line,None,Line,1,0.0,0,5.125,0,5.125,0,5.125,0,0.0,0.625,0,0.0,0,0.0,1,0.5,1,2.125,0,0,0,0,0,0,0,0,0,,,,,0,58,58,58,,,,,,,,,519.9689197499993,519.9689197499993,519.9689197499993,519.9689197499993,519.9689197499993,519.9689197499993,519.9689197499993,519.9689197499993,519.9476777503327,519.9689197499993,519.9689197499993,519.9689197499993,519.9476777503327,519.9689197499993,519.9689197499993,519.9689197499993,522.0790915829984,526.0359038329989,519.9689197499993,519.9689197499993,525.101375541999,520.453491541999,521.4611624999998,522.0790915829984,523.0916474999995,519.9689197499993,519.9689197499993,519.9643444169993,519.9689197499993,519.9689197499993,519.9689197499993,519.9643444169993,519.9689197499993,519.9689197499993,525.101375541999,519.9689197499993,525.101375541999,525.2164372079988,525.8480286249996,519.9689197499993,1,1,0.9993557919988234,reldom2_s040,001,2025-03-19_17h54.59.341,Vis-A-Scan_AC,2022.2.5,None,
45,First_Order,8.0,viswhere,stimulus/viswhere_stim/blank_white.png,stimulus/viswhere_stim/blank_white.png,stimulus/viswhere_stim/150-deg_dot-left_seagreen.png,stimulus/viswhere_stim/60-deg_dot-left_turquoise.png,stimulus/viswhere_stim/blank_white.png,stimulus/viswhere_stim/dot_box.png,stimulus/viswhere_stim/dot_yes.png,stimulus/viswhere_stim/dot_no.png,None,Dot,None,Dot,1,0.0,0,5.125,0,5.125,0,5.125,0,0.0,0.625,0,0.0,0,0.0,1,0.5,1,2.125,0,0,0,0,0,0,0,0,0,,,,,0,59,59,59,,,,,,,,,526.0359038329989,526.0359038329989,526.0359038329989,526.0359038329989,526.0359038329989,526.0359038329989,526.0359038329989,526.0359038329989,526.0150110003318,526.0359038329989,526.0359038329989,526.0359038329989,526.0150110003318,526.0359038329989,526.0359038329989,526.0359038329989,528.1470356249993,532.0995652079982,526.0359038329989,526.0359038329989,531.1704659169991,526.5160422499994,527.5345336249993,528.1470356249993,529.1506999999983,526.0359038329989,526.0359038329989,526.0316776669985,526.0359038329989,526.0359038329989,526.0359038329989,526.0316776669985,526.0359038329989,526.0359038329989,531.1704659169991,526.0359038329989,531.1704659169991,531.2547564999986,531.8842044579997,526.0359038329989,1,1,0.7640139590002946,reldom2_s040,001,2025-03-19_17h54.59.341,Vis-A-Scan_AC,2022.2.5,None,
46,First_Order,8.0,viswhere,stimulus/viswhere_stim/blank_white.png,stimulus/viswhere_stim/blank_white.png,stimulus/viswhere_stim/150-deg_dot-left_lightsseagreen.png,stimulus/viswhere_stim/60-deg_dot-left_royalblue.png,stimulus/viswhere_stim/blank_white.png,stimulus/viswhere_stim/line_box.png,stimulus/viswhere_stim/line_yes.png,stimulus/viswhere_stim/line_no.png,None,Line,None,Dot,2,0.0,0,5.125,0,5.125,0,5.125,0,0.0,0.625,0,0.0,0,0.0,1,0.5,1,2.125,0,0,0,0,0,0,0,0,0,,,,,0,60,60,60,,,,,,,,,532.0995652079982,532.0995652079982,532.0995652079982,532.0995652079982,532.0995652079982,532.0995652079982,532.0995652079982,532.0995652079982,532.0786660413318,532.0995652079982,532.0995652079982,532.0995652079982,532.0786660413318,532.0995652079982,532.0995652079982,532.0995652079982,534.2142472079995,538.2379062499986,532.0995652079982,532.0995652079982,537.2360662919982,532.5814467079999,533.6003487079997,534.2142472079995,535.2183188749987,532.0995652079982,532.0995652079982,532.0953327079984,532.0995652079982,532.0995652079982,532.0995652079982,532.0953327079984,532.0995652079982,532.0995652079982,537.2360662919982,532.0995652079982,537.2360662919982,537.3183513749991,537.9456099579984,532.0995652079982,2,1,0.790719208000155,reldom2_s040,001,2025-03-19_17h54.59.341,Vis-A-Scan_AC,2022.2.5,None,
0,0.0,None,fixation,stimulus/viswhat_stim/blank_white.png,stimulus/viswhat_stim/blank_white.png,stimulus/viswhere_stim/blank_white.png,stimulus/viswhere_stim/blank_white.png,stimulus/viswhat_stim/blank_white.png,stimulus/viswhat_stim/blank_white.png,stimulus/viswhat_stim/blank_white.png,stimulus/viswhat_stim/blank_white.png,0.0,0.0,0.0,0.0,0,0.0,0,0.0,0,0.0,0,0.0,0,0.0,0.0,0,0.0,0,0.0,0,0.0,0,0.0,0,0,0,0,0,0,0,0,9,,,,,0,61,61,61,,,,,,,,,538.2379062499986,538.2379062499986,538.2379062499986,538.2379062499986,538.2379062499986,538.2379062499986,538.2379062499986,538.2379062499986,538.1398294583317,538.2379062499986,538.2379062499986,538.2379062499986,538.1398294583317,538.2379062499986,538.2379062499986,538.2379062499986,538.2379062499986,538.2379062499986,538.2379062499986,538.2379062499986,538.2379062499986,538.2379062499986,538.2379062499986,538.2379062499986,538.2379062499986,538.2379062499986,538.2379062499986,538.1898294583317,538.2379062499986,538.2379062499986,538.2379062499986,538.1898294583317,538.2379062499986,538.2379062499986,538.2379062499986,538.2379062499986,538.2379062499986,543.4391057499997,543.4391057499997,547.368314207999,None,0,,reldom2_s040,001,2025-03-19_17h54.59.341,Vis-A-Scan_AC,2022.2.5,None,
47,Second_Order,8.0,viswhere,stimulus/viswhere_stim/120-deg_dot-left_goldenrod.png,stimulus/viswhere_stim/120-deg_dot-right_seagreen.png,stimulus/viswhere_stim/90-deg_dot-left_peru.png,stimulus/viswhere_stim/90-deg_dot-right_turquoise.png,stimulus/viswhat_stim/match_blank.png,stimulus/viswhat_stim/match_box.png,stimulus/viswhat_stim/match_yes.png,stimulus/viswhat_stim/match_no.png,1.0,Match,Line,Line,1,5.125,0,5.125,0,5.125,0,5.125,0,0.75,0.75,1,0.5,1,2.125,1,0.5,1,2.125,0,0,0,0,0,0,0,0,0,,,,,0,62,62,62,,,,,,,,,547.368314207999,552.4852944579998,547.8400619999993,548.838308208,549.473038832999,550.462185041999,547.368314207999,547.368314207999,547.3814220413316,547.368314207999,547.368314207999,547.368314207999,547.3814220413316,547.368314207999,552.4852944579998,553.2776292919989,555.3616899169992,559.2476431249997,553.2776292919989,553.2776292919989,558.4151352079989,553.7266071249996,554.7468518749993,555.3616899169992,556.371812292,553.2776292919989,553.2776292919989,553.2511793753315,553.2776292919989,553.2776292919989,553.2776292919989,553.2511793753315,553.2776292919989,553.2776292919989,558.4151352079989,553.2776292919989,558.4151352079989,558.4706090419986,559.2476431249997,553.2776292919989,1,1,0.608322791998944,reldom2_s040,001,2025-03-19_17h54.59.341,Vis-A-Scan_AC,2022.2.5,None,
48,Second_Order,8.0,viswhere,stimulus/viswhere_stim/150-deg_dot-right_salmon.png,stimulus/viswhere_stim/90-deg_dot-right_cyan.png,stimulus/viswhere_stim/60-deg_dot-left_mediumslateblue.png,stimulus/viswhere_stim/30-deg_dot-left_turquoise.png,stimulus/viswhat_stim/match_blank.png,stimulus/viswhat_stim/match_box.png,stimulus/viswhat_stim/match_yes.png,stimulus/viswhat_stim/match_no.png,1.0,Match,Dot,Dot,1,5.125,0,5.125,0,5.125,0,5.125,0,0.625,0.625,1,0.5,1,2.125,1,0.5,1,2.125,0,0,0,0,0,0,0,0,0,,,,,0,63,63,63,,,,,,,,,559.2476431249997,564.3620283749988,559.7341305829996,560.7325466249986,561.3551197499983,562.3525934579993,559.2476431249997,559.2476431249997,559.2614161669997,559.2476431249997,559.2476431249997,559.2476431249997,559.2614161669997,559.2476431249997,564.3620283749988,565.0318608329999,567.1215164169989,571.1488525419991,565.0318608329999,565.0318608329999,570.1558678329984,565.4983753749984,566.5110430829991,567.1215164169989,568.1256776669998,565.0318608329999,565.0318608329999,565.009110208332,565.0318608329999,565.0318608329999,565.0318608329999,565.009110208332,565.0318608329999,565.0318608329999,570.1558678329984,565.0318608329999,570.1558678329984,570.2246116249989,570.854984874999,565.0318608329999,1,1,0.7183364579996123,reldom2_s040,001,2025-03-19_17h54.59.341,Vis-A-Scan_AC,2022.2.5,None,
0,0.0,None,fixation,stimulus/viswhat_stim/blank_white.png,stimulus/viswhat_stim/blank_white.png,stimulus/viswhere_stim/blank_white.png,stimulus/viswhere_stim/blank_white.png,stimulus/viswhat_stim/blank_white.png,stimulus/viswhat_stim/blank_white.png,stimulus/viswhat_stim/blank_white.png,stimulus/viswhat_stim/blank_white.png,0.0,0.0,0.0,0.0,0,0.0,0,0.0,0,0.0,0,0.0,0,0.0,0.0,0,0.0,0,0.0,0,0.0,0,0.0,0,0,0,0,0,0,0,0,16,,,,,0,64,64,64,,,,,,,,,571.1488525419991,571.1488525419991,571.1488525419991,571.1488525419991,571.1488525419991,571.1488525419991,571.1488525419991,571.1488525419991,571.048882458333,571.1488525419991,571.1488525419991,571.1488525419991,571.048882458333,571.1488525419991,571.1488525419991,571.1488525419991,571.1488525419991,571.1488525419991,571.1488525419991,571.1488525419991,571.1488525419991,571.1488525419991,571.1488525419991,571.1488525419991,571.1488525419991,571.1488525419991,571.1488525419991,571.0988824583329,571.1488525419991,571.1488525419991,571.1488525419991,571.0988824583329,571.1488525419991,571.1488525419991,571.1488525419991,571.1488525419991,571.1488525419991,576.3515085419986,576.3515085419986,587.2722081669999,None,0,,reldom2_s040,001,2025-03-19_17h54.59.341,Vis-A-Scan_AC,2022.2.5,None,
