Trial,Order,Block,Type,Stimuli_File1,Stimuli_File2,Stimuli_File3,Stimuli_File4,Cue_File1,Cue_File2,Response_File_Yes,Response_File_No,Match,Cue_Dimension,Pair1_Dimension,Pair2_Dimension,Key,Cue1_Duration,Cue1_Onset,Cue2_Duration,Cue2_Onset,ResponseYes_Duration,ResponseYes_Onset,ResponseNo_Duration,ResponseNo_Onset,ITI_Within,ITI_Between,Image1_Duration,Image1_Onset,Image2_Duration,Image2_Onset,Image3_Duration,Image3_Onset,Image4_Duration,Image4_Onset,Sound1_Duration,Sound1_Onset,Sound2_Duration,Sound2_Onset,Sound3_Duration,Sound3_Onset,Sound4_Duration,Sound4_Onset,Fixation_Duration,trials_2.thisRepN,trials_2.thisTrialN,trials_2.thisN,trials_2.thisIndex,trials.thisRepN,trials.thisTrialN,trials.thisN,trials.thisIndex,text_start.started,key_resp_start.started,key_resp_start.keys,key_resp_start.rt,text2.started,key_resp_2.started,key_resp_2.keys,key_resp_2.rt,cue_file1.started,cue_file1.stopped,image_1.started,image_1.stopped,image_2.started,image_2.stopped,sound_icon1.started,sound_icon1.stopped,sound_1.started,sound_1.stopped,sound_icon2.started,sound_icon2.stopped,sound_2.started,sound_2.stopped,image_blank_1.started,image_blank_1.stopped,key_press.started,key_press.stopped,fixation_text.started,cue_file2.started,cue_file2.stopped,image_3.started,image_3.stopped,image_4.started,image_4.stopped,sound_icon3.started,sound_icon3.stopped,sound_3.started,sound_3.stopped,sound_icon4.started,sound_icon4.stopped,sound_4.started,sound_4.stopped,response_yes.started,response_yes.stopped,response_no.started,response_no.stopped,iti_blank.started,iti_blank.stopped,fixation_text.stopped,key_press.keys,key_press.corr,key_press.rt,participant,session,date,expName,psychopyVersion,frameRate,
,,,,,,,,,,,,,,,,,,,,,,,,,,,,,,,,,,,,,,,,,,,,,,,,,,,,6.972289833996911,6.972289833996911,2,0.5404722910025157,,,,,,,,,,,,,,,,,,,,,,,,,,,,,,,,,,,,,,,,,,,,,,,,reldom2_s038,001,2025-03-06_13h47.47.732,What-A-Scan_AC,2022.2.5,None,
,,,,,,,,,,,,,,,,,,,,,,,,,,,,,,,,,,,,,,,,,,,,0,0,0,0,,,,,,,,,7.5404690420255065,7.5404690420255065,5,17.584161415987182,,,,,,,,,,,,,,,,,,,,,,,,,,,,,,,,,,,,,,,,,,,,reldom2_s038,001,2025-03-06_13h47.47.732,What-A-Scan_AC,2022.2.5,None,
,,,,,,,,,,,,,,,,,,,,,,,,,,,,,,,,,,,,,,,,,,,,1,0,1,0,,,,,,,,,25.140402875025757,25.140402875025757,5,1.9832624159753323,,,,,,,,,,,,,,,,,,,,,,,,,,,,,,,,,,,,,,,,,,,,reldom2_s038,001,2025-03-06_13h47.47.732,What-A-Scan_AC,2022.2.5,None,
,,,,,,,,,,,,,,,,,,,,,,,,,,,,,,,,,,,,,,,,,,,,2,0,2,0,,,,,,,,,27.136965750018135,27.136965750018135,5,1.9908797499956563,,,,,,,,,,,,,,,,,,,,,,,,,,,,,,,,,,,,,,,,,,,,reldom2_s038,001,2025-03-06_13h47.47.732,What-A-Scan_AC,2022.2.5,None,
,,,,,,,,,,,,,,,,,,,,,,,,,,,,,,,,,,,,,,,,,,,,3,0,3,0,,,,,,,,,29.14190041704569,29.14190041704569,5,1.982229790999554,,,,,,,,,,,,,,,,,,,,,,,,,,,,,,,,,,,,,,,,,,,,reldom2_s038,001,2025-03-06_13h47.47.732,What-A-Scan_AC,2022.2.5,None,
0,0.0,None,fixation,stimulus/audwhat_stim/blank_white.png,stimulus/audwhat_stim/blank_white.png,stimulus/viswhat_stim/blank_white.png,stimulus/viswhat_stim/blank_white.png,stimulus/audwhat_stim/blank_white.png,stimulus/audwhat_stim/blank_white.png,stimulus/audwhat_stim/blank_white.png,stimulus/audwhat_stim/blank_white.png,0.0,0.0,0.0,0.0,0,0.0,0,0.0,0,0.0,0,0.0,0,0.0,0.0,0,0.0,0,0.0,0,0.0,0,0.0,0,0.0,0,0.0,0,0.0,0,0.0,16,,,,,0,0,0,0,,,,,,,,,31.34274216700578,31.34274216700578,31.34274216700578,31.34274216700578,31.34274216700578,31.34274216700578,31.34274216700578,31.34274216700578,31.24693083370027,31.34274216700578,31.34274216700578,31.34274216700578,31.24693083370027,31.34274216700578,31.34274216700578,31.34274216700578,31.34274216700578,31.34274216700578,31.34274216700578,31.34274216700578,31.34274216700578,31.34274216700578,31.34274216700578,31.34274216700578,31.34274216700578,31.34274216700578,31.34274216700578,31.296930833700266,31.34274216700578,31.34274216700578,31.34274216700578,31.296930833700266,31.34274216700578,31.34274216700578,31.34274216700578,31.34274216700578,31.34274216700578,36.52826824999647,36.52826824999647,47.5469003750477,None,0,,reldom2_s038,001,2025-03-06_13h47.47.732,What-A-Scan_AC,2022.2.5,None,
1,First_Order,1.0,audwhat,stimulus/audwhat_stim/dummy.wav,stimulus/audwhat_stim/dummy.wav,stimulus/audwhat_stim/percussion mallet_low-pitch_Dtri_loud.wav,stimulus/audwhat_stim/percussion xylophone_high-pitch_F_loud.wav,stimulus/audwhat_stim/blank_white.png,stimulus/audwhat_stim/pitch_box.png,stimulus/audwhat_stim/pitch_yes.png,stimulus/audwhat_stim/pitch_no.png,None,Pitch,None,Category,2,0.0,0,5.125,0,5.125,0,5.125,0,0.0,0.625,0,0.0,0,0.0,0,0.0,0,0.0,0,0.0,0,0.0,1,0.5,1,2.125,0,,,,,0,1,1,1,,,,,,,,,47.5469003750477,47.5469003750477,47.5469003750477,47.5469003750477,47.5469003750477,47.5469003750477,47.5469003750477,47.5469003750477,47.477025500009766,47.5469003750477,47.5469003750477,47.5469003750477,47.477025500009766,47.5469003750477,47.5469003750477,47.5469003750477,49.66321500000777,,47.5469003750477,47.5469003750477,52.729276709025726,47.5469003750477,47.5469003750477,47.5469003750477,47.5469003750477,47.998545875016134,49.03185291704722,47.9699010417137,,49.66321500000777,50.69999983400339,49.63483595865934,50.69999983400339,47.5469003750477,52.729276709025726,47.5469003750477,52.729276709025726,52.76955283404095,53.44360516703455,47.5469003750477,2,1,1.5681964999530464,reldom2_s038,001,2025-03-06_13h47.47.732,What-A-Scan_AC,2022.2.5,None,
2,First_Order,1.0,audwhat,stimulus/audwhat_stim/dummy.wav,stimulus/audwhat_stim/dummy.wav,stimulus/audwhat_stim/percussion xylophone_high-pitch_Dtri_loud.wav,stimulus/audwhat_stim/percussion mallet_low-pitch_D_loud.wav,stimulus/audwhat_stim/blank_white.png,stimulus/audwhat_stim/pitch_box.png,stimulus/audwhat_stim/pitch_yes.png,stimulus/audwhat_stim/pitch_no.png,None,Pitch,None,Category,2,0.0,0,5.125,0,5.125,0,5.125,0,0.0,0.625,0,0.0,0,0.0,0,0.0,0,0.0,0,0.0,0,0.0,1,0.5,1,2.125,0,,,,,0,2,2,2,,,,,,,,,53.65193841699511,53.65193841699511,53.65193841699511,53.65193841699511,53.65193841699511,53.65193841699511,53.65193841699511,53.65193841699511,53.57693850036788,53.65193841699511,53.65193841699511,53.65193841699511,53.57693850036788,53.65193841699511,53.65193841699511,53.65193841699511,55.73429195903009,,53.65193841699511,53.65193841699511,58.818669667001814,53.65193841699511,53.65193841699511,53.65193841699511,53.65193841699511,54.10419962502783,55.14496912504546,54.075471375665316,55.14496912504546,55.73429195903009,56.7782344170264,55.70536237571311,,53.65193841699511,58.818669667001814,53.65193841699511,58.818669667001814,58.85892062500352,59.53903116704896,53.65193841699511,2,1,0.7437925409758464,reldom2_s038,001,2025-03-06_13h47.47.732,What-A-Scan_AC,2022.2.5,None,
3,First_Order,1.0,audwhat,stimulus/audwhat_stim/dummy.wav,stimulus/audwhat_stim/dummy.wav,stimulus/audwhat_stim/percussion mallet_low-pitch_F_loud.wav,stimulus/audwhat_stim/percussion xylophone_high-pitch_Ftri_loud.wav,stimulus/audwhat_stim/blank_white.png,stimulus/audwhat_stim/category_box.png,stimulus/audwhat_stim/category_yes.png,stimulus/audwhat_stim/category_no.png,None,Category,None,Category,1,0.0,0,5.125,0,5.125,0,5.125,0,0.0,0.625,0,0.0,0,0.0,0,0.0,0,0.0,0,0.0,0,0.0,1,0.5,1,2.125,0,,,,,0,3,3,3,,,,,,,,,59.74730512499809,59.74730512499809,59.74730512499809,59.74730512499809,59.74730512499809,59.74730512499809,59.74730512499809,59.74730512499809,59.672364500382294,59.74730512499809,59.74730512499809,59.74730512499809,59.672364500382294,59.74730512499809,59.74730512499809,59.74730512499809,61.85034875001293,,59.74730512499809,59.74730512499809,64.92054733401164,59.74730512499809,59.74730512499809,59.74730512499809,59.74730512499809,60.20536445901962,61.256879042019136,60.17587654170735,,61.85034875001293,62.90849487500964,61.82089437568017,62.862470959022176,59.74730512499809,64.92054733401164,59.74730512499809,64.92054733401164,64.96143887500511,65.64481675002025,59.74730512499809,2,0,0.80350116599584,reldom2_s038,001,2025-03-06_13h47.47.732,What-A-Scan_AC,2022.2.5,None,
4,First_Order,1.0,audwhat,stimulus/audwhat_stim/dummy.wav,stimulus/audwhat_stim/dummy.wav,stimulus/audwhat_stim/percussion mallet_low-pitch_Dtri_loud.wav,stimulus/audwhat_stim/percussion mallet_high-pitch_F_loud.wav,stimulus/audwhat_stim/blank_white.png,stimulus/audwhat_stim/category_box.png,stimulus/audwhat_stim/category_yes.png,stimulus/audwhat_stim/category_no.png,None,Category,None,Category,1,0.0,0,5.125,0,5.125,0,5.125,0,0.0,0.625,0,0.0,0,0.0,0,0.0,0,0.0,0,0.0,0,0.0,1,0.5,1,2.125,0,,,,,0,4,4,4,,,,,,,,,65.85345154203242,65.85345154203242,65.85345154203242,65.85345154203242,65.85345154203242,65.85345154203242,65.85345154203242,65.85345154203242,65.77815008335358,65.85345154203242,65.85345154203242,65.85345154203242,65.77815008335358,65.85345154203242,65.85345154203242,65.85345154203242,67.96269379201112,71.99689908401342,65.85345154203242,65.85345154203242,71.03945220902096,65.85345154203242,65.85345154203242,65.85345154203242,65.85345154203242,66.31076179200318,67.36734425002942,66.28155675070981,,67.96269379201112,69.02210762503091,67.93288745871202,,65.85345154203242,71.03945220902096,65.85345154203242,71.03945220902096,71.08036679204088,71.7668160420144,65.85345154203242,1,1,2.215234582021367,reldom2_s038,001,2025-03-06_13h47.47.732,What-A-Scan_AC,2022.2.5,None,
0,0.0,None,fixation,stimulus/audwhat_stim/blank_white.png,stimulus/audwhat_stim/blank_white.png,stimulus/viswhat_stim/blank_white.png,stimulus/viswhat_stim/blank_white.png,stimulus/audwhat_stim/blank_white.png,stimulus/audwhat_stim/blank_white.png,stimulus/audwhat_stim/blank_white.png,stimulus/audwhat_stim/blank_white.png,0.0,0.0,0.0,0.0,0,0.0,0,0.0,0,0.0,0,0.0,0,0.0,0.0,0,0.0,0,0.0,0,0.0,0,0.0,0,0.0,0,0.0,0,0.0,0,0.0,10,,,,,0,5,5,5,,,,,,,,,71.99689908401342,71.99689908401342,71.99689908401342,71.99689908401342,71.99689908401342,71.99689908401342,71.99689908401342,71.99689908401342,71.90014937534772,71.99689908401342,71.99689908401342,71.99689908401342,71.90014937534772,71.99689908401342,71.99689908401342,71.99689908401342,71.99689908401342,71.99689908401342,71.99689908401342,71.99689908401342,71.99689908401342,71.99689908401342,71.99689908401342,71.99689908401342,71.99689908401342,71.99689908401342,71.99689908401342,71.95014937534773,71.99689908401342,71.99689908401342,71.99689908401342,71.95014937534773,71.99689908401342,71.99689908401342,71.99689908401342,71.99689908401342,71.99689908401342,77.22054962499533,77.22054962499533,82.12658758403268,None,0,,reldom2_s038,001,2025-03-06_13h47.47.732,What-A-Scan_AC,2022.2.5,None,
5,Second_Order,1.0,audwhat,stimulus/audwhat_stim/string cello_low-pitch_D_loud.wav,stimulus/audwhat_stim/string viola_high-pitch_Dtri_loud.wav,stimulus/audwhat_stim/percussion mallet_low-pitch_D_loud.wav,stimulus/audwhat_stim/string viola_low-pitch_D_loud.wav,stimulus/audwhat_stim/match_blank.png,stimulus/audwhat_stim/match_box.png,stimulus/audwhat_stim/match_yes.png,stimulus/audwhat_stim/match_no.png,2.0,Match,Category,Pitch,2,5.125,0,5.125,0,5.125,0,5.125,0,0.75,0.75,0,0.0,0,0.0,0,0.0,0,0.0,1,0.5,1,2.125,1,0.5,1,2.125,0,,,,,0,6,6,6,,,,,,,,,82.12658758403268,87.25040633400204,82.12658758403268,82.12658758403268,82.12658758403268,82.12658758403268,82.58447254204657,83.57094662502641,82.59868112567734,,84.20697308401577,85.20510645903414,84.2193126666864,,87.25040633400204,88.11520687502343,90.17500387504697,,88.11520687502343,88.11520687502343,93.26962283399189,88.11520687502343,88.11520687502343,88.11520687502343,88.11520687502343,88.5276844589971,89.58109566703206,88.49855550070448,,90.17500387504697,91.23429666704033,90.14536495868039,,88.11520687502343,93.26962283399189,88.11520687502343,93.26962283399189,93.26962283399189,,88.11520687502343,2,1,0.8179177489946596,reldom2_s038,001,2025-03-06_13h47.47.732,What-A-Scan_AC,2022.2.5,None,
6,Second_Order,1.0,audwhat,stimulus/audwhat_stim/string cello_high-pitch_Dtri_loud.wav,stimulus/audwhat_stim/percussion mallet_high-pitch_Dtri_loud.wav,stimulus/audwhat_stim/percussion mallet_low-pitch_Ftri_loud.wav,stimulus/audwhat_stim/string cello_low-pitch_Ftri_loud.wav,stimulus/audwhat_stim/match_blank.png,stimulus/audwhat_stim/match_box.png,stimulus/audwhat_stim/match_yes.png,stimulus/audwhat_stim/match_no.png,1.0,Match,Pitch,Pitch,1,5.125,0,5.125,0,5.125,0,5.125,0,0.625,0.625,0,0.0,0,0.0,0,0.0,0,0.0,1,0.5,1,2.125,1,0.5,1,2.125,0,,,,,0,7,7,7,,,,,,,,,94.0783341670176,99.19249191699782,94.0783341670176,94.0783341670176,94.0783341670176,94.0783341670176,94.5296520840493,95.51596058404539,94.5428263756951,,96.16370437503792,97.15332662500441,96.16679954168309,97.15332662500441,99.19249191699782,99.92365066701313,101.96264645899646,106.02123300003586,99.92365066701313,99.92365066701313,105.1114719590405,99.92365066701313,99.92365066701313,99.92365066701313,99.92365066701313,100.373605959001,101.41878900001757,100.34540391667203,,101.96264645899646,103.01394000003347,101.93343179166938,,99.92365066701313,105.1114719590405,99.92365066701313,105.1114719590405,105.1114719590405,105.79418250004528,99.92365066701313,1,1,0.6437024989281781,reldom2_s038,001,2025-03-06_13h47.47.732,What-A-Scan_AC,2022.2.5,None,
0,0.0,None,fixation,stimulus/audwhat_stim/blank_white.png,stimulus/audwhat_stim/blank_white.png,stimulus/viswhat_stim/blank_white.png,stimulus/viswhat_stim/blank_white.png,stimulus/audwhat_stim/blank_white.png,stimulus/audwhat_stim/blank_white.png,stimulus/audwhat_stim/blank_white.png,stimulus/audwhat_stim/blank_white.png,0.0,0.0,0.0,0.0,0,0.0,0,0.0,0,0.0,0,0.0,0,0.0,0.0,0,0.0,0,0.0,0,0.0,0,0.0,0,0.0,0,0.0,0,0.0,0,0.0,9,,,,,0,8,8,8,,,,,,,,,106.02123300003586,106.02123300003586,106.02123300003586,106.02123300003586,106.02123300003586,106.02123300003586,106.02123300003586,106.02123300003586,105.9275158333786,106.02123300003586,106.02123300003586,106.02123300003586,105.9275158333786,106.02123300003586,106.02123300003586,106.02123300003586,106.02123300003586,106.02123300003586,106.02123300003586,106.02123300003586,106.02123300003586,106.02123300003586,106.02123300003586,106.02123300003586,106.02123300003586,106.02123300003586,106.02123300003586,105.97751583337862,106.02123300003586,106.02123300003586,106.02123300003586,105.97751583337862,106.02123300003586,106.02123300003586,106.02123300003586,106.02123300003586,106.02123300003586,111.23138079204364,111.23138079204364,115.26410216704244,None,0,,reldom2_s038,001,2025-03-06_13h47.47.732,What-A-Scan_AC,2022.2.5,None,
7,First_Order,2.0,audwhat,stimulus/audwhat_stim/dummy.wav,stimulus/audwhat_stim/dummy.wav,stimulus/audwhat_stim/string cello_low-pitch_F_loud.wav,stimulus/audwhat_stim/percussion mallet_low-pitch_F_loud.wav,stimulus/audwhat_stim/blank_white.png,stimulus/audwhat_stim/pitch_box.png,stimulus/audwhat_stim/pitch_yes.png,stimulus/audwhat_stim/pitch_no.png,None,Pitch,None,Pitch,1,0.0,0,5.125,0,5.125,0,5.125,0,0.0,0.625,0,0.0,0,0.0,0,0.0,0,0.0,0,0.0,0,0.0,1,0.5,1,2.125,0,,,,,0,9,9,9,,,,,,,,,115.26410216704244,115.26410216704244,115.26410216704244,115.26410216704244,115.26410216704244,115.26410216704244,115.26410216704244,115.26410216704244,115.18994379169696,115.26410216704244,115.26410216704244,115.26410216704244,115.18994379169696,115.26410216704244,115.26410216704244,115.26410216704244,117.35232291702414,,115.26410216704244,115.26410216704244,120.44810858403798,115.26410216704244,115.26410216704244,115.26410216704244,115.26410216704244,115.73159199999645,116.79822825000156,115.70124750066704,,117.35232291702414,118.41726887499681,117.32290583366218,,115.26410216704244,120.44810858403798,115.26410216704244,120.44810858403798,120.48902941704728,121.14498029201059,115.26410216704244,1,1,0.6135258329450153,reldom2_s038,001,2025-03-06_13h47.47.732,What-A-Scan_AC,2022.2.5,None,
8,First_Order,2.0,audwhat,stimulus/audwhat_stim/dummy.wav,stimulus/audwhat_stim/dummy.wav,stimulus/audwhat_stim/string cello_low-pitch_Dtri_loud.wav,stimulus/audwhat_stim/percussion mallet_low-pitch_Dtri_loud.wav,stimulus/audwhat_stim/blank_white.png,stimulus/audwhat_stim/category_box.png,stimulus/audwhat_stim/category_yes.png,stimulus/audwhat_stim/category_no.png,None,Category,None,Pitch,2,0.0,0,5.125,0,5.125,0,5.125,0,0.0,0.625,0,0.0,0,0.0,0,0.0,0,0.0,0,0.0,0,0.0,1,0.5,1,2.125,0,,,,,0,10,10,10,,,,,,,,,121.35871270904317,121.35871270904317,121.35871270904317,121.35871270904317,121.35871270904317,121.35871270904317,121.35871270904317,121.35871270904317,121.27831362534391,121.35871270904317,121.35871270904317,121.35871270904317,121.27831362534391,121.35871270904317,121.35871270904317,121.35871270904317,123.42952195904218,127.47727587504778,121.35871270904317,121.35871270904317,126.51933141704649,121.35871270904317,121.35871270904317,121.35871270904317,121.35871270904317,121.83082470903173,122.86395900003845,121.80127258366362,,123.42952195904218,124.46358425001381,123.3999208337084,,121.35871270904317,126.51933141704649,121.35871270904317,126.51933141704649,126.56102570903022,127.22068470902741,121.35871270904317,2,1,0.5370157909346744,reldom2_s038,001,2025-03-06_13h47.47.732,What-A-Scan_AC,2022.2.5,None,
9,First_Order,2.0,audwhat,stimulus/audwhat_stim/dummy.wav,stimulus/audwhat_stim/dummy.wav,stimulus/audwhat_stim/string cello_high-pitch_F_loud.wav,stimulus/audwhat_stim/percussion mallet_high-pitch_F_loud.wav,stimulus/audwhat_stim/blank_white.png,stimulus/audwhat_stim/pitch_box.png,stimulus/audwhat_stim/pitch_yes.png,stimulus/audwhat_stim/pitch_no.png,None,Pitch,None,Pitch,1,0.0,0,5.125,0,5.125,0,5.125,0,0.0,0.625,0,0.0,0,0.0,0,0.0,0,0.0,0,0.0,0,0.0,1,0.5,1,2.125,0,,,,,0,11,11,11,,,,,,,,,127.47727587504778,127.47727587504778,127.47727587504778,127.47727587504778,127.47727587504778,127.47727587504778,127.47727587504778,127.47727587504778,127.3958285423306,127.47727587504778,127.47727587504778,127.47727587504778,127.3958285423306,127.47727587504778,127.47727587504778,127.47727587504778,129.55392354202922,133.60136470902944,127.47727587504778,127.47727587504778,132.64338745904388,127.47727587504778,127.47727587504778,127.47727587504778,127.47727587504778,127.95239658403443,128.98463908402482,127.92111008370217,,129.55392354202922,130.58712991699576,129.52254700067377,,127.47727587504778,132.64338745904388,127.47727587504778,132.64338745904388,132.6851347089978,133.3455115419929,127.47727587504778,1,1,0.5549469160032459,reldom2_s038,001,2025-03-06_13h47.47.732,What-A-Scan_AC,2022.2.5,None,
10,First_Order,2.0,audwhat,stimulus/audwhat_stim/dummy.wav,stimulus/audwhat_stim/dummy.wav,stimulus/audwhat_stim/percussion xylophone_high-pitch_D_loud.wav,stimulus/audwhat_stim/string cello_high-pitch_D_loud.wav,stimulus/audwhat_stim/blank_white.png,stimulus/audwhat_stim/category_box.png,stimulus/audwhat_stim/category_yes.png,stimulus/audwhat_stim/category_no.png,None,Category,None,Pitch,2,0.0,0,5.125,0,5.125,0,5.125,0,0.0,0.625,0,0.0,0,0.0,0,0.0,0,0.0,0,0.0,0,0.0,1,0.5,1,2.125,0,,,,,0,12,12,12,,,,,,,,,133.60136470902944,133.60136470902944,133.60136470902944,133.60136470902944,133.60136470902944,133.60136470902944,133.60136470902944,133.60136470902944,133.5193875833376,133.60136470902944,133.60136470902944,133.60136470902944,133.5193875833376,133.60136470902944,133.60136470902944,133.60136470902944,135.6949999590288,,133.60136470902944,133.60136470902944,138.76449183403747,133.60136470902944,133.60136470902944,133.60136470902944,133.60136470902944,134.06635550002102,135.1360430420027,134.03596541670075,135.0887943750131,135.6949999590288,136.76726141700055,135.66475608369026,,133.60136470902944,138.76449183403747,133.60136470902944,138.76449183403747,138.80517808400327,139.45793337502982,133.60136470902944,2,1,1.0467959989910014,reldom2_s038,001,2025-03-06_13h47.47.732,What-A-Scan_AC,2022.2.5,None,
0,0.0,None,fixation,stimulus/audwhat_stim/blank_white.png,stimulus/audwhat_stim/blank_white.png,stimulus/viswhat_stim/blank_white.png,stimulus/viswhat_stim/blank_white.png,stimulus/audwhat_stim/blank_white.png,stimulus/audwhat_stim/blank_white.png,stimulus/audwhat_stim/blank_white.png,stimulus/audwhat_stim/blank_white.png,0.0,0.0,0.0,0.0,0,0.0,0,0.0,0,0.0,0,0.0,0,0.0,0.0,0,0.0,0,0.0,0,0.0,0,0.0,0,0.0,0,0.0,0,0.0,0,0.0,10,,,,,0,13,13,13,,,,,,,,,139.73078087501926,139.73078087501926,139.73078087501926,139.73078087501926,139.73078087501926,139.73078087501926,139.73078087501926,139.73078087501926,139.63233929235335,139.73078087501926,139.73078087501926,139.73078087501926,139.63233929235335,139.73078087501926,139.73078087501926,139.73078087501926,139.73078087501926,139.73078087501926,139.73078087501926,139.73078087501926,139.73078087501926,139.73078087501926,139.73078087501926,139.73078087501926,139.73078087501926,139.73078087501926,139.73078087501926,139.68233929235333,139.73078087501926,139.73078087501926,139.73078087501926,139.68233929235333,139.73078087501926,139.73078087501926,139.73078087501926,139.73078087501926,139.73078087501926,144.96037149999756,144.96037149999756,149.85982395900646,None,0,,reldom2_s038,001,2025-03-06_13h47.47.732,What-A-Scan_AC,2022.2.5,None,
11,Second_Order,2.0,audwhat,stimulus/audwhat_stim/string viola_high-pitch_D_loud.wav,stimulus/audwhat_stim/percussion xylophone_high-pitch_D_loud.wav,stimulus/audwhat_stim/percussion mallet_low-pitch_F_loud.wav,stimulus/audwhat_stim/string viola_low-pitch_F_loud.wav,stimulus/audwhat_stim/match_blank.png,stimulus/audwhat_stim/match_box.png,stimulus/audwhat_stim/match_yes.png,stimulus/audwhat_stim/match_no.png,1.0,Match,Pitch,Pitch,1,5.125,0,5.125,0,5.125,0,5.125,0,0.75,0.75,0,0.0,0,0.0,0,0.0,0,0.0,1,0.5,1,2.125,1,0.5,1,2.125,0,,,,,0,14,14,14,,,,,,,,,149.85982395900646,154.98312520899344,149.85982395900646,149.85982395900646,149.85982395900646,149.85982395900646,150.30841412500013,151.2950096250279,150.32226845866924,,151.94332729204325,152.9323854999966,151.94638520869583,152.9452645840356,154.98312520899344,155.83352958399337,157.8972857920453,161.83008570899256,155.83352958399337,155.83352958399337,160.98185366700636,155.83352958399337,155.83352958399337,155.83352958399337,155.83352958399337,156.29080775001785,157.34693133400287,156.26120287570328,,157.8972857920453,158.95896116702352,157.8677556666701,,155.83352958399337,160.98185366700636,155.83352958399337,160.98185366700636,161.02253091702005,,155.83352958399337,1,1,0.6094668319565244,reldom2_s038,001,2025-03-06_13h47.47.732,What-A-Scan_AC,2022.2.5,None,
12,Second_Order,2.0,audwhat,stimulus/audwhat_stim/percussion mallet_high-pitch_Dtri_loud.wav,stimulus/audwhat_stim/string viola_high-pitch_Dtri_loud.wav,stimulus/audwhat_stim/string viola_low-pitch_Dtri_loud.wav,stimulus/audwhat_stim/percussion mallet_low-pitch_Dtri_loud.wav,stimulus/audwhat_stim/match_blank.png,stimulus/audwhat_stim/match_box.png,stimulus/audwhat_stim/match_yes.png,stimulus/audwhat_stim/match_no.png,1.0,Match,Pitch,Pitch,1,5.125,0,5.125,0,5.125,0,5.125,0,0.625,0.625,0,0.0,0,0.0,0,0.0,0,0.0,1,0.5,1,2.125,1,0.5,1,2.125,0,,,,,0,15,15,15,,,,,,,,,161.83008570899256,166.94866258400725,161.83008570899256,161.83008570899256,161.83008570899256,161.83008570899256,162.28787012503017,163.2854715840076,162.30002304166945,,163.9084236670169,164.90581204200862,163.92096412566414,,166.94866258400725,167.6780412500375,169.73106787499273,,167.6780412500375,167.6780412500375,172.85699104203377,167.6780412500375,167.6780412500375,167.6780412500375,167.6780412500375,168.13260870904196,169.1809760420001,168.10336208367178,,169.73106787499273,170.79419620899716,169.70166537567664,,167.6780412500375,172.85699104203377,167.6780412500375,172.85699104203377,172.85699104203377,173.54442454199307,167.6780412500375,1,1,1.0571288739447482,reldom2_s038,001,2025-03-06_13h47.47.732,What-A-Scan_AC,2022.2.5,None,
0,0.0,None,fixation,stimulus/audwhat_stim/blank_white.png,stimulus/audwhat_stim/blank_white.png,stimulus/viswhat_stim/blank_white.png,stimulus/viswhat_stim/blank_white.png,stimulus/audwhat_stim/blank_white.png,stimulus/audwhat_stim/blank_white.png,stimulus/audwhat_stim/blank_white.png,stimulus/audwhat_stim/blank_white.png,0.0,0.0,0.0,0.0,0,0.0,0,0.0,0,0.0,0,0.0,0,0.0,0.0,0,0.0,0,0.0,0,0.0,0,0.0,0,0.0,0,0.0,0,0.0,0,0.0,8,,,,,0,16,16,16,,,,,,,,,173.77406345901545,173.77406345901545,173.77406345901545,173.77406345901545,173.77406345901545,173.77406345901545,173.77406345901545,173.77406345901545,173.67775787532642,173.77406345901545,173.77406345901545,173.77406345901545,173.67775787532642,173.77406345901545,173.77406345901545,173.77406345901545,173.77406345901545,173.77406345901545,173.77406345901545,173.77406345901545,173.77406345901545,173.77406345901545,173.77406345901545,173.77406345901545,173.77406345901545,173.77406345901545,173.77406345901545,173.7277578753264,173.77406345901545,173.77406345901545,173.77406345901545,173.7277578753264,173.77406345901545,173.77406345901545,173.77406345901545,173.77406345901545,173.77406345901545,178.95992133399704,178.95992133399704,182.1364781250013,None,0,,reldom2_s038,001,2025-03-06_13h47.47.732,What-A-Scan_AC,2022.2.5,None,
13,First_Order,3.0,viswhat,stimulus/viswhat_stim/blank_white.png,stimulus/viswhat_stim/blank_white.png,stimulus/viswhat_stim/water_vehicle-cruiseship.png,stimulus/viswhat_stim/land_vehicle-pickuptruck.png,stimulus/viswhat_stim/blank_white.png,stimulus/viswhat_stim/type_box.png,stimulus/viswhat_stim/type_yes.png,stimulus/viswhat_stim/type_no.png,None,Type,None,Type,1,0.0,0,5.125,0,5.125,0,5.125,0,0.0,0.625,0,0.0,0,0.0,1,0.5,1,2.125,0,0.0,0,0.0,0,0.0,0,0.0,0,,,,,0,17,17,17,,,,,,,,,182.1364781250013,182.1364781250013,182.1364781250013,182.1364781250013,182.1364781250013,182.1364781250013,182.1364781250013,182.1364781250013,181.94274066666065,182.1364781250013,182.1364781250013,182.1364781250013,181.94274066666065,182.1364781250013,182.1364781250013,182.1364781250013,184.16254279203713,,182.1364781250013,182.1364781250013,187.3446138750296,182.52227912499802,183.68145262502367,184.16254279203713,185.32336179201957,182.1364781250013,182.1364781250013,182.04274066666065,182.1364781250013,182.1364781250013,182.1364781250013,182.04274066666065,182.1364781250013,182.1364781250013,187.3446138750296,182.1364781250013,187.3446138750296,187.3446138750296,,182.1364781250013,1,1,1.0906915820087306,reldom2_s038,001,2025-03-06_13h47.47.732,What-A-Scan_AC,2022.2.5,None,
14,First_Order,3.0,viswhat,stimulus/viswhat_stim/blank_white.png,stimulus/viswhat_stim/blank_white.png,stimulus/viswhat_stim/water_animal-lobster.png,stimulus/viswhat_stim/water_vehicle-cruiseship.png,stimulus/viswhat_stim/blank_white.png,stimulus/viswhat_stim/location_box.png,stimulus/viswhat_stim/location_yes.png,stimulus/viswhat_stim/location_no.png,None,Location,None,Location,1,0.0,0,5.125,0,5.125,0,5.125,0,0.0,0.625,0,0.0,0,0.0,1,0.5,1,2.125,0,0.0,0,0.0,0,0.0,0,0.0,0,,,,,0,18,18,18,,,,,,,,,188.5660391250276,188.5660391250276,188.5660391250276,188.5660391250276,188.5660391250276,188.5660391250276,188.5660391250276,188.5660391250276,188.12311620835294,188.5660391250276,188.5660391250276,188.5660391250276,188.12311620835294,188.5660391250276,188.5660391250276,188.5660391250276,190.55060208402574,,188.5660391250276,188.5660391250276,194.07460462499876,189.00698579201708,190.33012291701743,190.55060208402574,191.87539279204793,188.5660391250276,188.5660391250276,188.35644954168626,188.5660391250276,188.5660391250276,188.5660391250276,188.35644954168626,188.5660391250276,188.5660391250276,194.07460462499876,188.5660391250276,194.07460462499876,193.63968966703396,,188.5660391250276,1,1,0.6982289579464123,reldom2_s038,001,2025-03-06_13h47.47.732,What-A-Scan_AC,2022.2.5,None,
15,First_Order,3.0,viswhat,stimulus/viswhat_stim/blank_white.png,stimulus/viswhat_stim/blank_white.png,stimulus/viswhat_stim/water_vehicle-cruiseship.png,stimulus/viswhat_stim/land_vehicle-bus.png,stimulus/viswhat_stim/blank_white.png,stimulus/viswhat_stim/location_box.png,stimulus/viswhat_stim/location_yes.png,stimulus/viswhat_stim/location_no.png,None,Location,None,Type,2,0.0,0,5.125,0,5.125,0,5.125,0,0.0,0.625,0,0.0,0,0.0,1,0.5,1,2.125,0,0.0,0,0.0,0,0.0,0,0.0,0,,,,,0,19,19,19,,,,,,,,,194.75246883404907,194.75246883404907,194.75246883404907,194.75246883404907,194.75246883404907,194.75246883404907,194.75246883404907,194.75246883404907,194.5579379583321,194.75246883404907,194.75246883404907,194.75246883404907,194.5579379583321,194.75246883404907,194.75246883404907,194.75246883404907,196.77142529201228,,194.75246883404907,194.75246883404907,199.99758729204768,195.15797104203375,196.26769204204902,196.77142529201228,197.88382945902413,194.75246883404907,194.75246883404907,194.6579379583321,194.75246883404907,194.75246883404907,194.75246883404907,194.6579379583321,194.75246883404907,194.75246883404907,199.99758729204768,194.75246883404907,199.99758729204768,199.90233450004598,,194.75246883404907,1,0,0.757741040957626,reldom2_s038,001,2025-03-06_13h47.47.732,What-A-Scan_AC,2022.2.5,None,
16,First_Order,3.0,viswhat,stimulus/viswhat_stim/blank_white.png,stimulus/viswhat_stim/blank_white.png,stimulus/viswhat_stim/land_vehicle-oldcar.png,stimulus/viswhat_stim/water_vehicle-pirateship.png,stimulus/viswhat_stim/blank_white.png,stimulus/viswhat_stim/type_box.png,stimulus/viswhat_stim/type_yes.png,stimulus/viswhat_stim/type_no.png,None,Type,None,Type,1,0.0,0,5.125,0,5.125,0,5.125,0,0.0,0.625,0,0.0,0,0.0,1,0.5,1,2.125,0,0.0,0,0.0,0,0.0,0,0.0,0,,,,,0,20,20,20,,,,,,,,,200.79078408400528,200.79078408400528,200.79078408400528,200.79078408400528,200.79078408400528,200.79078408400528,200.79078408400528,200.79078408400528,200.72365591704147,200.79078408400528,200.79078408400528,200.79078408400528,200.72365591704147,200.79078408400528,200.79078408400528,200.79078408400528,202.88825008401182,,200.79078408400528,200.79078408400528,205.9678590419935,201.26227158401161,202.29055279202294,202.88825008401182,203.91580195899587,200.79078408400528,200.79078408400528,200.75698925037483,200.79078408400528,200.79078408400528,200.79078408400528,200.75698925037483,200.79078408400528,200.79078408400528,205.9678590419935,200.79078408400528,205.9678590419935,206.00558104203083,206.6763889589929,200.79078408400528,1,1,1.7097874579485506,reldom2_s038,001,2025-03-06_13h47.47.732,What-A-Scan_AC,2022.2.5,None,
0,0.0,None,fixation,stimulus/audwhat_stim/blank_white.png,stimulus/audwhat_stim/blank_white.png,stimulus/viswhat_stim/blank_white.png,stimulus/viswhat_stim/blank_white.png,stimulus/audwhat_stim/blank_white.png,stimulus/audwhat_stim/blank_white.png,stimulus/audwhat_stim/blank_white.png,stimulus/audwhat_stim/blank_white.png,0.0,0.0,0.0,0.0,0,0.0,0,0.0,0,0.0,0,0.0,0,0.0,0.0,0,0.0,0,0.0,0,0.0,0,0.0,0,0.0,0,0.0,0,0.0,0,0.0,9,,,,,0,21,21,21,,,,,,,,,206.90652495902032,206.90652495902032,206.90652495902032,206.90652495902032,206.90652495902032,206.90652495902032,206.90652495902032,206.90652495902032,206.80972229232626,206.90652495902032,206.90652495902032,206.90652495902032,206.80972229232626,206.90652495902032,206.90652495902032,206.90652495902032,206.90652495902032,206.90652495902032,206.90652495902032,206.90652495902032,206.90652495902032,206.90652495902032,206.90652495902032,206.90652495902032,206.90652495902032,206.90652495902032,206.90652495902032,206.85972229232624,206.90652495902032,206.90652495902032,206.90652495902032,206.85972229232624,206.90652495902032,206.90652495902032,206.90652495902032,206.90652495902032,206.90652495902032,212.09353104204638,212.09353104204638,216.03472641704138,None,0,,reldom2_s038,001,2025-03-06_13h47.47.732,What-A-Scan_AC,2022.2.5,None,
17,Second_Order,3.0,viswhat,stimulus/viswhat_stim/water_animal-shark.png,stimulus/viswhat_stim/water_vehicle-pirateship.png,stimulus/viswhat_stim/water_animal-squid.png,stimulus/viswhat_stim/land_animal-elephant.png,stimulus/audwhat_stim/match_blank.png,stimulus/audwhat_stim/match_box.png,stimulus/audwhat_stim/match_yes.png,stimulus/audwhat_stim/match_no.png,2.0,Match,Location,Type,2,5.125,0,5.125,0,5.125,0,5.125,0,0.75,0.75,1,0.5,1,2.125,1,0.5,1,2.125,0,0.0,0,0.0,0,0.0,0,0.0,0,,,,,0,22,22,22,,,,,,,,,216.03472641704138,221.15229783399263,216.49526125000557,217.49380604200996,218.11658150004223,219.1145039999974,216.03472641704138,216.03472641704138,216.04527450001333,216.03472641704138,216.03472641704138,216.03472641704138,216.04527450001333,216.03472641704138,221.15229783399263,222.04447120899567,224.11235562502407,,222.04447120899567,222.04447120899567,227.24919187504565,222.44355620903661,223.51300258404808,224.11235562502407,225.18602404202102,222.04447120899567,222.04447120899567,221.98752237503652,222.04447120899567,222.04447120899567,222.04447120899567,221.98752237503652,222.04447120899567,222.04447120899567,227.24919187504565,222.04447120899567,227.24919187504565,227.24919187504565,,222.04447120899567,2,1,0.6284839579602703,reldom2_s038,001,2025-03-06_13h47.47.732,What-A-Scan_AC,2022.2.5,None,
18,Second_Order,3.0,viswhat,stimulus/viswhat_stim/land_vehicle-pickuptruck.png,stimulus/viswhat_stim/water_vehicle-pirateship.png,stimulus/viswhat_stim/water_animal-jellyfish.png,stimulus/viswhat_stim/land_animal-snake.png,stimulus/audwhat_stim/match_blank.png,stimulus/audwhat_stim/match_box.png,stimulus/audwhat_stim/match_yes.png,stimulus/audwhat_stim/match_no.png,1.0,Match,Type,Type,1,5.125,0,5.125,0,5.125,0,5.125,0,0.625,0.625,1,0.5,1,2.125,1,0.5,1,2.125,0,0.0,0,0.0,0,0.0,0,0.0,0,,,,,0,23,23,23,,,,,,,,,227.99772416701308,233.11784687504405,228.47153466701275,229.45870474999538,230.09382700000424,231.0920135420165,227.99772416701308,227.99772416701308,228.01128929199186,227.99772416701308,227.99772416701308,227.99772416701308,228.01128929199186,227.99772416701308,233.11784687504405,233.81173691700678,235.87171291699633,239.9239575000247,233.81173691700678,233.81173691700678,238.95655279204948,234.24875925004017,235.26734041702002,235.87171291699633,236.89551491703605,233.81173691700678,233.81173691700678,233.7814582919935,233.81173691700678,233.81173691700678,233.81173691700678,233.7814582919935,233.81173691700678,233.81173691700678,238.95655279204948,233.81173691700678,238.95655279204948,239.00091279204935,239.6374079590314,233.81173691700678,1,1,0.6182609989773482,reldom2_s038,001,2025-03-06_13h47.47.732,What-A-Scan_AC,2022.2.5,None,
0,0.0,None,fixation,stimulus/audwhat_stim/blank_white.png,stimulus/audwhat_stim/blank_white.png,stimulus/viswhat_stim/blank_white.png,stimulus/viswhat_stim/blank_white.png,stimulus/audwhat_stim/blank_white.png,stimulus/audwhat_stim/blank_white.png,stimulus/audwhat_stim/blank_white.png,stimulus/audwhat_stim/blank_white.png,0.0,0.0,0.0,0.0,0,0.0,0,0.0,0,0.0,0,0.0,0,0.0,0.0,0,0.0,0,0.0,0,0.0,0,0.0,0,0.0,0,0.0,0,0.0,0,0.0,8,,,,,0,24,24,24,,,,,,,,,239.9239575000247,239.9239575000247,239.9239575000247,239.9239575000247,239.9239575000247,239.9239575000247,239.9239575000247,239.9239575000247,239.8243609169964,239.9239575000247,239.9239575000247,239.9239575000247,239.8243609169964,239.9239575000247,239.9239575000247,239.9239575000247,239.9239575000247,239.9239575000247,239.9239575000247,239.9239575000247,239.9239575000247,239.9239575000247,239.9239575000247,239.9239575000247,239.9239575000247,239.9239575000247,239.9239575000247,239.87436091699638,239.9239575000247,239.9239575000247,239.9239575000247,239.87436091699638,239.9239575000247,239.9239575000247,239.9239575000247,239.9239575000247,239.9239575000247,245.1320847090101,245.1320847090101,248.15956691704923,None,0,,reldom2_s038,001,2025-03-06_13h47.47.732,What-A-Scan_AC,2022.2.5,None,
19,First_Order,4.0,viswhat,stimulus/viswhat_stim/blank_white.png,stimulus/viswhat_stim/blank_white.png,stimulus/viswhat_stim/land_animal-wolf.png,stimulus/viswhat_stim/water_animal-squid.png,stimulus/viswhat_stim/blank_white.png,stimulus/viswhat_stim/location_box.png,stimulus/viswhat_stim/location_yes.png,stimulus/viswhat_stim/location_no.png,None,Location,None,Type,2,0.0,0,5.125,0,5.125,0,5.125,0,0.0,0.625,0,0.0,0,0.0,1,0.5,1,2.125,0,0.0,0,0.0,0,0.0,0,0.0,0,,,,,0,25,25,25,,,,,,,,,248.15956691704923,248.15956691704923,248.15956691704923,248.15956691704923,248.15956691704923,248.15956691704923,248.15956691704923,248.15956691704923,248.11748033370048,248.15956691704923,248.15956691704923,248.15956691704923,248.11748033370048,248.15956691704923,248.15956691704923,248.15956691704923,250.26061175001087,254.2437826670357,248.15956691704923,248.15956691704923,253.30947150004795,248.64584570901934,249.68349858402507,250.26061175001087,251.30022779200226,248.15956691704923,248.15956691704923,248.13414700036714,248.15956691704923,248.15956691704923,248.15956691704923,248.13414700036714,248.15956691704923,248.15956691704923,253.30947150004795,248.15956691704923,253.30947150004795,253.3838209999958,254.02643295901362,248.15956691704923,2,1,1.8719192909775302,reldom2_s038,001,2025-03-06_13h47.47.732,What-A-Scan_AC,2022.2.5,None,
20,First_Order,4.0,viswhat,stimulus/viswhat_stim/blank_white.png,stimulus/viswhat_stim/blank_white.png,stimulus/viswhat_stim/water_animal-jellyfish.png,stimulus/viswhat_stim/water_vehicle-motorboatraft.png,stimulus/viswhat_stim/blank_white.png,stimulus/viswhat_stim/location_box.png,stimulus/viswhat_stim/location_yes.png,stimulus/viswhat_stim/location_no.png,None,Location,None,Location,1,0.0,0,5.125,0,5.125,0,5.125,0,0.0,0.625,0,0.0,0,0.0,1,0.5,1,2.125,0,0.0,0,0.0,0,0.0,0,0.0,0,,,,,0,26,26,26,,,,,,,,,254.2437826670357,254.2437826670357,254.2437826670357,254.2437826670357,254.2437826670357,254.2437826670357,254.2437826670357,254.2437826670357,254.20045029199684,254.2437826670357,254.2437826670357,254.2437826670357,254.20045029199684,254.2437826670357,254.2437826670357,254.2437826670357,256.3453258750378,,254.2437826670357,254.2437826670357,259.37828208401334,254.70809299999382,255.71971200004919,256.3453258750378,257.3581348340376,254.2437826670357,254.2437826670357,254.2171169586635,254.2437826670357,254.2437826670357,254.2437826670357,254.2171169586635,254.2437826670357,254.2437826670357,259.37828208401334,254.2437826670357,259.37828208401334,259.46506441704696,260.1135678749997,254.2437826670357,1,1,0.8294022489571944,reldom2_s038,001,2025-03-06_13h47.47.732,What-A-Scan_AC,2022.2.5,None,
21,First_Order,4.0,viswhat,stimulus/viswhat_stim/blank_white.png,stimulus/viswhat_stim/blank_white.png,stimulus/viswhat_stim/land_animal-elephant.png,stimulus/viswhat_stim/land_vehicle-buldozer.png,stimulus/viswhat_stim/blank_white.png,stimulus/viswhat_stim/type_box.png,stimulus/viswhat_stim/type_yes.png,stimulus/viswhat_stim/type_no.png,None,Type,None,Location,2,0.0,0,5.125,0,5.125,0,5.125,0,0.0,0.625,0,0.0,0,0.0,1,0.5,1,2.125,0,0.0,0,0.0,0,0.0,0,0.0,0,,,,,0,27,27,27,,,,,,,,,260.4012679590378,260.4012679590378,260.4012679590378,260.4012679590378,260.4012679590378,260.4012679590378,260.4012679590378,260.4012679590378,260.27785837501284,260.4012679590378,260.4012679590378,260.4012679590378,260.27785837501284,260.4012679590378,260.4012679590378,260.4012679590378,262.49936700001126,,260.4012679590378,260.4012679590378,265.63681970903417,260.8884985000477,261.9419049170101,262.49936700001126,263.6188213750138,260.4012679590378,260.4012679590378,260.3445250416795,260.4012679590378,260.4012679590378,260.4012679590378,260.3445250416795,260.4012679590378,260.4012679590378,265.63681970903417,260.4012679590378,265.63681970903417,265.5726787500316,266.4791671670391,260.4012679590378,2,1,0.7432577909785323,reldom2_s038,001,2025-03-06_13h47.47.732,What-A-Scan_AC,2022.2.5,None,
22,First_Order,4.0,viswhat,stimulus/viswhat_stim/blank_white.png,stimulus/viswhat_stim/blank_white.png,stimulus/viswhat_stim/water_animal-shark.png,stimulus/viswhat_stim/water_vehicle-cabincruiser.png,stimulus/viswhat_stim/blank_white.png,stimulus/viswhat_stim/type_box.png,stimulus/viswhat_stim/type_yes.png,stimulus/viswhat_stim/type_no.png,None,Type,None,Location,2,0.0,0,5.125,0,5.125,0,5.125,0,0.0,0.625,0,0.0,0,0.0,1,0.5,1,2.125,0,0.0,0,0.0,0,0.0,0,0.0,0,,,,,0,28,28,28,,,,,,,,,266.4791671670391,266.4791671670391,266.4791671670391,266.4791671670391,266.4791671670391,266.4791671670391,266.4791671670391,266.4791671670391,266.3973237083255,266.4791671670391,266.4791671670391,266.4791671670391,266.3973237083255,266.4791671670391,266.4791671670391,266.4791671670391,268.5785147920251,272.63017125002807,266.4791671670391,266.4791671670391,271.6352320840233,266.95596816699253,268.0078966669971,268.5785147920251,269.63464162504533,266.4791671670391,266.4791671670391,266.4473237083254,266.4791671670391,266.4791671670391,266.4791671670391,266.4473237083254,266.4791671670391,266.4791671670391,271.6352320840233,266.4791671670391,271.6352320840233,271.6774502090411,272.34867425000994,266.4791671670391,2,1,0.6948611249681562,reldom2_s038,001,2025-03-06_13h47.47.732,What-A-Scan_AC,2022.2.5,None,
0,0.0,None,fixation,stimulus/audwhat_stim/blank_white.png,stimulus/audwhat_stim/blank_white.png,stimulus/viswhat_stim/blank_white.png,stimulus/viswhat_stim/blank_white.png,stimulus/audwhat_stim/blank_white.png,stimulus/audwhat_stim/blank_white.png,stimulus/audwhat_stim/blank_white.png,stimulus/audwhat_stim/blank_white.png,0.0,0.0,0.0,0.0,0,0.0,0,0.0,0,0.0,0,0.0,0,0.0,0.0,0,0.0,0,0.0,0,0.0,0,0.0,0,0.0,0,0.0,0,0.0,0,0.0,9,,,,,0,29,29,29,,,,,,,,,272.63017125002807,272.63017125002807,272.63017125002807,272.63017125002807,272.63017125002807,272.63017125002807,272.63017125002807,272.63017125002807,272.5237587083558,272.63017125002807,272.63017125002807,272.63017125002807,272.5237587083558,272.63017125002807,272.63017125002807,272.63017125002807,272.63017125002807,272.63017125002807,272.63017125002807,272.63017125002807,272.63017125002807,272.63017125002807,272.63017125002807,272.63017125002807,272.63017125002807,272.63017125002807,272.63017125002807,272.59042537502245,272.63017125002807,272.63017125002807,272.63017125002807,272.59042537502245,272.63017125002807,272.63017125002807,272.63017125002807,272.63017125002807,272.63017125002807,277.8327905840124,277.8327905840124,281.77160054200795,None,0,,reldom2_s038,001,2025-03-06_13h47.47.732,What-A-Scan_AC,2022.2.5,None,
23,Second_Order,4.0,viswhat,stimulus/viswhat_stim/water_vehicle-canoe(1).png,stimulus/viswhat_stim/land_vehicle-vespa.png,stimulus/viswhat_stim/land_animal-dog.png,stimulus/viswhat_stim/water_animal-jellyfish.png,stimulus/audwhat_stim/match_blank.png,stimulus/audwhat_stim/match_box.png,stimulus/audwhat_stim/match_yes.png,stimulus/audwhat_stim/match_no.png,1.0,Match,Type,Type,1,5.125,0,5.125,0,5.125,0,5.125,0,0.75,0.75,1,0.5,1,2.125,1,0.5,1,2.125,0,0.0,0,0.0,0,0.0,0,0.0,0,,,,,0,30,30,30,,,,,,,,,281.77160054200795,286.89211095904466,282.231033417047,283.2291642090422,283.86814429203514,284.86638300004415,281.77160054200795,281.77160054200795,281.7723900833827,281.77160054200795,281.77160054200795,281.77160054200795,281.7723900833827,281.77160054200795,286.89211095904466,287.70595900004264,289.78865216701524,,287.70595900004264,287.70595900004264,292.8503933750326,288.16306158399675,289.1898581670248,289.78865216701524,290.821998584026,287.70595900004264,287.70595900004264,287.6773409590358,287.70595900004264,287.70595900004264,287.70595900004264,287.6773409590358,287.70595900004264,287.70595900004264,292.8503933750326,287.70595900004264,292.8503933750326,292.8965653339983,,287.70595900004264,1,1,0.5090327909565531,reldom2_s038,001,2025-03-06_13h47.47.732,What-A-Scan_AC,2022.2.5,None,
24,Second_Order,4.0,viswhat,stimulus/viswhat_stim/land_vehicle-tank.png,stimulus/viswhat_stim/water_vehicle-canoe(1).png,stimulus/viswhat_stim/water_animal-orka.png,stimulus/viswhat_stim/water_vehicle-cabincruiser.png,stimulus/audwhat_stim/match_blank.png,stimulus/audwhat_stim/match_box.png,stimulus/audwhat_stim/match_yes.png,stimulus/audwhat_stim/match_no.png,2.0,Match,Type,Location,2,5.125,0,5.125,0,5.125,0,5.125,0,0.625,0.625,1,0.5,1,2.125,1,0.5,1,2.125,0,0.0,0,0.0,0,0.0,0,0.0,0,,,,,0,31,31,31,,,,,,,,,293.6658264590078,298.7867090840009,294.14245266700163,295.1403829170158,295.7748542500194,296.7641460840241,293.6658264590078,293.6658264590078,293.67602587568496,293.6658264590078,293.6658264590078,293.6658264590078,293.67602587568496,293.6658264590078,298.7867090840009,299.5789822920342,301.59265329199843,,299.5789822920342,299.5789822920342,304.7730246250285,299.964572167024,301.04930029204115,301.59265329199843,302.6800732500269,299.5789822920342,299.5789822920342,299.5164513336766,299.5789822920342,299.5789822920342,299.5789822920342,299.5164513336766,299.5789822920342,299.5789822920342,304.7730246250285,299.5789822920342,304.7730246250285,304.7730246250285,,299.5789822920342,2,1,0.9224666240043007,reldom2_s038,001,2025-03-06_13h47.47.732,What-A-Scan_AC,2022.2.5,None,
0,0.0,None,fixation,stimulus/audwhat_stim/blank_white.png,stimulus/audwhat_stim/blank_white.png,stimulus/viswhat_stim/blank_white.png,stimulus/viswhat_stim/blank_white.png,stimulus/audwhat_stim/blank_white.png,stimulus/audwhat_stim/blank_white.png,stimulus/audwhat_stim/blank_white.png,stimulus/audwhat_stim/blank_white.png,0.0,0.0,0.0,0.0,0,0.0,0,0.0,0,0.0,0,0.0,0,0.0,0.0,0,0.0,0,0.0,0,0.0,0,0.0,0,0.0,0,0.0,0,0.0,0,0.0,9,,,,,0,32,32,32,,,,,,,,,305.64759479201166,305.64759479201166,305.64759479201166,305.64759479201166,305.64759479201166,305.64759479201166,305.64759479201166,305.64759479201166,305.5482516670483,305.64759479201166,305.64759479201166,305.64759479201166,305.5482516670483,305.64759479201166,305.64759479201166,305.64759479201166,305.64759479201166,305.64759479201166,305.64759479201166,305.64759479201166,305.64759479201166,305.64759479201166,305.64759479201166,305.64759479201166,305.64759479201166,305.64759479201166,305.64759479201166,305.5982516670483,305.64759479201166,305.64759479201166,305.64759479201166,305.5982516670483,305.64759479201166,305.64759479201166,305.64759479201166,305.64759479201166,305.64759479201166,310.86717966699507,310.86717966699507,314.8899378339993,None,0,,reldom2_s038,001,2025-03-06_13h47.47.732,What-A-Scan_AC,2022.2.5,None,
25,First_Order,5.0,audwhat,stimulus/audwhat_stim/dummy.wav,stimulus/audwhat_stim/dummy.wav,stimulus/audwhat_stim/string cello_low-pitch_Dtri_loud.wav,stimulus/audwhat_stim/percussion mallet_low-pitch_Dtri_loud.wav,stimulus/audwhat_stim/blank_white.png,stimulus/audwhat_stim/pitch_box.png,stimulus/audwhat_stim/pitch_yes.png,stimulus/audwhat_stim/pitch_no.png,None,Pitch,None,Pitch,1,0.0,0,5.125,0,5.125,0,5.125,0,0.0,0.625,0,0.0,0,0.0,0,0.0,0,0.0,0,0.0,0,0.0,1,0.5,1,2.125,0,,,,,0,33,33,33,,,,,,,,,314.8899378339993,314.8899378339993,314.8899378339993,314.8899378339993,314.8899378339993,314.8899378339993,314.8899378339993,314.8899378339993,314.8192397506597,314.8899378339993,314.8899378339993,314.8899378339993,314.8192397506597,314.8899378339993,314.8899378339993,314.8899378339993,316.97223750001285,,314.8899378339993,314.8899378339993,320.0811697920435,314.8899378339993,314.8899378339993,314.8899378339993,314.8899378339993,315.3541017920361,316.4171297090361,315.3252157506688,,316.97223750001285,318.0418530420284,316.9425159586865,,314.8899378339993,320.0811697920435,314.8899378339993,320.0811697920435,320.0811697920435,320.73675595904933,314.8899378339993,1,1,0.9980975409853272,reldom2_s038,001,2025-03-06_13h47.47.732,What-A-Scan_AC,2022.2.5,None,
26,First_Order,5.0,audwhat,stimulus/audwhat_stim/dummy.wav,stimulus/audwhat_stim/dummy.wav,stimulus/audwhat_stim/string cello_low-pitch_F_loud.wav,stimulus/audwhat_stim/percussion mallet_low-pitch_F_loud.wav,stimulus/audwhat_stim/blank_white.png,stimulus/audwhat_stim/pitch_box.png,stimulus/audwhat_stim/pitch_yes.png,stimulus/audwhat_stim/pitch_no.png,None,Pitch,None,Pitch,1,0.0,0,5.125,0,5.125,0,5.125,0,0.0,0.625,0,0.0,0,0.0,0,0.0,0,0.0,0,0.0,0,0.0,1,0.5,1,2.125,0,,,,,0,34,34,34,,,,,,,,,320.98999800003367,320.98999800003367,320.98999800003367,320.98999800003367,320.98999800003367,320.98999800003367,320.98999800003367,320.98999800003367,320.91056370837225,320.98999800003367,320.98999800003367,320.98999800003367,320.91056370837225,320.98999800003367,320.98999800003367,320.98999800003367,323.07567666703835,,320.98999800003367,320.98999800003367,326.14584116701735,320.98999800003367,320.98999800003367,320.98999800003367,320.98999800003367,321.4547216670471,322.5205092920223,321.42501120869224,,323.07567666703835,324.15070579200983,323.0456395006661,,320.98999800003367,326.14584116701735,320.98999800003367,326.14584116701735,326.18676662503276,326.839914375043,320.98999800003367,1,1,0.662235749012325,reldom2_s038,001,2025-03-06_13h47.47.732,What-A-Scan_AC,2022.2.5,None,
27,First_Order,5.0,audwhat,stimulus/audwhat_stim/dummy.wav,stimulus/audwhat_stim/dummy.wav,stimulus/audwhat_stim/string cello_high-pitch_D_loud.wav,stimulus/audwhat_stim/percussion mallet_high-pitch_D_loud.wav,stimulus/audwhat_stim/blank_white.png,stimulus/audwhat_stim/category_box.png,stimulus/audwhat_stim/category_yes.png,stimulus/audwhat_stim/category_no.png,None,Category,None,Pitch,2,0.0,0,5.125,0,5.125,0,5.125,0,0.0,0.625,0,0.0,0,0.0,0,0.0,0,0.0,0,0.0,0,0.0,1,0.5,1,2.125,0,,,,,0,35,35,35,,,,,,,,,327.0948881250224,327.0948881250224,327.0948881250224,327.0948881250224,327.0948881250224,327.0948881250224,327.0948881250224,327.0948881250224,327.0138120003704,327.0948881250224,327.0948881250224,327.0948881250224,327.0138120003704,327.0948881250224,327.0948881250224,327.0948881250224,329.2031707499991,,327.0948881250224,327.0948881250224,332.285915125045,327.0948881250224,327.0948881250224,327.0948881250224,327.0948881250224,327.56511533400044,328.64094379200833,327.5348395417134,,329.2031707499991,330.2341928750393,329.172997958671,,327.0948881250224,332.285915125045,327.0948881250224,332.285915125045,332.285915125045,332.9422756670392,327.0948881250224,2,1,0.7903325820225291,reldom2_s038,001,2025-03-06_13h47.47.732,What-A-Scan_AC,2022.2.5,None,
28,First_Order,5.0,audwhat,stimulus/audwhat_stim/dummy.wav,stimulus/audwhat_stim/dummy.wav,stimulus/audwhat_stim/percussion mallet_low-pitch_Ftri_loud.wav,stimulus/audwhat_stim/percussion mallet_high-pitch_F_loud.wav,stimulus/audwhat_stim/blank_white.png,stimulus/audwhat_stim/category_box.png,stimulus/audwhat_stim/category_yes.png,stimulus/audwhat_stim/category_no.png,None,Category,None,Category,1,0.0,0,5.125,0,5.125,0,5.125,0,0.0,0.625,0,0.0,0,0.0,0,0.0,0,0.0,0,0.0,0,0.0,1,0.5,1,2.125,0,,,,,0,36,36,36,,,,,,,,,333.19951437501004,333.19951437501004,333.19951437501004,333.19951437501004,333.19951437501004,333.19951437501004,333.19951437501004,333.19951437501004,333.1167558753824,333.19951437501004,333.19951437501004,333.19951437501004,333.1167558753824,333.19951437501004,333.19951437501004,333.19951437501004,335.29918541701045,,333.19951437501004,333.19951437501004,338.3855640840484,333.19951437501004,333.19951437501004,333.19951437501004,333.19951437501004,333.664370292041,334.73706633399706,333.63417362567657,,335.29918541701045,336.3308574590483,335.26873879169966,,333.19951437501004,338.3855640840484,333.19951437501004,338.3855640840484,338.42694554204354,339.08094879204873,333.19951437501004,1,1,0.8833226249553263,reldom2_s038,001,2025-03-06_13h47.47.732,What-A-Scan_AC,2022.2.5,None,
0,0.0,None,fixation,stimulus/audwhat_stim/blank_white.png,stimulus/audwhat_stim/blank_white.png,stimulus/viswhat_stim/blank_white.png,stimulus/viswhat_stim/blank_white.png,stimulus/audwhat_stim/blank_white.png,stimulus/audwhat_stim/blank_white.png,stimulus/audwhat_stim/blank_white.png,stimulus/audwhat_stim/blank_white.png,0.0,0.0,0.0,0.0,0,0.0,0,0.0,0,0.0,0,0.0,0,0.0,0.0,0,0.0,0,0.0,0,0.0,0,0.0,0,0.0,0,0.0,0,0.0,0,0.0,8,,,,,0,37,37,37,,,,,,,,,339.3161367920111,339.3161367920111,339.3161367920111,339.3161367920111,339.3161367920111,339.3161367920111,339.3161367920111,339.3161367920111,339.21428212538206,339.3161367920111,339.3161367920111,339.3161367920111,339.21428212538206,339.3161367920111,339.3161367920111,339.3161367920111,339.3161367920111,339.3161367920111,339.3161367920111,339.3161367920111,339.3161367920111,339.3161367920111,339.3161367920111,339.3161367920111,339.3161367920111,339.3161367920111,339.3161367920111,339.26428212538207,339.3161367920111,339.3161367920111,339.3161367920111,339.26428212538207,339.3161367920111,339.3161367920111,339.3161367920111,339.3161367920111,339.3161367920111,344.5215104170493,344.5215104170493,347.4624351669918,None,0,,reldom2_s038,001,2025-03-06_13h47.47.732,What-A-Scan_AC,2022.2.5,None,
29,Second_Order,5.0,audwhat,stimulus/audwhat_stim/percussion xylophone_high-pitch_Dtri_loud.wav,stimulus/audwhat_stim/percussion mallet_low-pitch_Ftri_loud.wav,stimulus/audwhat_stim/string viola_high-pitch_Ftri_loud.wav,stimulus/audwhat_stim/string viola_low-pitch_Dtri_loud.wav,stimulus/audwhat_stim/match_blank.png,stimulus/audwhat_stim/match_box.png,stimulus/audwhat_stim/match_yes.png,stimulus/audwhat_stim/match_no.png,1.0,Match,Category,Category,1,5.125,0,5.125,0,5.125,0,5.125,0,0.75,0.75,0,0.0,0,0.0,0,0.0,0,0.0,1,0.5,1,2.125,1,0.5,1,2.125,0,,,,,0,38,38,38,,,,,,,,,347.4624351669918,352.57751420902787,347.4624351669918,347.4624351669918,347.4624351669918,347.4624351669918,347.91442945902236,348.90114041703055,347.92832883366304,348.9178811670281,349.5364957090351,350.53460587502923,349.549226250678,,352.57751420902787,353.4245968339965,355.5094439170207,,353.4245968339965,353.4245968339965,358.6188283340307,353.4245968339965,353.4245968339965,353.4245968339965,353.4245968339965,353.8856142500299,354.95221987500554,353.8559065836637,,355.5094439170207,356.57734145899303,355.4794944587086,,353.4245968339965,358.6188283340307,353.4245968339965,358.6188283340307,358.6188283340307,,353.4245968339965,1,1,0.6062361240037717,reldom2_s038,001,2025-03-06_13h47.47.732,What-A-Scan_AC,2022.2.5,None,
30,Second_Order,5.0,audwhat,stimulus/audwhat_stim/percussion mallet_low-pitch_F_loud.wav,stimulus/audwhat_stim/percussion mallet_high-pitch_Ftri_loud.wav,stimulus/audwhat_stim/string viola_low-pitch_F_loud.wav,stimulus/audwhat_stim/string viola_high-pitch_Ftri_loud.wav,stimulus/audwhat_stim/match_blank.png,stimulus/audwhat_stim/match_box.png,stimulus/audwhat_stim/match_yes.png,stimulus/audwhat_stim/match_no.png,1.0,Match,Category,Category,1,5.125,0,5.125,0,5.125,0,5.125,0,0.625,0.625,0,0.0,0,0.0,0,0.0,0,0.0,1,0.5,1,2.125,1,0.5,1,2.125,0,,,,,0,39,39,39,,,,,,,,,359.39122466702247,364.5050112089957,359.39122466702247,359.39122466702247,359.39122466702247,359.39122466702247,359.84378612501314,360.84187070903135,359.8559564166974,,361.46439237502636,362.4622839590302,361.4765210417138,,364.5050112089957,365.23393829201814,367.30576162500074,,365.23393829201814,365.23393829201814,370.40638987504644,365.23393829201814,365.23393829201814,365.23393829201814,365.23393829201814,365.6919319170411,366.750583874993,365.6622852917101,,367.30576162500074,368.3731452920474,367.27623079170394,,365.23393829201814,370.40638987504644,365.23393829201814,370.40638987504644,370.40638987504644,371.05934141704347,365.23393829201814,1,1,0.5925537910079584,reldom2_s038,001,2025-03-06_13h47.47.732,What-A-Scan_AC,2022.2.5,None,
0,0.0,None,fixation,stimulus/audwhat_stim/blank_white.png,stimulus/audwhat_stim/blank_white.png,stimulus/viswhat_stim/blank_white.png,stimulus/viswhat_stim/blank_white.png,stimulus/audwhat_stim/blank_white.png,stimulus/audwhat_stim/blank_white.png,stimulus/audwhat_stim/blank_white.png,stimulus/audwhat_stim/blank_white.png,0.0,0.0,0.0,0.0,0,0.0,0,0.0,0,0.0,0,0.0,0,0.0,0.0,0,0.0,0,0.0,0,0.0,0,0.0,0,0.0,0,0.0,0,0.0,0,0.0,9,,,,,0,40,40,40,,,,,,,,,371.33383420901373,371.33383420901373,371.33383420901373,371.33383420901373,371.33383420901373,371.33383420901373,371.33383420901373,371.33383420901373,371.2337429173368,371.33383420901373,371.33383420901373,371.33383420901373,371.2337429173368,371.33383420901373,371.33383420901373,371.33383420901373,371.33383420901373,371.33383420901373,371.33383420901373,371.33383420901373,371.33383420901373,371.33383420901373,371.33383420901373,371.33383420901373,371.33383420901373,371.33383420901373,371.33383420901373,371.28374291733684,371.33383420901373,371.33383420901373,371.33383420901373,371.28374291733684,371.33383420901373,371.33383420901373,371.33383420901373,371.33383420901373,371.33383420901373,376.5581627089996,376.5581627089996,380.58204325003317,None,0,,reldom2_s038,001,2025-03-06_13h47.47.732,What-A-Scan_AC,2022.2.5,None,
31,First_Order,6.0,audwhat,stimulus/audwhat_stim/dummy.wav,stimulus/audwhat_stim/dummy.wav,stimulus/audwhat_stim/string viola_high-pitch_F_loud.wav,stimulus/audwhat_stim/percussion xylophone_high-pitch_F_loud.wav,stimulus/audwhat_stim/blank_white.png,stimulus/audwhat_stim/category_box.png,stimulus/audwhat_stim/category_yes.png,stimulus/audwhat_stim/category_no.png,None,Category,None,Pitch,2,0.0,0,5.125,0,5.125,0,5.125,0,0.0,0.625,0,0.0,0,0.0,0,0.0,0,0.0,0,0.0,0,0.0,1,0.5,1,2.125,0,,,,,0,41,41,41,,,,,,,,,380.58204325003317,380.58204325003317,380.58204325003317,380.58204325003317,380.58204325003317,380.58204325003317,380.58204325003317,380.58204325003317,380.5088416256864,380.58204325003317,380.58204325003317,380.58204325003317,380.5088416256864,380.58204325003317,380.58204325003317,380.58204325003317,382.67786983400583,386.70480979204876,380.58204325003317,380.58204325003317,385.7547916670446,380.58204325003317,380.58204325003317,380.58204325003317,380.58204325003317,381.04678120900644,382.1203628340154,381.0168002086614,,382.67786983400583,383.7524289590074,382.64760904165837,383.70566829200834,380.58204325003317,385.7547916670446,380.58204325003317,385.7547916670446,385.79553379199933,386.4498133750167,380.58204325003317,2,1,1.6094437909778208,reldom2_s038,001,2025-03-06_13h47.47.732,What-A-Scan_AC,2022.2.5,None,
32,First_Order,6.0,audwhat,stimulus/audwhat_stim/dummy.wav,stimulus/audwhat_stim/dummy.wav,stimulus/audwhat_stim/percussion mallet_high-pitch_F_loud.wav,stimulus/audwhat_stim/percussion mallet_low-pitch_D_loud.wav,stimulus/audwhat_stim/blank_white.png,stimulus/audwhat_stim/pitch_box.png,stimulus/audwhat_stim/pitch_yes.png,stimulus/audwhat_stim/pitch_no.png,None,Pitch,None,Category,2,0.0,0,5.125,0,5.125,0,5.125,0,0.0,0.625,0,0.0,0,0.0,0,0.0,0,0.0,0,0.0,0,0.0,1,0.5,1,2.125,0,,,,,0,42,42,42,,,,,,,,,386.70480979204876,386.70480979204876,386.70480979204876,386.70480979204876,386.70480979204876,386.70480979204876,386.70480979204876,386.70480979204876,386.62422941732996,386.70480979204876,386.70480979204876,386.70480979204876,386.62422941732996,386.70480979204876,386.70480979204876,386.70480979204876,388.79832029202953,,386.70480979204876,386.70480979204876,391.8636260839994,386.70480979204876,386.70480979204876,386.70480979204876,386.70480979204876,387.1719047499937,388.2414995839936,387.1405296666819,,388.79832029202953,389.8716495000408,388.7682928756733,,386.70480979204876,391.8636260839994,386.70480979204876,391.8636260839994,391.90506095904857,392.56013900000835,386.70480979204876,2,1,0.4716891659772955,reldom2_s038,001,2025-03-06_13h47.47.732,What-A-Scan_AC,2022.2.5,None,
33,First_Order,6.0,audwhat,stimulus/audwhat_stim/dummy.wav,stimulus/audwhat_stim/dummy.wav,stimulus/audwhat_stim/string cello_high-pitch_D_loud.wav,stimulus/audwhat_stim/string cello_low-pitch_Dtri_loud.wav,stimulus/audwhat_stim/blank_white.png,stimulus/audwhat_stim/category_box.png,stimulus/audwhat_stim/category_yes.png,stimulus/audwhat_stim/category_no.png,None,Category,None,Category,1,0.0,0,5.125,0,5.125,0,5.125,0,0.0,0.625,0,0.0,0,0.0,0,0.0,0,0.0,0,0.0,0,0.0,1,0.5,1,2.125,0,,,,,0,43,43,43,,,,,,,,,392.81471466703806,392.81471466703806,392.81471466703806,392.81471466703806,392.81471466703806,392.81471466703806,392.81471466703806,392.81471466703806,392.73410045835965,392.81471466703806,392.81471466703806,392.81471466703806,392.73410045835965,392.81471466703806,392.81471466703806,392.81471466703806,394.914234417025,398.9420476250234,392.81471466703806,392.81471466703806,397.9915993750328,392.81471466703806,392.81471466703806,392.81471466703806,392.81471466703806,393.28339062503073,394.3555920420331,393.25302254170333,,394.914234417025,395.98855095903855,394.8838551256961,,392.81471466703806,397.9915993750328,392.81471466703806,397.9915993750328,398.03294708399335,398.688257834001,392.81471466703806,1,1,0.5763056239811704,reldom2_s038,001,2025-03-06_13h47.47.732,What-A-Scan_AC,2022.2.5,None,
34,First_Order,6.0,audwhat,stimulus/audwhat_stim/dummy.wav,stimulus/audwhat_stim/dummy.wav,stimulus/audwhat_stim/string cello_high-pitch_F_loud.wav,stimulus/audwhat_stim/string viola_low-pitch_Ftri_loud.wav,stimulus/audwhat_stim/blank_white.png,stimulus/audwhat_stim/pitch_box.png,stimulus/audwhat_stim/pitch_yes.png,stimulus/audwhat_stim/pitch_no.png,None,Pitch,None,Category,2,0.0,0,5.125,0,5.125,0,5.125,0,0.0,0.625,0,0.0,0,0.0,0,0.0,0,0.0,0,0.0,0,0.0,1,0.5,1,2.125,0,,,,,0,44,44,44,,,,,,,,,398.9420476250234,398.9420476250234,398.9420476250234,398.9420476250234,398.9420476250234,398.9420476250234,398.9420476250234,398.9420476250234,398.86256633335336,398.9420476250234,398.9420476250234,398.9420476250234,398.86256633335336,398.9420476250234,398.9420476250234,398.9420476250234,401.0321191250114,,398.9420476250234,398.9420476250234,404.10284000000684,398.9420476250234,398.9420476250234,398.9420476250234,398.9420476250234,399.40935775003163,400.47752754203975,399.37950654171095,,401.0321191250114,402.10492304200307,401.00187908369503,,398.9420476250234,404.10284000000684,398.9420476250234,404.10284000000684,404.14414629200473,404.79850316699594,398.9420476250234,2,1,1.1529666239512153,reldom2_s038,001,2025-03-06_13h47.47.732,What-A-Scan_AC,2022.2.5,None,
0,0.0,None,fixation,stimulus/audwhat_stim/blank_white.png,stimulus/audwhat_stim/blank_white.png,stimulus/viswhat_stim/blank_white.png,stimulus/viswhat_stim/blank_white.png,stimulus/audwhat_stim/blank_white.png,stimulus/audwhat_stim/blank_white.png,stimulus/audwhat_stim/blank_white.png,stimulus/audwhat_stim/blank_white.png,0.0,0.0,0.0,0.0,0,0.0,0,0.0,0,0.0,0,0.0,0,0.0,0.0,0,0.0,0,0.0,0,0.0,0,0.0,0,0.0,0,0.0,0,0.0,0,0.0,10,,,,,0,45,45,45,,,,,,,,,405.07264054199914,405.07264054199914,405.07264054199914,405.07264054199914,405.07264054199914,405.07264054199914,405.07264054199914,405.07264054199914,404.9728422923673,405.07264054199914,405.07264054199914,405.07264054199914,404.9728422923673,405.07264054199914,405.07264054199914,405.07264054199914,405.07264054199914,405.07264054199914,405.07264054199914,405.07264054199914,405.07264054199914,405.07264054199914,405.07264054199914,405.07264054199914,405.07264054199914,405.07264054199914,405.07264054199914,405.02284229236733,405.07264054199914,405.07264054199914,405.07264054199914,405.02284229236733,405.07264054199914,405.07264054199914,405.07264054199914,405.07264054199914,405.07264054199914,410.2763494590181,410.2763494590181,415.25031783402665,None,0,,reldom2_s038,001,2025-03-06_13h47.47.732,What-A-Scan_AC,2022.2.5,None,
35,Second_Order,6.0,audwhat,stimulus/audwhat_stim/percussion xylophone_high-pitch_D_loud.wav,stimulus/audwhat_stim/string viola_high-pitch_D_loud.wav,stimulus/audwhat_stim/percussion mallet_high-pitch_Dtri_loud.wav,stimulus/audwhat_stim/percussion mallet_low-pitch_D_loud.wav,stimulus/audwhat_stim/match_blank.png,stimulus/audwhat_stim/match_box.png,stimulus/audwhat_stim/match_yes.png,stimulus/audwhat_stim/match_no.png,2.0,Match,Pitch,Category,2,5.125,0,5.125,0,5.125,0,5.125,0,0.75,0.75,0,0.0,0,0.0,0,0.0,0,0.0,1,0.5,1,2.125,1,0.5,1,2.125,0,,,,,0,46,46,46,,,,,,,,,415.25031783402665,420.36695420899196,415.25031783402665,415.25031783402665,415.25031783402665,415.25031783402665,415.70388229202945,416.6907332499977,415.71822200069823,416.7076062920387,417.3270693750237,418.32460462499876,417.3388462087062,,420.36695420899196,421.2179305420141,423.2632095000008,,421.2179305420141,421.2179305420141,426.4122287920327,421.2179305420141,421.2179305420141,421.2179305420141,421.2179305420141,421.63381312502315,422.7034132920089,421.6038197916971,,423.2632095000008,424.3305811670143,423.2328979166962,,421.2179305420141,426.4122287920327,421.2179305420141,426.4122287920327,426.4122287920327,,421.2179305420141,2,1,0.5185295409755781,reldom2_s038,001,2025-03-06_13h47.47.732,What-A-Scan_AC,2022.2.5,None,
36,Second_Order,6.0,audwhat,stimulus/audwhat_stim/percussion mallet_high-pitch_Dtri_loud.wav,stimulus/audwhat_stim/string viola_high-pitch_Dtri_loud.wav,stimulus/audwhat_stim/string cello_high-pitch_Dtri_loud.wav,stimulus/audwhat_stim/string viola_low-pitch_F_loud.wav,stimulus/audwhat_stim/match_blank.png,stimulus/audwhat_stim/match_box.png,stimulus/audwhat_stim/match_yes.png,stimulus/audwhat_stim/match_no.png,2.0,Match,Pitch,Category,2,5.125,0,5.125,0,5.125,0,5.125,0,0.625,0.625,0,0.0,0,0.0,0,0.0,0,0.0,1,0.5,1,2.125,1,0.5,1,2.125,0,,,,,0,47,47,47,,,,,,,,,427.18580404203385,432.30723879201105,427.18580404203385,427.18580404203385,427.18580404203385,427.18580404203385,427.63245295902016,428.6191149590304,427.6455175837075,,429.2664298340096,430.25608637504047,429.2706411666625,,432.30723879201105,433.0423789170454,435.1140219999943,,433.0423789170454,433.0423789170454,438.2107478750404,433.0423789170454,433.0423789170454,433.0423789170454,433.0423789170454,433.4553262920235,434.5149577090051,433.4255705417056,,435.1140219999943,436.1823837920092,435.0842326256718,,433.0423789170454,438.2107478750404,433.0423789170454,438.2107478750404,438.2107478750404,438.86074604204623,433.0423789170454,2,1,0.7480817489558831,reldom2_s038,001,2025-03-06_13h47.47.732,What-A-Scan_AC,2022.2.5,None,
0,0.0,None,fixation,stimulus/audwhat_stim/blank_white.png,stimulus/audwhat_stim/blank_white.png,stimulus/viswhat_stim/blank_white.png,stimulus/viswhat_stim/blank_white.png,stimulus/audwhat_stim/blank_white.png,stimulus/audwhat_stim/blank_white.png,stimulus/audwhat_stim/blank_white.png,stimulus/audwhat_stim/blank_white.png,0.0,0.0,0.0,0.0,0,0.0,0,0.0,0,0.0,0,0.0,0,0.0,0.0,0,0.0,0,0.0,0,0.0,0,0.0,0,0.0,0,0.0,0,0.0,0,0.0,8,,,,,0,48,48,48,,,,,,,,,439.1346374170389,439.1346374170389,439.1346374170389,439.1346374170389,439.1346374170389,439.1346374170389,439.1346374170389,439.1346374170389,439.03478983332946,439.1346374170389,439.1346374170389,439.1346374170389,439.03478983332946,439.1346374170389,439.1346374170389,439.1346374170389,439.1346374170389,439.1346374170389,439.1346374170389,439.1346374170389,439.1346374170389,439.1346374170389,439.1346374170389,439.1346374170389,439.1346374170389,439.1346374170389,439.1346374170389,439.08478983332947,439.1346374170389,439.1346374170389,439.1346374170389,439.08478983332947,439.1346374170389,439.1346374170389,439.1346374170389,439.1346374170389,439.1346374170389,444.3613304590108,444.3613304590108,447.35305983404396,None,0,,reldom2_s038,001,2025-03-06_13h47.47.732,What-A-Scan_AC,2022.2.5,None,
37,First_Order,7.0,viswhat,stimulus/viswhat_stim/blank_white.png,stimulus/viswhat_stim/blank_white.png,stimulus/viswhat_stim/land_animal-zebra.png,stimulus/viswhat_stim/water_animal-squid.png,stimulus/viswhat_stim/blank_white.png,stimulus/viswhat_stim/type_box.png,stimulus/viswhat_stim/type_yes.png,stimulus/viswhat_stim/type_no.png,None,Type,None,Type,1,0.0,0,5.125,0,5.125,0,5.125,0,0.0,0.625,0,0.0,0,0.0,1,0.5,1,2.125,0,0.0,0,0.0,0,0.0,0,0.0,0,,,,,0,49,49,49,,,,,,,,,447.35305983404396,447.35305983404396,447.35305983404396,447.35305983404396,447.35305983404396,447.35305983404396,447.35305983404396,447.35305983404396,447.30669383370935,447.35305983404396,447.35305983404396,447.35305983404396,447.30669383370935,447.35305983404396,447.35305983404396,447.35305983404396,449.44385116704507,,447.35305983404396,447.35305983404396,452.50079745904077,447.8355664170231,448.86464004201116,449.44385116704507,450.4781288340455,447.35305983404396,447.35305983404396,447.32336050037605,447.35305983404396,447.35305983404396,447.35305983404396,447.32336050037605,447.35305983404396,447.35305983404396,452.50079745904077,447.35305983404396,452.50079745904077,452.5546756670228,453.1935136250104,447.35305983404396,1,1,1.3544202499906532,reldom2_s038,001,2025-03-06_13h47.47.732,What-A-Scan_AC,2022.2.5,None,
38,First_Order,7.0,viswhat,stimulus/viswhat_stim/blank_white.png,stimulus/viswhat_stim/blank_white.png,stimulus/viswhat_stim/water_vehicle-submarine.png,stimulus/viswhat_stim/water_animal-lobster.png,stimulus/viswhat_stim/blank_white.png,stimulus/viswhat_stim/location_box.png,stimulus/viswhat_stim/location_yes.png,stimulus/viswhat_stim/location_no.png,None,Location,None,Location,1,0.0,0,5.125,0,5.125,0,5.125,0,0.0,0.625,0,0.0,0,0.0,1,0.5,1,2.125,0,0.0,0,0.0,0,0.0,0,0.0,0,,,,,0,50,50,50,,,,,,,,,453.6710394170368,453.6710394170368,453.6710394170368,453.6710394170368,453.6710394170368,453.6710394170368,453.6710394170368,453.6710394170368,453.38949875070637,453.6710394170368,453.6710394170368,453.6710394170368,453.38949875070637,453.6710394170368,453.6710394170368,453.6710394170368,455.77360837504966,459.7796291669947,453.6710394170368,453.6710394170368,458.92899937502807,454.1208861670457,455.3226304590353,455.77360837504966,456.97943079203833,453.6710394170368,453.6710394170368,453.5228320840397,453.6710394170368,453.6710394170368,453.6710394170368,453.5228320840397,453.6710394170368,453.6710394170368,458.92899937502807,453.6710394170368,458.92899937502807,458.7847675840021,,453.6710394170368,1,1,0.9503774989861995,reldom2_s038,001,2025-03-06_13h47.47.732,What-A-Scan_AC,2022.2.5,None,
39,First_Order,7.0,viswhat,stimulus/viswhat_stim/blank_white.png,stimulus/viswhat_stim/blank_white.png,stimulus/viswhat_stim/land_vehicle-vespa.png,stimulus/viswhat_stim/water_vehicle-yacht.png,stimulus/viswhat_stim/blank_white.png,stimulus/viswhat_stim/location_box.png,stimulus/viswhat_stim/location_yes.png,stimulus/viswhat_stim/location_no.png,None,Location,None,Type,2,0.0,0,5.125,0,5.125,0,5.125,0,0.0,0.625,0,0.0,0,0.0,1,0.5,1,2.125,0,0.0,0,0.0,0,0.0,0,0.0,0,,,,,0,51,51,51,,,,,,,,,459.7796291669947,459.7796291669947,459.7796291669947,459.7796291669947,459.7796291669947,459.7796291669947,459.7796291669947,459.7796291669947,459.71442875000645,459.7796291669947,459.7796291669947,459.7796291669947,459.71442875000645,459.7796291669947,459.7796291669947,459.7796291669947,461.8776400000206,,459.7796291669947,459.7796291669947,464.9427742920234,460.2418435839936,461.29174804204376,461.8776400000206,462.9313769590226,459.7796291669947,459.7796291669947,459.7477620833398,459.7796291669947,459.7796291669947,459.7796291669947,459.7477620833398,459.7796291669947,459.7796291669947,464.9427742920234,459.7796291669947,464.9427742920234,464.979068167042,465.633658167033,459.7796291669947,2,1,0.8727119989925995,reldom2_s038,001,2025-03-06_13h47.47.732,What-A-Scan_AC,2022.2.5,None,
40,First_Order,7.0,viswhat,stimulus/viswhat_stim/blank_white.png,stimulus/viswhat_stim/blank_white.png,stimulus/viswhat_stim/water_vehicle-canoe.png,stimulus/viswhat_stim/water_animal-whale (1).png,stimulus/viswhat_stim/blank_white.png,stimulus/viswhat_stim/location_box.png,stimulus/viswhat_stim/location_yes.png,stimulus/viswhat_stim/location_no.png,None,Location,None,Location,1,0.0,0,5.125,0,5.125,0,5.125,0,0.0,0.625,0,0.0,0,0.0,1,0.5,1,2.125,0,0.0,0,0.0,0,0.0,0,0.0,0,,,,,0,52,52,52,,,,,,,,,465.8425071670208,465.8425071670208,465.8425071670208,465.8425071670208,465.8425071670208,465.8425071670208,465.8425071670208,465.8425071670208,465.8031798753383,465.8425071670208,465.8425071670208,465.8425071670208,465.8031798753383,465.8425071670208,465.8425071670208,465.8425071670208,467.95584195904667,471.9878422089969,465.8425071670208,465.8425071670208,470.98102412500884,466.3116875840351,467.3402664170135,467.95584195904667,468.9868867089972,465.8425071670208,465.8425071670208,465.81984654200494,465.8425071670208,465.8425071670208,465.8425071670208,465.81984654200494,465.8425071670208,465.8425071670208,470.98102412500884,465.8425071670208,470.98102412500884,471.0519790840335,471.6908642920316,465.8425071670208,1,1,1.159617874014657,reldom2_s038,001,2025-03-06_13h47.47.732,What-A-Scan_AC,2022.2.5,None,
0,0.0,None,fixation,stimulus/audwhat_stim/blank_white.png,stimulus/audwhat_stim/blank_white.png,stimulus/viswhat_stim/blank_white.png,stimulus/viswhat_stim/blank_white.png,stimulus/audwhat_stim/blank_white.png,stimulus/audwhat_stim/blank_white.png,stimulus/audwhat_stim/blank_white.png,stimulus/audwhat_stim/blank_white.png,0.0,0.0,0.0,0.0,0,0.0,0,0.0,0,0.0,0,0.0,0,0.0,0.0,0,0.0,0,0.0,0,0.0,0,0.0,0,0.0,0,0.0,0,0.0,0,0.0,10,,,,,0,53,53,53,,,,,,,,,471.9878422089969,471.9878422089969,471.9878422089969,471.9878422089969,471.9878422089969,471.9878422089969,471.9878422089969,471.9878422089969,471.88502125001975,471.9878422089969,471.9878422089969,471.9878422089969,471.88502125001975,471.9878422089969,471.9878422089969,471.9878422089969,471.9878422089969,471.9878422089969,471.9878422089969,471.9878422089969,471.9878422089969,471.9878422089969,471.9878422089969,471.9878422089969,471.9878422089969,471.9878422089969,471.9878422089969,471.93502125001976,471.9878422089969,471.9878422089969,471.9878422089969,471.93502125001976,471.9878422089969,471.9878422089969,471.9878422089969,471.9878422089969,471.9878422089969,477.20066512504127,477.20066512504127,482.14809854200576,None,0,,reldom2_s038,001,2025-03-06_13h47.47.732,What-A-Scan_AC,2022.2.5,None,
41,Second_Order,7.0,viswhat,stimulus/viswhat_stim/water_vehicle-cruiser.png,stimulus/viswhat_stim/land_vehicle-bus.png,stimulus/viswhat_stim/land_animal-fox.png,stimulus/viswhat_stim/water_animal-dolphin.png,stimulus/audwhat_stim/match_blank.png,stimulus/audwhat_stim/match_box.png,stimulus/audwhat_stim/match_yes.png,stimulus/audwhat_stim/match_no.png,1.0,Match,Type,Type,1,5.125,0,5.125,0,5.125,0,5.125,0,0.75,0.75,1,0.5,1,2.125,1,0.5,1,2.125,0,0.0,0,0.0,0,0.0,0,0.0,0,,,,,0,54,54,54,,,,,,,,,482.14809854200576,487.2726147090434,482.5754772090004,483.5617531670141,484.197829584009,485.1956928750151,482.14809854200576,482.14809854200576,482.16040350035377,482.14809854200576,482.14809854200576,482.14809854200576,482.16040350035377,482.14809854200576,487.2726147090434,488.08208625001134,490.15536087501096,494.0667824590346,488.08208625001134,488.08208625001134,493.21684216702124,488.52941650000867,489.5523169999942,490.15536087501096,491.1656572089996,488.08208625001134,488.08208625001134,488.0563594999956,488.08208625001134,488.08208625001134,488.08208625001134,488.0563594999956,488.08208625001134,488.08208625001134,493.21684216702124,488.08208625001134,493.21684216702124,493.2787354590255,,488.08208625001134,1,1,0.5274153319769539,reldom2_s038,001,2025-03-06_13h47.47.732,What-A-Scan_AC,2022.2.5,None,
42,Second_Order,7.0,viswhat,stimulus/viswhat_stim/water_animal-whale.png,stimulus/viswhat_stim/water_vehicle-ferryboat.png,stimulus/viswhat_stim/land_vehicle-tank.png,stimulus/viswhat_stim/land_animal-wolf.png,stimulus/audwhat_stim/match_blank.png,stimulus/audwhat_stim/match_box.png,stimulus/audwhat_stim/match_yes.png,stimulus/audwhat_stim/match_no.png,1.0,Match,Location,Location,1,5.125,0,5.125,0,5.125,0,5.125,0,0.625,0.625,1,0.5,1,2.125,1,0.5,1,2.125,0,0.0,0,0.0,0,0.0,0,0.0,0,,,,,0,55,55,55,,,,,,,,,494.0667824590346,499.18288354203105,494.53831650002394,495.53649758402025,496.1589428340085,497.1571866250015,494.0667824590346,494.0667824590346,494.0667893336659,494.0667824590346,494.0667824590346,494.0667824590346,494.0667893336659,494.0667824590346,499.18288354203105,499.85755187500035,501.93534091702895,505.9842714590486,499.85755187500035,499.85755187500035,504.9931816669996,500.30440879199887,501.32243087503593,501.93534091702895,502.9573884590063,499.85755187500035,499.85755187500035,499.8294418753435,499.85755187500035,499.85755187500035,499.85755187500035,499.8294418753435,499.85755187500035,499.85755187500035,504.9931816669996,499.85755187500035,504.9931816669996,505.06012829201063,505.6952215839992,499.85755187500035,1,1,0.7497297079535201,reldom2_s038,001,2025-03-06_13h47.47.732,What-A-Scan_AC,2022.2.5,None,
0,0.0,None,fixation,stimulus/audwhat_stim/blank_white.png,stimulus/audwhat_stim/blank_white.png,stimulus/viswhat_stim/blank_white.png,stimulus/viswhat_stim/blank_white.png,stimulus/audwhat_stim/blank_white.png,stimulus/audwhat_stim/blank_white.png,stimulus/audwhat_stim/blank_white.png,stimulus/audwhat_stim/blank_white.png,0.0,0.0,0.0,0.0,0,0.0,0,0.0,0,0.0,0,0.0,0,0.0,0.0,0,0.0,0,0.0,0,0.0,0,0.0,0,0.0,0,0.0,0,0.0,0,0.0,9,,,,,0,56,56,56,,,,,,,,,505.9842714590486,505.9842714590486,505.9842714590486,505.9842714590486,505.9842714590486,505.9842714590486,505.9842714590486,505.9842714590486,505.878628792377,505.9842714590486,505.9842714590486,505.9842714590486,505.878628792377,505.9842714590486,505.9842714590486,505.9842714590486,505.9842714590486,505.9842714590486,505.9842714590486,505.9842714590486,505.9842714590486,505.9842714590486,505.9842714590486,505.9842714590486,505.9842714590486,505.9842714590486,505.9842714590486,505.9452954590437,505.9842714590486,505.9842714590486,505.9842714590486,505.9452954590437,505.9842714590486,505.9842714590486,505.9842714590486,505.9842714590486,505.9842714590486,511.18360516702523,511.18360516702523,515.2009341249941,None,0,,reldom2_s038,001,2025-03-06_13h47.47.732,What-A-Scan_AC,2022.2.5,None,
43,First_Order,8.0,viswhat,stimulus/viswhat_stim/blank_white.png,stimulus/viswhat_stim/blank_white.png,stimulus/viswhat_stim/water_vehicle-canoe.png,stimulus/viswhat_stim/water_animal-octopus.png,stimulus/viswhat_stim/blank_white.png,stimulus/viswhat_stim/type_box.png,stimulus/viswhat_stim/type_yes.png,stimulus/viswhat_stim/type_no.png,None,Type,None,Location,2,0.0,0,5.125,0,5.125,0,5.125,0,0.0,0.625,0,0.0,0,0.0,1,0.5,1,2.125,0,0.0,0,0.0,0,0.0,0,0.0,0,,,,,0,57,57,57,,,,,,,,,515.2009341249941,515.2009341249941,515.2009341249941,515.2009341249941,515.2009341249941,515.2009341249941,515.2009341249941,515.2009341249941,515.1484112086861,515.2009341249941,515.2009341249941,515.2009341249941,515.1484112086861,515.2009341249941,515.2009341249941,515.2009341249941,517.2867196670268,521.2928697090247,515.2009341249941,515.2009341249941,520.3625171250314,515.6793978750356,516.7056477090227,517.2867196670268,518.3153831250384,515.2009341249941,515.2009341249941,515.1650778753527,515.2009341249941,515.2009341249941,515.2009341249941,515.1650778753527,515.2009341249941,515.2009341249941,520.3625171250314,515.2009341249941,520.3625171250314,520.4194327089936,521.0761397090391,515.2009341249941,2,1,1.4297796659520827,reldom2_s038,001,2025-03-06_13h47.47.732,What-A-Scan_AC,2022.2.5,None,
44,First_Order,8.0,viswhat,stimulus/viswhat_stim/blank_white.png,stimulus/viswhat_stim/blank_white.png,stimulus/viswhat_stim/water_animal-octopus.png,stimulus/viswhat_stim/land_animal-snake.png,stimulus/viswhat_stim/blank_white.png,stimulus/viswhat_stim/type_box.png,stimulus/viswhat_stim/type_yes.png,stimulus/viswhat_stim/type_no.png,None,Type,None,Type,1,0.0,0,5.125,0,5.125,0,5.125,0,0.0,0.625,0,0.0,0,0.0,1,0.5,1,2.125,0,0.0,0,0.0,0,0.0,0,0.0,0,,,,,0,58,58,58,,,,,,,,,521.2928697090247,521.2928697090247,521.2928697090247,521.2928697090247,521.2928697090247,521.2928697090247,521.2928697090247,521.2928697090247,521.2506187086964,521.2928697090247,521.2928697090247,521.2928697090247,521.2506187086964,521.2928697090247,521.2928697090247,521.2928697090247,523.3841624589986,527.3753583750222,521.2928697090247,521.2928697090247,526.4405735839973,521.7598340000259,522.790531375038,523.3841624589986,524.4160634170403,521.2928697090247,521.2928697090247,521.267285375363,521.2928697090247,521.2928697090247,521.2928697090247,521.267285375363,521.2928697090247,521.2928697090247,526.4405735839973,521.2928697090247,526.4405735839973,526.5167663750472,527.1553770840401,521.2928697090247,1,1,1.0638746659387834,reldom2_s038,001,2025-03-06_13h47.47.732,What-A-Scan_AC,2022.2.5,None,
45,First_Order,8.0,viswhat,stimulus/viswhat_stim/blank_white.png,stimulus/viswhat_stim/blank_white.png,stimulus/viswhat_stim/land_vehicle-schoolbus.png,stimulus/viswhat_stim/land_animal-pig.png,stimulus/viswhat_stim/blank_white.png,stimulus/viswhat_stim/type_box.png,stimulus/viswhat_stim/type_yes.png,stimulus/viswhat_stim/type_no.png,None,Type,None,Location,2,0.0,0,5.125,0,5.125,0,5.125,0,0.0,0.625,0,0.0,0,0.0,1,0.5,1,2.125,0,0.0,0,0.0,0,0.0,0,0.0,0,,,,,0,59,59,59,,,,,,,,,527.3753583750222,527.3753583750222,527.3753583750222,527.3753583750222,527.3753583750222,527.3753583750222,527.3753583750222,527.3753583750222,527.3322455000249,527.3753583750222,527.3753583750222,527.3753583750222,527.3322455000249,527.3753583750222,527.3753583750222,527.3753583750222,529.4657104170183,533.483533709019,527.3753583750222,527.3753583750222,532.5103481250117,527.8518496250035,528.8836122089997,529.4657104170183,530.4768156670034,527.3753583750222,527.3753583750222,527.3489121666915,527.3753583750222,527.3753583750222,527.3753583750222,527.3489121666915,527.3753583750222,527.3753583750222,532.5103481250117,527.3753583750222,532.5103481250117,532.5939938750234,533.2369310000213,527.3753583750222,2,1,0.5813729159999639,reldom2_s038,001,2025-03-06_13h47.47.732,What-A-Scan_AC,2022.2.5,None,
46,First_Order,8.0,viswhat,stimulus/viswhat_stim/blank_white.png,stimulus/viswhat_stim/blank_white.png,stimulus/viswhat_stim/land_vehicle-oldcar.png,stimulus/viswhat_stim/water_vehicle-powercruiser.png,stimulus/viswhat_stim/blank_white.png,stimulus/viswhat_stim/location_box.png,stimulus/viswhat_stim/location_yes.png,stimulus/viswhat_stim/location_no.png,None,Location,None,Type,2,0.0,0,5.125,0,5.125,0,5.125,0,0.0,0.625,0,0.0,0,0.0,1,0.5,1,2.125,0,0.0,0,0.0,0,0.0,0,0.0,0,,,,,0,60,60,60,,,,,,,,,533.483533709019,533.483533709019,533.483533709019,533.483533709019,533.483533709019,533.483533709019,533.483533709019,533.483533709019,533.4190461670165,533.483533709019,533.483533709019,533.483533709019,533.4190461670165,533.483533709019,533.483533709019,533.483533709019,535.585722125019,,533.483533709019,533.483533709019,538.6354527090443,533.9366949170362,534.9680210840306,535.585722125019,536.6200078750262,533.483533709019,533.483533709019,533.4523795003498,533.483533709019,533.483533709019,533.483533709019,533.4523795003498,533.483533709019,533.483533709019,538.6354527090443,533.483533709019,538.6354527090443,538.7058569590445,539.3823987920186,533.483533709019,2,1,0.5511048319749534,reldom2_s038,001,2025-03-06_13h47.47.732,What-A-Scan_AC,2022.2.5,None,
0,0.0,None,fixation,stimulus/audwhat_stim/blank_white.png,stimulus/audwhat_stim/blank_white.png,stimulus/viswhat_stim/blank_white.png,stimulus/viswhat_stim/blank_white.png,stimulus/audwhat_stim/blank_white.png,stimulus/audwhat_stim/blank_white.png,stimulus/audwhat_stim/blank_white.png,stimulus/audwhat_stim/blank_white.png,0.0,0.0,0.0,0.0,0,0.0,0,0.0,0,0.0,0,0.0,0,0.0,0.0,0,0.0,0,0.0,0,0.0,0,0.0,0,0.0,0,0.0,0,0.0,0,0.0,9,,,,,0,61,61,61,,,,,,,,,539.6096325000399,539.6096325000399,539.6096325000399,539.6096325000399,539.6096325000399,539.6096325000399,539.6096325000399,539.6096325000399,539.515732125352,539.6096325000399,539.6096325000399,539.6096325000399,539.515732125352,539.6096325000399,539.6096325000399,539.6096325000399,539.6096325000399,539.6096325000399,539.6096325000399,539.6096325000399,539.6096325000399,539.6096325000399,539.6096325000399,539.6096325000399,539.6096325000399,539.6096325000399,539.6096325000399,539.5657321253519,539.6096325000399,539.6096325000399,539.6096325000399,539.5657321253519,539.6096325000399,539.6096325000399,539.6096325000399,539.6096325000399,539.6096325000399,544.8229957920266,544.8229957920266,548.8391537090065,None,0,,reldom2_s038,001,2025-03-06_13h47.47.732,What-A-Scan_AC,2022.2.5,None,
47,Second_Order,8.0,viswhat,stimulus/viswhat_stim/water_animal-dolphin.png,stimulus/viswhat_stim/water_vehicle-cruiseship.png,stimulus/viswhat_stim/land_vehicle-oldcar.png,stimulus/viswhat_stim/land_animal-giraffe.png,stimulus/audwhat_stim/match_blank.png,stimulus/audwhat_stim/match_box.png,stimulus/audwhat_stim/match_yes.png,stimulus/audwhat_stim/match_no.png,1.0,Match,Location,Location,1,5.125,0,5.125,0,5.125,0,5.125,0,0.75,0.75,1,0.5,1,2.125,1,0.5,1,2.125,0,0.0,0,0.0,0,0.0,0,0.0,0,,,,,0,62,62,62,,,,,,,,,548.8391537090065,553.9592386250151,549.229935084004,550.2161587500013,550.864371667034,551.8535340840463,548.8391537090065,548.8391537090065,548.8536892086772,548.8391537090065,548.8391537090065,548.8391537090065,548.8536892086772,548.8391537090065,553.9592386250151,554.8493380839936,556.909184667049,,554.8493380839936,554.8493380839936,560.0359210420283,555.2487180840108,556.311363750021,556.909184667049,557.9783527090331,554.8493380839936,554.8493380839936,554.793567875016,554.8493380839936,554.8493380839936,554.8493380839936,554.793567875016,554.8493380839936,554.8493380839936,560.0359210420283,554.8493380839936,560.0359210420283,560.0359210420283,,554.8493380839936,1,1,0.6056053329957649,reldom2_s038,001,2025-03-06_13h47.47.732,What-A-Scan_AC,2022.2.5,None,
48,Second_Order,8.0,viswhat,stimulus/viswhat_stim/land_animal-ostrich.png,stimulus/viswhat_stim/water_animal-shark.png,stimulus/viswhat_stim/water_animal-whale.png,stimulus/viswhat_stim/water_vehicle-cargoboat.png,stimulus/audwhat_stim/match_blank.png,stimulus/audwhat_stim/match_box.png,stimulus/audwhat_stim/match_yes.png,stimulus/audwhat_stim/match_no.png,2.0,Match,Type,Location,2,5.125,0,5.125,0,5.125,0,5.125,0,0.625,0.625,1,0.5,1,2.125,1,0.5,1,2.125,0,0.0,0,0.0,0,0.0,0,0.0,0,,,,,0,63,63,63,,,,,,,,,560.7960297090467,565.9206086670165,561.2568267920287,562.2443571250187,562.8814528340008,563.8776231250376,560.7960297090467,560.7960297090467,560.810644541673,560.7960297090467,560.7960297090467,560.7960297090467,560.810644541673,560.7960297090467,565.9206086670165,566.611844250001,568.6697165840305,572.7322146249935,566.611844250001,566.611844250001,571.7504135420313,567.0666781670297,568.0837036250159,568.6697165840305,569.6933870420326,566.611844250001,566.611844250001,566.5835995420464,566.611844250001,566.611844250001,566.611844250001,566.5835995420464,566.611844250001,566.611844250001,571.7504135420313,566.611844250001,571.7504135420313,571.7927390840487,572.4244953340385,566.611844250001,2,1,0.8811128319939598,reldom2_s038,001,2025-03-06_13h47.47.732,What-A-Scan_AC,2022.2.5,None,
0,0.0,None,fixation,stimulus/audwhat_stim/blank_white.png,stimulus/audwhat_stim/blank_white.png,stimulus/viswhat_stim/blank_white.png,stimulus/viswhat_stim/blank_white.png,stimulus/audwhat_stim/blank_white.png,stimulus/audwhat_stim/blank_white.png,stimulus/audwhat_stim/blank_white.png,stimulus/audwhat_stim/blank_white.png,0.0,0.0,0.0,0.0,0,0.0,0,0.0,0,0.0,0,0.0,0,0.0,0.0,0,0.0,0,0.0,0,0.0,0,0.0,0,0.0,0,0.0,0,0.0,0,0.0,16,,,,,0,64,64,64,,,,,,,,,572.7322146249935,572.7322146249935,572.7322146249935,572.7322146249935,572.7322146249935,572.7322146249935,572.7322146249935,572.7322146249935,572.6305420420482,572.7322146249935,572.7322146249935,572.7322146249935,572.6305420420482,572.7322146249935,572.7322146249935,572.7322146249935,572.7322146249935,572.7322146249935,572.7322146249935,572.7322146249935,572.7322146249935,572.7322146249935,572.7322146249935,572.7322146249935,572.7322146249935,572.7322146249935,572.7322146249935,572.6805420420482,572.7322146249935,572.7322146249935,572.7322146249935,572.6805420420482,572.7322146249935,572.7322146249935,572.7322146249935,572.7322146249935,572.7322146249935,577.9192913750303,577.9192913750303,588.8736467920244,None,0,,reldom2_s038,001,2025-03-06_13h47.47.732,What-A-Scan_AC,2022.2.5,None,
