Trial,Order,Block,Type,Stimuli_File1,Stimuli_File2,Stimuli_File3,Stimuli_File4,Cue_File1,Cue_File2,Response_File_Yes,Response_File_No,Match,Cue_Dimension,Pair1_Dimension,Pair2_Dimension,Key,Cue1_Duration,Cue1_Onset,Cue2_Duration,Cue2_Onset,ResponseYes_Duration,ResponseYes_Onset,ResponseNo_Duration,ResponseNo_Onset,ITI_Within,ITI_Between,Image1_Duration,Image1_Onset,Image2_Duration,Image2_Onset,Image3_Duration,Image3_Onset,Image4_Duration,Image4_Onset,Sound1_Duration,Sound1_Onset,Sound2_Duration,Sound2_Onset,Sound3_Duration,Sound3_Onset,Sound4_Duration,Sound4_Onset,Fixation_Duration,trials_2.thisRepN,trials_2.thisTrialN,trials_2.thisN,trials_2.thisIndex,trials.thisRepN,trials.thisTrialN,trials.thisN,trials.thisIndex,text_start.started,key_resp_start.started,key_resp_start.keys,key_resp_start.rt,text2.started,key_resp_2.started,key_resp_2.keys,key_resp_2.rt,cue_file1.started,cue_file1.stopped,image_1.started,image_1.stopped,image_2.started,image_2.stopped,sound_icon1.started,sound_icon1.stopped,sound_1.started,sound_1.stopped,sound_icon2.started,sound_icon2.stopped,sound_2.started,sound_2.stopped,image_blank_1.started,image_blank_1.stopped,key_press.started,key_press.stopped,fixation_text.started,cue_file2.started,cue_file2.stopped,image_3.started,image_3.stopped,image_4.started,image_4.stopped,sound_icon3.started,sound_icon3.stopped,sound_3.started,sound_3.stopped,sound_icon4.started,sound_icon4.stopped,sound_4.started,sound_4.stopped,response_yes.started,response_yes.stopped,response_no.started,response_no.stopped,iti_blank.started,iti_blank.stopped,fixation_text.stopped,key_press.keys,key_press.corr,key_press.rt,participant,session,date,expName,psychopyVersion,frameRate,
,,,,,,,,,,,,,,,,,,,,,,,,,,,,,,,,,,,,,,,,,,,,,,,,,,,,7.545813041971996,7.545813041971996,2,0.6126573740039021,,,,,,,,,,,,,,,,,,,,,,,,,,,,,,,,,,,,,,,,,,,,,,,,reldom2_s038,001,2025-03-06_13h24.50.845,Aud-A-Scan_AC,2022.2.5,None,
,,,,,,,,,,,,,,,,,,,,,,,,,,,,,,,,,,,,,,,,,,,,0,0,0,0,,,,,,,,,8.171780042001046,8.171780042001046,5,4.369694373977836,,,,,,,,,,,,,,,,,,,,,,,,,,,,,,,,,,,,,,,,,,,,reldom2_s038,001,2025-03-06_13h24.50.845,Aud-A-Scan_AC,2022.2.5,None,
,,,,,,,,,,,,,,,,,,,,,,,,,,,,,,,,,,,,,,,,,,,,1,0,1,0,,,,,,,,,12.559753833978903,12.559753833978903,5,10.401351332024205,,,,,,,,,,,,,,,,,,,,,,,,,,,,,,,,,,,,,,,,,,,,reldom2_s038,001,2025-03-06_13h24.50.845,Aud-A-Scan_AC,2022.2.5,None,
,,,,,,,,,,,,,,,,,,,,,,,,,,,,,,,,,,,,,,,,,,,,2,0,2,0,,,,,,,,,22.97323345899349,22.97323345899349,5,1.9916895410278812,,,,,,,,,,,,,,,,,,,,,,,,,,,,,,,,,,,,,,,,,,,,reldom2_s038,001,2025-03-06_13h24.50.845,Aud-A-Scan_AC,2022.2.5,None,
,,,,,,,,,,,,,,,,,,,,,,,,,,,,,,,,,,,,,,,,,,,,3,0,3,0,,,,,,,,,24.978363624948543,24.978363624948543,5,1.9834680409985594,,,,,,,,,,,,,,,,,,,,,,,,,,,,,,,,,,,,,,,,,,,,reldom2_s038,001,2025-03-06_13h24.50.845,Aud-A-Scan_AC,2022.2.5,None,
0,0.0,None,fixation,stimulus/audwhere_stim/blank_white.png,stimulus/audwhere_stim/blank_white.png,stimulus/audwhat_stim/blank_white.png,stimulus/audwhat_stim/blank_white.png,stimulus/audwhere_stim/blank_white.png,stimulus/audwhere_stim/blank_white.png,stimulus/audwhere_stim/blank_white.png,stimulus/audwhere_stim/blank_white.png,0.0,0.0,0.0,0.0,0,0.0,0,0.0,0,0.0,0,0.0,0,0.0,0.0,0,0,0,0,0,0,0,0,0,0.0,0,0.0,0,0.0,0,0.0,16,,,,,0,0,0,0,,,,,,,,,27.17288812500192,27.17288812500192,27.17288812500192,27.17288812500192,27.17288812500192,27.17288812500192,27.17288812500192,27.17288812500192,27.082629958660497,27.17288812500192,27.17288812500192,27.17288812500192,27.082629958660497,27.17288812500192,27.17288812500192,27.17288812500192,27.17288812500192,27.17288812500192,27.17288812500192,27.17288812500192,27.17288812500192,27.17288812500192,27.17288812500192,27.17288812500192,27.17288812500192,27.17288812500192,27.17288812500192,27.132629958660495,27.17288812500192,27.17288812500192,27.17288812500192,27.132629958660495,27.17288812500192,27.17288812500192,27.17288812500192,27.17288812500192,27.17288812500192,32.390079083968885,32.390079083968885,43.391556666989345,None,0,,reldom2_s038,001,2025-03-06_13h24.50.845,Aud-A-Scan_AC,2022.2.5,None,
1,First_Order,1.0,audwhere,stimulus/audwhere_stim/dummy.wav,stimulus/audwhere_stim/dummy.wav,stimulus/audwhere_stim/left_away_280h.wav,stimulus/audwhere_stim/right_away_290h.wav,stimulus/audwhere_stim/blank_white.png,stimulus/audwhere_stim/direction_box.png,stimulus/audwhere_stim/direction_yes.png,stimulus/audwhere_stim/direction_no.png,None,Direction,None,Direction,1,0.0,0,5.125,0,5.125,0,5.125,0,0.0,0.625,0,0,0,0,0,0,0,0,0,0.0,0,0.0,1,0.5,1,2.125,0,,,,,0,1,1,1,,,,,,,,,43.391556666989345,43.391556666989345,43.391556666989345,43.391556666989345,43.391556666989345,43.391556666989345,43.391556666989345,43.391556666989345,43.32297737498302,43.391556666989345,43.391556666989345,43.391556666989345,43.32297737498302,43.391556666989345,43.391556666989345,43.391556666989345,45.50701187498635,,43.391556666989345,43.391556666989345,48.5519007499679,43.391556666989345,43.391556666989345,43.391556666989345,43.391556666989345,43.876279999967664,44.93329879199155,43.848586583630336,,45.50701187498635,46.56744891696144,45.47945566662044,,43.391556666989345,48.5519007499679,43.391556666989345,48.5519007499679,48.59128424996743,49.253497375000734,43.391556666989345,1,1,1.1019804580137134,reldom2_s038,001,2025-03-06_13h24.50.845,Aud-A-Scan_AC,2022.2.5,None,
2,First_Order,1.0,audwhere,stimulus/audwhere_stim/dummy.wav,stimulus/audwhere_stim/dummy.wav,stimulus/audwhere_stim/left_away_270h.wav,stimulus/audwhere_stim/left_toward_270h.wav,stimulus/audwhere_stim/blank_white.png,stimulus/audwhere_stim/direction_box.png,stimulus/audwhere_stim/direction_yes.png,stimulus/audwhere_stim/direction_no.png,None,Direction,None,Side,2,0.0,0,5.125,0,5.125,0,5.125,0,0.0,0.625,0,0,0,0,0,0,0,0,0,0.0,0,0.0,1,0.5,1,2.125,0,,,,,0,2,2,2,,,,,,,,,49.49412795895478,49.49412795895478,49.49412795895478,49.49412795895478,49.49412795895478,49.49412795895478,49.49412795895478,49.49412795895478,49.42581145829366,49.49412795895478,49.49412795895478,49.49412795895478,49.42581145829366,49.49412795895478,49.49412795895478,49.49412795895478,51.57289812498493,55.61446020897711,49.49412795895478,49.49412795895478,54.67259524995461,49.49412795895478,49.49412795895478,49.49412795895478,49.49412795895478,49.97931762499502,51.041887583967764,49.95162650064255,,51.57289812498493,52.63820966699859,51.545207125662515,,49.49412795895478,54.67259524995461,49.49412795895478,54.67259524995461,54.71196674997918,55.37492491694866,49.49412795895478,2,1,1.0509584989631549,reldom2_s038,001,2025-03-06_13h24.50.845,Aud-A-Scan_AC,2022.2.5,None,
3,First_Order,1.0,audwhere,stimulus/audwhere_stim/dummy.wav,stimulus/audwhere_stim/dummy.wav,stimulus/audwhere_stim/left_toward_300h.wav,stimulus/audwhere_stim/left_away_280h.wav,stimulus/audwhere_stim/blank_white.png,stimulus/audwhere_stim/direction_box.png,stimulus/audwhere_stim/direction_yes.png,stimulus/audwhere_stim/direction_no.png,None,Direction,None,Side,2,0.0,0,5.125,0,5.125,0,5.125,0,0.0,0.625,0,0,0,0,0,0,0,0,0,0.0,0,0.0,1,0.5,1,2.125,0,,,,,0,3,3,3,,,,,,,,,55.61446020897711,55.61446020897711,55.61446020897711,55.61446020897711,55.61446020897711,55.61446020897711,55.61446020897711,55.61446020897711,55.54718175032952,55.61446020897711,55.61446020897711,55.61446020897711,55.54718175032952,55.61446020897711,55.61446020897711,55.61446020897711,57.7016538339667,,55.61446020897711,55.61446020897711,60.766906833974645,55.61446020897711,55.61446020897711,55.61446020897711,55.61446020897711,56.102418041962665,57.16988283395767,56.07422616664941,,57.7016538339667,58.76784374995623,57.67366250063448,,55.61446020897711,60.766906833974645,55.61446020897711,60.766906833974645,60.8446358749643,61.50895316695096,55.61446020897711,2,1,0.9947212080005556,reldom2_s038,001,2025-03-06_13h24.50.845,Aud-A-Scan_AC,2022.2.5,None,
4,First_Order,1.0,audwhere,stimulus/audwhere_stim/dummy.wav,stimulus/audwhere_stim/dummy.wav,stimulus/audwhere_stim/left_away_270h.wav,stimulus/audwhere_stim/left_toward_290h.wav,stimulus/audwhere_stim/blank_white.png,stimulus/audwhere_stim/side_box.png,stimulus/audwhere_stim/side_yes.png,stimulus/audwhere_stim/side_no.png,None,Side,None,Side,1,0.0,0,5.125,0,5.125,0,5.125,0,0.0,0.625,0,0,0,0,0,0,0,0,0,0.0,0,0.0,1,0.5,1,2.125,0,,,,,0,4,4,4,,,,,,,,,61.71319229196524,61.71319229196524,61.71319229196524,61.71319229196524,61.71319229196524,61.71319229196524,61.71319229196524,61.71319229196524,61.64228650028429,61.71319229196524,61.71319229196524,61.71319229196524,61.64228650028429,61.71319229196524,61.71319229196524,61.71319229196524,63.79675158398459,,61.71319229196524,61.71319229196524,66.9006740420009,61.71319229196524,61.71319229196524,61.71319229196524,61.71319229196524,62.20063624996692,63.26630729198223,62.17306479165951,,63.79675158398459,64.86154145898763,63.76920833363353,,61.71319229196524,66.9006740420009,61.71319229196524,66.9006740420009,66.93990041699726,67.60426737496164,61.71319229196524,2,0,1.2742594580049627,reldom2_s038,001,2025-03-06_13h24.50.845,Aud-A-Scan_AC,2022.2.5,None,
0,0.0,None,fixation,stimulus/audwhere_stim/blank_white.png,stimulus/audwhere_stim/blank_white.png,stimulus/audwhat_stim/blank_white.png,stimulus/audwhat_stim/blank_white.png,stimulus/audwhere_stim/blank_white.png,stimulus/audwhere_stim/blank_white.png,stimulus/audwhere_stim/blank_white.png,stimulus/audwhere_stim/blank_white.png,0.0,0.0,0.0,0.0,0,0.0,0,0.0,0,0.0,0,0.0,0,0.0,0.0,0,0,0,0,0,0,0,0,0,0.0,0,0.0,0,0.0,0,0.0,9,,,,,0,5,5,5,,,,,,,,,67.82619974995032,67.82619974995032,67.82619974995032,67.82619974995032,67.82619974995032,67.82619974995032,67.82619974995032,67.82619974995032,67.73760070829496,67.82619974995032,67.82619974995032,67.82619974995032,67.73760070829496,67.82619974995032,67.82619974995032,67.82619974995032,67.82619974995032,67.82619974995032,67.82619974995032,67.82619974995032,67.82619974995032,67.82619974995032,67.82619974995032,67.82619974995032,67.82619974995032,67.82619974995032,67.82619974995032,67.78760070829497,67.82619974995032,67.82619974995032,67.82619974995032,67.78760070829497,67.82619974995032,67.82619974995032,67.82619974995032,67.82619974995032,67.82619974995032,73.05378616700182,73.05378616700182,76.95723299996462,None,0,,reldom2_s038,001,2025-03-06_13h24.50.845,Aud-A-Scan_AC,2022.2.5,None,
5,Second_Order,1.0,audwhere,stimulus/audwhere_stim/left_away_290h.wav,stimulus/audwhere_stim/right_away_300h.wav,stimulus/audwhere_stim/right_toward_290h.wav,stimulus/audwhere_stim/left_toward_300h.wav,stimulus/audwhere_stim/match_blank.png,stimulus/audwhere_stim/match_box.png,stimulus/audwhere_stim/match_yes.png,stimulus/audwhere_stim/match_no.png,1.0,Match,Direction,Direction,1,5.125,0,5.125,0,5.125,0,5.125,0,0.75,0.75,0,0,0,0,0,0,0,0,1,0.5,1,2.125,1,0.5,1,2.125,0,,,,,0,6,6,6,,,,,,,,,76.95723299996462,82.07638849999057,76.95723299996462,76.95723299996462,76.95723299996462,76.95723299996462,77.41525695897872,78.40460633399198,77.41811741661901,78.40460633399198,79.04012183396844,80.03827154199826,79.05291062564744,,82.07638849999057,82.92951941699721,84.97270774998469,,82.92951941699721,82.92951941699721,88.0828890419798,82.92951941699721,82.92951941699721,82.92951941699721,82.92951941699721,83.37539366696728,84.44015287497314,83.34697233362046,,84.97270774998469,86.03586033399915,84.94377370865938,85.99150779197225,82.92951941699721,88.0828890419798,82.92951941699721,88.0828890419798,88.12208137498237,,82.92951941699721,1,1,1.1459207910229452,reldom2_s038,001,2025-03-06_13h24.50.845,Aud-A-Scan_AC,2022.2.5,None,
6,Second_Order,1.0,audwhere,stimulus/audwhere_stim/left_away_280h.wav,stimulus/audwhere_stim/right_away_280h.wav,stimulus/audwhere_stim/left_away_300h.wav,stimulus/audwhere_stim/left_toward_280h.wav,stimulus/audwhere_stim/match_blank.png,stimulus/audwhere_stim/match_box.png,stimulus/audwhere_stim/match_yes.png,stimulus/audwhere_stim/match_no.png,2.0,Match,Direction,Side,2,5.125,0,5.125,0,5.125,0,5.125,0,0.625,0.625,0,0,0,0,0,0,0,0,1,0.5,1,2.125,1,0.5,1,2.125,0,,,,,0,7,7,7,,,,,,,,,88.89631683396874,94.00933262496255,88.89631683396874,88.89631683396874,88.89631683396874,88.89631683396874,89.34485454199603,90.33337858394952,89.35931054165509,,90.98486691695871,91.98298024997348,90.99686050066181,,94.00933262496255,94.74134124995908,96.77592637494672,,94.74134124995908,94.74134124995908,99.88818974996684,94.74134124995908,94.74134124995908,94.74134124995908,94.74134124995908,95.1841427499894,96.24523841700284,95.15657883364862,,96.77592637494672,97.84576862497488,96.7480588336514,,94.74134124995908,99.88818974996684,94.74134124995908,99.88818974996684,99.92732920899289,100.5901182089583,94.74134124995908,2,1,1.7866185819730163,reldom2_s038,001,2025-03-06_13h24.50.845,Aud-A-Scan_AC,2022.2.5,None,
0,0.0,None,fixation,stimulus/audwhere_stim/blank_white.png,stimulus/audwhere_stim/blank_white.png,stimulus/audwhat_stim/blank_white.png,stimulus/audwhat_stim/blank_white.png,stimulus/audwhere_stim/blank_white.png,stimulus/audwhere_stim/blank_white.png,stimulus/audwhere_stim/blank_white.png,stimulus/audwhere_stim/blank_white.png,0.0,0.0,0.0,0.0,0,0.0,0,0.0,0,0.0,0,0.0,0,0.0,0.0,0,0,0,0,0,0,0,0,0,0.0,0,0.0,0,0.0,0,0.0,10,,,,,0,8,8,8,,,,,,,,,100.81125145900296,100.81125145900296,100.81125145900296,100.81125145900296,100.81125145900296,100.81125145900296,100.81125145900296,100.81125145900296,100.72345154229163,100.81125145900296,100.81125145900296,100.81125145900296,100.72345154229163,100.81125145900296,100.81125145900296,100.81125145900296,100.81125145900296,100.81125145900296,100.81125145900296,100.81125145900296,100.81125145900296,100.81125145900296,100.81125145900296,100.81125145900296,100.81125145900296,100.81125145900296,100.81125145900296,100.77345154229164,100.81125145900296,100.81125145900296,100.81125145900296,100.77345154229164,100.81125145900296,100.81125145900296,100.81125145900296,100.81125145900296,100.81125145900296,106.04439995897701,106.04439995897701,111.07023804198252,None,0,,reldom2_s038,001,2025-03-06_13h24.50.845,Aud-A-Scan_AC,2022.2.5,None,
7,First_Order,2.0,audwhere,stimulus/audwhere_stim/dummy.wav,stimulus/audwhere_stim/dummy.wav,stimulus/audwhere_stim/left_away_300h.wav,stimulus/audwhere_stim/right_away_300h.wav,stimulus/audwhere_stim/blank_white.png,stimulus/audwhere_stim/side_box.png,stimulus/audwhere_stim/side_yes.png,stimulus/audwhere_stim/side_no.png,None,Side,None,Direction,2,0.0,0,5.125,0,5.125,0,5.125,0,0.0,0.625,0,0,0,0,0,0,0,0,0,0.0,0,0.0,1,0.5,1,2.125,0,,,,,0,9,9,9,,,,,,,,,111.07023804198252,111.07023804198252,111.07023804198252,111.07023804198252,111.07023804198252,111.07023804198252,111.07023804198252,111.07023804198252,110.98916695899098,111.07023804198252,111.07023804198252,111.07023804198252,110.98916695899098,111.07023804198252,111.07023804198252,111.07023804198252,113.17526858398924,,111.07023804198252,111.07023804198252,116.24151424999582,111.07023804198252,111.07023804198252,111.07023804198252,111.07023804198252,111.51770379196387,112.54653158399742,111.48879391665493,,113.17526858398924,114.22313354199287,113.14688195864825,,111.07023804198252,116.24151424999582,111.07023804198252,116.24151424999582,116.28133783396333,116.95149287499953,111.07023804198252,2,1,1.202688041026704,reldom2_s038,001,2025-03-06_13h24.50.845,Aud-A-Scan_AC,2022.2.5,None,
8,First_Order,2.0,audwhere,stimulus/audwhere_stim/dummy.wav,stimulus/audwhere_stim/dummy.wav,stimulus/audwhere_stim/left_away_280h.wav,stimulus/audwhere_stim/right_away_270h.wav,stimulus/audwhere_stim/blank_white.png,stimulus/audwhere_stim/side_box.png,stimulus/audwhere_stim/side_yes.png,stimulus/audwhere_stim/side_no.png,None,Side,None,Direction,2,0.0,0,5.125,0,5.125,0,5.125,0,0.0,0.625,0,0,0,0,0,0,0,0,0,0.0,0,0.0,1,0.5,1,2.125,0,,,,,0,10,10,10,,,,,,,,,117.15858770895284,117.15858770895284,117.15858770895284,117.15858770895284,117.15858770895284,117.15858770895284,117.15858770895284,117.15858770895284,117.08482620833286,117.15858770895284,117.15858770895284,117.15858770895284,117.08482620833286,117.15858770895284,117.15858770895284,117.15858770895284,119.27151783398585,,117.15858770895284,117.15858770895284,122.32900258398149,117.15858770895284,117.15858770895284,117.15858770895284,117.15858770895284,117.60813429194968,118.64114124997286,117.57953504164858,,119.27151783398585,120.30837804195471,119.24294166663118,,117.15858770895284,122.32900258398149,117.15858770895284,122.32900258398149,122.36858216696419,123.04277112497948,117.15858770895284,2,1,1.3856371250003576,reldom2_s038,001,2025-03-06_13h24.50.845,Aud-A-Scan_AC,2022.2.5,None,
9,First_Order,2.0,audwhere,stimulus/audwhere_stim/dummy.wav,stimulus/audwhere_stim/dummy.wav,stimulus/audwhere_stim/left_away_280h.wav,stimulus/audwhere_stim/right_away_300h.wav,stimulus/audwhere_stim/blank_white.png,stimulus/audwhere_stim/direction_box.png,stimulus/audwhere_stim/direction_yes.png,stimulus/audwhere_stim/direction_no.png,None,Direction,None,Direction,1,0.0,0,5.125,0,5.125,0,5.125,0,0.0,0.625,0,0,0,0,0,0,0,0,0,0.0,0,0.0,1,0.5,1,2.125,0,,,,,0,11,11,11,,,,,,,,,123.24828258395428,123.24828258395428,123.24828258395428,123.24828258395428,123.24828258395428,123.24828258395428,123.24828258395428,123.24828258395428,123.1761044583128,123.24828258395428,123.24828258395428,123.24828258395428,123.1761044583128,123.24828258395428,123.24828258395428,123.24828258395428,125.33341525000287,,123.24828258395428,123.24828258395428,128.42028454196407,123.24828258395428,123.24828258395428,123.24828258395428,123.24828258395428,123.70155945897568,124.74327654199442,123.67300954164627,,125.33341525000287,126.37911716697272,125.30506912566877,,123.24828258395428,128.42028454196407,123.24828258395428,128.42028454196407,128.46046462497907,129.13729108398547,123.24828258395428,1,1,1.381825500051491,reldom2_s038,001,2025-03-06_13h24.50.845,Aud-A-Scan_AC,2022.2.5,None,
10,First_Order,2.0,audwhere,stimulus/audwhere_stim/dummy.wav,stimulus/audwhere_stim/dummy.wav,stimulus/audwhere_stim/right_away_270h.wav,stimulus/audwhere_stim/right_toward_300h.wav,stimulus/audwhere_stim/blank_white.png,stimulus/audwhere_stim/side_box.png,stimulus/audwhere_stim/side_yes.png,stimulus/audwhere_stim/side_no.png,None,Side,None,Side,1,0.0,0,5.125,0,5.125,0,5.125,0,0.0,0.625,0,0,0,0,0,0,0,0,0,0.0,0,0.0,1,0.5,1,2.125,0,,,,,0,12,12,12,,,,,,,,,129.34589212498395,129.34589212498395,129.34589212498395,129.34589212498395,129.34589212498395,129.34589212498395,129.34589212498395,129.34589212498395,129.27062441731883,129.34589212498395,129.34589212498395,129.34589212498395,129.27062441731883,129.34589212498395,129.34589212498395,129.34589212498395,131.42540908395313,135.4849972499651,129.34589212498395,129.34589212498395,134.50293829198927,129.34589212498395,129.34589212498395,129.34589212498395,129.34589212498395,129.79680441698292,130.83596612495603,129.76850729162496,,131.42540908395313,132.46657254197635,131.396790666626,,129.34589212498395,134.50293829198927,129.34589212498395,134.50293829198927,134.54260579199763,135.21825220895698,129.34589212498395,2,0,1.092356999986805,reldom2_s038,001,2025-03-06_13h24.50.845,Aud-A-Scan_AC,2022.2.5,None,
0,0.0,None,fixation,stimulus/audwhere_stim/blank_white.png,stimulus/audwhere_stim/blank_white.png,stimulus/audwhat_stim/blank_white.png,stimulus/audwhat_stim/blank_white.png,stimulus/audwhere_stim/blank_white.png,stimulus/audwhere_stim/blank_white.png,stimulus/audwhere_stim/blank_white.png,stimulus/audwhere_stim/blank_white.png,0.0,0.0,0.0,0.0,0,0.0,0,0.0,0,0.0,0,0.0,0,0.0,0.0,0,0,0,0,0,0,0,0,0,0.0,0,0.0,0,0.0,0,0.0,8,,,,,0,13,13,13,,,,,,,,,135.4849972499651,135.4849972499651,135.4849972499651,135.4849972499651,135.4849972499651,135.4849972499651,135.4849972499651,135.4849972499651,135.39153245833782,135.4849972499651,135.4849972499651,135.4849972499651,135.39153245833782,135.4849972499651,135.4849972499651,135.4849972499651,135.4849972499651,135.4849972499651,135.4849972499651,135.4849972499651,135.4849972499651,135.4849972499651,135.4849972499651,135.4849972499651,135.4849972499651,135.4849972499651,135.4849972499651,135.4415324583378,135.4849972499651,135.4849972499651,135.4849972499651,135.4415324583378,135.4849972499651,135.4849972499651,135.4849972499651,135.4849972499651,135.4849972499651,140.6808442499605,140.6808442499605,143.6343350840034,None,0,,reldom2_s038,001,2025-03-06_13h24.50.845,Aud-A-Scan_AC,2022.2.5,None,
11,Second_Order,2.0,audwhere,stimulus/audwhere_stim/left_away_280h.wav,stimulus/audwhere_stim/left_toward_280h.wav,stimulus/audwhere_stim/right_toward_280h.wav,stimulus/audwhere_stim/left_toward_270h.wav,stimulus/audwhere_stim/match_blank.png,stimulus/audwhere_stim/match_box.png,stimulus/audwhere_stim/match_yes.png,stimulus/audwhere_stim/match_no.png,2.0,Match,Side,Direction,2,5.125,0,5.125,0,5.125,0,5.125,0,0.75,0.75,0,0,0,0,0,0,0,0,1,0.5,1,2.125,1,0.5,1,2.125,0,,,,,0,14,14,14,,,,,,,,,143.6343350840034,148.75198637496214,143.6343350840034,143.6343350840034,143.6343350840034,143.6343350840034,144.0882446669857,145.07506233395543,144.10267137561848,,145.71152224997059,146.70890224998584,145.72360800061531,,148.75198637496214,149.59329904196784,151.65646141697653,,149.59329904196784,149.59329904196784,154.78000195894856,149.59329904196784,149.59329904196784,149.59329904196784,149.59329904196784,150.01890258397907,151.06985074997647,149.9872327086671,,151.65646141697653,152.69951054197736,151.6278562916598,,149.59329904196784,154.78000195894856,149.59329904196784,154.78000195894856,154.78000195894856,,149.59329904196784,2,1,1.2554809160064906,reldom2_s038,001,2025-03-06_13h24.50.845,Aud-A-Scan_AC,2022.2.5,None,
12,Second_Order,2.0,audwhere,stimulus/audwhere_stim/left_away_300h.wav,stimulus/audwhere_stim/right_away_270h.wav,stimulus/audwhere_stim/left_toward_280h.wav,stimulus/audwhere_stim/right_toward_280h.wav,stimulus/audwhere_stim/match_blank.png,stimulus/audwhere_stim/match_box.png,stimulus/audwhere_stim/match_yes.png,stimulus/audwhere_stim/match_no.png,1.0,Match,Direction,Direction,1,5.125,0,5.125,0,5.125,0,5.125,0,0.625,0.625,0,0,0,0,0,0,0,0,1,0.5,1,2.125,1,0.5,1,2.125,0,,,,,0,15,15,15,,,,,,,,,155.57200724998256,160.69456845900277,155.57200724998256,155.57200724998256,155.57200724998256,155.57200724998256,156.03369512496283,157.01944191695657,156.04674095864564,,157.65431970899226,158.65314462495735,157.66774341662338,,160.69456845900277,161.42015487496974,163.50757324998267,,161.42015487496974,161.42015487496974,166.60118091700133,161.42015487496974,161.42015487496974,161.42015487496974,161.42015487496974,161.84540216700407,162.90925425000023,161.8158418336573,,163.50757324998267,164.55383437499404,163.4782990416318,,161.42015487496974,166.60118091700133,161.42015487496974,166.60118091700133,166.60118091700133,167.28025920898654,161.42015487496974,1,1,1.054348082980141,reldom2_s038,001,2025-03-06_13h24.50.845,Aud-A-Scan_AC,2022.2.5,None,
0,0.0,None,fixation,stimulus/audwhere_stim/blank_white.png,stimulus/audwhere_stim/blank_white.png,stimulus/audwhat_stim/blank_white.png,stimulus/audwhat_stim/blank_white.png,stimulus/audwhere_stim/blank_white.png,stimulus/audwhere_stim/blank_white.png,stimulus/audwhere_stim/blank_white.png,stimulus/audwhere_stim/blank_white.png,0.0,0.0,0.0,0.0,0,0.0,0,0.0,0,0.0,0,0.0,0,0.0,0.0,0,0,0,0,0,0,0,0,0,0.0,0,0.0,0,0.0,0,0.0,8,,,,,0,16,16,16,,,,,,,,,167.5094993749517,167.5094993749517,167.5094993749517,167.5094993749517,167.5094993749517,167.5094993749517,167.5094993749517,167.5094993749517,167.4135925423199,167.5094993749517,167.5094993749517,167.5094993749517,167.4135925423199,167.5094993749517,167.5094993749517,167.5094993749517,167.5094993749517,167.5094993749517,167.5094993749517,167.5094993749517,167.5094993749517,167.5094993749517,167.5094993749517,167.5094993749517,167.5094993749517,167.5094993749517,167.5094993749517,167.46359254231987,167.5094993749517,167.5094993749517,167.5094993749517,167.46359254231987,167.5094993749517,167.5094993749517,167.5094993749517,167.5094993749517,167.5094993749517,172.7386275419849,172.7386275419849,175.75296537496615,None,0,,reldom2_s038,001,2025-03-06_13h24.50.845,Aud-A-Scan_AC,2022.2.5,None,
13,First_Order,3.0,audwhat,stimulus/audwhat_stim/dummy.wav,stimulus/audwhat_stim/dummy.wav,stimulus/audwhat_stim/percussion xylophone_high-pitch_F_loud.wav,stimulus/audwhat_stim/percussion mallet_low-pitch_Dtri_loud.wav,stimulus/audwhat_stim/blank_white.png,stimulus/audwhat_stim/category_box.png,stimulus/audwhat_stim/category_yes.png,stimulus/audwhat_stim/category_no.png,None,Category,None,Category,1,0.0,0,5.125,0,5.125,0,5.125,0,0.0,0.625,0,0,0,0,0,0,0,0,0,0.0,0,0.0,1,0.5,1,2.125,0,,,,,0,17,17,17,,,,,,,,,175.75296537496615,175.75296537496615,175.75296537496615,175.75296537496615,175.75296537496615,175.75296537496615,175.75296537496615,175.75296537496615,175.68323125065461,175.75296537496615,175.75296537496615,175.75296537496615,175.68323125065461,175.75296537496615,175.75296537496615,175.75296537496615,177.86027908395045,181.8710049589863,175.75296537496615,175.75296537496615,180.93015754199587,175.75296537496615,175.75296537496615,175.75296537496615,175.75296537496615,176.2103635839885,177.26559891697252,176.18084954162285,177.21962004195666,177.86027908395045,178.91518258396536,177.8309256256364,,175.75296537496615,180.93015754199587,175.75296537496615,180.93015754199587,180.97197195899207,181.6585160419927,175.75296537496615,1,1,1.8411105410195887,reldom2_s038,001,2025-03-06_13h24.50.845,Aud-A-Scan_AC,2022.2.5,None,
14,First_Order,3.0,audwhat,stimulus/audwhat_stim/dummy.wav,stimulus/audwhat_stim/dummy.wav,stimulus/audwhat_stim/string cello_low-pitch_Ftri_loud.wav,stimulus/audwhat_stim/string viola_high-pitch_F_loud.wav,stimulus/audwhat_stim/blank_white.png,stimulus/audwhat_stim/category_box.png,stimulus/audwhat_stim/category_yes.png,stimulus/audwhat_stim/category_no.png,None,Category,None,Category,1,0.0,0,5.125,0,5.125,0,5.125,0,0.0,0.625,0,0,0,0,0,0,0,0,0,0.0,0,0.0,1,0.5,1,2.125,0,,,,,0,18,18,18,,,,,,,,,181.8710049589863,181.8710049589863,181.8710049589863,181.8710049589863,181.8710049589863,181.8710049589863,181.8710049589863,181.8710049589863,181.79184937532605,181.8710049589863,181.8710049589863,181.8710049589863,181.79184937532605,181.8710049589863,181.8710049589863,181.8710049589863,183.9811054589809,187.99847070896067,181.8710049589863,181.8710049589863,187.06092220899882,181.8710049589863,181.8710049589863,181.8710049589863,181.8710049589863,182.33067949995166,183.38675099995453,182.3014495416467,,183.9811054589809,185.04438533395296,183.9524140836477,,181.8710049589863,187.06092220899882,181.8710049589863,187.06092220899882,187.06092220899882,187.74506916699465,181.8710049589863,1,1,0.6954519990249537,reldom2_s038,001,2025-03-06_13h24.50.845,Aud-A-Scan_AC,2022.2.5,None,
15,First_Order,3.0,audwhat,stimulus/audwhat_stim/dummy.wav,stimulus/audwhat_stim/dummy.wav,stimulus/audwhat_stim/string viola_low-pitch_D_loud.wav,stimulus/audwhat_stim/percussion mallet_low-pitch_D_loud.wav,stimulus/audwhat_stim/blank_white.png,stimulus/audwhat_stim/pitch_box.png,stimulus/audwhat_stim/pitch_yes.png,stimulus/audwhat_stim/pitch_no.png,None,Pitch,None,Pitch,1,0.0,0,5.125,0,5.125,0,5.125,0,0.0,0.625,0,0,0,0,0,0,0,0,0,0.0,0,0.0,1,0.5,1,2.125,0,,,,,0,19,19,19,,,,,,,,,187.99847070896067,187.99847070896067,187.99847070896067,187.99847070896067,187.99847070896067,187.99847070896067,187.99847070896067,187.99847070896067,187.91881950028088,187.99847070896067,187.99847070896067,187.99847070896067,187.91881950028088,187.99847070896067,187.99847070896067,187.99847070896067,190.10383495897986,194.10844833398005,187.99847070896067,187.99847070896067,193.16828887496376,187.99847070896067,187.99847070896067,187.99847070896067,187.99847070896067,188.45474749995628,189.5094613339752,188.4253090416353,,190.10383495897986,191.15938216698123,190.07432533364434,,187.99847070896067,193.16828887496376,187.99847070896067,193.16828887496376,193.20888874999946,193.89568862499436,187.99847070896067,1,1,0.579296708048787,reldom2_s038,001,2025-03-06_13h24.50.845,Aud-A-Scan_AC,2022.2.5,None,
16,First_Order,3.0,audwhat,stimulus/audwhat_stim/dummy.wav,stimulus/audwhat_stim/dummy.wav,stimulus/audwhat_stim/string cello_low-pitch_D_loud.wav,stimulus/audwhat_stim/string viola_high-pitch_Dtri_loud.wav,stimulus/audwhat_stim/blank_white.png,stimulus/audwhat_stim/pitch_box.png,stimulus/audwhat_stim/pitch_yes.png,stimulus/audwhat_stim/pitch_no.png,None,Pitch,None,Category,2,0.0,0,5.125,0,5.125,0,5.125,0,0.0,0.625,0,0,0,0,0,0,0,0,0,0.0,0,0.0,1,0.5,1,2.125,0,,,,,0,20,20,20,,,,,,,,,194.10844833398005,194.10844833398005,194.10844833398005,194.10844833398005,194.10844833398005,194.10844833398005,194.10844833398005,194.10844833398005,194.02902195832772,194.10844833398005,194.10844833398005,194.10844833398005,194.02902195832772,194.10844833398005,194.10844833398005,194.10844833398005,196.21234316698974,,194.10844833398005,194.10844833398005,199.28183474997059,194.10844833398005,194.10844833398005,194.10844833398005,194.10844833398005,194.56638024997665,195.61805587494746,194.53724962566437,,196.21234316698974,197.26818345900392,196.18289704161387,,194.10844833398005,199.28183474997059,194.10844833398005,199.28183474997059,199.32193745899713,200.00160974997561,194.10844833398005,2,1,1.9087934990529902,reldom2_s038,001,2025-03-06_13h24.50.845,Aud-A-Scan_AC,2022.2.5,None,
0,0.0,None,fixation,stimulus/audwhere_stim/blank_white.png,stimulus/audwhere_stim/blank_white.png,stimulus/audwhat_stim/blank_white.png,stimulus/audwhat_stim/blank_white.png,stimulus/audwhere_stim/blank_white.png,stimulus/audwhere_stim/blank_white.png,stimulus/audwhere_stim/blank_white.png,stimulus/audwhere_stim/blank_white.png,0.0,0.0,0.0,0.0,0,0.0,0,0.0,0,0.0,0,0.0,0,0.0,0.0,0,0,0,0,0,0,0,0,0,0.0,0,0.0,0,0.0,0,0.0,8,,,,,0,21,21,21,,,,,,,,,200.23200508399168,200.23200508399168,200.23200508399168,200.23200508399168,200.23200508399168,200.23200508399168,200.23200508399168,200.23200508399168,200.13494308330897,200.23200508399168,200.23200508399168,200.23200508399168,200.13494308330897,200.23200508399168,200.23200508399168,200.23200508399168,200.23200508399168,200.23200508399168,200.23200508399168,200.23200508399168,200.23200508399168,200.23200508399168,200.23200508399168,200.23200508399168,200.23200508399168,200.23200508399168,200.23200508399168,200.18494308330895,200.23200508399168,200.23200508399168,200.23200508399168,200.18494308330895,200.23200508399168,200.23200508399168,200.23200508399168,200.23200508399168,200.23200508399168,205.4470387499896,205.4470387499896,208.38252562499838,None,0,,reldom2_s038,001,2025-03-06_13h24.50.845,Aud-A-Scan_AC,2022.2.5,None,
17,Second_Order,3.0,audwhat,stimulus/audwhat_stim/percussion mallet_high-pitch_F_loud.wav,stimulus/audwhat_stim/string viola_high-pitch_F_loud.wav,stimulus/audwhat_stim/string cello_low-pitch_Ftri_loud.wav,stimulus/audwhat_stim/string cello_high-pitch_Dtri_loud.wav,stimulus/audwhere_stim/match_blank.png,stimulus/audwhat_stim/match_box.png,stimulus/audwhere_stim/match_yes.png,stimulus/audwhere_stim/match_no.png,2.0,Match,Pitch,Category,2,5.125,0,5.125,0,5.125,0,5.125,0,0.75,0.75,0,0,0,0,0,0,0,0,1,0.5,1,2.125,1,0.5,1,2.125,0,,,,,0,22,22,22,,,,,,,,,208.38252562499838,213.5009218339692,208.38252562499838,208.38252562499838,208.38252562499838,208.38252562499838,208.83835562499007,209.82508566696197,208.85219220864045,,210.46093687496614,211.4586264169775,210.47307237564044,,213.5009218339692,214.35355966695352,216.39216462499462,,214.35355966695352,214.35355966695352,219.53098479198525,214.35355966695352,214.35355966695352,214.35355966695352,214.35355966695352,214.8046320839785,215.8476905839634,214.77658004162757,,216.39216462499462,217.44110674998956,216.36309541663312,,214.35355966695352,219.53098479198525,214.35355966695352,219.53098479198525,219.53098479198525,,214.35355966695352,2,1,0.9908091240213253,reldom2_s038,001,2025-03-06_13h24.50.845,Aud-A-Scan_AC,2022.2.5,None,
18,Second_Order,3.0,audwhat,stimulus/audwhat_stim/string viola_low-pitch_F_loud.wav,stimulus/audwhat_stim/percussion mallet_low-pitch_F_loud.wav,stimulus/audwhat_stim/percussion mallet_high-pitch_Ftri_loud.wav,stimulus/audwhat_stim/string cello_high-pitch_Ftri_loud.wav,stimulus/audwhere_stim/match_blank.png,stimulus/audwhat_stim/match_box.png,stimulus/audwhere_stim/match_yes.png,stimulus/audwhere_stim/match_no.png,1.0,Match,Pitch,Pitch,1,5.125,0,5.125,0,5.125,0,5.125,0,0.625,0.625,0,0,0,0,0,0,0,0,1,0.5,1,2.125,1,0.5,1,2.125,0,,,,,0,23,23,23,,,,,,,,,220.32805883395486,225.44535029196413,220.32805883395486,220.32805883395486,220.32805883395486,220.32805883395486,220.78208195895422,221.76924579194747,220.79630545864737,,222.40507412498118,223.40304349997314,222.4168950836213,,225.44535029196413,226.17526645900216,228.2450197089929,,226.17526645900216,226.17526645900216,231.3662692089565,226.17526645900216,226.17526645900216,226.17526645900216,226.17526645900216,226.6225259169587,227.6586952919606,226.59433487564482,,228.2450197089929,229.28870862495387,228.2162191256687,,226.17526645900216,231.3662692089565,226.17526645900216,231.3662692089565,231.3662692089565,232.03865312499693,226.17526645900216,1,1,0.5998220830224454,reldom2_s038,001,2025-03-06_13h24.50.845,Aud-A-Scan_AC,2022.2.5,None,
0,0.0,None,fixation,stimulus/audwhere_stim/blank_white.png,stimulus/audwhere_stim/blank_white.png,stimulus/audwhat_stim/blank_white.png,stimulus/audwhat_stim/blank_white.png,stimulus/audwhere_stim/blank_white.png,stimulus/audwhere_stim/blank_white.png,stimulus/audwhere_stim/blank_white.png,stimulus/audwhere_stim/blank_white.png,0.0,0.0,0.0,0.0,0,0.0,0,0.0,0,0.0,0,0.0,0,0.0,0.0,0,0,0,0,0,0,0,0,0,0.0,0,0.0,0,0.0,0,0.0,9,,,,,0,24,24,24,,,,,,,,,232.26560495898593,232.26560495898593,232.26560495898593,232.26560495898593,232.26560495898593,232.26560495898593,232.26560495898593,232.26560495898593,232.17198645833028,232.26560495898593,232.26560495898593,232.26560495898593,232.17198645833028,232.26560495898593,232.26560495898593,232.26560495898593,232.26560495898593,232.26560495898593,232.26560495898593,232.26560495898593,232.26560495898593,232.26560495898593,232.26560495898593,232.26560495898593,232.26560495898593,232.26560495898593,232.26560495898593,232.22198645833026,232.26560495898593,232.26560495898593,232.26560495898593,232.22198645833026,232.26560495898593,232.26560495898593,232.26560495898593,232.26560495898593,232.26560495898593,237.47261083399644,237.47261083399644,241.51551537495106,None,0,,reldom2_s038,001,2025-03-06_13h24.50.845,Aud-A-Scan_AC,2022.2.5,None,
19,First_Order,4.0,audwhat,stimulus/audwhat_stim/dummy.wav,stimulus/audwhat_stim/dummy.wav,stimulus/audwhat_stim/percussion mallet_low-pitch_D_loud.wav,stimulus/audwhat_stim/string viola_low-pitch_D_loud.wav,stimulus/audwhat_stim/blank_white.png,stimulus/audwhat_stim/category_box.png,stimulus/audwhat_stim/category_yes.png,stimulus/audwhat_stim/category_no.png,None,Category,None,Pitch,2,0.0,0,5.125,0,5.125,0,5.125,0,0.0,0.625,0,0,0,0,0,0,0,0,0,0.0,0,0.0,1,0.5,1,2.125,0,,,,,0,25,25,25,,,,,,,,,241.51551537495106,241.51551537495106,241.51551537495106,241.51551537495106,241.51551537495106,241.51551537495106,241.51551537495106,241.51551537495106,241.4475722506565,241.51551537495106,241.51551537495106,241.51551537495106,241.4475722506565,241.51551537495106,241.51551537495106,241.51551537495106,243.62057704199106,,241.51551537495106,241.51551537495106,246.68796424998436,241.51551537495106,241.51551537495106,241.51551537495106,241.51551537495106,241.97273195895832,243.0268757919548,241.9434453336328,,243.62057704199106,244.6726457089535,243.59134529164683,,241.51551537495106,246.68796424998436,241.51551537495106,246.68796424998436,246.72807924996596,247.41376104200026,241.51551537495106,2,1,2.160842125013005,reldom2_s038,001,2025-03-06_13h24.50.845,Aud-A-Scan_AC,2022.2.5,None,
20,First_Order,4.0,audwhat,stimulus/audwhat_stim/dummy.wav,stimulus/audwhat_stim/dummy.wav,stimulus/audwhat_stim/percussion xylophone_high-pitch_Dtri_loud.wav,stimulus/audwhat_stim/string cello_high-pitch_Dtri_loud.wav,stimulus/audwhat_stim/blank_white.png,stimulus/audwhat_stim/pitch_box.png,stimulus/audwhat_stim/pitch_yes.png,stimulus/audwhat_stim/pitch_no.png,None,Pitch,None,Pitch,1,0.0,0,5.125,0,5.125,0,5.125,0,0.0,0.625,0,0,0,0,0,0,0,0,0,0.0,0,0.0,1,0.5,1,2.125,0,,,,,0,26,26,26,,,,,,,,,247.6249813339673,247.6249813339673,247.6249813339673,247.6249813339673,247.6249813339673,247.6249813339673,247.6249813339673,247.6249813339673,247.54709437533361,247.6249813339673,247.6249813339673,247.6249813339673,247.54709437533361,247.6249813339673,247.6249813339673,247.6249813339673,249.7247636669781,,247.6249813339673,247.6249813339673,252.7882997089764,247.6249813339673,247.6249813339673,247.6249813339673,247.6249813339673,248.0807349999668,249.1320627919631,248.05178850063047,249.08666741696652,249.7247636669781,250.78021604195237,249.6958260006543,,247.6249813339673,252.7882997089764,247.6249813339673,252.7882997089764,252.82935316697694,253.51636012498057,247.6249813339673,1,1,0.5868826659861952,reldom2_s038,001,2025-03-06_13h24.50.845,Aud-A-Scan_AC,2022.2.5,None,
21,First_Order,4.0,audwhat,stimulus/audwhat_stim/dummy.wav,stimulus/audwhat_stim/dummy.wav,stimulus/audwhat_stim/string viola_low-pitch_D_loud.wav,stimulus/audwhat_stim/percussion mallet_low-pitch_D_loud.wav,stimulus/audwhat_stim/blank_white.png,stimulus/audwhat_stim/category_box.png,stimulus/audwhat_stim/category_yes.png,stimulus/audwhat_stim/category_no.png,None,Category,None,Pitch,2,0.0,0,5.125,0,5.125,0,5.125,0,0.0,0.625,0,0,0,0,0,0,0,0,0,0.0,0,0.0,1,0.5,1,2.125,0,,,,,0,27,27,27,,,,,,,,,253.72662770899478,253.72662770899478,253.72662770899478,253.72662770899478,253.72662770899478,253.72662770899478,253.72662770899478,253.72662770899478,253.64969345831392,253.72662770899478,253.72662770899478,253.72662770899478,253.64969345831392,253.72662770899478,253.72662770899478,253.72662770899478,255.83740124996984,,253.72662770899478,253.72662770899478,258.9196121249697,253.72662770899478,253.72662770899478,253.72662770899478,253.72662770899478,254.186484249949,255.2420788339805,254.15680570865905,,255.83740124996984,256.89699570898665,255.80780558364157,,253.72662770899478,258.9196121249697,253.72662770899478,258.9196121249697,258.9196121249697,259.6070794169791,253.72662770899478,2,1,0.6015517910127528,reldom2_s038,001,2025-03-06_13h24.50.845,Aud-A-Scan_AC,2022.2.5,None,
22,First_Order,4.0,audwhat,stimulus/audwhat_stim/dummy.wav,stimulus/audwhat_stim/dummy.wav,stimulus/audwhat_stim/string viola_low-pitch_Ftri_loud.wav,stimulus/audwhat_stim/string cello_high-pitch_D_loud.wav,stimulus/audwhat_stim/blank_white.png,stimulus/audwhat_stim/pitch_box.png,stimulus/audwhat_stim/pitch_yes.png,stimulus/audwhat_stim/pitch_no.png,None,Pitch,None,Category,2,0.0,0,5.125,0,5.125,0,5.125,0,0.0,0.625,0,0,0,0,0,0,0,0,0,0.0,0,0.0,1,0.5,1,2.125,0,,,,,0,28,28,28,,,,,,,,,259.81806395895546,259.81806395895546,259.81806395895546,259.81806395895546,259.81806395895546,259.81806395895546,259.81806395895546,259.81806395895546,259.74041275031243,259.81806395895546,259.81806395895546,259.81806395895546,259.74041275031243,259.81806395895546,259.81806395895546,259.81806395895546,261.9250364169711,265.9584515839815,259.81806395895546,259.81806395895546,265.00508562498726,259.81806395895546,259.81806395895546,259.81806395895546,259.81806395895546,260.2761371669476,261.32961366698146,260.24661033362304,,261.9250364169711,262.98199054197175,261.89550183364577,,259.81806395895546,265.00508562498726,259.81806395895546,265.00508562498726,265.04554470896255,265.72786562499823,259.81806395895546,2,1,1.783928624005057,reldom2_s038,001,2025-03-06_13h24.50.845,Aud-A-Scan_AC,2022.2.5,None,
0,0.0,None,fixation,stimulus/audwhere_stim/blank_white.png,stimulus/audwhere_stim/blank_white.png,stimulus/audwhat_stim/blank_white.png,stimulus/audwhat_stim/blank_white.png,stimulus/audwhere_stim/blank_white.png,stimulus/audwhere_stim/blank_white.png,stimulus/audwhere_stim/blank_white.png,stimulus/audwhere_stim/blank_white.png,0.0,0.0,0.0,0.0,0,0.0,0,0.0,0,0.0,0,0.0,0,0.0,0.0,0,0,0,0,0,0,0,0,0,0.0,0,0.0,0,0.0,0,0.0,10,,,,,0,29,29,29,,,,,,,,,265.9584515839815,265.9584515839815,265.9584515839815,265.9584515839815,265.9584515839815,265.9584515839815,265.9584515839815,265.9584515839815,265.86119895833156,265.9584515839815,265.9584515839815,265.9584515839815,265.86119895833156,265.9584515839815,265.9584515839815,265.9584515839815,265.9584515839815,265.9584515839815,265.9584515839815,265.9584515839815,265.9584515839815,265.9584515839815,265.9584515839815,265.9584515839815,265.9584515839815,265.9584515839815,265.9584515839815,265.91119895833157,265.9584515839815,265.9584515839815,265.9584515839815,265.91119895833157,265.9584515839815,265.9584515839815,265.9584515839815,265.9584515839815,265.9584515839815,271.176718083967,271.176718083967,276.1300153749762,None,0,,reldom2_s038,001,2025-03-06_13h24.50.845,Aud-A-Scan_AC,2022.2.5,None,
23,Second_Order,4.0,audwhat,stimulus/audwhat_stim/string cello_low-pitch_F_loud.wav,stimulus/audwhat_stim/string cello_high-pitch_Ftri_loud.wav,stimulus/audwhat_stim/percussion mallet_high-pitch_Ftri_loud.wav,stimulus/audwhat_stim/percussion mallet_low-pitch_F_loud.wav,stimulus/audwhere_stim/match_blank.png,stimulus/audwhat_stim/match_box.png,stimulus/audwhere_stim/match_yes.png,stimulus/audwhere_stim/match_no.png,1.0,Match,Category,Category,1,5.125,0,5.125,0,5.125,0,5.125,0,0.75,0.75,0,0,0,0,0,0,0,0,1,0.5,1,2.125,1,0.5,1,2.125,0,,,,,0,30,30,30,,,,,,,,,276.1300153749762,281.2530157499714,276.1300153749762,276.1300153749762,276.1300153749762,276.1300153749762,276.5776116249617,277.5650369169889,276.5917605416655,,278.2127938749618,279.2024598339922,278.21718220861317,,281.2530157499714,282.1048407089547,284.1450168750016,,282.1048407089547,282.1048407089547,287.2876509169582,282.1048407089547,282.1048407089547,282.1048407089547,282.1048407089547,282.5573569169501,283.6015022499487,282.5285262086584,,284.1450168750016,285.1958822499728,284.11624525062894,,282.1048407089547,287.2876509169582,282.1048407089547,287.2876509169582,287.2876509169582,,282.1048407089547,1,1,0.7925761659862474,reldom2_s038,001,2025-03-06_13h24.50.845,Aud-A-Scan_AC,2022.2.5,None,
24,Second_Order,4.0,audwhat,stimulus/audwhat_stim/percussion xylophone_high-pitch_Dtri_loud.wav,stimulus/audwhat_stim/percussion mallet_low-pitch_D_loud.wav,stimulus/audwhat_stim/string cello_low-pitch_Ftri_loud.wav,stimulus/audwhat_stim/string viola_high-pitch_D_loud.wav,stimulus/audwhere_stim/match_blank.png,stimulus/audwhat_stim/match_box.png,stimulus/audwhere_stim/match_yes.png,stimulus/audwhere_stim/match_no.png,1.0,Match,Category,Category,1,5.125,0,5.125,0,5.125,0,5.125,0,0.625,0.625,0,0,0,0,0,0,0,0,1,0.5,1,2.125,1,0.5,1,2.125,0,,,,,0,31,31,31,,,,,,,,,288.0848760419758,293.2022906249622,288.0848760419758,288.0848760419758,288.0848760419758,288.0848760419758,288.53921666694805,289.5265642919694,288.5529877506235,289.5432870420045,290.1614151249523,291.15930483397096,290.17390645866203,,293.2022906249622,293.9313465000014,296.00578912498895,300.0349585840013,293.9313465000014,293.9313465000014,299.0894809589954,293.9313465000014,293.9313465000014,293.9313465000014,293.9313465000014,294.38079899997683,295.41888158395886,294.3521590416242,,296.00578912498895,297.0516213749652,295.9773133756282,,293.9313465000014,299.0894809589954,293.9313465000014,299.0894809589954,299.0894809589954,299.7661998340045,293.9313465000014,1,1,0.5605841659707949,reldom2_s038,001,2025-03-06_13h24.50.845,Aud-A-Scan_AC,2022.2.5,None,
0,0.0,None,fixation,stimulus/audwhere_stim/blank_white.png,stimulus/audwhere_stim/blank_white.png,stimulus/audwhat_stim/blank_white.png,stimulus/audwhat_stim/blank_white.png,stimulus/audwhere_stim/blank_white.png,stimulus/audwhere_stim/blank_white.png,stimulus/audwhere_stim/blank_white.png,stimulus/audwhere_stim/blank_white.png,0.0,0.0,0.0,0.0,0,0.0,0,0.0,0,0.0,0,0.0,0,0.0,0.0,0,0,0,0,0,0,0,0,0,0.0,0,0.0,0,0.0,0,0.0,9,,,,,0,32,32,32,,,,,,,,,300.0349585840013,300.0349585840013,300.0349585840013,300.0349585840013,300.0349585840013,300.0349585840013,300.0349585840013,300.0349585840013,299.9394147083241,300.0349585840013,300.0349585840013,300.0349585840013,299.9394147083241,300.0349585840013,300.0349585840013,300.0349585840013,300.0349585840013,300.0349585840013,300.0349585840013,300.0349585840013,300.0349585840013,300.0349585840013,300.0349585840013,300.0349585840013,300.0349585840013,300.0349585840013,300.0349585840013,299.9894147083241,300.0349585840013,300.0349585840013,300.0349585840013,299.9894147083241,300.0349585840013,300.0349585840013,300.0349585840013,300.0349585840013,300.0349585840013,305.24925429199357,305.24925429199357,309.2960587499547,None,0,,reldom2_s038,001,2025-03-06_13h24.50.845,Aud-A-Scan_AC,2022.2.5,None,
25,First_Order,5.0,audwhere,stimulus/audwhere_stim/dummy.wav,stimulus/audwhere_stim/dummy.wav,stimulus/audwhere_stim/right_away_300h.wav,stimulus/audwhere_stim/right_toward_300h.wav,stimulus/audwhere_stim/blank_white.png,stimulus/audwhere_stim/direction_box.png,stimulus/audwhere_stim/direction_yes.png,stimulus/audwhere_stim/direction_no.png,None,Direction,None,Side,2,0.0,0,5.125,0,5.125,0,5.125,0,0.0,0.625,0,0,0,0,0,0,0,0,0,0.0,0,0.0,1,0.5,1,2.125,0,,,,,0,33,33,33,,,,,,,,,309.2960587499547,309.2960587499547,309.2960587499547,309.2960587499547,309.2960587499547,309.2960587499547,309.2960587499547,309.2960587499547,309.21298291694836,309.2960587499547,309.2960587499547,309.2960587499547,309.21298291694836,309.2960587499547,309.2960587499547,309.2960587499547,311.4051566249691,315.4200224169763,309.2960587499547,309.2960587499547,314.4824748339597,309.2960587499547,309.2960587499547,309.2960587499547,309.2960587499547,309.75409691699315,310.8086229589535,309.72494704166115,,311.4051566249691,312.4616681250045,311.3757167506303,,309.2960587499547,314.4824748339597,309.2960587499547,314.4824748339597,314.5236515419674,315.17099212500034,309.2960587499547,2,1,1.0649898330448195,reldom2_s038,001,2025-03-06_13h24.50.845,Aud-A-Scan_AC,2022.2.5,None,
26,First_Order,5.0,audwhere,stimulus/audwhere_stim/dummy.wav,stimulus/audwhere_stim/dummy.wav,stimulus/audwhere_stim/right_away_280h.wav,stimulus/audwhere_stim/left_away_270h.wav,stimulus/audwhere_stim/blank_white.png,stimulus/audwhere_stim/side_box.png,stimulus/audwhere_stim/side_yes.png,stimulus/audwhere_stim/side_no.png,None,Side,None,Direction,2,0.0,0,5.125,0,5.125,0,5.125,0,0.0,0.625,0,0,0,0,0,0,0,0,0,0.0,0,0.0,1,0.5,1,2.125,0,,,,,0,34,34,34,,,,,,,,,315.4200224169763,315.4200224169763,315.4200224169763,315.4200224169763,315.4200224169763,315.4200224169763,315.4200224169763,315.4200224169763,315.34396425032367,315.4200224169763,315.4200224169763,315.4200224169763,315.34396425032367,315.4200224169763,315.4200224169763,315.4200224169763,317.5317727919901,321.5394458340015,315.4200224169763,315.4200224169763,320.6014074999839,315.4200224169763,315.4200224169763,315.4200224169763,315.4200224169763,315.87823670898797,316.93404829199426,315.8489751666241,,317.5317727919901,318.5882669999846,317.502356666668,,315.4200224169763,320.6014074999839,315.4200224169763,320.6014074999839,320.6420238339924,321.32957995898323,315.4200224169763,2,1,0.8443384160054848,reldom2_s038,001,2025-03-06_13h24.50.845,Aud-A-Scan_AC,2022.2.5,None,
27,First_Order,5.0,audwhere,stimulus/audwhere_stim/dummy.wav,stimulus/audwhere_stim/dummy.wav,stimulus/audwhere_stim/left_away_300h.wav,stimulus/audwhere_stim/right_away_290h.wav,stimulus/audwhere_stim/blank_white.png,stimulus/audwhere_stim/direction_box.png,stimulus/audwhere_stim/direction_yes.png,stimulus/audwhere_stim/direction_no.png,None,Direction,None,Direction,1,0.0,0,5.125,0,5.125,0,5.125,0,0.0,0.625,0,0,0,0,0,0,0,0,0,0.0,0,0.0,1,0.5,1,2.125,0,,,,,0,35,35,35,,,,,,,,,321.5394458340015,321.5394458340015,321.5394458340015,321.5394458340015,321.5394458340015,321.5394458340015,321.5394458340015,321.5394458340015,321.46291329231656,321.5394458340015,321.5394458340015,321.5394458340015,321.46291329231656,321.5394458340015,321.5394458340015,321.5394458340015,323.61679433396785,,321.5394458340015,321.5394458340015,326.7097159589757,321.5394458340015,321.5394458340015,321.5394458340015,321.5394458340015,322.0001430839766,323.06399904197315,321.9703979166263,,323.61679433396785,324.67864966695197,323.5869601666384,,321.5394458340015,326.7097159589757,321.5394458340015,326.7097159589757,326.7497666249983,327.3981344589847,321.5394458340015,1,1,1.189048708009068,reldom2_s038,001,2025-03-06_13h24.50.845,Aud-A-Scan_AC,2022.2.5,None,
28,First_Order,5.0,audwhere,stimulus/audwhere_stim/dummy.wav,stimulus/audwhere_stim/dummy.wav,stimulus/audwhere_stim/left_away_290h.wav,stimulus/audwhere_stim/right_away_280h.wav,stimulus/audwhere_stim/blank_white.png,stimulus/audwhere_stim/direction_box.png,stimulus/audwhere_stim/direction_yes.png,stimulus/audwhere_stim/direction_no.png,None,Direction,None,Direction,1,0.0,0,5.125,0,5.125,0,5.125,0,0.0,0.625,0,0,0,0,0,0,0,0,0,0.0,0,0.0,1,0.5,1,2.125,0,,,,,0,36,36,36,,,,,,,,,327.6479510839563,327.6479510839563,327.6479510839563,327.6479510839563,327.6479510839563,327.6479510839563,327.6479510839563,327.6479510839563,327.5721771673144,327.6479510839563,327.6479510839563,327.6479510839563,327.5721771673144,327.6479510839563,327.6479510839563,327.6479510839563,329.7279115419951,333.7875625839806,327.6479510839563,327.6479510839563,332.82679904199904,327.6479510839563,327.6479510839563,327.6479510839563,327.6479510839563,328.1099935839884,329.1739577499684,328.0801130836519,,329.7279115419951,330.7951661669649,329.6981223756486,,327.6479510839563,332.82679904199904,327.6479510839563,332.82679904199904,332.86737958400045,333.51505383395124,327.6479510839563,1,1,1.9940790829714388,reldom2_s038,001,2025-03-06_13h24.50.845,Aud-A-Scan_AC,2022.2.5,None,
0,0.0,None,fixation,stimulus/audwhere_stim/blank_white.png,stimulus/audwhere_stim/blank_white.png,stimulus/audwhat_stim/blank_white.png,stimulus/audwhat_stim/blank_white.png,stimulus/audwhere_stim/blank_white.png,stimulus/audwhere_stim/blank_white.png,stimulus/audwhere_stim/blank_white.png,stimulus/audwhere_stim/blank_white.png,0.0,0.0,0.0,0.0,0,0.0,0,0.0,0,0.0,0,0.0,0,0.0,0.0,0,0,0,0,0,0,0,0,0,0.0,0,0.0,0,0.0,0,0.0,9,,,,,0,37,37,37,,,,,,,,,333.7875625839806,333.7875625839806,333.7875625839806,333.7875625839806,333.7875625839806,333.7875625839806,333.7875625839806,333.7875625839806,333.68905258333155,333.7875625839806,333.7875625839806,333.7875625839806,333.68905258333155,333.7875625839806,333.7875625839806,333.7875625839806,333.7875625839806,333.7875625839806,333.7875625839806,333.7875625839806,333.7875625839806,333.7875625839806,333.7875625839806,333.7875625839806,333.7875625839806,333.7875625839806,333.7875625839806,333.73905258333156,333.7875625839806,333.7875625839806,333.7875625839806,333.73905258333156,333.7875625839806,333.7875625839806,333.7875625839806,333.7875625839806,333.7875625839806,338.98589845898096,338.98589845898096,342.94561704195803,None,0,,reldom2_s038,001,2025-03-06_13h24.50.845,Aud-A-Scan_AC,2022.2.5,None,
29,Second_Order,5.0,audwhere,stimulus/audwhere_stim/right_toward_270h.wav,stimulus/audwhere_stim/right_away_280h.wav,stimulus/audwhere_stim/left_toward_290h.wav,stimulus/audwhere_stim/left_away_290h.wav,stimulus/audwhere_stim/match_blank.png,stimulus/audwhere_stim/match_box.png,stimulus/audwhere_stim/match_yes.png,stimulus/audwhere_stim/match_no.png,1.0,Match,Side,Side,1,5.125,0,5.125,0,5.125,0,5.125,0,0.75,0.75,0,0,0,0,0,0,0,0,1,0.5,1,2.125,1,0.5,1,2.125,0,,,,,0,38,38,38,,,,,,,,,342.94561704195803,348.06241962499917,342.94561704195803,342.94561704195803,342.94561704195803,342.94561704195803,343.398650749994,344.38589399994817,343.41288162564547,,345.02170866698725,346.01976741699036,345.0338586256296,,348.06241962499917,348.91130704199895,350.95683708396973,354.9014726669993,348.91130704199895,348.91130704199895,354.0619749999605,348.91130704199895,348.91130704199895,348.91130704199895,348.91130704199895,349.3662677499815,350.41097016696585,349.33726983366455,,350.95683708396973,352.0105425840011,350.9277435416627,,348.91130704199895,354.0619749999605,348.91130704199895,354.0619749999605,354.102368333959,,348.91130704199895,1,1,0.6234394579660147,reldom2_s038,001,2025-03-06_13h24.50.845,Aud-A-Scan_AC,2022.2.5,None,
30,Second_Order,5.0,audwhere,stimulus/audwhere_stim/left_toward_300h.wav,stimulus/audwhere_stim/left_away_290h.wav,stimulus/audwhere_stim/right_away_290h.wav,stimulus/audwhere_stim/right_toward_280h.wav,stimulus/audwhere_stim/match_blank.png,stimulus/audwhere_stim/match_box.png,stimulus/audwhere_stim/match_yes.png,stimulus/audwhere_stim/match_no.png,1.0,Match,Side,Side,1,5.125,0,5.125,0,5.125,0,5.125,0,0.625,0.625,0,0,0,0,0,0,0,0,1,0.5,1,2.125,1,0.5,1,2.125,0,,,,,0,39,39,39,,,,,,,,,354.9014726669993,360.0240634169895,354.9014726669993,354.9014726669993,354.9014726669993,354.9014726669993,355.359764333989,356.34729720896576,355.3738654166266,,356.9828065839829,357.98060354200425,356.994977000639,,360.0240634169895,360.7541729589575,362.79200970899547,,360.7541729589575,360.7541729589575,365.929502916988,360.7541729589575,360.7541729589575,360.7541729589575,360.7541729589575,361.2067023339914,362.2490069589694,361.1782885006435,,362.79200970899547,363.84012558398535,362.76330212562266,,360.7541729589575,365.929502916988,360.7541729589575,365.929502916988,365.929502916988,366.60912770900177,360.7541729589575,1,1,0.7622081660083495,reldom2_s038,001,2025-03-06_13h24.50.845,Aud-A-Scan_AC,2022.2.5,None,
0,0.0,None,fixation,stimulus/audwhere_stim/blank_white.png,stimulus/audwhere_stim/blank_white.png,stimulus/audwhat_stim/blank_white.png,stimulus/audwhat_stim/blank_white.png,stimulus/audwhere_stim/blank_white.png,stimulus/audwhere_stim/blank_white.png,stimulus/audwhere_stim/blank_white.png,stimulus/audwhere_stim/blank_white.png,0.0,0.0,0.0,0.0,0,0.0,0,0.0,0,0.0,0,0.0,0,0.0,0.0,0,0,0,0,0,0,0,0,0,0.0,0,0.0,0,0.0,0,0.0,9,,,,,0,40,40,40,,,,,,,,,366.8370859589777,366.8370859589777,366.8370859589777,366.8370859589777,366.8370859589777,366.8370859589777,366.8370859589777,366.8370859589777,366.7424610423351,366.8370859589777,366.8370859589777,366.8370859589777,366.7424610423351,366.8370859589777,366.8370859589777,366.8370859589777,366.8370859589777,366.8370859589777,366.8370859589777,366.8370859589777,366.8370859589777,366.8370859589777,366.8370859589777,366.8370859589777,366.8370859589777,366.8370859589777,366.8370859589777,366.7924610423351,366.8370859589777,366.8370859589777,366.8370859589777,366.7924610423351,366.8370859589777,366.8370859589777,366.8370859589777,366.8370859589777,366.8370859589777,372.0722061669803,372.0722061669803,376.082030208956,None,0,,reldom2_s038,001,2025-03-06_13h24.50.845,Aud-A-Scan_AC,2022.2.5,None,
31,First_Order,6.0,audwhere,stimulus/audwhere_stim/dummy.wav,stimulus/audwhere_stim/dummy.wav,stimulus/audwhere_stim/left_away_300h.wav,stimulus/audwhere_stim/left_toward_300h.wav,stimulus/audwhere_stim/blank_white.png,stimulus/audwhere_stim/side_box.png,stimulus/audwhere_stim/side_yes.png,stimulus/audwhere_stim/side_no.png,None,Side,None,Side,1,0.0,0,5.125,0,5.125,0,5.125,0,0.0,0.625,0,0,0,0,0,0,0,0,0,0.0,0,0.0,1,0.5,1,2.125,0,,,,,0,41,41,41,,,,,,,,,376.082030208956,376.082030208956,376.082030208956,376.082030208956,376.082030208956,376.082030208956,376.082030208956,376.082030208956,376.01409270862735,376.082030208956,376.082030208956,376.082030208956,376.01409270862735,376.082030208956,376.082030208956,376.082030208956,378.18470149999484,,376.082030208956,376.082030208956,381.2518455419922,376.082030208956,376.082030208956,376.082030208956,376.082030208956,376.5375413749716,377.5901726669981,376.5088284166452,,378.18470149999484,379.24035341700073,378.15553733363436,,376.082030208956,381.2518455419922,376.082030208956,381.2518455419922,381.2918315419811,381.9771859999746,376.082030208956,1,1,1.1222422909922898,reldom2_s038,001,2025-03-06_13h24.50.845,Aud-A-Scan_AC,2022.2.5,None,
32,First_Order,6.0,audwhere,stimulus/audwhere_stim/dummy.wav,stimulus/audwhere_stim/dummy.wav,stimulus/audwhere_stim/right_away_270h.wav,stimulus/audwhere_stim/left_away_280h.wav,stimulus/audwhere_stim/blank_white.png,stimulus/audwhere_stim/side_box.png,stimulus/audwhere_stim/side_yes.png,stimulus/audwhere_stim/side_no.png,None,Side,None,Direction,2,0.0,0,5.125,0,5.125,0,5.125,0,0.0,0.625,0,0,0,0,0,0,0,0,0,0.0,0,0.0,1,0.5,1,2.125,0,,,,,0,42,42,42,,,,,,,,,382.1878004169557,382.1878004169557,382.1878004169557,382.1878004169557,382.1878004169557,382.1878004169557,382.1878004169557,382.1878004169557,382.11051933330793,382.1878004169557,382.1878004169557,382.1878004169557,382.11051933330793,382.1878004169557,382.1878004169557,382.1878004169557,384.2975512089906,388.31149699998787,382.1878004169557,382.1878004169557,387.37364479195094,382.1878004169557,382.1878004169557,382.1878004169557,382.1878004169557,382.64637762500206,383.701774791989,382.6169102506285,,384.2975512089906,385.3570578749641,384.2679811666642,,382.1878004169557,387.37364479195094,382.1878004169557,387.37364479195094,387.41428333398653,388.10123870900134,382.1878004169557,2,1,1.0497437490266748,reldom2_s038,001,2025-03-06_13h24.50.845,Aud-A-Scan_AC,2022.2.5,None,
33,First_Order,6.0,audwhere,stimulus/audwhere_stim/dummy.wav,stimulus/audwhere_stim/dummy.wav,stimulus/audwhere_stim/left_toward_270h.wav,stimulus/audwhere_stim/left_away_270h.wav,stimulus/audwhere_stim/blank_white.png,stimulus/audwhere_stim/direction_box.png,stimulus/audwhere_stim/direction_yes.png,stimulus/audwhere_stim/direction_no.png,None,Direction,None,Side,2,0.0,0,5.125,0,5.125,0,5.125,0,0.0,0.625,0,0,0,0,0,0,0,0,0,0.0,0,0.0,1,0.5,1,2.125,0,,,,,0,43,43,43,,,,,,,,,388.31149699998787,388.31149699998787,388.31149699998787,388.31149699998787,388.31149699998787,388.31149699998787,388.31149699998787,388.31149699998787,388.23457204233466,388.31149699998787,388.31149699998787,388.31149699998787,388.23457204233466,388.31149699998787,388.31149699998787,388.31149699998787,390.39461733395,394.43517283396795,388.31149699998787,388.31149699998787,393.49317795899697,388.31149699998787,388.31149699998787,388.31149699998787,388.31149699998787,388.7740892499569,389.8407487089862,388.7439323336623,,390.39461733395,391.4606666669715,390.3647328756672,,388.31149699998787,393.49317795899697,388.31149699998787,393.49317795899697,393.53403808397707,394.1833009169786,388.31149699998787,2,1,0.9768535830080509,reldom2_s038,001,2025-03-06_13h24.50.845,Aud-A-Scan_AC,2022.2.5,None,
34,First_Order,6.0,audwhere,stimulus/audwhere_stim/dummy.wav,stimulus/audwhere_stim/dummy.wav,stimulus/audwhere_stim/left_toward_300h.wav,stimulus/audwhere_stim/left_away_300h.wav,stimulus/audwhere_stim/blank_white.png,stimulus/audwhere_stim/side_box.png,stimulus/audwhere_stim/side_yes.png,stimulus/audwhere_stim/side_no.png,None,Side,None,Side,1,0.0,0,5.125,0,5.125,0,5.125,0,0.0,0.625,0,0,0,0,0,0,0,0,0,0.0,0,0.0,1,0.5,1,2.125,0,,,,,0,44,44,44,,,,,,,,,394.43517283396795,394.43517283396795,394.43517283396795,394.43517283396795,394.43517283396795,394.43517283396795,394.43517283396795,394.43517283396795,394.35725425029716,394.43517283396795,394.43517283396795,394.43517283396795,394.35725425029716,394.43517283396795,394.43517283396795,394.43517283396795,396.54834041697904,,394.43517283396795,394.43517283396795,399.5950288339518,394.43517283396795,394.43517283396795,394.43517283396795,394.43517283396795,394.8929439999629,395.951537291985,394.86437633366245,,396.54834041697904,397.6149769589538,396.51861879165904,,394.43517283396795,399.5950288339518,394.43517283396795,399.5950288339518,399.63568087498425,400.32400241697906,394.43517283396795,1,1,0.9782210830016993,reldom2_s038,001,2025-03-06_13h24.50.845,Aud-A-Scan_AC,2022.2.5,None,
0,0.0,None,fixation,stimulus/audwhere_stim/blank_white.png,stimulus/audwhere_stim/blank_white.png,stimulus/audwhat_stim/blank_white.png,stimulus/audwhat_stim/blank_white.png,stimulus/audwhere_stim/blank_white.png,stimulus/audwhere_stim/blank_white.png,stimulus/audwhere_stim/blank_white.png,stimulus/audwhere_stim/blank_white.png,0.0,0.0,0.0,0.0,0,0.0,0,0.0,0,0.0,0,0.0,0,0.0,0.0,0,0,0,0,0,0,0,0,0,0.0,0,0.0,0,0.0,0,0.0,10,,,,,0,45,45,45,,,,,,,,,400.55542883399175,400.55542883399175,400.55542883399175,400.55542883399175,400.55542883399175,400.55542883399175,400.55542883399175,400.55542883399175,400.4573357503124,400.55542883399175,400.55542883399175,400.55542883399175,400.4573357503124,400.55542883399175,400.55542883399175,400.55542883399175,400.55542883399175,400.55542883399175,400.55542883399175,400.55542883399175,400.55542883399175,400.55542883399175,400.55542883399175,400.55542883399175,400.55542883399175,400.55542883399175,400.55542883399175,400.5073357503124,400.55542883399175,400.55542883399175,400.55542883399175,400.5073357503124,400.55542883399175,400.55542883399175,400.55542883399175,400.55542883399175,400.55542883399175,405.7589034589473,405.7589034589473,410.7319797090022,None,0,,reldom2_s038,001,2025-03-06_13h24.50.845,Aud-A-Scan_AC,2022.2.5,None,
35,Second_Order,6.0,audwhere,stimulus/audwhere_stim/left_away_280h.wav,stimulus/audwhere_stim/left_toward_300h.wav,stimulus/audwhere_stim/right_away_280h.wav,stimulus/audwhere_stim/right_toward_300h.wav,stimulus/audwhere_stim/match_blank.png,stimulus/audwhere_stim/match_box.png,stimulus/audwhere_stim/match_yes.png,stimulus/audwhere_stim/match_no.png,1.0,Match,Side,Side,1,5.125,0,5.125,0,5.125,0,5.125,0,0.75,0.75,0,0,0,0,0,0,0,0,1,0.5,1,2.125,1,0.5,1,2.125,0,,,,,0,46,46,46,,,,,,,,,410.7319797090022,415.85268987499876,410.7319797090022,410.7319797090022,410.7319797090022,410.7319797090022,411.18911466695135,412.1762706669979,411.2028230416511,,412.81144324998604,413.8096302920021,412.8240131666573,,415.85268987499876,416.70135016698623,418.7526837500045,,416.70135016698623,416.70135016698623,421.8665047499817,416.70135016698623,416.70135016698623,416.70135016698623,416.70135016698623,417.1559987499495,418.20607795898104,417.1275366666416,,418.7526837500045,419.80916316696675,418.72393775062324,,416.70135016698623,421.8665047499817,416.70135016698623,421.8665047499817,421.8665047499817,,416.70135016698623,1,1,0.7399621239746921,reldom2_s038,001,2025-03-06_13h24.50.845,Aud-A-Scan_AC,2022.2.5,None,
36,Second_Order,6.0,audwhere,stimulus/audwhere_stim/left_away_290h.wav,stimulus/audwhere_stim/left_toward_270h.wav,stimulus/audwhere_stim/left_toward_290h.wav,stimulus/audwhere_stim/right_toward_270h.wav,stimulus/audwhere_stim/match_blank.png,stimulus/audwhere_stim/match_box.png,stimulus/audwhere_stim/match_yes.png,stimulus/audwhere_stim/match_no.png,2.0,Match,Side,Direction,2,5.125,0,5.125,0,5.125,0,5.125,0,0.625,0.625,0,0,0,0,0,0,0,0,1,0.5,1,2.125,1,0.5,1,2.125,0,,,,,0,47,47,47,,,,,,,,,422.66722491697874,427.7794071249664,422.66722491697874,422.66722491697874,422.66722491697874,422.66722491697874,423.1164151249686,424.10459899995476,423.1306292506672,,424.75143520894926,425.7404024999705,424.75564783363757,,427.7794071249664,428.50946408399614,430.59011908399407,,428.50946408399614,428.50946408399614,433.68185137497494,428.50946408399614,428.50946408399614,428.50946408399614,428.50946408399614,428.9591754169669,430.00268287496874,428.9304455006534,,430.59011908399407,431.6388636669726,430.56118758366597,,428.50946408399614,433.68185137497494,428.50946408399614,433.68185137497494,433.68185137497494,434.3615327089792,428.50946408399614,2,1,0.7933944570249878,reldom2_s038,001,2025-03-06_13h24.50.845,Aud-A-Scan_AC,2022.2.5,None,
0,0.0,None,fixation,stimulus/audwhere_stim/blank_white.png,stimulus/audwhere_stim/blank_white.png,stimulus/audwhat_stim/blank_white.png,stimulus/audwhat_stim/blank_white.png,stimulus/audwhere_stim/blank_white.png,stimulus/audwhere_stim/blank_white.png,stimulus/audwhere_stim/blank_white.png,stimulus/audwhere_stim/blank_white.png,0.0,0.0,0.0,0.0,0,0.0,0,0.0,0,0.0,0,0.0,0,0.0,0.0,0,0,0,0,0,0,0,0,0,0.0,0,0.0,0,0.0,0,0.0,9,,,,,0,48,48,48,,,,,,,,,434.5891730839503,434.5891730839503,434.5891730839503,434.5891730839503,434.5891730839503,434.5891730839503,434.5891730839503,434.5891730839503,434.49486604231254,434.5891730839503,434.5891730839503,434.5891730839503,434.49486604231254,434.5891730839503,434.5891730839503,434.5891730839503,434.5891730839503,434.5891730839503,434.5891730839503,434.5891730839503,434.5891730839503,434.5891730839503,434.5891730839503,434.5891730839503,434.5891730839503,434.5891730839503,434.5891730839503,434.54486604231255,434.5891730839503,434.5891730839503,434.5891730839503,434.54486604231255,434.5891730839503,434.5891730839503,434.5891730839503,434.5891730839503,434.5891730839503,439.8226922499598,439.8226922499598,443.8469916670001,None,0,,reldom2_s038,001,2025-03-06_13h24.50.845,Aud-A-Scan_AC,2022.2.5,None,
37,First_Order,7.0,audwhat,stimulus/audwhat_stim/dummy.wav,stimulus/audwhat_stim/dummy.wav,stimulus/audwhat_stim/string cello_low-pitch_Ftri_loud.wav,stimulus/audwhat_stim/string cello_high-pitch_D_loud.wav,stimulus/audwhat_stim/blank_white.png,stimulus/audwhat_stim/pitch_box.png,stimulus/audwhat_stim/pitch_yes.png,stimulus/audwhat_stim/pitch_no.png,None,Pitch,None,Category,2,0.0,0,5.125,0,5.125,0,5.125,0,0.0,0.625,0,0,0,0,0,0,0,0,0,0.0,0,0.0,1,0.5,1,2.125,0,,,,,0,49,49,49,,,,,,,,,443.8469916670001,443.8469916670001,443.8469916670001,443.8469916670001,443.8469916670001,443.8469916670001,443.8469916670001,443.8469916670001,443.7787320836602,443.8469916670001,443.8469916670001,443.8469916670001,443.7787320836602,443.8469916670001,443.8469916670001,443.8469916670001,445.954849333968,449.9648693749914,443.8469916670001,443.8469916670001,449.0281108749914,443.8469916670001,443.8469916670001,443.8469916670001,443.8469916670001,444.3051745419507,445.3596794999903,444.2758006256229,,445.954849333968,447.0141906669596,445.9253144166471,,443.8469916670001,449.0281108749914,443.8469916670001,449.0281108749914,449.0689094589907,449.7536217919551,443.8469916670001,2,1,0.6693491659825668,reldom2_s038,001,2025-03-06_13h24.50.845,Aud-A-Scan_AC,2022.2.5,None,
38,First_Order,7.0,audwhat,stimulus/audwhat_stim/dummy.wav,stimulus/audwhat_stim/dummy.wav,stimulus/audwhat_stim/string cello_low-pitch_D_loud.wav,stimulus/audwhat_stim/string cello_high-pitch_Ftri_loud.wav,stimulus/audwhat_stim/blank_white.png,stimulus/audwhat_stim/pitch_box.png,stimulus/audwhat_stim/pitch_yes.png,stimulus/audwhat_stim/pitch_no.png,None,Pitch,None,Category,2,0.0,0,5.125,0,5.125,0,5.125,0,0.0,0.625,0,0,0,0,0,0,0,0,0,0.0,0,0.0,1,0.5,1,2.125,0,,,,,0,50,50,50,,,,,,,,,449.9648693749914,449.9648693749914,449.9648693749914,449.9648693749914,449.9648693749914,449.9648693749914,449.9648693749914,449.9648693749914,449.8869551252884,449.9648693749914,449.9648693749914,449.9648693749914,449.8869551252884,449.9648693749914,449.9648693749914,449.9648693749914,452.0785663749557,,449.9648693749914,449.9648693749914,455.1238628749852,449.9648693749914,449.9648693749914,449.9648693749914,449.9648693749914,450.42303645896027,451.48135595896747,450.3945328336597,,452.0785663749557,453.1385618339991,452.04920200066795,,449.9648693749914,455.1238628749852,449.9648693749914,455.1238628749852,455.1644743339857,455.8500634999946,449.9648693749914,2,1,1.1772133740014397,reldom2_s038,001,2025-03-06_13h24.50.845,Aud-A-Scan_AC,2022.2.5,None,
39,First_Order,7.0,audwhat,stimulus/audwhat_stim/dummy.wav,stimulus/audwhat_stim/dummy.wav,stimulus/audwhat_stim/percussion xylophone_high-pitch_Dtri_loud.wav,stimulus/audwhat_stim/string cello_high-pitch_Dtri_loud.wav,stimulus/audwhat_stim/blank_white.png,stimulus/audwhat_stim/pitch_box.png,stimulus/audwhat_stim/pitch_yes.png,stimulus/audwhat_stim/pitch_no.png,None,Pitch,None,Pitch,1,0.0,0,5.125,0,5.125,0,5.125,0,0.0,0.625,0,0,0,0,0,0,0,0,0,0.0,0,0.0,1,0.5,1,2.125,0,,,,,0,51,51,51,,,,,,,,,456.0618549999781,456.0618549999781,456.0618549999781,456.0618549999781,456.0618549999781,456.0618549999781,456.0618549999781,456.0618549999781,455.9833968333279,456.0618549999781,456.0618549999781,456.0618549999781,455.9833968333279,456.0618549999781,456.0618549999781,456.0618549999781,458.13482354197185,,456.0618549999781,456.0618549999781,461.2249225419946,456.0618549999781,456.0618549999781,456.0618549999781,456.0618549999781,456.52324941696133,457.5838992919889,456.4936009586711,457.5379052920034,458.13482354197185,459.1980642499984,458.1050130416445,,456.0618549999781,461.2249225419946,456.0618549999781,461.2249225419946,461.26573079195805,461.9136639169883,456.0618549999781,1,1,0.6587611240101978,reldom2_s038,001,2025-03-06_13h24.50.845,Aud-A-Scan_AC,2022.2.5,None,
40,First_Order,7.0,audwhat,stimulus/audwhat_stim/dummy.wav,stimulus/audwhat_stim/dummy.wav,stimulus/audwhat_stim/string cello_low-pitch_D_loud.wav,stimulus/audwhat_stim/percussion mallet_low-pitch_D_loud.wav,stimulus/audwhat_stim/blank_white.png,stimulus/audwhat_stim/pitch_box.png,stimulus/audwhat_stim/pitch_yes.png,stimulus/audwhat_stim/pitch_no.png,None,Pitch,None,Pitch,1,0.0,0,5.125,0,5.125,0,5.125,0,0.0,0.625,0,0,0,0,0,0,0,0,0,0.0,0,0.0,1,0.5,1,2.125,0,,,,,0,52,52,52,,,,,,,,,462.16404733399395,462.16404733399395,462.16404733399395,462.16404733399395,462.16404733399395,462.16404733399395,462.16404733399395,462.16404733399395,462.0871625832825,462.16404733399395,462.16404733399395,462.16404733399395,462.0871625832825,462.16404733399395,462.16404733399395,462.16404733399395,464.2389876249945,,462.16404733399395,462.16404733399395,467.3326786669786,462.16404733399395,462.16404733399395,462.16404733399395,462.16404733399395,462.625857624982,463.6837492919876,462.59619779163427,,464.2389876249945,465.303734083951,464.2091903756411,,462.16404733399395,467.3326786669786,462.16404733399395,467.3326786669786,467.3734569999506,468.0619839169667,462.16404733399395,1,1,0.7440492910100147,reldom2_s038,001,2025-03-06_13h24.50.845,Aud-A-Scan_AC,2022.2.5,None,
0,0.0,None,fixation,stimulus/audwhere_stim/blank_white.png,stimulus/audwhere_stim/blank_white.png,stimulus/audwhat_stim/blank_white.png,stimulus/audwhat_stim/blank_white.png,stimulus/audwhere_stim/blank_white.png,stimulus/audwhere_stim/blank_white.png,stimulus/audwhere_stim/blank_white.png,stimulus/audwhere_stim/blank_white.png,0.0,0.0,0.0,0.0,0,0.0,0,0.0,0,0.0,0,0.0,0,0.0,0.0,0,0,0,0,0,0,0,0,0,0.0,0,0.0,0,0.0,0,0.0,10,,,,,0,53,53,53,,,,,,,,,468.293799209001,468.293799209001,468.293799209001,468.293799209001,468.293799209001,468.293799209001,468.293799209001,468.293799209001,468.19531725030004,468.293799209001,468.293799209001,468.293799209001,468.19531725030004,468.293799209001,468.293799209001,468.293799209001,468.293799209001,468.293799209001,468.293799209001,468.293799209001,468.293799209001,468.293799209001,468.293799209001,468.293799209001,468.293799209001,468.293799209001,468.293799209001,468.24531725030005,468.293799209001,468.293799209001,468.293799209001,468.24531725030005,468.293799209001,468.293799209001,468.293799209001,468.293799209001,468.293799209001,473.4985926669906,473.4985926669906,478.42613420897396,None,0,,reldom2_s038,001,2025-03-06_13h24.50.845,Aud-A-Scan_AC,2022.2.5,None,
41,Second_Order,7.0,audwhat,stimulus/audwhat_stim/percussion xylophone_high-pitch_Ftri_loud.wav,stimulus/audwhat_stim/percussion mallet_low-pitch_Dtri_loud.wav,stimulus/audwhat_stim/string viola_low-pitch_Ftri_loud.wav,stimulus/audwhat_stim/percussion mallet_low-pitch_Ftri_loud.wav,stimulus/audwhere_stim/match_blank.png,stimulus/audwhat_stim/match_box.png,stimulus/audwhere_stim/match_yes.png,stimulus/audwhere_stim/match_no.png,2.0,Match,Category,Pitch,2,5.125,0,5.125,0,5.125,0,5.125,0,0.75,0.75,0,0,0,0,0,0,0,0,1,0.5,1,2.125,1,0.5,1,2.125,0,,,,,0,54,54,54,,,,,,,,,478.42613420897396,483.5430536670028,478.42613420897396,478.42613420897396,478.42613420897396,478.42613420897396,478.8785357499728,479.8654486669693,478.892910500643,479.8819047919824,480.5014897499932,481.499112333986,480.5136957916586,,483.5430536670028,484.39183099998627,486.4481611249503,,484.39183099998627,484.39183099998627,489.5600027499604,484.39183099998627,484.39183099998627,484.39183099998627,484.39183099998627,484.8469705419848,485.9004363749991,484.81773083366375,,486.4481611249503,487.5046102499473,486.4192317916352,,484.39183099998627,489.5600027499604,484.39183099998627,489.5600027499604,489.5600027499604,,484.39183099998627,2,1,0.5290620830492117,reldom2_s038,001,2025-03-06_13h24.50.845,Aud-A-Scan_AC,2022.2.5,None,
42,Second_Order,7.0,audwhat,stimulus/audwhat_stim/string cello_high-pitch_Dtri_loud.wav,stimulus/audwhat_stim/percussion mallet_high-pitch_Dtri_loud.wav,stimulus/audwhat_stim/percussion mallet_low-pitch_D_loud.wav,stimulus/audwhat_stim/string cello_low-pitch_D_loud.wav,stimulus/audwhere_stim/match_blank.png,stimulus/audwhat_stim/match_box.png,stimulus/audwhere_stim/match_yes.png,stimulus/audwhere_stim/match_no.png,1.0,Match,Pitch,Pitch,1,5.125,0,5.125,0,5.125,0,5.125,0,0.625,0.625,0,0,0,0,0,0,0,0,1,0.5,1,2.125,1,0.5,1,2.125,0,,,,,0,55,55,55,,,,,,,,,490.36117150000064,495.486019999953,490.36117150000064,490.36117150000064,490.36117150000064,490.36117150000064,490.8202222499531,491.8104412499815,490.8228383756398,,492.4458609999856,493.4430481249583,492.4576371666665,,495.486019999953,496.21393420896493,498.2541830839473,502.3125214589527,496.21393420896493,496.21393420896493,501.39821995899547,496.21393420896493,496.21393420896493,496.21393420896493,496.21393420896493,496.6646426669904,497.70976895897184,496.6365696666219,,498.2541830839473,499.30537808395457,498.22597487562257,,496.21393420896493,501.39821995899547,496.21393420896493,501.39821995899547,501.39821995899547,502.0836648339755,496.21393420896493,1,1,0.8562889989698306,reldom2_s038,001,2025-03-06_13h24.50.845,Aud-A-Scan_AC,2022.2.5,None,
0,0.0,None,fixation,stimulus/audwhere_stim/blank_white.png,stimulus/audwhere_stim/blank_white.png,stimulus/audwhat_stim/blank_white.png,stimulus/audwhat_stim/blank_white.png,stimulus/audwhere_stim/blank_white.png,stimulus/audwhere_stim/blank_white.png,stimulus/audwhere_stim/blank_white.png,stimulus/audwhere_stim/blank_white.png,0.0,0.0,0.0,0.0,0,0.0,0,0.0,0,0.0,0,0.0,0,0.0,0.0,0,0,0,0,0,0,0,0,0,0.0,0,0.0,0,0.0,0,0.0,9,,,,,0,56,56,56,,,,,,,,,502.3125214589527,502.3125214589527,502.3125214589527,502.3125214589527,502.3125214589527,502.3125214589527,502.3125214589527,502.3125214589527,502.2169981673088,502.3125214589527,502.3125214589527,502.3125214589527,502.2169981673088,502.3125214589527,502.3125214589527,502.3125214589527,502.3125214589527,502.3125214589527,502.3125214589527,502.3125214589527,502.3125214589527,502.3125214589527,502.3125214589527,502.3125214589527,502.3125214589527,502.3125214589527,502.3125214589527,502.2669981673088,502.3125214589527,502.3125214589527,502.3125214589527,502.2669981673088,502.3125214589527,502.3125214589527,502.3125214589527,502.3125214589527,502.3125214589527,507.50650662498083,507.50650662498083,511.5347429589601,None,0,,reldom2_s038,001,2025-03-06_13h24.50.845,Aud-A-Scan_AC,2022.2.5,None,
43,First_Order,8.0,audwhat,stimulus/audwhat_stim/dummy.wav,stimulus/audwhat_stim/dummy.wav,stimulus/audwhat_stim/string viola_low-pitch_F_loud.wav,stimulus/audwhat_stim/percussion mallet_low-pitch_F_loud.wav,stimulus/audwhat_stim/blank_white.png,stimulus/audwhat_stim/category_box.png,stimulus/audwhat_stim/category_yes.png,stimulus/audwhat_stim/category_no.png,None,Category,None,Pitch,2,0.0,0,5.125,0,5.125,0,5.125,0,0.0,0.625,0,0,0,0,0,0,0,0,0,0.0,0,0.0,1,0.5,1,2.125,0,,,,,0,57,57,57,,,,,,,,,511.5347429589601,511.5347429589601,511.5347429589601,511.5347429589601,511.5347429589601,511.5347429589601,511.5347429589601,511.5347429589601,511.46541645864875,511.5347429589601,511.5347429589601,511.5347429589601,511.46541645864875,511.5347429589601,511.5347429589601,511.5347429589601,513.6097302919952,,511.5347429589601,511.5347429589601,516.7018581669545,511.5347429589601,511.5347429589601,511.5347429589601,511.5347429589601,511.99545487499563,513.0553710419917,511.966053125627,,513.6097302919952,514.6736590419896,513.5799077086306,,511.5347429589601,516.7018581669545,511.5347429589601,516.7018581669545,516.7424925419618,517.3927999999723,511.5347429589601,2,1,0.5637659159838222,reldom2_s038,001,2025-03-06_13h24.50.845,Aud-A-Scan_AC,2022.2.5,None,
44,First_Order,8.0,audwhat,stimulus/audwhat_stim/dummy.wav,stimulus/audwhat_stim/dummy.wav,stimulus/audwhat_stim/percussion mallet_low-pitch_Dtri_loud.wav,stimulus/audwhat_stim/percussion xylophone_high-pitch_F_loud.wav,stimulus/audwhat_stim/blank_white.png,stimulus/audwhat_stim/category_box.png,stimulus/audwhat_stim/category_yes.png,stimulus/audwhat_stim/category_no.png,None,Category,None,Category,1,0.0,0,5.125,0,5.125,0,5.125,0,0.0,0.625,0,0,0,0,0,0,0,0,0,0.0,0,0.0,1,0.5,1,2.125,0,,,,,0,58,58,58,,,,,,,,,517.6453378750011,517.6453378750011,517.6453378750011,517.6453378750011,517.6453378750011,517.6453378750011,517.6453378750011,517.6453378750011,517.5668400833111,517.6453378750011,517.6453378750011,517.6453378750011,517.5668400833111,517.6453378750011,517.6453378750011,517.6453378750011,519.7246682919795,523.7657054999727,517.6453378750011,517.6453378750011,522.8222340419888,517.6453378750011,517.6453378750011,517.6453378750011,517.6453378750011,518.1058301669545,519.170522417,518.0760459166524,,519.7246682919795,520.787630249979,519.6946565006549,520.7417287089629,517.6453378750011,522.8222340419888,517.6453378750011,522.8222340419888,522.8621834169608,523.5140304589877,517.6453378750011,2,0,1.527891083038412,reldom2_s038,001,2025-03-06_13h24.50.845,Aud-A-Scan_AC,2022.2.5,None,
45,First_Order,8.0,audwhat,stimulus/audwhat_stim/dummy.wav,stimulus/audwhat_stim/dummy.wav,stimulus/audwhat_stim/string cello_high-pitch_Dtri_loud.wav,stimulus/audwhat_stim/percussion xylophone_high-pitch_Dtri_loud.wav,stimulus/audwhat_stim/blank_white.png,stimulus/audwhat_stim/category_box.png,stimulus/audwhat_stim/category_yes.png,stimulus/audwhat_stim/category_no.png,None,Category,None,Pitch,2,0.0,0,5.125,0,5.125,0,5.125,0,0.0,0.625,0,0,0,0,0,0,0,0,0,0.0,0,0.0,1,0.5,1,2.125,0,,,,,0,59,59,59,,,,,,,,,523.7657054999727,523.7657054999727,523.7657054999727,523.7657054999727,523.7657054999727,523.7657054999727,523.7657054999727,523.7657054999727,523.6876730833047,523.7657054999727,523.7657054999727,523.7657054999727,523.6876730833047,523.7657054999727,523.7657054999727,523.7657054999727,525.8484471669653,529.892610958952,523.7657054999727,523.7657054999727,528.9479730839957,523.7657054999727,523.7657054999727,523.7657054999727,523.7657054999727,524.2289089169935,525.2957105839741,524.1989400416535,,525.8484471669653,526.9147577919648,525.8187367506364,526.8685350419837,523.7657054999727,528.9479730839957,523.7657054999727,528.9479730839957,528.9903468339471,529.6418582089827,523.7657054999727,2,1,0.9404292080434971,reldom2_s038,001,2025-03-06_13h24.50.845,Aud-A-Scan_AC,2022.2.5,None,
46,First_Order,8.0,audwhat,stimulus/audwhat_stim/dummy.wav,stimulus/audwhat_stim/dummy.wav,stimulus/audwhat_stim/percussion mallet_low-pitch_Ftri_loud.wav,stimulus/audwhat_stim/percussion mallet_high-pitch_F_loud.wav,stimulus/audwhat_stim/blank_white.png,stimulus/audwhat_stim/category_box.png,stimulus/audwhat_stim/category_yes.png,stimulus/audwhat_stim/category_no.png,None,Category,None,Category,1,0.0,0,5.125,0,5.125,0,5.125,0,0.0,0.625,0,0,0,0,0,0,0,0,0,0.0,0,0.0,1,0.5,1,2.125,0,,,,,0,60,60,60,,,,,,,,,529.892610958952,529.892610958952,529.892610958952,529.892610958952,529.892610958952,529.892610958952,529.892610958952,529.892610958952,529.8149564172801,529.892610958952,529.892610958952,529.892610958952,529.8149564172801,529.892610958952,529.892610958952,529.892610958952,531.9769438749645,,529.892610958952,529.892610958952,535.083710249979,529.892610958952,529.892610958952,529.892610958952,529.892610958952,530.3555933749885,531.4227599169826,530.3256281666147,,531.9769438749645,533.0442502499791,531.9474881256504,,529.892610958952,535.083710249979,529.892610958952,535.083710249979,535.083710249979,535.7356319999672,529.892610958952,1,1,1.9522290410241112,reldom2_s038,001,2025-03-06_13h24.50.845,Aud-A-Scan_AC,2022.2.5,None,
0,0.0,None,fixation,stimulus/audwhere_stim/blank_white.png,stimulus/audwhere_stim/blank_white.png,stimulus/audwhat_stim/blank_white.png,stimulus/audwhat_stim/blank_white.png,stimulus/audwhere_stim/blank_white.png,stimulus/audwhere_stim/blank_white.png,stimulus/audwhere_stim/blank_white.png,stimulus/audwhere_stim/blank_white.png,0.0,0.0,0.0,0.0,0,0.0,0,0.0,0,0.0,0,0.0,0,0.0,0.0,0,0,0,0,0,0,0,0,0,0.0,0,0.0,0,0.0,0,0.0,8,,,,,0,61,61,61,,,,,,,,,536.0101474999683,536.0101474999683,536.0101474999683,536.0101474999683,536.0101474999683,536.0101474999683,536.0101474999683,536.0101474999683,535.9098564582838,536.0101474999683,536.0101474999683,536.0101474999683,535.9098564582838,536.0101474999683,536.0101474999683,536.0101474999683,536.0101474999683,536.0101474999683,536.0101474999683,536.0101474999683,536.0101474999683,536.0101474999683,536.0101474999683,536.0101474999683,536.0101474999683,536.0101474999683,536.0101474999683,535.9598564582838,536.0101474999683,536.0101474999683,536.0101474999683,535.9598564582838,536.0101474999683,536.0101474999683,536.0101474999683,536.0101474999683,536.0101474999683,541.2361839590012,541.2361839590012,544.1564404169912,None,0,,reldom2_s038,001,2025-03-06_13h24.50.845,Aud-A-Scan_AC,2022.2.5,None,
47,Second_Order,8.0,audwhat,stimulus/audwhat_stim/string cello_high-pitch_F_loud.wav,stimulus/audwhat_stim/string viola_low-pitch_D_loud.wav,stimulus/audwhat_stim/percussion mallet_low-pitch_Ftri_loud.wav,stimulus/audwhat_stim/percussion xylophone_high-pitch_F_loud.wav,stimulus/audwhere_stim/match_blank.png,stimulus/audwhat_stim/match_box.png,stimulus/audwhere_stim/match_yes.png,stimulus/audwhere_stim/match_no.png,1.0,Match,Category,Category,1,5.125,0,5.125,0,5.125,0,5.125,0,0.75,0.75,0,0,0,0,0,0,0,0,1,0.5,1,2.125,1,0.5,1,2.125,0,,,,,0,62,62,62,,,,,,,,,544.1564404169912,549.2768157089595,544.1564404169912,544.1564404169912,544.1564404169912,544.1564404169912,544.6145856669755,545.6012308749487,544.6276867086456,,546.237158584001,547.2347623339738,546.2491127916185,,549.2768157089595,550.1255940839765,552.185202499968,,550.1255940839765,550.1255940839765,555.3058534999727,550.1255940839765,550.1255940839765,550.1255940839765,550.1255940839765,550.5810502919485,551.635324874951,550.5524640006518,,552.185202499968,553.2452177089872,552.1561699166234,553.1992520839558,550.1255940839765,555.3058534999727,550.1255940839765,555.3058534999727,555.3058534999727,,550.1255940839765,2,0,2.0203712490038015,reldom2_s038,001,2025-03-06_13h24.50.845,Aud-A-Scan_AC,2022.2.5,None,
48,Second_Order,8.0,audwhat,stimulus/audwhat_stim/percussion mallet_high-pitch_Ftri_loud.wav,stimulus/audwhat_stim/percussion mallet_low-pitch_D_loud.wav,stimulus/audwhat_stim/string cello_high-pitch_Ftri_loud.wav,stimulus/audwhat_stim/percussion xylophone_high-pitch_Ftri_loud.wav,stimulus/audwhere_stim/match_blank.png,stimulus/audwhat_stim/match_box.png,stimulus/audwhere_stim/match_yes.png,stimulus/audwhere_stim/match_no.png,2.0,Match,Category,Pitch,2,5.125,0,5.125,0,5.125,0,5.125,0,0.625,0.625,0,0,0,0,0,0,0,0,1,0.5,1,2.125,1,0.5,1,2.125,0,,,,,0,63,63,63,,,,,,,,,556.1086738749873,561.2212290839525,556.1086738749873,556.1086738749873,556.1086738749873,556.1086738749873,556.5585486670025,557.5449726669467,556.5722690416189,,558.193341791979,559.1820094589493,558.1971953756331,559.1951789589948,561.2212290839525,561.9508253749809,563.9961206669686,568.0496552919503,561.9508253749809,561.9508253749809,567.0998260839842,561.9508253749809,561.9508253749809,561.9508253749809,561.9508253749809,562.4037372919847,563.451019125001,562.3748708756214,,563.9961206669686,565.0474782089586,563.9668667086555,565.0020842090016,561.9508253749809,567.0998260839842,561.9508253749809,567.0998260839842,567.139798499993,567.8196707500028,561.9508253749809,2,1,1.2629907499649562,reldom2_s038,001,2025-03-06_13h24.50.845,Aud-A-Scan_AC,2022.2.5,None,
0,0.0,None,fixation,stimulus/audwhere_stim/blank_white.png,stimulus/audwhere_stim/blank_white.png,stimulus/audwhat_stim/blank_white.png,stimulus/audwhat_stim/blank_white.png,stimulus/audwhere_stim/blank_white.png,stimulus/audwhere_stim/blank_white.png,stimulus/audwhere_stim/blank_white.png,stimulus/audwhere_stim/blank_white.png,0.0,0.0,0.0,0.0,0,0.0,0,0.0,0,0.0,0,0.0,0,0.0,0.0,0,0,0,0,0,0,0,0,0,0.0,0,0.0,0,0.0,0,0.0,16,,,,,0,64,64,64,,,,,,,,,568.0496552919503,568.0496552919503,568.0496552919503,568.0496552919503,568.0496552919503,568.0496552919503,568.0496552919503,568.0496552919503,567.9530040833362,568.0496552919503,568.0496552919503,568.0496552919503,567.9530040833362,568.0496552919503,568.0496552919503,568.0496552919503,568.0496552919503,568.0496552919503,568.0496552919503,568.0496552919503,568.0496552919503,568.0496552919503,568.0496552919503,568.0496552919503,568.0496552919503,568.0496552919503,568.0496552919503,568.0030040833361,568.0496552919503,568.0496552919503,568.0496552919503,568.0030040833361,568.0496552919503,568.0496552919503,568.0496552919503,568.0496552919503,568.0496552919503,573.2562294999952,573.2562294999952,584.2128986669704,None,0,,reldom2_s038,001,2025-03-06_13h24.50.845,Aud-A-Scan_AC,2022.2.5,None,
