Trial,Order,Block,Type,Stimuli_File1,Stimuli_File2,Stimuli_File3,Stimuli_File4,Cue_File1,Cue_File2,Response_File_Yes,Response_File_No,Match,Cue_Dimension,Pair1_Dimension,Pair2_Dimension,Key,Cue1_Duration,Cue1_Onset,Cue2_Duration,Cue2_Onset,ResponseYes_Duration,ResponseYes_Onset,ResponseNo_Duration,ResponseNo_Onset,ITI_Within,ITI_Between,Image1_Duration,Image1_Onset,Image2_Duration,Image2_Onset,Image3_Duration,Image3_Onset,Image4_Duration,Image4_Onset,Sound1_Duration,Sound1_Onset,Sound2_Duration,Sound2_Onset,Sound3_Duration,Sound3_Onset,Sound4_Duration,Sound4_Onset,Fixation_Duration,trials_2.thisRepN,trials_2.thisTrialN,trials_2.thisN,trials_2.thisIndex,trials.thisRepN,trials.thisTrialN,trials.thisN,trials.thisIndex,text_start.started,key_resp_start.started,key_resp_start.keys,key_resp_start.rt,text2.started,key_resp_2.started,key_resp_2.keys,key_resp_2.rt,cue_file1.started,cue_file1.stopped,image_1.started,image_1.stopped,image_2.started,image_2.stopped,sound_icon1.started,sound_icon1.stopped,sound_1.started,sound_1.stopped,sound_icon2.started,sound_icon2.stopped,sound_2.started,sound_2.stopped,image_blank_1.started,image_blank_1.stopped,key_press.started,key_press.stopped,fixation_text.started,cue_file2.started,cue_file2.stopped,image_3.started,image_3.stopped,image_4.started,image_4.stopped,sound_icon3.started,sound_icon3.stopped,sound_3.started,sound_3.stopped,sound_icon4.started,sound_icon4.stopped,sound_4.started,sound_4.stopped,response_yes.started,response_yes.stopped,response_no.started,response_no.stopped,iti_blank.started,iti_blank.stopped,fixation_text.stopped,key_press.keys,key_press.corr,key_press.rt,participant,session,date,expName,psychopyVersion,frameRate,
,,,,,,,,,,,,,,,,,,,,,,,,,,,,,,,,,,,,,,,,,,,,,,,,,,,,8.807231542014051,8.807231542014051,2,0.8018875829875469,,,,,,,,,,,,,,,,,,,,,,,,,,,,,,,,,,,,,,,,,,,,,,,,reldom2_s038,001,2025-03-06_13h58.52.736,Where-A-Scan_AC,2022.2.5,None,
,,,,,,,,,,,,,,,,,,,,,,,,,,,,,,,,,,,,,,,,,,,,0,0,0,0,,,,,,,,,9.643956709012855,9.643956709012855,5,18.081006707041524,,,,,,,,,,,,,,,,,,,,,,,,,,,,,,,,,,,,,,,,,,,,reldom2_s038,001,2025-03-06_13h58.52.736,Where-A-Scan_AC,2022.2.5,None,
,,,,,,,,,,,,,,,,,,,,,,,,,,,,,,,,,,,,,,,,,,,,1,0,1,0,,,,,,,,,27.738769125018734,27.738769125018734,5,1.9845865410170518,,,,,,,,,,,,,,,,,,,,,,,,,,,,,,,,,,,,,,,,,,,,reldom2_s038,001,2025-03-06_13h58.52.736,Where-A-Scan_AC,2022.2.5,None,
,,,,,,,,,,,,,,,,,,,,,,,,,,,,,,,,,,,,,,,,,,,,2,0,2,0,,,,,,,,,29.740263708983548,29.740263708983548,5,1.982685791037511,,,,,,,,,,,,,,,,,,,,,,,,,,,,,,,,,,,,,,,,,,,,reldom2_s038,001,2025-03-06_13h58.52.736,Where-A-Scan_AC,2022.2.5,None,
,,,,,,,,,,,,,,,,,,,,,,,,,,,,,,,,,,,,,,,,,,,,3,0,3,0,,,,,,,,,31.741487417020835,31.741487417020835,5,1.9814106660196558,,,,,,,,,,,,,,,,,,,,,,,,,,,,,,,,,,,,,,,,,,,,reldom2_s038,001,2025-03-06_13h58.52.736,Where-A-Scan_AC,2022.2.5,None,
0,0.0,None,fixation,stimulus/viswhere_stim/blank_white.png,stimulus/viswhere_stim/blank_white.png,stimulus/audwhere_stim/blank_white.png,stimulus/audwhere_stim/blank_white.png,stimulus/viswhere_stim/blank_white.png,stimulus/viswhere_stim/blank_white.png,stimulus/viswhere_stim/blank_white.png,stimulus/viswhere_stim/blank_white.png,0.0,0.0,0.0,0.0,0,0.0,0,0.0,0,0.0,0,0.0,0,0.0,0.0,0,0.0,0,0.0,0,0.0,0,0.0,0,0.0,0,0.0,0,0.0,0,0.0,16,,,,,0,0,0,0,,,,,,,,,33.93468483397737,33.93468483397737,33.93468483397737,33.93468483397737,33.93468483397737,33.93468483397737,33.93468483397737,33.93468483397737,33.84071320868485,33.93468483397737,33.93468483397737,33.93468483397737,33.84071320868485,33.93468483397737,33.93468483397737,33.93468483397737,33.93468483397737,33.93468483397737,33.93468483397737,33.93468483397737,33.93468483397737,33.93468483397737,33.93468483397737,33.93468483397737,33.93468483397737,33.93468483397737,33.93468483397737,33.89071320868485,33.93468483397737,33.93468483397737,33.93468483397737,33.89071320868485,33.93468483397737,33.93468483397737,33.93468483397737,33.93468483397737,33.93468483397737,39.13192066701595,39.13192066701595,50.13011504197493,None,0,,reldom2_s038,001,2025-03-06_13h58.52.736,Where-A-Scan_AC,2022.2.5,None,
1,First_Order,1.0,viswhere,stimulus/viswhere_stim/blank_white.png,stimulus/viswhere_stim/blank_white.png,stimulus/viswhere_stim/60-deg_dot-left_peru.png,stimulus/viswhere_stim/60-deg_dot-right_turquoise.png,stimulus/viswhere_stim/blank_white.png,stimulus/viswhere_stim/dot_box.png,stimulus/viswhere_stim/dot_yes.png,stimulus/viswhere_stim/dot_no.png,None,Dot,None,Line,2,0.0,0,5.125,0,5.125,0,5.125,0,0.0,0.625,0,0.0,0,0.0,1,0.5,1,2.125,0,0.0,0,0.0,0,0.0,0,0.0,0,,,,,0,1,1,1,,,,,,,,,50.13011504197493,50.13011504197493,50.13011504197493,50.13011504197493,50.13011504197493,50.13011504197493,50.13011504197493,50.13011504197493,50.10567541697528,50.13011504197493,50.13011504197493,50.13011504197493,50.10567541697528,50.13011504197493,50.13011504197493,50.13011504197493,52.23118208401138,56.18984658399131,50.13011504197493,50.13011504197493,55.2651371670072,50.620496959018055,51.622461749997456,52.23118208401138,53.24852770898724,50.13011504197493,50.13011504197493,50.122342083641946,50.13011504197493,50.13011504197493,50.13011504197493,50.122342083641946,50.13011504197493,50.13011504197493,55.2651371670072,50.13011504197493,55.2651371670072,55.35949250002159,55.98025779199088,50.13011504197493,2,1,0.5745540829957463,reldom2_s038,001,2025-03-06_13h58.52.736,Where-A-Scan_AC,2022.2.5,None,
2,First_Order,1.0,viswhere,stimulus/viswhere_stim/blank_white.png,stimulus/viswhere_stim/blank_white.png,stimulus/viswhere_stim/60-deg_dot-right_turquoise.png,stimulus/viswhere_stim/60-deg_dot-left_turquoise.png,stimulus/viswhere_stim/blank_white.png,stimulus/viswhere_stim/line_box.png,stimulus/viswhere_stim/line_yes.png,stimulus/viswhere_stim/line_no.png,None,Line,None,Line,1,0.0,0,5.125,0,5.125,0,5.125,0,0.0,0.625,0,0.0,0,0.0,1,0.5,1,2.125,0,0.0,0,0.0,0,0.0,0,0.0,0,,,,,0,2,2,2,,,,,,,,,56.18984658399131,56.18984658399131,56.18984658399131,56.18984658399131,56.18984658399131,56.18984658399131,56.18984658399131,56.18984658399131,56.17049937534224,56.18984658399131,56.18984658399131,56.18984658399131,56.17049937534224,56.18984658399131,56.18984658399131,56.18984658399131,58.30656979198102,62.254326249996666,56.18984658399131,56.18984658399131,61.316322541970294,56.66913724999176,57.67920662497636,58.30656979198102,59.322842042020056,56.18984658399131,56.18984658399131,56.17049937534224,56.18984658399131,56.18984658399131,56.18984658399131,56.17049937534224,56.18984658399131,56.18984658399131,61.316322541970294,56.18984658399131,61.316322541970294,61.41649020899786,62.0443992500077,56.18984658399131,1,1,0.6510544160264544,reldom2_s038,001,2025-03-06_13h58.52.736,Where-A-Scan_AC,2022.2.5,None,
3,First_Order,1.0,viswhere,stimulus/viswhere_stim/blank_white.png,stimulus/viswhere_stim/blank_white.png,stimulus/viswhere_stim/30-deg_dot-left_salmon.png,stimulus/viswhere_stim/120-deg_dot-left_royalblue.png,stimulus/viswhere_stim/blank_white.png,stimulus/viswhere_stim/line_box.png,stimulus/viswhere_stim/line_yes.png,stimulus/viswhere_stim/line_no.png,None,Line,None,Dot,2,0.0,0,5.125,0,5.125,0,5.125,0,0.0,0.625,0,0.0,0,0.0,1,0.5,1,2.125,0,0.0,0,0.0,0,0.0,0,0.0,0,,,,,0,3,3,3,,,,,,,,,62.254326249996666,62.254326249996666,62.254326249996666,62.254326249996666,62.254326249996666,62.254326249996666,62.254326249996666,62.254326249996666,62.23470812531499,62.254326249996666,62.254326249996666,62.254326249996666,62.23470812531499,62.254326249996666,62.254326249996666,62.254326249996666,64.36659950000467,68.32344758399995,62.254326249996666,62.254326249996666,67.3760691669886,62.73095395899145,63.73867691698251,64.36659950000467,65.37951366696507,62.254326249996666,62.254326249996666,62.251374791981654,62.254326249996666,62.254326249996666,62.254326249996666,62.251374791981654,62.254326249996666,62.254326249996666,67.3760691669886,62.254326249996666,67.3760691669886,67.48454637499526,68.11876004200894,62.254326249996666,2,1,0.9536477500223555,reldom2_s038,001,2025-03-06_13h58.52.736,Where-A-Scan_AC,2022.2.5,None,
4,First_Order,1.0,viswhere,stimulus/viswhere_stim/blank_white.png,stimulus/viswhere_stim/blank_white.png,stimulus/viswhere_stim/150-deg_dot-right_salmon.png,stimulus/viswhere_stim/90-deg_dot-right_goldenrod.png,stimulus/viswhere_stim/blank_white.png,stimulus/viswhere_stim/line_box.png,stimulus/viswhere_stim/line_yes.png,stimulus/viswhere_stim/line_no.png,None,Line,None,Dot,2,0.0,0,5.125,0,5.125,0,5.125,0,0.0,0.625,0,0.0,0,0.0,1,0.5,1,2.125,0,0.0,0,0.0,0,0.0,0,0.0,0,,,,,0,4,4,4,,,,,,,,,68.32344758399995,68.32344758399995,68.32344758399995,68.32344758399995,68.32344758399995,68.32344758399995,68.32344758399995,68.32344758399995,68.3021806673108,68.32344758399995,68.32344758399995,68.32344758399995,68.3021806673108,68.32344758399995,68.32344758399995,68.32344758399995,70.42939308402129,74.46505104197422,68.32344758399995,68.32344758399995,73.44650141696911,68.80181795899989,69.81697099999292,70.42939308402129,71.4318882090156,68.32344758399995,68.32344758399995,68.31884733397746,68.32344758399995,68.32344758399995,68.32344758399995,68.31884733397746,68.32344758399995,68.32344758399995,73.44650141696911,68.32344758399995,73.44650141696911,73.54434666701127,74.16993358399486,68.32344758399995,2,1,0.7760349569725804,reldom2_s038,001,2025-03-06_13h58.52.736,Where-A-Scan_AC,2022.2.5,None,
0,0.0,None,fixation,stimulus/viswhere_stim/blank_white.png,stimulus/viswhere_stim/blank_white.png,stimulus/audwhere_stim/blank_white.png,stimulus/audwhere_stim/blank_white.png,stimulus/viswhere_stim/blank_white.png,stimulus/viswhere_stim/blank_white.png,stimulus/viswhere_stim/blank_white.png,stimulus/viswhere_stim/blank_white.png,0.0,0.0,0.0,0.0,0,0.0,0,0.0,0,0.0,0,0.0,0,0.0,0.0,0,0.0,0,0.0,0,0.0,0,0.0,0,0.0,0,0.0,0,0.0,0,0.0,9,,,,,0,5,5,5,,,,,,,,,74.46505104197422,74.46505104197422,74.46505104197422,74.46505104197422,74.46505104197422,74.46505104197422,74.46505104197422,74.46505104197422,74.36525804231253,74.46505104197422,74.46505104197422,74.46505104197422,74.36525804231253,74.46505104197422,74.46505104197422,74.46505104197422,74.46505104197422,74.46505104197422,74.46505104197422,74.46505104197422,74.46505104197422,74.46505104197422,74.46505104197422,74.46505104197422,74.46505104197422,74.46505104197422,74.46505104197422,74.41525804231253,74.46505104197422,74.46505104197422,74.46505104197422,74.41525804231253,74.46505104197422,74.46505104197422,74.46505104197422,74.46505104197422,74.46505104197422,79.68865404196549,79.68865404196549,83.59297749999678,None,0,,reldom2_s038,001,2025-03-06_13h58.52.736,Where-A-Scan_AC,2022.2.5,None,
5,Second_Order,1.0,viswhere,stimulus/viswhere_stim/90-deg_dot-right_mediumslateblue.png,stimulus/viswhere_stim/90-deg_dot-left_peru.png,stimulus/viswhere_stim/150-deg_dot-left_seagreen.png,stimulus/viswhere_stim/120-deg_dot-left_mediumslateblue.png,stimulus/viswhere_stim/match_blank.png,stimulus/viswhere_stim/match_box.png,stimulus/viswhere_stim/match_yes.png,stimulus/viswhere_stim/match_no.png,2.0,Match,Line,Dot,2,5.125,0,5.125,0,5.125,0,5.125,0,0.75,0.75,1,0.5,1,2.125,1,0.5,1,2.125,0,0.0,0,0.0,0,0.0,0,0.0,0,,,,,0,6,6,6,,,,,,,,,83.59297749999678,88.71346829197137,84.07137291698018,85.0587100419798,85.69494958396535,86.6921339170076,83.59297749999678,83.59297749999678,83.60739320834011,83.59297749999678,83.59297749999678,83.59297749999678,83.60739320834011,83.59297749999678,88.71346829197137,89.5097020000103,91.58258079201914,95.46874987496994,89.5097020000103,89.5097020000103,94.64334995899117,89.95442620897666,90.97088712500408,91.58258079201914,92.58833629201399,89.5097020000103,89.5097020000103,89.49870633399114,89.5097020000103,89.5097020000103,89.5097020000103,89.49870633399114,89.5097020000103,89.5097020000103,94.64334995899117,89.5097020000103,94.64334995899117,94.69772370898863,95.46874987496994,89.5097020000103,2,1,0.5072077079676092,reldom2_s038,001,2025-03-06_13h58.52.736,Where-A-Scan_AC,2022.2.5,None,
6,Second_Order,1.0,viswhere,stimulus/viswhere_stim/60-deg_dot-right_salmon.png,stimulus/viswhere_stim/150-deg_dot-right_cyan.png,stimulus/viswhere_stim/120-deg_dot-left_lightsseagreen.png,stimulus/viswhere_stim/90-deg_dot-left_goldenrod.png,stimulus/viswhere_stim/match_blank.png,stimulus/viswhere_stim/match_box.png,stimulus/viswhere_stim/match_yes.png,stimulus/viswhere_stim/match_no.png,1.0,Match,Dot,Dot,1,5.125,0,5.125,0,5.125,0,5.125,0,0.625,0.625,1,0.5,1,2.125,1,0.5,1,2.125,0,0.0,0,0.0,0,0.0,0,0.0,0,,,,,0,7,7,7,,,,,,,,,95.46874987496994,100.59126449999167,95.94985441700555,96.93633895897074,97.57164404197829,98.56963333400199,95.46874987496994,95.46874987496994,95.48255633400986,95.46874987496994,95.46874987496994,95.46874987496994,95.48255633400986,95.46874987496994,100.59126449999167,101.26708025002154,103.34696508396883,107.38712687499356,101.26708025002154,101.26708025002154,106.39259679196402,101.72945637500379,102.73934079200262,103.34696508396883,104.34876066696597,101.26708025002154,101.26708025002154,101.24255062529895,101.26708025002154,101.26708025002154,101.26708025002154,101.24255062529895,101.26708025002154,101.26708025002154,106.39259679196402,101.26708025002154,106.39259679196402,106.46131362498272,107.09248304198263,101.26708025002154,1,1,0.6448024989804253,reldom2_s038,001,2025-03-06_13h58.52.736,Where-A-Scan_AC,2022.2.5,None,
0,0.0,None,fixation,stimulus/viswhere_stim/blank_white.png,stimulus/viswhere_stim/blank_white.png,stimulus/audwhere_stim/blank_white.png,stimulus/audwhere_stim/blank_white.png,stimulus/viswhere_stim/blank_white.png,stimulus/viswhere_stim/blank_white.png,stimulus/viswhere_stim/blank_white.png,stimulus/viswhere_stim/blank_white.png,0.0,0.0,0.0,0.0,0,0.0,0,0.0,0,0.0,0,0.0,0,0.0,0.0,0,0.0,0,0.0,0,0.0,0,0.0,0,0.0,0,0.0,0,0.0,0,0.0,8,,,,,0,8,8,8,,,,,,,,,107.38712687499356,107.38712687499356,107.38712687499356,107.38712687499356,107.38712687499356,107.38712687499356,107.38712687499356,107.38712687499356,107.28880808329752,107.38712687499356,107.38712687499356,107.38712687499356,107.28880808329752,107.38712687499356,107.38712687499356,107.38712687499356,107.38712687499356,107.38712687499356,107.38712687499356,107.38712687499356,107.38712687499356,107.38712687499356,107.38712687499356,107.38712687499356,107.38712687499356,107.38712687499356,107.38712687499356,107.33880808329752,107.38712687499356,107.38712687499356,107.38712687499356,107.33880808329752,107.38712687499356,107.38712687499356,107.38712687499356,107.38712687499356,107.38712687499356,112.59022637497401,112.59022637497401,115.5927717500017,None,0,,reldom2_s038,001,2025-03-06_13h58.52.736,Where-A-Scan_AC,2022.2.5,None,
7,First_Order,2.0,viswhere,stimulus/viswhere_stim/blank_white.png,stimulus/viswhere_stim/blank_white.png,stimulus/viswhere_stim/30-deg_dot-right_cyan.png,stimulus/viswhere_stim/30-deg_dot-left_cyan.png,stimulus/viswhere_stim/blank_white.png,stimulus/viswhere_stim/line_box.png,stimulus/viswhere_stim/line_yes.png,stimulus/viswhere_stim/line_no.png,None,Line,None,Line,1,0.0,0,5.125,0,5.125,0,5.125,0,0.0,0.625,0,0.0,0,0.0,1,0.5,1,2.125,0,0.0,0,0.0,0,0.0,0,0.0,0,,,,,0,9,9,9,,,,,,,,,115.5927717500017,115.5927717500017,115.5927717500017,115.5927717500017,115.5927717500017,115.5927717500017,115.5927717500017,115.5927717500017,115.57362645868368,115.5927717500017,115.5927717500017,115.5927717500017,115.57362645868368,115.5927717500017,115.5927717500017,115.5927717500017,117.705775083974,121.65277887496632,115.5927717500017,115.5927717500017,120.72045995900407,116.07051241700538,117.07901975000277,117.705775083974,118.72116683400236,115.5927717500017,115.5927717500017,115.57362645868368,115.5927717500017,115.5927717500017,115.5927717500017,115.57362645868368,115.5927717500017,115.5927717500017,120.72045995900407,115.5927717500017,120.72045995900407,120.81709216698073,121.45201041700784,115.5927717500017,1,1,0.570499916037079,reldom2_s038,001,2025-03-06_13h58.52.736,Where-A-Scan_AC,2022.2.5,None,
8,First_Order,2.0,viswhere,stimulus/viswhere_stim/blank_white.png,stimulus/viswhere_stim/blank_white.png,stimulus/viswhere_stim/60-deg_dot-right_slateblue.png,stimulus/viswhere_stim/60-deg_dot-left_goldenrod.png,stimulus/viswhere_stim/blank_white.png,stimulus/viswhere_stim/dot_box.png,stimulus/viswhere_stim/dot_yes.png,stimulus/viswhere_stim/dot_no.png,None,Dot,None,Line,2,0.0,0,5.125,0,5.125,0,5.125,0,0.0,0.625,0,0.0,0,0.0,1,0.5,1,2.125,0,0.0,0,0.0,0,0.0,0,0.0,0,,,,,0,10,10,10,,,,,,,,,121.65277887496632,121.65277887496632,121.65277887496632,121.65277887496632,121.65277887496632,121.65277887496632,121.65277887496632,121.65277887496632,121.6320223333508,121.65277887496632,121.65277887496632,121.65277887496632,121.6320223333508,121.65277887496632,121.65277887496632,121.65277887496632,123.75911408400862,127.71610891696764,121.65277887496632,121.65277887496632,126.78410962497583,122.12894358398626,123.13375754200388,123.75911408400862,124.770973125007,121.65277887496632,121.65277887496632,121.64868900001747,121.65277887496632,121.65277887496632,121.65277887496632,121.64868900001747,121.65277887496632,121.65277887496632,126.78410962497583,121.65277887496632,126.78410962497583,126.88121933396906,127.51901670900406,121.65277887496632,2,1,0.8013446659897454,reldom2_s038,001,2025-03-06_13h58.52.736,Where-A-Scan_AC,2022.2.5,None,
9,First_Order,2.0,viswhere,stimulus/viswhere_stim/blank_white.png,stimulus/viswhere_stim/blank_white.png,stimulus/viswhere_stim/90-deg_dot-right_cyan.png,stimulus/viswhere_stim/60-deg_dot-right_slateblue.png,stimulus/viswhere_stim/blank_white.png,stimulus/viswhere_stim/dot_box.png,stimulus/viswhere_stim/dot_yes.png,stimulus/viswhere_stim/dot_no.png,None,Dot,None,Dot,1,0.0,0,5.125,0,5.125,0,5.125,0,0.0,0.625,0,0.0,0,0.0,1,0.5,1,2.125,0,0.0,0,0.0,0,0.0,0,0.0,0,,,,,0,11,11,11,,,,,,,,,127.71610891696764,127.71610891696764,127.71610891696764,127.71610891696764,127.71610891696764,127.71610891696764,127.71610891696764,127.71610891696764,127.69592991735165,127.71610891696764,127.71610891696764,127.71610891696764,127.69592991735165,127.71610891696764,127.71610891696764,127.71610891696764,129.81511366699124,133.78871983400313,127.71610891696764,127.71610891696764,132.85270937497262,128.19287816697033,129.20271512499312,129.81511366699124,130.831281791965,127.71610891696764,127.71610891696764,127.71259658401831,127.71610891696764,127.71610891696764,127.71610891696764,127.71259658401831,127.71610891696764,127.71610891696764,132.85270937497262,127.71610891696764,132.85270937497262,132.93600208399585,133.57034912501695,127.71610891696764,1,1,0.9188925410271622,reldom2_s038,001,2025-03-06_13h58.52.736,Where-A-Scan_AC,2022.2.5,None,
10,First_Order,2.0,viswhere,stimulus/viswhere_stim/blank_white.png,stimulus/viswhere_stim/blank_white.png,stimulus/viswhere_stim/60-deg_dot-left_mediumslateblue.png,stimulus/viswhere_stim/150-deg_dot-left_peru.png,stimulus/viswhere_stim/blank_white.png,stimulus/viswhere_stim/dot_box.png,stimulus/viswhere_stim/dot_yes.png,stimulus/viswhere_stim/dot_no.png,None,Dot,None,Dot,1,0.0,0,5.125,0,5.125,0,5.125,0,0.0,0.625,0,0.0,0,0.0,1,0.5,1,2.125,0,0.0,0,0.0,0,0.0,0,0.0,0,,,,,0,12,12,12,,,,,,,,,133.78871983400313,133.78871983400313,133.78871983400313,133.78871983400313,133.78871983400313,133.78871983400313,133.78871983400313,133.78871983400313,133.7666531673361,133.78871983400313,133.78871983400313,133.78871983400313,133.7666531673361,133.78871983400313,133.78871983400313,133.78871983400313,135.8924262090004,139.92935416701948,133.78871983400313,133.78871983400313,138.92403991700849,134.26571487501496,135.28051629196852,135.8924262090004,136.89555825002026,133.78871983400313,133.78871983400313,133.78331983400278,133.78871983400313,133.78871983400313,133.78871983400313,133.78331983400278,133.78871983400313,133.78871983400313,138.92403991700849,133.78871983400313,138.92403991700849,139.0063108339673,139.63302424998255,133.78871983400313,1,1,0.871377790987026,reldom2_s038,001,2025-03-06_13h58.52.736,Where-A-Scan_AC,2022.2.5,None,
0,0.0,None,fixation,stimulus/viswhere_stim/blank_white.png,stimulus/viswhere_stim/blank_white.png,stimulus/audwhere_stim/blank_white.png,stimulus/audwhere_stim/blank_white.png,stimulus/viswhere_stim/blank_white.png,stimulus/viswhere_stim/blank_white.png,stimulus/viswhere_stim/blank_white.png,stimulus/viswhere_stim/blank_white.png,0.0,0.0,0.0,0.0,0,0.0,0,0.0,0,0.0,0,0.0,0,0.0,0.0,0,0.0,0,0.0,0,0.0,0,0.0,0,0.0,0,0.0,0,0.0,0,0.0,10,,,,,0,13,13,13,,,,,,,,,139.92935416701948,139.92935416701948,139.92935416701948,139.92935416701948,139.92935416701948,139.92935416701948,139.92935416701948,139.92935416701948,139.83056545829945,139.92935416701948,139.92935416701948,139.92935416701948,139.83056545829945,139.92935416701948,139.92935416701948,139.92935416701948,139.92935416701948,139.92935416701948,139.92935416701948,139.92935416701948,139.92935416701948,139.92935416701948,139.92935416701948,139.92935416701948,139.92935416701948,139.92935416701948,139.92935416701948,139.88056545829946,139.92935416701948,139.92935416701948,139.92935416701948,139.88056545829946,139.92935416701948,139.92935416701948,139.92935416701948,139.92935416701948,139.92935416701948,145.1350207090145,145.1350207090145,150.06870041700313,None,0,,reldom2_s038,001,2025-03-06_13h58.52.736,Where-A-Scan_AC,2022.2.5,None,
11,Second_Order,2.0,viswhere,stimulus/viswhere_stim/120-deg_dot-right_turquoise.png,stimulus/viswhere_stim/120-deg_dot-left_goldenrod.png,stimulus/viswhere_stim/60-deg_dot-left_turquoise.png,stimulus/viswhere_stim/150-deg_dot-left_seagreen.png,stimulus/viswhere_stim/match_blank.png,stimulus/viswhere_stim/match_box.png,stimulus/viswhere_stim/match_yes.png,stimulus/viswhere_stim/match_no.png,2.0,Match,Line,Dot,2,5.125,0,5.125,0,5.125,0,5.125,0,0.75,0.75,1,0.5,1,2.125,1,0.5,1,2.125,0,0.0,0,0.0,0,0.0,0,0.0,0,,,,,0,14,14,14,,,,,,,,,150.06870041700313,155.18806025001686,150.54208849999122,151.52858808398014,152.17691758397268,153.16665558400564,150.06870041700313,150.06870041700313,150.08363641731754,150.06870041700313,150.06870041700313,150.06870041700313,150.08363641731754,150.06870041700313,155.18806025001686,155.98243383399677,158.06191558396677,161.95205279201036,155.98243383399677,155.98243383399677,161.10648104199208,156.42787362501258,157.44676612498006,158.06191558396677,159.0683849999914,155.98243383399677,155.98243383399677,155.95609445829956,155.98243383399677,155.98243383399677,155.98243383399677,155.95609445829956,155.98243383399677,155.98243383399677,161.10648104199208,155.98243383399677,161.10648104199208,161.17738229199313,161.95205279201036,155.98243383399677,2,1,0.4828476660186425,reldom2_s038,001,2025-03-06_13h58.52.736,Where-A-Scan_AC,2022.2.5,None,
12,Second_Order,2.0,viswhere,stimulus/viswhere_stim/30-deg_dot-right_mediumslateblue.png,stimulus/viswhere_stim/30-deg_dot-left_seagreen.png,stimulus/viswhere_stim/120-deg_dot-right_goldenrod.png,stimulus/viswhere_stim/120-deg_dot-left_salmon.png,stimulus/viswhere_stim/match_blank.png,stimulus/viswhere_stim/match_box.png,stimulus/viswhere_stim/match_yes.png,stimulus/viswhere_stim/match_no.png,1.0,Match,Line,Line,1,5.125,0,5.125,0,5.125,0,5.125,0,0.625,0.625,1,0.5,1,2.125,1,0.5,1,2.125,0,0.0,0,0.0,0,0.0,0,0.0,0,,,,,0,15,15,15,,,,,,,,,161.95205279201036,167.065836499969,162.43592362501658,163.42353674996411,164.05836924997857,165.05676116701216,161.95205279201036,161.95205279201036,161.9651320839883,161.95205279201036,161.95205279201036,161.95205279201036,161.9651320839883,161.95205279201036,167.065836499969,167.73794908396667,169.81339483399643,173.8571050419705,167.73794908396667,167.73794908396667,172.8739880839712,168.1826483340119,169.19894174998626,169.81339483399643,170.81605620897608,167.73794908396667,167.73794908396667,167.71264279232906,167.73794908396667,167.73794908396667,167.73794908396667,167.71264279232906,167.73794908396667,167.73794908396667,172.8739880839712,167.73794908396667,172.8739880839712,172.92831541696796,173.562615584,167.73794908396667,1,1,0.5855955830193125,reldom2_s038,001,2025-03-06_13h58.52.736,Where-A-Scan_AC,2022.2.5,None,
0,0.0,None,fixation,stimulus/viswhere_stim/blank_white.png,stimulus/viswhere_stim/blank_white.png,stimulus/audwhere_stim/blank_white.png,stimulus/audwhere_stim/blank_white.png,stimulus/viswhere_stim/blank_white.png,stimulus/viswhere_stim/blank_white.png,stimulus/viswhere_stim/blank_white.png,stimulus/viswhere_stim/blank_white.png,0.0,0.0,0.0,0.0,0,0.0,0,0.0,0,0.0,0,0.0,0,0.0,0.0,0,0.0,0,0.0,0,0.0,0,0.0,0,0.0,0,0.0,0,0.0,0,0.0,8,,,,,0,16,16,16,,,,,,,,,173.8571050419705,173.8571050419705,173.8571050419705,173.8571050419705,173.8571050419705,173.8571050419705,173.8571050419705,173.8571050419705,173.75555362531063,173.8571050419705,173.8571050419705,173.8571050419705,173.75555362531063,173.8571050419705,173.8571050419705,173.8571050419705,173.8571050419705,173.8571050419705,173.8571050419705,173.8571050419705,173.8571050419705,173.8571050419705,173.8571050419705,173.8571050419705,173.8571050419705,173.8571050419705,173.8571050419705,173.80555362531064,173.8571050419705,173.8571050419705,173.8571050419705,173.80555362531064,173.8571050419705,173.8571050419705,173.8571050419705,173.8571050419705,173.8571050419705,179.08004141697893,179.08004141697893,182.092493833974,None,0,,reldom2_s038,001,2025-03-06_13h58.52.736,Where-A-Scan_AC,2022.2.5,None,
13,First_Order,3.0,audwhere,stimulus/audwhere_stim/dummy.wav,stimulus/audwhere_stim/dummy.wav,stimulus/audwhere_stim/right_away_290h.wav,stimulus/audwhere_stim/right_toward_280h.wav,stimulus/audwhere_stim/blank_white.png,stimulus/audwhere_stim/side_box.png,stimulus/audwhere_stim/side_yes.png,stimulus/audwhere_stim/side_no.png,None,Side,None,Side,1,0.0,0,5.125,0,5.125,0,5.125,0,0.0,0.625,0,0.0,0,0.0,0,0.0,0,0.0,0,0.0,0,0.0,1,0.5,1,2.125,0,,,,,0,17,17,17,,,,,,,,,182.092493833974,182.092493833974,182.092493833974,182.092493833974,182.092493833974,182.092493833974,182.092493833974,182.092493833974,182.0224079586721,182.092493833974,182.092493833974,182.092493833974,182.0224079586721,182.092493833974,182.092493833974,182.092493833974,184.18211387499468,,182.092493833974,182.092493833974,187.24460699997144,182.092493833974,182.092493833974,182.092493833974,182.092493833974,182.55922875000397,183.6225020000129,182.52977308363577,,184.18211387499468,185.25156354199862,184.15263291664112,,182.092493833974,187.24460699997144,182.092493833974,187.24460699997144,187.2857238749857,187.9395967500168,182.092493833974,1,1,0.9063003750052303,reldom2_s038,001,2025-03-06_13h58.52.736,Where-A-Scan_AC,2022.2.5,None,
14,First_Order,3.0,audwhere,stimulus/audwhere_stim/dummy.wav,stimulus/audwhere_stim/dummy.wav,stimulus/audwhere_stim/right_away_300h.wav,stimulus/audwhere_stim/left_away_300h.wav,stimulus/audwhere_stim/blank_white.png,stimulus/audwhere_stim/side_box.png,stimulus/audwhere_stim/side_yes.png,stimulus/audwhere_stim/side_no.png,None,Side,None,Direction,2,0.0,0,5.125,0,5.125,0,5.125,0,0.0,0.625,0,0.0,0,0.0,0,0.0,0,0.0,0,0.0,0,0.0,1,0.5,1,2.125,0,,,,,0,18,18,18,,,,,,,,,188.19233512500068,188.19233512500068,188.19233512500068,188.19233512500068,188.19233512500068,188.19233512500068,188.19233512500068,188.19233512500068,188.11345520834053,188.19233512500068,188.19233512500068,188.19233512500068,188.11345520834053,188.19233512500068,188.19233512500068,188.19233512500068,190.28080825001234,,188.19233512500068,188.19233512500068,193.3437321250094,188.19233512500068,188.19233512500068,188.19233512500068,188.19233512500068,188.65532433398766,189.72267699998338,188.62557091663282,,190.28080825001234,191.35207637498388,190.25081579166388,,188.19233512500068,193.3437321250094,188.19233512500068,193.3437321250094,193.3848401249852,194.03919616696658,188.19233512500068,2,1,0.8330895820399746,reldom2_s038,001,2025-03-06_13h58.52.736,Where-A-Scan_AC,2022.2.5,None,
15,First_Order,3.0,audwhere,stimulus/audwhere_stim/dummy.wav,stimulus/audwhere_stim/dummy.wav,stimulus/audwhere_stim/left_away_290h.wav,stimulus/audwhere_stim/right_away_280h.wav,stimulus/audwhere_stim/blank_white.png,stimulus/audwhere_stim/direction_box.png,stimulus/audwhere_stim/direction_yes.png,stimulus/audwhere_stim/direction_no.png,None,Direction,None,Direction,1,0.0,0,5.125,0,5.125,0,5.125,0,0.0,0.625,0,0.0,0,0.0,0,0.0,0,0.0,0,0.0,0,0.0,1,0.5,1,2.125,0,,,,,0,19,19,19,,,,,,,,,194.29359141696477,194.29359141696477,194.29359141696477,194.29359141696477,194.29359141696477,194.29359141696477,194.29359141696477,194.29359141696477,194.21342312530228,194.29359141696477,194.29359141696477,194.29359141696477,194.21342312530228,194.29359141696477,194.29359141696477,194.29359141696477,196.39891712501412,,194.29359141696477,194.29359141696477,199.48744716699002,194.29359141696477,194.29359141696477,194.29359141696477,194.29359141696477,194.7642092499882,195.83845737500815,194.73338050063856,,196.39891712501412,197.43156524997903,196.36863462563295,,194.29359141696477,199.48744716699002,194.29359141696477,199.48744716699002,199.48744716699002,200.14364191697678,194.29359141696477,1,1,0.9932019159896299,reldom2_s038,001,2025-03-06_13h58.52.736,Where-A-Scan_AC,2022.2.5,None,
16,First_Order,3.0,audwhere,stimulus/audwhere_stim/dummy.wav,stimulus/audwhere_stim/dummy.wav,stimulus/audwhere_stim/right_toward_270h.wav,stimulus/audwhere_stim/right_away_300h.wav,stimulus/audwhere_stim/blank_white.png,stimulus/audwhere_stim/direction_box.png,stimulus/audwhere_stim/direction_yes.png,stimulus/audwhere_stim/direction_no.png,None,Direction,None,Side,2,0.0,0,5.125,0,5.125,0,5.125,0,0.0,0.625,0,0.0,0,0.0,0,0.0,0,0.0,0,0.0,0,0.0,1,0.5,1,2.125,0,,,,,0,20,20,20,,,,,,,,,200.39756187499734,200.39756187499734,200.39756187499734,200.39756187499734,200.39756187499734,200.39756187499734,200.39756187499734,200.39756187499734,200.31773295832878,200.39756187499734,200.39756187499734,200.39756187499734,200.31773295832878,200.39756187499734,200.39756187499734,200.39756187499734,202.50179158401443,,200.39756187499734,200.39756187499734,205.5463366669719,200.39756187499734,200.39756187499734,200.39756187499734,200.39756187499734,200.86492329201428,201.8969680420123,200.83495487564167,,202.50179158401443,203.533844999969,202.4718773336538,,200.39756187499734,205.5463366669719,200.39756187499734,205.5463366669719,205.62844204198336,206.28616520902142,200.39756187499734,2,1,0.6072900410508737,reldom2_s038,001,2025-03-06_13h58.52.736,Where-A-Scan_AC,2022.2.5,None,
0,0.0,None,fixation,stimulus/viswhere_stim/blank_white.png,stimulus/viswhere_stim/blank_white.png,stimulus/audwhere_stim/blank_white.png,stimulus/audwhere_stim/blank_white.png,stimulus/viswhere_stim/blank_white.png,stimulus/viswhere_stim/blank_white.png,stimulus/viswhere_stim/blank_white.png,stimulus/viswhere_stim/blank_white.png,0.0,0.0,0.0,0.0,0,0.0,0,0.0,0,0.0,0,0.0,0,0.0,0.0,0,0.0,0,0.0,0,0.0,0,0.0,0,0.0,0,0.0,0,0.0,0,0.0,9,,,,,0,21,21,21,,,,,,,,,206.51973299996462,206.51973299996462,206.51973299996462,206.51973299996462,206.51973299996462,206.51973299996462,206.51973299996462,206.51973299996462,206.41949854235477,206.51973299996462,206.51973299996462,206.51973299996462,206.41949854235477,206.51973299996462,206.51973299996462,206.51973299996462,206.51973299996462,206.51973299996462,206.51973299996462,206.51973299996462,206.51973299996462,206.51973299996462,206.51973299996462,206.51973299996462,206.51973299996462,206.51973299996462,206.51973299996462,206.46949854235476,206.51973299996462,206.51973299996462,206.51973299996462,206.46949854235476,206.51973299996462,206.51973299996462,206.51973299996462,206.51973299996462,206.51973299996462,211.71541324997088,211.71541324997088,215.6622307089856,None,0,,reldom2_s038,001,2025-03-06_13h58.52.736,Where-A-Scan_AC,2022.2.5,None,
17,Second_Order,3.0,audwhere,stimulus/audwhere_stim/right_away_270h.wav,stimulus/audwhere_stim/left_away_270h.wav,stimulus/audwhere_stim/right_toward_280h.wav,stimulus/audwhere_stim/left_toward_280h.wav,stimulus/viswhere_stim/match_blank.png,stimulus/audwhere_stim/match_box.png,stimulus/viswhere_stim/match_yes.png,stimulus/viswhere_stim/match_no.png,1.0,Match,Direction,Direction,1,5.125,0,5.125,0,5.125,0,5.125,0,0.75,0.75,0,0.0,0,0.0,0,0.0,0,0.0,1,0.5,1,2.125,1,0.5,1,2.125,0,,,,,0,22,22,22,,,,,,,,,215.6622307089856,220.78537866700208,215.6622307089856,215.6622307089856,215.6622307089856,215.6622307089856,216.11013262497727,217.09765100001823,216.1242005416464,,217.74510320898844,218.734033500019,217.75175108365173,,220.78537866700208,221.63598145899596,223.68718812498264,,221.63598145899596,221.63598145899596,226.8031374589773,221.63598145899596,221.63598145899596,221.63598145899596,221.63598145899596,222.05372166697634,223.12714045896428,222.0237669586825,,223.68718812498264,224.7610258340137,223.65663016663555,,221.63598145899596,226.8031374589773,221.63598145899596,226.8031374589773,226.8031374589773,,221.63598145899596,1,1,0.887450665992219,reldom2_s038,001,2025-03-06_13h58.52.736,Where-A-Scan_AC,2022.2.5,None,
18,Second_Order,3.0,audwhere,stimulus/audwhere_stim/left_away_300h.wav,stimulus/audwhere_stim/right_away_290h.wav,stimulus/audwhere_stim/left_toward_300h.wav,stimulus/audwhere_stim/left_away_290h.wav,stimulus/viswhere_stim/match_blank.png,stimulus/audwhere_stim/match_box.png,stimulus/viswhere_stim/match_yes.png,stimulus/viswhere_stim/match_no.png,2.0,Match,Direction,Side,2,5.125,0,5.125,0,5.125,0,5.125,0,0.625,0.625,0,0.0,0,0.0,0,0.0,0,0.0,1,0.5,1,2.125,1,0.5,1,2.125,0,,,,,0,23,23,23,,,,,,,,,227.61338683398208,232.7340864589787,227.61338683398208,227.61338683398208,227.61338683398208,227.61338683398208,228.07105316699017,229.0578853340121,228.08526045864372,,229.6939029589994,230.6917261669878,229.70603737567242,,232.7340864589787,233.462967999978,235.54320483398624,239.5768395839841,233.462967999978,233.462967999978,238.6144972500042,233.462967999978,233.462967999978,233.462967999978,233.462967999978,233.87742212502053,234.94043675001012,233.8486109166445,,235.54320483398624,236.57278066698927,235.51128187566454,,233.462967999978,238.6144972500042,233.462967999978,238.6144972500042,238.6546915419749,239.3042552919942,233.462967999978,2,1,0.7027851660386659,reldom2_s038,001,2025-03-06_13h58.52.736,Where-A-Scan_AC,2022.2.5,None,
0,0.0,None,fixation,stimulus/viswhere_stim/blank_white.png,stimulus/viswhere_stim/blank_white.png,stimulus/audwhere_stim/blank_white.png,stimulus/audwhere_stim/blank_white.png,stimulus/viswhere_stim/blank_white.png,stimulus/viswhere_stim/blank_white.png,stimulus/viswhere_stim/blank_white.png,stimulus/viswhere_stim/blank_white.png,0.0,0.0,0.0,0.0,0,0.0,0,0.0,0,0.0,0,0.0,0,0.0,0.0,0,0.0,0,0.0,0,0.0,0,0.0,0,0.0,0,0.0,0,0.0,0,0.0,9,,,,,0,24,24,24,,,,,,,,,239.5768395839841,239.5768395839841,239.5768395839841,239.5768395839841,239.5768395839841,239.5768395839841,239.5768395839841,239.5768395839841,239.47882145832605,239.5768395839841,239.5768395839841,239.5768395839841,239.47882145832605,239.5768395839841,239.5768395839841,239.5768395839841,239.5768395839841,239.5768395839841,239.5768395839841,239.5768395839841,239.5768395839841,239.5768395839841,239.5768395839841,239.5768395839841,239.5768395839841,239.5768395839841,239.5768395839841,239.52882145832604,239.5768395839841,239.5768395839841,239.5768395839841,239.52882145832604,239.5768395839841,239.5768395839841,239.5768395839841,239.5768395839841,239.5768395839841,244.79977408400737,244.79977408400737,248.82234483398497,None,0,,reldom2_s038,001,2025-03-06_13h58.52.736,Where-A-Scan_AC,2022.2.5,None,
19,First_Order,4.0,audwhere,stimulus/audwhere_stim/dummy.wav,stimulus/audwhere_stim/dummy.wav,stimulus/audwhere_stim/right_away_300h.wav,stimulus/audwhere_stim/left_away_280h.wav,stimulus/audwhere_stim/blank_white.png,stimulus/audwhere_stim/direction_box.png,stimulus/audwhere_stim/direction_yes.png,stimulus/audwhere_stim/direction_no.png,None,Direction,None,Direction,1,0.0,0,5.125,0,5.125,0,5.125,0,0.0,0.625,0,0.0,0,0.0,0,0.0,0,0.0,0,0.0,0,0.0,1,0.5,1,2.125,0,,,,,0,25,25,25,,,,,,,,,248.82234483398497,248.82234483398497,248.82234483398497,248.82234483398497,248.82234483398497,248.82234483398497,248.82234483398497,248.82234483398497,248.7494935836682,248.82234483398497,248.82234483398497,248.82234483398497,248.7494935836682,248.82234483398497,248.82234483398497,248.82234483398497,250.918743584014,,248.82234483398497,248.82234483398497,254.01115116698202,248.82234483398497,248.82234483398497,248.82234483398497,248.82234483398497,249.28871537500527,250.36152220901567,249.2586036666801,,250.918743584014,251.95246775000123,250.8885418336761,,248.82234483398497,254.01115116698202,248.82234483398497,254.01115116698202,254.05256450001616,254.7068798749824,248.82234483398497,2,0,1.873132749053184,reldom2_s038,001,2025-03-06_13h58.52.736,Where-A-Scan_AC,2022.2.5,None,
20,First_Order,4.0,audwhere,stimulus/audwhere_stim/dummy.wav,stimulus/audwhere_stim/dummy.wav,stimulus/audwhere_stim/right_toward_270h.wav,stimulus/audwhere_stim/right_away_280h.wav,stimulus/audwhere_stim/blank_white.png,stimulus/audwhere_stim/direction_box.png,stimulus/audwhere_stim/direction_yes.png,stimulus/audwhere_stim/direction_no.png,None,Direction,None,Side,2,0.0,0,5.125,0,5.125,0,5.125,0,0.0,0.625,0,0.0,0,0.0,0,0.0,0,0.0,0,0.0,0,0.0,1,0.5,1,2.125,0,,,,,0,26,26,26,,,,,,,,,254.91995266696904,254.91995266696904,254.91995266696904,254.91995266696904,254.91995266696904,254.91995266696904,254.91995266696904,254.91995266696904,254.84021320831576,254.91995266696904,254.91995266696904,254.91995266696904,254.84021320831576,254.91995266696904,254.91995266696904,254.91995266696904,257.0201203339966,,254.91995266696904,254.91995266696904,260.1078107089852,254.91995266696904,254.91995266696904,254.91995266696904,254.91995266696904,255.38499387499178,256.41402874997584,255.35478329164133,,257.0201203339966,258.0521275840001,256.98995887564183,,254.91995266696904,260.1078107089852,254.91995266696904,260.1078107089852,260.14883108402137,260.8039514590055,254.91995266696904,2,1,1.2864677489851601,reldom2_s038,001,2025-03-06_13h58.52.736,Where-A-Scan_AC,2022.2.5,None,
21,First_Order,4.0,audwhere,stimulus/audwhere_stim/dummy.wav,stimulus/audwhere_stim/dummy.wav,stimulus/audwhere_stim/left_toward_300h.wav,stimulus/audwhere_stim/left_away_300h.wav,stimulus/audwhere_stim/blank_white.png,stimulus/audwhere_stim/side_box.png,stimulus/audwhere_stim/side_yes.png,stimulus/audwhere_stim/side_no.png,None,Side,None,Side,1,0.0,0,5.125,0,5.125,0,5.125,0,0.0,0.625,0,0.0,0,0.0,0,0.0,0,0.0,0,0.0,0,0.0,1,0.5,1,2.125,0,,,,,0,27,27,27,,,,,,,,,261.01687375002075,261.01687375002075,261.01687375002075,261.01687375002075,261.01687375002075,261.01687375002075,261.01687375002075,261.01687375002075,260.9372847923388,261.01687375002075,261.01687375002075,261.01687375002075,260.9372847923388,261.01687375002075,261.01687375002075,261.01687375002075,263.10571291699307,,261.01687375002075,261.01687375002075,266.16569670900935,261.01687375002075,261.01687375002075,261.01687375002075,261.01687375002075,261.4813713749754,262.5493560839677,261.4516936256589,,263.10571291699307,264.176263500005,263.0751947086576,,261.01687375002075,266.16569670900935,261.01687375002075,266.16569670900935,266.24728137499187,266.8991071250057,261.01687375002075,1,1,0.9157905410393141,reldom2_s038,001,2025-03-06_13h58.52.736,Where-A-Scan_AC,2022.2.5,None,
22,First_Order,4.0,audwhere,stimulus/audwhere_stim/dummy.wav,stimulus/audwhere_stim/dummy.wav,stimulus/audwhere_stim/right_away_270h.wav,stimulus/audwhere_stim/left_away_300h.wav,stimulus/audwhere_stim/blank_white.png,stimulus/audwhere_stim/side_box.png,stimulus/audwhere_stim/side_yes.png,stimulus/audwhere_stim/side_no.png,None,Side,None,Direction,2,0.0,0,5.125,0,5.125,0,5.125,0,0.0,0.625,0,0.0,0,0.0,0,0.0,0,0.0,0,0.0,0,0.0,1,0.5,1,2.125,0,,,,,0,28,28,28,,,,,,,,,267.1113104170072,267.1113104170072,267.1113104170072,267.1113104170072,267.1113104170072,267.1113104170072,267.1113104170072,267.1113104170072,267.032440458339,267.1113104170072,267.1113104170072,267.1113104170072,267.032440458339,267.1113104170072,267.1113104170072,267.1113104170072,269.19719295896357,,267.1113104170072,267.1113104170072,272.30381883401424,267.1113104170072,267.1113104170072,267.1113104170072,267.1113104170072,267.5753299589851,268.641783375002,267.5456850836674,,269.19719295896357,270.2667328339885,269.1673868336404,,267.1113104170072,272.30381883401424,267.1113104170072,272.30381883401424,272.30381883401424,272.956853709009,267.1113104170072,2,1,0.523921957006678,reldom2_s038,001,2025-03-06_13h58.52.736,Where-A-Scan_AC,2022.2.5,None,
0,0.0,None,fixation,stimulus/viswhere_stim/blank_white.png,stimulus/viswhere_stim/blank_white.png,stimulus/audwhere_stim/blank_white.png,stimulus/audwhere_stim/blank_white.png,stimulus/viswhere_stim/blank_white.png,stimulus/viswhere_stim/blank_white.png,stimulus/viswhere_stim/blank_white.png,stimulus/viswhere_stim/blank_white.png,0.0,0.0,0.0,0.0,0,0.0,0,0.0,0,0.0,0,0.0,0,0.0,0.0,0,0.0,0,0.0,0,0.0,0,0.0,0,0.0,0,0.0,0,0.0,0,0.0,9,,,,,0,29,29,29,,,,,,,,,273.2301040419843,273.2301040419843,273.2301040419843,273.2301040419843,273.2301040419843,273.2301040419843,273.2301040419843,273.2301040419843,273.1312337923174,273.2301040419843,273.2301040419843,273.2301040419843,273.1312337923174,273.2301040419843,273.2301040419843,273.2301040419843,273.2301040419843,273.2301040419843,273.2301040419843,273.2301040419843,273.2301040419843,273.2301040419843,273.2301040419843,273.2301040419843,273.2301040419843,273.2301040419843,273.2301040419843,273.1812337923174,273.2301040419843,273.2301040419843,273.2301040419843,273.1812337923174,273.2301040419843,273.2301040419843,273.2301040419843,273.2301040419843,273.2301040419843,278.4215155419661,278.4215155419661,282.3670873749652,None,0,,reldom2_s038,001,2025-03-06_13h58.52.736,Where-A-Scan_AC,2022.2.5,None,
23,Second_Order,4.0,audwhere,stimulus/audwhere_stim/left_away_270h.wav,stimulus/audwhere_stim/left_toward_290h.wav,stimulus/audwhere_stim/left_toward_300h.wav,stimulus/audwhere_stim/right_toward_280h.wav,stimulus/viswhere_stim/match_blank.png,stimulus/audwhere_stim/match_box.png,stimulus/viswhere_stim/match_yes.png,stimulus/viswhere_stim/match_no.png,2.0,Match,Side,Direction,2,5.125,0,5.125,0,5.125,0,5.125,0,0.75,0.75,0,0.0,0,0.0,0,0.0,0,0.0,1,0.5,1,2.125,1,0.5,1,2.125,0,,,,,0,30,30,30,,,,,,,,,282.3670873749652,287.4895964169991,282.3670873749652,282.3670873749652,282.3670873749652,282.3670873749652,282.8140316249919,283.8018099589972,282.8281502506618,,284.44902950001415,285.438849166967,284.45257262565815,,287.4895964169991,288.3428433340159,290.42440625000745,294.33323208399815,288.3428433340159,288.3428433340159,293.5221180419903,288.3428433340159,288.3428433340159,288.3428433340159,288.3428433340159,288.7590396250016,289.8242352500092,288.72909295867817,,290.42440625000745,291.4898324169917,290.39476416667844,,288.3428433340159,293.5221180419903,288.3428433340159,293.5221180419903,293.5221180419903,,288.3428433340159,2,1,1.2097791240084916,reldom2_s038,001,2025-03-06_13h58.52.736,Where-A-Scan_AC,2022.2.5,None,
24,Second_Order,4.0,audwhere,stimulus/audwhere_stim/right_toward_290h.wav,stimulus/audwhere_stim/right_away_290h.wav,stimulus/audwhere_stim/left_away_300h.wav,stimulus/audwhere_stim/left_toward_270h.wav,stimulus/viswhere_stim/match_blank.png,stimulus/audwhere_stim/match_box.png,stimulus/viswhere_stim/match_yes.png,stimulus/viswhere_stim/match_no.png,1.0,Match,Side,Side,1,5.125,0,5.125,0,5.125,0,5.125,0,0.625,0.625,0,0.0,0,0.0,0,0.0,0,0.0,1,0.5,1,2.125,1,0.5,1,2.125,0,,,,,0,31,31,31,,,,,,,,,294.33323208399815,299.4549208339886,294.33323208399815,294.33323208399815,294.33323208399815,294.33323208399815,294.79198133398313,295.778603209008,294.8060968756365,,296.4147903340054,297.41238012496615,296.4269714586592,,299.4549208339886,300.18139937496744,302.24890116701135,,300.18139937496744,300.18139937496744,305.34568820899585,300.18139937496744,300.18139937496744,300.18139937496744,300.18139937496744,300.6379050000105,301.6933890419896,300.60865550063704,,302.24890116701135,303.3140722499811,302.21924795868495,,300.18139937496744,305.34568820899585,300.18139937496744,305.34568820899585,305.34568820899585,305.9963380419649,300.18139937496744,1,1,0.7116868739831261,reldom2_s038,001,2025-03-06_13h58.52.736,Where-A-Scan_AC,2022.2.5,None,
0,0.0,None,fixation,stimulus/viswhere_stim/blank_white.png,stimulus/viswhere_stim/blank_white.png,stimulus/audwhere_stim/blank_white.png,stimulus/audwhere_stim/blank_white.png,stimulus/viswhere_stim/blank_white.png,stimulus/viswhere_stim/blank_white.png,stimulus/viswhere_stim/blank_white.png,stimulus/viswhere_stim/blank_white.png,0.0,0.0,0.0,0.0,0,0.0,0,0.0,0,0.0,0,0.0,0,0.0,0.0,0,0.0,0,0.0,0,0.0,0,0.0,0,0.0,0,0.0,0,0.0,0,0.0,10,,,,,0,32,32,32,,,,,,,,,306.2705266249832,306.2705266249832,306.2705266249832,306.2705266249832,306.2705266249832,306.2705266249832,306.2705266249832,306.2705266249832,306.1703637923075,306.2705266249832,306.2705266249832,306.2705266249832,306.1703637923075,306.2705266249832,306.2705266249832,306.2705266249832,306.2705266249832,306.2705266249832,306.2705266249832,306.2705266249832,306.2705266249832,306.2705266249832,306.2705266249832,306.2705266249832,306.2705266249832,306.2705266249832,306.2705266249832,306.2203637923075,306.2705266249832,306.2705266249832,306.2705266249832,306.2203637923075,306.2705266249832,306.2705266249832,306.2705266249832,306.2705266249832,306.2705266249832,311.47730695898645,311.47730695898645,316.4586854170193,None,0,,reldom2_s038,001,2025-03-06_13h58.52.736,Where-A-Scan_AC,2022.2.5,None,
25,First_Order,5.0,viswhere,stimulus/viswhere_stim/blank_white.png,stimulus/viswhere_stim/blank_white.png,stimulus/viswhere_stim/120-deg_dot-right_goldenrod.png,stimulus/viswhere_stim/150-deg_dot-right_turquoise.png,stimulus/viswhere_stim/blank_white.png,stimulus/viswhere_stim/dot_box.png,stimulus/viswhere_stim/dot_yes.png,stimulus/viswhere_stim/dot_no.png,None,Dot,None,Dot,1,0.0,0,5.125,0,5.125,0,5.125,0,0.0,0.625,0,0.0,0,0.0,1,0.5,1,2.125,0,0.0,0,0.0,0,0.0,0,0.0,0,,,,,0,33,33,33,,,,,,,,,316.4586854170193,316.4586854170193,316.4586854170193,316.4586854170193,316.4586854170193,316.4586854170193,316.4586854170193,316.4586854170193,316.4391454586681,316.4586854170193,316.4586854170193,316.4586854170193,316.4391454586681,316.4586854170193,316.4586854170193,316.4586854170193,318.56035566696664,322.51925812498666,316.4586854170193,316.4586854170193,321.5865834169672,316.9370055840118,317.951091624971,318.56035566696664,319.5793953340035,316.4586854170193,316.4586854170193,316.4391454586681,316.4586854170193,316.4586854170193,316.4586854170193,316.4391454586681,316.4586854170193,316.4586854170193,321.5865834169672,316.4586854170193,321.5865834169672,321.684429084009,322.31598050001776,316.4586854170193,1,1,0.5543250829796307,reldom2_s038,001,2025-03-06_13h58.52.736,Where-A-Scan_AC,2022.2.5,None,
26,First_Order,5.0,viswhere,stimulus/viswhere_stim/blank_white.png,stimulus/viswhere_stim/blank_white.png,stimulus/viswhere_stim/90-deg_dot-right_royalblue.png,stimulus/viswhere_stim/120-deg_dot-right_seagreen.png,stimulus/viswhere_stim/blank_white.png,stimulus/viswhere_stim/line_box.png,stimulus/viswhere_stim/line_yes.png,stimulus/viswhere_stim/line_no.png,None,Line,None,Dot,2,0.0,0,5.125,0,5.125,0,5.125,0,0.0,0.625,0,0.0,0,0.0,1,0.5,1,2.125,0,0.0,0,0.0,0,0.0,0,0.0,0,,,,,0,34,34,34,,,,,,,,,322.51925812498666,322.51925812498666,322.51925812498666,322.51925812498666,322.51925812498666,322.51925812498666,322.51925812498666,322.51925812498666,322.4993068753004,322.51925812498666,322.51925812498666,322.51925812498666,322.4993068753004,322.51925812498666,322.51925812498666,322.51925812498666,324.6235581670189,328.6043438750203,322.51925812498666,322.51925812498666,327.6482648749952,322.9973356669652,324.0125004170113,324.6235581670189,325.64247854199493,322.51925812498666,322.51925812498666,322.51597354196707,322.51925812498666,322.51925812498666,322.51925812498666,322.51597354196707,322.51925812498666,322.51925812498666,327.6482648749952,322.51925812498666,327.6482648749952,327.74812150001526,328.37343995901756,322.51925812498666,2,1,0.6894562490051612,reldom2_s038,001,2025-03-06_13h58.52.736,Where-A-Scan_AC,2022.2.5,None,
27,First_Order,5.0,viswhere,stimulus/viswhere_stim/blank_white.png,stimulus/viswhere_stim/blank_white.png,stimulus/viswhere_stim/60-deg_dot-left_lightsseagreen.png,stimulus/viswhere_stim/60-deg_dot-right_slateblue.png,stimulus/viswhere_stim/blank_white.png,stimulus/viswhere_stim/line_box.png,stimulus/viswhere_stim/line_yes.png,stimulus/viswhere_stim/line_no.png,None,Line,None,Line,1,0.0,0,5.125,0,5.125,0,5.125,0,0.0,0.625,0,0.0,0,0.0,1,0.5,1,2.125,0,0.0,0,0.0,0,0.0,0,0.0,0,,,,,0,35,35,35,,,,,,,,,328.6043438750203,328.6043438750203,328.6043438750203,328.6043438750203,328.6043438750203,328.6043438750203,328.6043438750203,328.6043438750203,328.5835057503039,328.6043438750203,328.6043438750203,328.6043438750203,328.5835057503039,328.6043438750203,328.6043438750203,328.6043438750203,330.7054556249641,334.6711794589646,328.6043438750203,328.6043438750203,333.7422782499925,329.0786867089919,330.09499104198767,330.7054556249641,331.7208620419842,328.6043438750203,328.6043438750203,328.60017241697057,328.6043438750203,328.6043438750203,328.6043438750203,328.60017241697057,328.6043438750203,328.6043438750203,333.7422782499925,328.6043438750203,333.7422782499925,333.82622666697716,334.4578265839955,328.6043438750203,1,1,0.6469917069771327,reldom2_s038,001,2025-03-06_13h58.52.736,Where-A-Scan_AC,2022.2.5,None,
28,First_Order,5.0,viswhere,stimulus/viswhere_stim/blank_white.png,stimulus/viswhere_stim/blank_white.png,stimulus/viswhere_stim/120-deg_dot-right_slateblue.png,stimulus/viswhere_stim/90-deg_dot-right_cyan.png,stimulus/viswhere_stim/blank_white.png,stimulus/viswhere_stim/dot_box.png,stimulus/viswhere_stim/dot_yes.png,stimulus/viswhere_stim/dot_no.png,None,Dot,None,Dot,1,0.0,0,5.125,0,5.125,0,5.125,0,0.0,0.625,0,0.0,0,0.0,1,0.5,1,2.125,0,0.0,0,0.0,0,0.0,0,0.0,0,,,,,0,36,36,36,,,,,,,,,334.6711794589646,334.6711794589646,334.6711794589646,334.6711794589646,334.6711794589646,334.6711794589646,334.6711794589646,334.6711794589646,334.65084512533696,334.6711794589646,334.6711794589646,334.6711794589646,334.65084512533696,334.6711794589646,334.6711794589646,334.6711794589646,336.77369225001894,340.8134066250059,334.6711794589646,334.6711794589646,339.7954672090127,335.15902016701875,336.1632762089721,336.77369225001894,337.79419574997155,334.6711794589646,334.6711794589646,334.6675117920036,334.6711794589646,334.6711794589646,334.6711794589646,334.6675117920036,334.6711794589646,334.6711794589646,339.7954672090127,334.6711794589646,339.7954672090127,339.89313516701804,340.5213192090159,334.6711794589646,1,1,0.7303754999884404,reldom2_s038,001,2025-03-06_13h58.52.736,Where-A-Scan_AC,2022.2.5,None,
0,0.0,None,fixation,stimulus/viswhere_stim/blank_white.png,stimulus/viswhere_stim/blank_white.png,stimulus/audwhere_stim/blank_white.png,stimulus/audwhere_stim/blank_white.png,stimulus/viswhere_stim/blank_white.png,stimulus/viswhere_stim/blank_white.png,stimulus/viswhere_stim/blank_white.png,stimulus/viswhere_stim/blank_white.png,0.0,0.0,0.0,0.0,0,0.0,0,0.0,0,0.0,0,0.0,0,0.0,0.0,0,0.0,0,0.0,0,0.0,0,0.0,0,0.0,0,0.0,0,0.0,0,0.0,9,,,,,0,37,37,37,,,,,,,,,340.8134066250059,340.8134066250059,340.8134066250059,340.8134066250059,340.8134066250059,340.8134066250059,340.8134066250059,340.8134066250059,340.71521966731717,340.8134066250059,340.8134066250059,340.8134066250059,340.71521966731717,340.8134066250059,340.8134066250059,340.8134066250059,340.8134066250059,340.8134066250059,340.8134066250059,340.8134066250059,340.8134066250059,340.8134066250059,340.8134066250059,340.8134066250059,340.8134066250059,340.8134066250059,340.8134066250059,340.7652196673172,340.8134066250059,340.8134066250059,340.8134066250059,340.7652196673172,340.8134066250059,340.8134066250059,340.8134066250059,340.8134066250059,340.8134066250059,346.00685245898785,346.00685245898785,349.9383127919864,None,0,,reldom2_s038,001,2025-03-06_13h58.52.736,Where-A-Scan_AC,2022.2.5,None,
29,Second_Order,5.0,viswhere,stimulus/viswhere_stim/150-deg_dot-right_cyan.png,stimulus/viswhere_stim/150-deg_dot-left_peru.png,stimulus/viswhere_stim/90-deg_dot-left_goldenrod.png,stimulus/viswhere_stim/90-deg_dot-right_mediumslateblue.png,stimulus/viswhere_stim/match_blank.png,stimulus/viswhere_stim/match_box.png,stimulus/viswhere_stim/match_yes.png,stimulus/viswhere_stim/match_no.png,1.0,Match,Line,Line,1,5.125,0,5.125,0,5.125,0,5.125,0,0.75,0.75,1,0.5,1,2.125,1,0.5,1,2.125,0,0.0,0,0.0,0,0.0,0,0.0,0,,,,,0,38,38,38,,,,,,,,,349.9383127919864,355.06207475002157,350.42053050000686,351.4074009169708,352.0424898340134,353.02860358398175,349.9383127919864,349.9383127919864,349.9523465833355,349.9383127919864,349.9383127919864,349.9383127919864,349.9523465833355,349.9383127919864,355.06207475002157,355.85701087501366,357.93863170896657,361.8248966250103,355.85701087501366,355.85701087501366,360.98099995899247,356.3028722089948,357.32204083399847,357.93863170896657,358.9444884589757,355.85701087501366,355.85701087501366,355.8306184173057,355.85701087501366,355.85701087501366,355.85701087501366,355.8306184173057,355.85701087501366,355.85701087501366,360.98099995899247,355.85701087501366,360.98099995899247,361.0495062919799,361.8248966250103,355.85701087501366,1,1,0.5364272909937426,reldom2_s038,001,2025-03-06_13h58.52.736,Where-A-Scan_AC,2022.2.5,None,
30,Second_Order,5.0,viswhere,stimulus/viswhere_stim/90-deg_dot-right_royalblue.png,stimulus/viswhere_stim/60-deg_dot-right_peru.png,stimulus/viswhere_stim/30-deg_dot-left_slateblue.png,stimulus/viswhere_stim/90-deg_dot-left_seagreen.png,stimulus/viswhere_stim/match_blank.png,stimulus/viswhere_stim/match_box.png,stimulus/viswhere_stim/match_yes.png,stimulus/viswhere_stim/match_no.png,1.0,Match,Dot,Dot,1,5.125,0,5.125,0,5.125,0,5.125,0,0.625,0.625,1,0.5,1,2.125,1,0.5,1,2.125,0,0.0,0,0.0,0,0.0,0,0.0,0,,,,,0,39,39,39,,,,,,,,,361.8248966250103,366.94441266701324,362.2972335839877,363.28521366696805,363.93358608399285,364.92261204199167,361.8248966250103,361.8248966250103,361.83742483397947,361.8248966250103,361.8248966250103,361.8248966250103,361.83742483397947,361.8248966250103,366.94441266701324,367.61670924996724,369.69199283397757,373.7282617500168,367.61670924996724,367.61670924996724,372.74838791700313,368.06360529200174,369.07908766699256,369.69199283397757,370.69608258397784,367.61670924996724,367.61670924996724,367.5918306253229,367.61670924996724,367.61670924996724,367.61670924996724,367.5918306253229,367.61670924996724,367.61670924996724,372.74838791700313,367.61670924996724,372.74838791700313,372.8358559589833,373.46124229201814,367.61670924996724,1,1,0.601754374045413,reldom2_s038,001,2025-03-06_13h58.52.736,Where-A-Scan_AC,2022.2.5,None,
0,0.0,None,fixation,stimulus/viswhere_stim/blank_white.png,stimulus/viswhere_stim/blank_white.png,stimulus/audwhere_stim/blank_white.png,stimulus/audwhere_stim/blank_white.png,stimulus/viswhere_stim/blank_white.png,stimulus/viswhere_stim/blank_white.png,stimulus/viswhere_stim/blank_white.png,stimulus/viswhere_stim/blank_white.png,0.0,0.0,0.0,0.0,0,0.0,0,0.0,0,0.0,0,0.0,0,0.0,0.0,0,0.0,0,0.0,0,0.0,0,0.0,0,0.0,0,0.0,0,0.0,0,0.0,8,,,,,0,40,40,40,,,,,,,,,373.7282617500168,373.7282617500168,373.7282617500168,373.7282617500168,373.7282617500168,373.7282617500168,373.7282617500168,373.7282617500168,373.6279426253362,373.7282617500168,373.7282617500168,373.7282617500168,373.6279426253362,373.7282617500168,373.7282617500168,373.7282617500168,373.7282617500168,373.7282617500168,373.7282617500168,373.7282617500168,373.7282617500168,373.7282617500168,373.7282617500168,373.7282617500168,373.7282617500168,373.7282617500168,373.7282617500168,373.6779426253362,373.7282617500168,373.7282617500168,373.7282617500168,373.6779426253362,373.7282617500168,373.7282617500168,373.7282617500168,373.7282617500168,373.7282617500168,378.9594390419661,378.9594390419661,381.9267371669994,None,0,,reldom2_s038,001,2025-03-06_13h58.52.736,Where-A-Scan_AC,2022.2.5,None,
31,First_Order,6.0,viswhere,stimulus/viswhere_stim/blank_white.png,stimulus/viswhere_stim/blank_white.png,stimulus/viswhere_stim/90-deg_dot-right_lightsseagreen.png,stimulus/viswhere_stim/90-deg_dot-left_turquoise.png,stimulus/viswhere_stim/blank_white.png,stimulus/viswhere_stim/line_box.png,stimulus/viswhere_stim/line_yes.png,stimulus/viswhere_stim/line_no.png,None,Line,None,Line,1,0.0,0,5.125,0,5.125,0,5.125,0,0.0,0.625,0,0.0,0,0.0,1,0.5,1,2.125,0,0.0,0,0.0,0,0.0,0,0.0,0,,,,,0,41,41,41,,,,,,,,,381.9267371669994,381.9267371669994,381.9267371669994,381.9267371669994,381.9267371669994,381.9267371669994,381.9267371669994,381.9267371669994,381.9063952506791,381.9267371669994,381.9267371669994,381.9267371669994,381.9063952506791,381.9267371669994,381.9267371669994,381.9267371669994,384.02690395899117,387.9824012920144,381.9267371669994,381.9267371669994,387.058278875018,382.4113083339762,383.4277767500025,384.02690395899117,385.0321259589982,381.9267371669994,381.9267371669994,381.9230619173458,381.9267371669994,381.9267371669994,381.9267371669994,381.9230619173458,381.9267371669994,381.9267371669994,387.058278875018,381.9267371669994,387.058278875018,387.14032041700557,387.76752695901087,381.9267371669994,1,1,0.5819792079855688,reldom2_s038,001,2025-03-06_13h58.52.736,Where-A-Scan_AC,2022.2.5,None,
32,First_Order,6.0,viswhere,stimulus/viswhere_stim/blank_white.png,stimulus/viswhere_stim/blank_white.png,stimulus/viswhere_stim/30-deg_dot-right_goldenrod.png,stimulus/viswhere_stim/30-deg_dot-left_seagreen.png,stimulus/viswhere_stim/blank_white.png,stimulus/viswhere_stim/dot_box.png,stimulus/viswhere_stim/dot_yes.png,stimulus/viswhere_stim/dot_no.png,None,Dot,None,Line,2,0.0,0,5.125,0,5.125,0,5.125,0,0.0,0.625,0,0.0,0,0.0,1,0.5,1,2.125,0,0.0,0,0.0,0,0.0,0,0.0,0,,,,,0,42,42,42,,,,,,,,,387.9824012920144,387.9824012920144,387.9824012920144,387.9824012920144,387.9824012920144,387.9824012920144,387.9824012920144,387.9824012920144,387.96079175030656,387.9824012920144,387.9824012920144,387.9824012920144,387.96079175030656,387.9824012920144,387.9824012920144,387.9824012920144,390.0805537920096,394.0412947500008,387.9824012920144,387.9824012920144,393.1186162920203,388.4605562919751,389.4708762919763,390.0805537920096,391.0977650419809,387.9824012920144,387.9824012920144,387.9774584169732,387.9824012920144,387.9824012920144,387.9824012920144,387.9774584169732,387.9824012920144,387.9824012920144,393.1186162920203,387.9824012920144,393.1186162920203,393.202153042017,393.8248277499806,387.9824012920144,2,1,0.5066915819770657,reldom2_s038,001,2025-03-06_13h58.52.736,Where-A-Scan_AC,2022.2.5,None,
33,First_Order,6.0,viswhere,stimulus/viswhere_stim/blank_white.png,stimulus/viswhere_stim/blank_white.png,stimulus/viswhere_stim/150-deg_dot-left_lightsseagreen.png,stimulus/viswhere_stim/150-deg_dot-right_royalblue.png,stimulus/viswhere_stim/blank_white.png,stimulus/viswhere_stim/dot_box.png,stimulus/viswhere_stim/dot_yes.png,stimulus/viswhere_stim/dot_no.png,None,Dot,None,Line,2,0.0,0,5.125,0,5.125,0,5.125,0,0.0,0.625,0,0.0,0,0.0,1,0.5,1,2.125,0,0.0,0,0.0,0,0.0,0,0.0,0,,,,,0,43,43,43,,,,,,,,,394.0412947500008,394.0412947500008,394.0412947500008,394.0412947500008,394.0412947500008,394.0412947500008,394.0412947500008,394.0412947500008,394.02067020834266,394.0412947500008,394.0412947500008,394.0412947500008,394.02067020834266,394.0412947500008,394.0412947500008,394.0412947500008,396.1411173749948,400.10465741698863,394.0412947500008,394.0412947500008,399.16594820900355,394.5226636250154,395.54353379202075,396.1411173749948,397.1477734170039,394.0412947500008,394.0412947500008,394.0373368750093,394.0412947500008,394.0412947500008,394.0412947500008,394.0373368750093,394.0412947500008,394.0412947500008,399.16594820900355,394.0412947500008,399.16594820900355,399.26350195897976,399.88609899999574,394.0412947500008,2,1,0.6100621660007164,reldom2_s038,001,2025-03-06_13h58.52.736,Where-A-Scan_AC,2022.2.5,None,
34,First_Order,6.0,viswhere,stimulus/viswhere_stim/blank_white.png,stimulus/viswhere_stim/blank_white.png,stimulus/viswhere_stim/120-deg_dot-left_peru.png,stimulus/viswhere_stim/90-deg_dot-left_royalblue.png,stimulus/viswhere_stim/blank_white.png,stimulus/viswhere_stim/line_box.png,stimulus/viswhere_stim/line_yes.png,stimulus/viswhere_stim/line_no.png,None,Line,None,Dot,2,0.0,0,5.125,0,5.125,0,5.125,0,0.0,0.625,0,0.0,0,0.0,1,0.5,1,2.125,0,0.0,0,0.0,0,0.0,0,0.0,0,,,,,0,44,44,44,,,,,,,,,400.10465741698863,400.10465741698863,400.10465741698863,400.10465741698863,400.10465741698863,400.10465741698863,400.10465741698863,400.10465741698863,400.0818732503297,400.10465741698863,400.10465741698863,400.10465741698863,400.0818732503297,400.10465741698863,400.10465741698863,400.10465741698863,402.2163066249923,406.2516834170092,400.10465741698863,400.10465741698863,405.2375828339718,400.5864501670003,401.59555129200453,402.2163066249923,403.2243563340162,400.10465741698863,400.10465741698863,400.09853991699634,400.10465741698863,400.10465741698863,400.10465741698863,400.09853991699634,400.10465741698863,400.10465741698863,405.2375828339718,400.10465741698863,405.2375828339718,405.32158979197266,405.9557354589924,400.10465741698863,2,1,0.6807320829830132,reldom2_s038,001,2025-03-06_13h58.52.736,Where-A-Scan_AC,2022.2.5,None,
0,0.0,None,fixation,stimulus/viswhere_stim/blank_white.png,stimulus/viswhere_stim/blank_white.png,stimulus/audwhere_stim/blank_white.png,stimulus/audwhere_stim/blank_white.png,stimulus/viswhere_stim/blank_white.png,stimulus/viswhere_stim/blank_white.png,stimulus/viswhere_stim/blank_white.png,stimulus/viswhere_stim/blank_white.png,0.0,0.0,0.0,0.0,0,0.0,0,0.0,0,0.0,0,0.0,0,0.0,0.0,0,0.0,0,0.0,0,0.0,0,0.0,0,0.0,0,0.0,0,0.0,0,0.0,10,,,,,0,45,45,45,,,,,,,,,406.2516834170092,406.2516834170092,406.2516834170092,406.2516834170092,406.2516834170092,406.2516834170092,406.2516834170092,406.2516834170092,406.1528170003051,406.2516834170092,406.2516834170092,406.2516834170092,406.1528170003051,406.2516834170092,406.2516834170092,406.2516834170092,406.2516834170092,406.2516834170092,406.2516834170092,406.2516834170092,406.2516834170092,406.2516834170092,406.2516834170092,406.2516834170092,406.2516834170092,406.2516834170092,406.2516834170092,406.2028170003051,406.2516834170092,406.2516834170092,406.2516834170092,406.2028170003051,406.2516834170092,406.2516834170092,406.2516834170092,406.2516834170092,406.2516834170092,411.4508865419775,411.4508865419775,416.3922879169695,None,0,,reldom2_s038,001,2025-03-06_13h58.52.736,Where-A-Scan_AC,2022.2.5,None,
35,Second_Order,6.0,viswhere,stimulus/viswhere_stim/60-deg_dot-right_mediumslateblue.png,stimulus/viswhere_stim/150-deg_dot-right_turquoise.png,stimulus/viswhere_stim/90-deg_dot-right_slateblue.png,stimulus/viswhere_stim/90-deg_dot-left_seagreen.png,stimulus/viswhere_stim/match_blank.png,stimulus/viswhere_stim/match_box.png,stimulus/viswhere_stim/match_yes.png,stimulus/viswhere_stim/match_no.png,2.0,Match,Dot,Line,2,5.125,0,5.125,0,5.125,0,5.125,0,0.75,0.75,1,0.5,1,2.125,1,0.5,1,2.125,0,0.0,0,0.0,0,0.0,0,0.0,0,,,,,0,46,46,46,,,,,,,,,416.3922879169695,421.5156479589641,416.87575483397814,417.8739177919924,418.4969945839839,419.49443141696975,416.3922879169695,416.3922879169695,416.4054541673123,416.3922879169695,416.3922879169695,416.3922879169695,416.4054541673123,416.3922879169695,421.5156479589641,422.3121331249713,424.3901644590078,428.2781978339772,422.3121331249713,422.3121331249713,427.43738087499514,422.75783508399036,423.77695908397436,424.3901644590078,425.39536570897326,422.3121331249713,422.3121331249713,422.30061774998904,422.3121331249713,422.3121331249713,422.3121331249713,422.30061774998904,422.3121331249713,422.3121331249713,427.43738087499514,422.3121331249713,427.43738087499514,427.5063381670043,428.2781978339772,422.3121331249713,2,1,0.5092324569704942,reldom2_s038,001,2025-03-06_13h58.52.736,Where-A-Scan_AC,2022.2.5,None,
36,Second_Order,6.0,viswhere,stimulus/viswhere_stim/120-deg_dot-left_royalblue.png,stimulus/viswhere_stim/120-deg_dot-right_cyan.png,stimulus/viswhere_stim/90-deg_dot-left_slateblue.png,stimulus/viswhere_stim/90-deg_dot-right_turquoise.png,stimulus/viswhere_stim/match_blank.png,stimulus/viswhere_stim/match_box.png,stimulus/viswhere_stim/match_yes.png,stimulus/viswhere_stim/match_no.png,1.0,Match,Line,Line,1,5.125,0,5.125,0,5.125,0,5.125,0,0.625,0.625,1,0.5,1,2.125,1,0.5,1,2.125,0,0.0,0,0.0,0,0.0,0,0.0,0,,,,,0,47,47,47,,,,,,,,,428.2781978339772,433.3976651249686,428.7651737499982,429.7562112089945,430.3861849589739,431.37912549998146,428.2781978339772,428.2781978339772,428.29140762496974,428.2781978339772,428.2781978339772,428.2781978339772,428.29140762496974,428.2781978339772,433.3976651249686,434.0651164170122,436.14081608399283,440.18173549999483,434.0651164170122,434.0651164170122,439.1979525840143,434.52888291701674,435.5459092090023,436.14081608399283,437.14371408399893,434.0651164170122,434.0651164170122,434.04440425034454,434.0651164170122,434.0651164170122,434.0651164170122,434.04440425034454,434.0651164170122,434.0651164170122,439.1979525840143,434.0651164170122,439.1979525840143,439.2667966670124,439.9011335420073,434.0651164170122,1,1,0.3693969580344856,reldom2_s038,001,2025-03-06_13h58.52.736,Where-A-Scan_AC,2022.2.5,None,
0,0.0,None,fixation,stimulus/viswhere_stim/blank_white.png,stimulus/viswhere_stim/blank_white.png,stimulus/audwhere_stim/blank_white.png,stimulus/audwhere_stim/blank_white.png,stimulus/viswhere_stim/blank_white.png,stimulus/viswhere_stim/blank_white.png,stimulus/viswhere_stim/blank_white.png,stimulus/viswhere_stim/blank_white.png,0.0,0.0,0.0,0.0,0,0.0,0,0.0,0,0.0,0,0.0,0,0.0,0.0,0,0.0,0,0.0,0,0.0,0,0.0,0,0.0,0,0.0,0,0.0,0,0.0,9,,,,,0,48,48,48,,,,,,,,,440.18173549999483,440.18173549999483,440.18173549999483,440.18173549999483,440.18173549999483,440.18173549999483,440.18173549999483,440.18173549999483,440.08122095834307,440.18173549999483,440.18173549999483,440.18173549999483,440.08122095834307,440.18173549999483,440.18173549999483,440.18173549999483,440.18173549999483,440.18173549999483,440.18173549999483,440.18173549999483,440.18173549999483,440.18173549999483,440.18173549999483,440.18173549999483,440.18173549999483,440.18173549999483,440.18173549999483,440.1312209583431,440.18173549999483,440.18173549999483,440.18173549999483,440.1312209583431,440.18173549999483,440.18173549999483,440.18173549999483,440.18173549999483,440.18173549999483,445.3671057919855,445.3671057919855,449.4549327499699,None,0,,reldom2_s038,001,2025-03-06_13h58.52.736,Where-A-Scan_AC,2022.2.5,None,
37,First_Order,7.0,audwhere,stimulus/audwhere_stim/dummy.wav,stimulus/audwhere_stim/dummy.wav,stimulus/audwhere_stim/left_toward_280h.wav,stimulus/audwhere_stim/left_away_290h.wav,stimulus/audwhere_stim/blank_white.png,stimulus/audwhere_stim/direction_box.png,stimulus/audwhere_stim/direction_yes.png,stimulus/audwhere_stim/direction_no.png,None,Direction,None,Side,2,0.0,0,5.125,0,5.125,0,5.125,0,0.0,0.625,0,0.0,0,0.0,0,0.0,0,0.0,0,0.0,0,0.0,1,0.5,1,2.125,0,,,,,0,49,49,49,,,,,,,,,449.4549327499699,449.4549327499699,449.4549327499699,449.4549327499699,449.4549327499699,449.4549327499699,449.4549327499699,449.4549327499699,449.38260554165265,449.4549327499699,449.4549327499699,449.4549327499699,449.38260554165265,449.4549327499699,449.4549327499699,449.4549327499699,451.55682908400195,,449.4549327499699,449.4549327499699,454.6369227920077,449.4549327499699,449.4549327499699,449.4549327499699,449.4549327499699,449.92407804197865,450.9971639169962,449.8936462506574,,451.55682908400195,452.5877239999827,451.52668550063777,,449.4549327499699,454.6369227920077,449.4549327499699,454.6369227920077,454.6779872920015,455.3325835419819,449.4549327499699,2,1,0.7851117909885943,reldom2_s038,001,2025-03-06_13h58.52.736,Where-A-Scan_AC,2022.2.5,None,
38,First_Order,7.0,audwhere,stimulus/audwhere_stim/dummy.wav,stimulus/audwhere_stim/dummy.wav,stimulus/audwhere_stim/left_away_300h.wav,stimulus/audwhere_stim/right_away_280h.wav,stimulus/audwhere_stim/blank_white.png,stimulus/audwhere_stim/side_box.png,stimulus/audwhere_stim/side_yes.png,stimulus/audwhere_stim/side_no.png,None,Side,None,Direction,2,0.0,0,5.125,0,5.125,0,5.125,0,0.0,0.625,0,0.0,0,0.0,0,0.0,0,0.0,0,0.0,0,0.0,1,0.5,1,2.125,0,,,,,0,50,50,50,,,,,,,,,455.54535604198463,455.54535604198463,455.54535604198463,455.54535604198463,455.54535604198463,455.54535604198463,455.54535604198463,455.54535604198463,455.4659168753152,455.54535604198463,455.54535604198463,455.54535604198463,455.4659168753152,455.54535604198463,455.54535604198463,455.54535604198463,457.6349912919686,,455.54535604198463,455.54535604198463,460.7004530419945,455.54535604198463,455.54535604198463,455.54535604198463,455.54535604198463,456.01151591696544,457.07893600000534,455.9813524166859,,457.6349912919686,458.70633941696724,457.60505450063306,,455.54535604198463,460.7004530419945,455.54535604198463,460.7004530419945,460.74120479199337,461.3951796669862,455.54535604198463,2,1,0.660497208009474,reldom2_s038,001,2025-03-06_13h58.52.736,Where-A-Scan_AC,2022.2.5,None,
39,First_Order,7.0,audwhere,stimulus/audwhere_stim/dummy.wav,stimulus/audwhere_stim/dummy.wav,stimulus/audwhere_stim/right_toward_280h.wav,stimulus/audwhere_stim/right_away_300h.wav,stimulus/audwhere_stim/blank_white.png,stimulus/audwhere_stim/side_box.png,stimulus/audwhere_stim/side_yes.png,stimulus/audwhere_stim/side_no.png,None,Side,None,Side,1,0.0,0,5.125,0,5.125,0,5.125,0,0.0,0.625,0,0.0,0,0.0,0,0.0,0,0.0,0,0.0,0,0.0,1,0.5,1,2.125,0,,,,,0,51,51,51,,,,,,,,,461.64866012497805,461.64866012497805,461.64866012497805,461.64866012497805,461.64866012497805,461.64866012497805,461.64866012497805,461.64866012497805,461.56945875034046,461.64866012497805,461.64866012497805,461.64866012497805,461.56945875034046,461.64866012497805,461.64866012497805,461.64866012497805,463.75544158398407,,461.64866012497805,461.64866012497805,466.83508358401014,461.64866012497805,461.64866012497805,461.64866012497805,461.64866012497805,462.12124675000086,463.192716458987,462.0911212916874,,463.75544158398407,464.78449783398537,463.7238406256695,,461.64866012497805,466.83508358401014,461.64866012497805,466.83508358401014,466.876545334002,467.5314665840124,461.64866012497805,1,1,0.8860415410017595,reldom2_s038,001,2025-03-06_13h58.52.736,Where-A-Scan_AC,2022.2.5,None,
40,First_Order,7.0,audwhere,stimulus/audwhere_stim/dummy.wav,stimulus/audwhere_stim/dummy.wav,stimulus/audwhere_stim/left_away_280h.wav,stimulus/audwhere_stim/left_toward_300h.wav,stimulus/audwhere_stim/blank_white.png,stimulus/audwhere_stim/side_box.png,stimulus/audwhere_stim/side_yes.png,stimulus/audwhere_stim/side_no.png,None,Side,None,Side,1,0.0,0,5.125,0,5.125,0,5.125,0,0.0,0.625,0,0.0,0,0.0,0,0.0,0,0.0,0,0.0,0,0.0,1,0.5,1,2.125,0,,,,,0,52,52,52,,,,,,,,,467.74524470901815,467.74524470901815,467.74524470901815,467.74524470901815,467.74524470901815,467.74524470901815,467.74524470901815,467.74524470901815,467.6647999173457,467.74524470901815,467.74524470901815,467.74524470901815,467.6647999173457,467.74524470901815,467.74524470901815,467.74524470901815,469.8368714170065,,467.74524470901815,467.74524470901815,472.8975822919747,467.74524470901815,467.74524470901815,467.74524470901815,467.74524470901815,468.21153791697,469.2790410000016,468.18096204166454,,469.8368714170065,470.9063293749932,469.8068535006644,,467.74524470901815,472.8975822919747,467.74524470901815,472.8975822919747,472.93847154197283,473.59296770900255,467.74524470901815,1,1,0.6810931660002097,reldom2_s038,001,2025-03-06_13h58.52.736,Where-A-Scan_AC,2022.2.5,None,
0,0.0,None,fixation,stimulus/viswhere_stim/blank_white.png,stimulus/viswhere_stim/blank_white.png,stimulus/audwhere_stim/blank_white.png,stimulus/audwhere_stim/blank_white.png,stimulus/viswhere_stim/blank_white.png,stimulus/viswhere_stim/blank_white.png,stimulus/viswhere_stim/blank_white.png,stimulus/viswhere_stim/blank_white.png,0.0,0.0,0.0,0.0,0,0.0,0,0.0,0,0.0,0,0.0,0,0.0,0.0,0,0.0,0,0.0,0,0.0,0,0.0,0,0.0,0,0.0,0,0.0,0,0.0,8,,,,,0,53,53,53,,,,,,,,,473.86898712499533,473.86898712499533,473.86898712499533,473.86898712499533,473.86898712499533,473.86898712499533,473.86898712499533,473.86898712499533,473.7672601673131,473.86898712499533,473.86898712499533,473.86898712499533,473.7672601673131,473.86898712499533,473.86898712499533,473.86898712499533,473.86898712499533,473.86898712499533,473.86898712499533,473.86898712499533,473.86898712499533,473.86898712499533,473.86898712499533,473.86898712499533,473.86898712499533,473.86898712499533,473.86898712499533,473.8172601673131,473.86898712499533,473.86898712499533,473.86898712499533,473.8172601673131,473.86898712499533,473.86898712499533,473.86898712499533,473.86898712499533,473.86898712499533,479.0665397089906,479.0665397089906,481.9966098339646,None,0,,reldom2_s038,001,2025-03-06_13h58.52.736,Where-A-Scan_AC,2022.2.5,None,
41,Second_Order,7.0,audwhere,stimulus/audwhere_stim/left_away_300h.wav,stimulus/audwhere_stim/left_toward_300h.wav,stimulus/audwhere_stim/right_away_290h.wav,stimulus/audwhere_stim/right_toward_290h.wav,stimulus/viswhere_stim/match_blank.png,stimulus/audwhere_stim/match_box.png,stimulus/viswhere_stim/match_yes.png,stimulus/viswhere_stim/match_no.png,1.0,Match,Side,Side,1,5.125,0,5.125,0,5.125,0,5.125,0,0.75,0.75,0,0.0,0,0.0,0,0.0,0,0.0,1,0.5,1,2.125,1,0.5,1,2.125,0,,,,,0,54,54,54,,,,,,,,,481.9966098339646,487.118005833996,481.9966098339646,481.9966098339646,481.9966098339646,481.9966098339646,482.44232829200337,483.42970833397703,482.456183875682,,484.07701166701736,485.0660949589801,484.0807007086735,,487.118005833996,487.96288179198746,490.01804666698445,493.95832420897204,487.96288179198746,487.96288179198746,493.1462536249892,487.96288179198746,487.96288179198746,487.96288179198746,487.96288179198746,488.4274410419748,489.4591524589923,488.3975360836523,,490.01804666698445,491.0477303749649,489.9875305006319,,487.96288179198746,493.1462536249892,487.96288179198746,493.1462536249892,493.1462536249892,,487.96288179198746,1,1,0.6173605830408633,reldom2_s038,001,2025-03-06_13h58.52.736,Where-A-Scan_AC,2022.2.5,None,
42,Second_Order,7.0,audwhere,stimulus/audwhere_stim/left_away_280h.wav,stimulus/audwhere_stim/right_away_270h.wav,stimulus/audwhere_stim/right_toward_270h.wav,stimulus/audwhere_stim/left_toward_280h.wav,stimulus/viswhere_stim/match_blank.png,stimulus/audwhere_stim/match_box.png,stimulus/viswhere_stim/match_yes.png,stimulus/viswhere_stim/match_no.png,1.0,Match,Direction,Direction,1,5.125,0,5.125,0,5.125,0,5.125,0,0.625,0.625,0,0.0,0,0.0,0,0.0,0,0.0,1,0.5,1,2.125,1,0.5,1,2.125,0,,,,,0,55,55,55,,,,,,,,,493.95832420897204,499.08359745901544,493.95832420897204,493.95832420897204,493.95832420897204,493.95832420897204,494.41709366696887,495.4065491249785,494.419816541664,,496.04224183398765,497.040087374975,496.0546151666824,,499.08359745901544,499.8149812089978,501.8965334169916,505.9259144999669,499.8149812089978,499.8149812089978,504.99942758399993,499.8149812089978,499.8149812089978,499.8149812089978,499.8149812089978,500.2300657919841,501.2945716669783,500.20025095867845,,501.8965334169916,502.9643406670075,501.86647550063594,,499.8149812089978,504.99942758399993,499.8149812089978,504.99942758399993,504.99942758399993,505.6502975000185,499.8149812089978,1,1,0.7361424989649095,reldom2_s038,001,2025-03-06_13h58.52.736,Where-A-Scan_AC,2022.2.5,None,
0,0.0,None,fixation,stimulus/viswhere_stim/blank_white.png,stimulus/viswhere_stim/blank_white.png,stimulus/audwhere_stim/blank_white.png,stimulus/audwhere_stim/blank_white.png,stimulus/viswhere_stim/blank_white.png,stimulus/viswhere_stim/blank_white.png,stimulus/viswhere_stim/blank_white.png,stimulus/viswhere_stim/blank_white.png,0.0,0.0,0.0,0.0,0,0.0,0,0.0,0,0.0,0,0.0,0,0.0,0.0,0,0.0,0,0.0,0,0.0,0,0.0,0,0.0,0,0.0,0,0.0,0,0.0,10,,,,,0,56,56,56,,,,,,,,,505.9259144999669,505.9259144999669,505.9259144999669,505.9259144999669,505.9259144999669,505.9259144999669,505.9259144999669,505.9259144999669,505.8240542923178,505.9259144999669,505.9259144999669,505.9259144999669,505.8240542923178,505.9259144999669,505.9259144999669,505.9259144999669,505.9259144999669,505.9259144999669,505.9259144999669,505.9259144999669,505.9259144999669,505.9259144999669,505.9259144999669,505.9259144999669,505.9259144999669,505.9259144999669,505.9259144999669,505.8740542923178,505.9259144999669,505.9259144999669,505.9259144999669,505.8740542923178,505.9259144999669,505.9259144999669,505.9259144999669,505.9259144999669,505.9259144999669,511.1515372089925,511.1515372089925,516.1942039169953,None,0,,reldom2_s038,001,2025-03-06_13h58.52.736,Where-A-Scan_AC,2022.2.5,None,
43,First_Order,8.0,audwhere,stimulus/audwhere_stim/dummy.wav,stimulus/audwhere_stim/dummy.wav,stimulus/audwhere_stim/left_away_270h.wav,stimulus/audwhere_stim/right_away_300h.wav,stimulus/audwhere_stim/blank_white.png,stimulus/audwhere_stim/direction_box.png,stimulus/audwhere_stim/direction_yes.png,stimulus/audwhere_stim/direction_no.png,None,Direction,None,Direction,1,0.0,0,5.125,0,5.125,0,5.125,0,0.0,0.625,0,0.0,0,0.0,0,0.0,0,0.0,0,0.0,0,0.0,1,0.5,1,2.125,0,,,,,0,57,57,57,,,,,,,,,516.1942039169953,516.1942039169953,516.1942039169953,516.1942039169953,516.1942039169953,516.1942039169953,516.1942039169953,516.1942039169953,516.122719708636,516.1942039169953,516.1942039169953,516.1942039169953,516.122719708636,516.1942039169953,516.1942039169953,516.1942039169953,518.2909232089878,522.3207219169708,516.1942039169953,516.1942039169953,521.3679874999798,516.1942039169953,516.1942039169953,516.1942039169953,516.1942039169953,516.6604149999912,517.7322739589727,516.6308075836316,,518.2909232089878,519.3663526669843,518.2610081256755,,516.1942039169953,521.3679874999798,516.1942039169953,521.3679874999798,521.4090978750028,522.0671144999797,516.1942039169953,1,1,0.8232722079847008,reldom2_s038,001,2025-03-06_13h58.52.736,Where-A-Scan_AC,2022.2.5,None,
44,First_Order,8.0,audwhere,stimulus/audwhere_stim/dummy.wav,stimulus/audwhere_stim/dummy.wav,stimulus/audwhere_stim/left_toward_300h.wav,stimulus/audwhere_stim/left_away_280h.wav,stimulus/audwhere_stim/blank_white.png,stimulus/audwhere_stim/direction_box.png,stimulus/audwhere_stim/direction_yes.png,stimulus/audwhere_stim/direction_no.png,None,Direction,None,Side,2,0.0,0,5.125,0,5.125,0,5.125,0,0.0,0.625,0,0.0,0,0.0,0,0.0,0,0.0,0,0.0,0,0.0,1,0.5,1,2.125,0,,,,,0,58,58,58,,,,,,,,,522.3207219169708,522.3207219169708,522.3207219169708,522.3207219169708,522.3207219169708,522.3207219169708,522.3207219169708,522.3207219169708,522.2409882083031,522.3207219169708,522.3207219169708,522.3207219169708,522.2409882083031,522.3207219169708,522.3207219169708,522.3207219169708,524.4144291249686,528.4438626249903,522.3207219169708,522.3207219169708,527.4914728750009,522.3207219169708,522.3207219169708,522.3207219169708,522.3207219169708,522.7851866249694,523.8557441249723,522.7554726256678,,524.4144291249686,525.4439237500192,524.3839330006779,,522.3207219169708,527.4914728750009,522.3207219169708,527.4914728750009,527.5328312499914,528.1898207920021,522.3207219169708,2,1,0.7236575410352089,reldom2_s038,001,2025-03-06_13h58.52.736,Where-A-Scan_AC,2022.2.5,None,
45,First_Order,8.0,audwhere,stimulus/audwhere_stim/dummy.wav,stimulus/audwhere_stim/dummy.wav,stimulus/audwhere_stim/right_away_290h.wav,stimulus/audwhere_stim/left_away_280h.wav,stimulus/audwhere_stim/blank_white.png,stimulus/audwhere_stim/side_box.png,stimulus/audwhere_stim/side_yes.png,stimulus/audwhere_stim/side_no.png,None,Side,None,Direction,2,0.0,0,5.125,0,5.125,0,5.125,0,0.0,0.625,0,0.0,0,0.0,0,0.0,0,0.0,0,0.0,0,0.0,1,0.5,1,2.125,0,,,,,0,59,59,59,,,,,,,,,528.4438626249903,528.4438626249903,528.4438626249903,528.4438626249903,528.4438626249903,528.4438626249903,528.4438626249903,528.4438626249903,528.363894708311,528.4438626249903,528.4438626249903,528.4438626249903,528.363894708311,528.4438626249903,528.4438626249903,528.4438626249903,530.5336271669948,,528.4438626249903,528.4438626249903,533.5985071249888,528.4438626249903,528.4438626249903,528.4438626249903,528.4438626249903,528.9084554169676,529.9772899589734,528.8787183756397,,530.5336271669948,531.6056241670158,530.503661750645,,528.4438626249903,533.5985071249888,528.4438626249903,533.5985071249888,533.6394597920007,534.2940642919857,528.4438626249903,2,1,0.7511142489966005,reldom2_s038,001,2025-03-06_13h58.52.736,Where-A-Scan_AC,2022.2.5,None,
46,First_Order,8.0,audwhere,stimulus/audwhere_stim/dummy.wav,stimulus/audwhere_stim/dummy.wav,stimulus/audwhere_stim/left_away_270h.wav,stimulus/audwhere_stim/right_away_290h.wav,stimulus/audwhere_stim/blank_white.png,stimulus/audwhere_stim/direction_box.png,stimulus/audwhere_stim/direction_yes.png,stimulus/audwhere_stim/direction_no.png,None,Direction,None,Direction,1,0.0,0,5.125,0,5.125,0,5.125,0,0.0,0.625,0,0.0,0,0.0,0,0.0,0,0.0,0,0.0,0,0.0,1,0.5,1,2.125,0,,,,,0,60,60,60,,,,,,,,,534.5481267090072,534.5481267090072,534.5481267090072,534.5481267090072,534.5481267090072,534.5481267090072,534.5481267090072,534.5481267090072,534.468164333348,534.5481267090072,534.5481267090072,534.5481267090072,534.468164333348,534.5481267090072,534.5481267090072,534.5481267090072,536.6483463749755,,534.5481267090072,534.5481267090072,539.7297214170103,534.5481267090072,534.5481267090072,534.5481267090072,534.5481267090072,535.0162551669637,536.0901200419758,534.9859596256322,,536.6483463749755,537.6799678750103,536.6180280006413,,534.5481267090072,539.7297214170103,534.5481267090072,539.7297214170103,539.7712985419785,540.4282800839865,534.5481267090072,1,1,0.8129609989700839,reldom2_s038,001,2025-03-06_13h58.52.736,Where-A-Scan_AC,2022.2.5,None,
0,0.0,None,fixation,stimulus/viswhere_stim/blank_white.png,stimulus/viswhere_stim/blank_white.png,stimulus/audwhere_stim/blank_white.png,stimulus/audwhere_stim/blank_white.png,stimulus/viswhere_stim/blank_white.png,stimulus/viswhere_stim/blank_white.png,stimulus/viswhere_stim/blank_white.png,stimulus/viswhere_stim/blank_white.png,0.0,0.0,0.0,0.0,0,0.0,0,0.0,0,0.0,0,0.0,0,0.0,0.0,0,0.0,0,0.0,0,0.0,0,0.0,0,0.0,0,0.0,0,0.0,0,0.0,9,,,,,0,61,61,61,,,,,,,,,540.661775125016,540.661775125016,540.661775125016,540.661775125016,540.661775125016,540.661775125016,540.661775125016,540.661775125016,540.5616134173198,540.661775125016,540.661775125016,540.661775125016,540.5616134173198,540.661775125016,540.661775125016,540.661775125016,540.661775125016,540.661775125016,540.661775125016,540.661775125016,540.661775125016,540.661775125016,540.661775125016,540.661775125016,540.661775125016,540.661775125016,540.661775125016,540.6116134173197,540.661775125016,540.661775125016,540.661775125016,540.6116134173197,540.661775125016,540.661775125016,540.661775125016,540.661775125016,540.661775125016,545.8630042920122,545.8630042920122,549.8182992090005,None,0,,reldom2_s038,001,2025-03-06_13h58.52.736,Where-A-Scan_AC,2022.2.5,None,
47,Second_Order,8.0,audwhere,stimulus/audwhere_stim/right_away_280h.wav,stimulus/audwhere_stim/left_away_290h.wav,stimulus/audwhere_stim/right_toward_300h.wav,stimulus/audwhere_stim/right_away_300h.wav,stimulus/viswhere_stim/match_blank.png,stimulus/audwhere_stim/match_box.png,stimulus/viswhere_stim/match_yes.png,stimulus/viswhere_stim/match_no.png,2.0,Match,Direction,Side,2,5.125,0,5.125,0,5.125,0,5.125,0,0.75,0.75,0,0.0,0,0.0,0,0.0,0,0.0,1,0.5,1,2.125,1,0.5,1,2.125,0,,,,,0,62,62,62,,,,,,,,,549.8182992090005,554.9406003750046,549.8182992090005,549.8182992090005,549.8182992090005,549.8182992090005,550.2652773750015,551.2522554169991,550.2794201256513,,551.9000896670041,552.8881027919706,551.903474166644,,554.9406003750046,555.7932870839722,557.8741865839693,561.7863636669936,555.7932870839722,555.7932870839722,560.9710922499653,555.7932870839722,555.7932870839722,555.7932870839722,555.7932870839722,556.208349374996,557.2716090420145,556.1787487916338,,557.8741865839693,558.930424124992,557.8442239586768,558.8841507500038,555.7932870839722,560.9710922499653,555.7932870839722,560.9710922499653,560.9710922499653,,555.7932870839722,1,0,2.0063135409727693,reldom2_s038,001,2025-03-06_13h58.52.736,Where-A-Scan_AC,2022.2.5,None,
48,Second_Order,8.0,audwhere,stimulus/audwhere_stim/left_away_280h.wav,stimulus/audwhere_stim/right_away_290h.wav,stimulus/audwhere_stim/left_toward_280h.wav,stimulus/audwhere_stim/right_toward_300h.wav,stimulus/viswhere_stim/match_blank.png,stimulus/audwhere_stim/match_box.png,stimulus/viswhere_stim/match_yes.png,stimulus/viswhere_stim/match_no.png,1.0,Match,Direction,Direction,1,5.125,0,5.125,0,5.125,0,5.125,0,0.625,0.625,0,0.0,0,0.0,0,0.0,0,0.0,1,0.5,1,2.125,1,0.5,1,2.125,0,,,,,0,63,63,63,,,,,,,,,561.7863636669936,566.906007417012,561.7863636669936,561.7863636669936,561.7863636669936,561.7863636669936,562.2443837089813,563.2436170419678,562.2573632916358,,563.8653972920147,564.8637244590209,563.8778494586625,,566.906007417012,567.6372613339918,569.7109552089823,,567.6372613339918,567.6372613339918,572.8115067500039,567.6372613339918,567.6372613339918,567.6372613339918,567.6372613339918,568.0516722499742,569.112435417017,568.0224220006533,,569.7109552089823,570.7814169169869,569.6809182086765,,567.6372613339918,572.8115067500039,567.6372613339918,572.8115067500039,572.8115067500039,573.4610121250153,567.6372613339918,1,1,0.8871787079842761,reldom2_s038,001,2025-03-06_13h58.52.736,Where-A-Scan_AC,2022.2.5,None,
0,0.0,None,fixation,stimulus/viswhere_stim/blank_white.png,stimulus/viswhere_stim/blank_white.png,stimulus/audwhere_stim/blank_white.png,stimulus/audwhere_stim/blank_white.png,stimulus/viswhere_stim/blank_white.png,stimulus/viswhere_stim/blank_white.png,stimulus/viswhere_stim/blank_white.png,stimulus/viswhere_stim/blank_white.png,0.0,0.0,0.0,0.0,0,0.0,0,0.0,0,0.0,0,0.0,0,0.0,0.0,0,0.0,0,0.0,0,0.0,0,0.0,0,0.0,0,0.0,0,0.0,0,0.0,16,,,,,0,64,64,64,,,,,,,,,573.7365666250116,573.7365666250116,573.7365666250116,573.7365666250116,573.7365666250116,573.7365666250116,573.7365666250116,573.7365666250116,573.6349970833127,573.7365666250116,573.7365666250116,573.7365666250116,573.6349970833127,573.7365666250116,573.7365666250116,573.7365666250116,573.7365666250116,573.7365666250116,573.7365666250116,573.7365666250116,573.7365666250116,573.7365666250116,573.7365666250116,573.7365666250116,573.7365666250116,573.7365666250116,573.7365666250116,573.6849970833126,573.7365666250116,573.7365666250116,573.7365666250116,573.6849970833126,573.7365666250116,573.7365666250116,573.7365666250116,573.7365666250116,573.7365666250116,578.9641462499858,578.9641462499858,589.8965279589756,None,0,,reldom2_s038,001,2025-03-06_13h58.52.736,Where-A-Scan_AC,2022.2.5,None,
