Trial,Order,Block,Type,Stimuli_File1,Stimuli_File2,Stimuli_File3,Stimuli_File4,Cue_File1,Cue_File2,Response_File_Yes,Response_File_No,Match,Cue_Dimension,Pair1_Dimension,Pair2_Dimension,Key,Cue1_Duration,Cue1_Onset,Cue2_Duration,Cue2_Onset,ResponseYes_Duration,ResponseYes_Onset,ResponseNo_Duration,ResponseNo_Onset,ITI_Within,ITI_Between,Image1_Duration,Image1_Onset,Image2_Duration,Image2_Onset,Image3_Duration,Image3_Onset,Image4_Duration,Image4_Onset,Sound1_Duration,Sound1_Onset,Sound2_Duration,Sound2_Onset,Sound3_Duration,Sound3_Onset,Sound4_Duration,Sound4_Onset,Fixation_Duration,trials_2.thisRepN,trials_2.thisTrialN,trials_2.thisN,trials_2.thisIndex,trials.thisRepN,trials.thisTrialN,trials.thisN,trials.thisIndex,text_start.started,key_resp_start.started,key_resp_start.keys,key_resp_start.rt,cue_file1.started,cue_file1.stopped,image_1.started,image_1.stopped,image_2.started,image_2.stopped,sound_icon1.started,sound_icon1.stopped,sound_1.started,sound_1.stopped,sound_icon2.started,sound_icon2.stopped,sound_2.started,sound_2.stopped,image_blank_1.started,image_blank_1.stopped,key_press.started,key_press.stopped,fixation_text.started,cue_file2.started,cue_file2.stopped,image_3.started,image_3.stopped,image_4.started,image_4.stopped,sound_icon3.started,sound_icon3.stopped,sound_3.started,sound_3.stopped,sound_icon4.started,sound_icon4.stopped,sound_4.started,sound_4.stopped,response_yes.started,response_yes.stopped,response_no.started,response_no.stopped,iti_blank.started,iti_blank.stopped,fixation_text.stopped,key_press.keys,key_press.corr,key_press.rt,text_score.started,participant,session,date,expName,psychopyVersion,frameRate,
,,,,,,,,,,,,,,,,,,,,,,,,,,,,,,,,,,,,,,,,,,,,,,,,,,,,89.35749912500614,89.35749912500614,2,2.4030779160093516,,,,,,,,,,,,,,,,,,,,,,,,,,,,,,,,,,,,,,,,,,,,,reldom2_s038,001,2025-03-06_12h52.21.202,practice_test1_AC,2022.2.5,None,
,,,,,,,,,,,,,,,,,,,,,,,,,,,,,,,,,,,,,,,,,,,,0,0,0,0,,,,,,,,,,,,,,,,,,,,,,,,,,,,,,,,,,,,,,,,,,,,,,,,,,,,,reldom2_s038,001,2025-03-06_12h52.21.202,practice_test1_AC,2022.2.5,None,
,,,,,,,,,,,,,,,,,,,,,,,,,,,,,,,,,,,,,,,,,,,,1,0,1,0,,,,,,,,,,,,,,,,,,,,,,,,,,,,,,,,,,,,,,,,,,,,,,,,,,,,,reldom2_s038,001,2025-03-06_12h52.21.202,practice_test1_AC,2022.2.5,None,
,,,,,,,,,,,,,,,,,,,,,,,,,,,,,,,,,,,,,,,,,,,,2,0,2,0,,,,,,,,,,,,,,,,,,,,,,,,,,,,,,,,,,,,,,,,,,,,,,,,,,,,,reldom2_s038,001,2025-03-06_12h52.21.202,practice_test1_AC,2022.2.5,None,
,,,,,,,,,,,,,,,,,,,,,,,,,,,,,,,,,,,,,,,,,,,,3,0,3,0,,,,,,,,,,,,,,,,,,,,,,,,,,,,,,,,,,,,,,,,,,,,,,,,,,,,,reldom2_s038,001,2025-03-06_12h52.21.202,practice_test1_AC,2022.2.5,None,
0,0.0,None,fixation,stimulus/viswhere_stim/blank_white.png,stimulus/viswhere_stim/blank_white.png,stimulus/audwhere_stim/blank_white.png,stimulus/audwhere_stim/blank_white.png,stimulus/viswhere_stim/blank_white.png,stimulus/viswhere_stim/blank_white.png,stimulus/viswhere_stim/blank_white.png,stimulus/viswhere_stim/blank_white.png,0.0,0.0,0.0,0.0,0,0.0,0,0.0,0,0.0,0,0.0,0,0.0,0.0,0,0.0,0,0.0,0,0.0,0,0.0,0,0.0,0,0.0,0,0.0,0,0.0,6,,,,,0,0,0,0,,,,,92.01807087502675,92.01807087502675,92.01807087502675,92.01807087502675,92.01807087502675,92.01807087502675,92.01807087502675,92.01807087502675,91.91057966600638,92.01807087502675,92.01807087502675,92.01807087502675,91.91057966600638,92.01807087502675,92.01807087502675,92.01807087502675,92.01807087502675,92.01807087502675,92.01807087502675,92.01807087502675,92.01807087502675,92.01807087502675,92.01807087502675,92.01807087502675,92.01807087502675,92.01807087502675,92.01807087502675,91.96057966600638,92.01807087502675,92.01807087502675,92.01807087502675,91.96057966600638,92.01807087502675,92.01807087502675,92.01807087502675,92.01807087502675,92.01807087502675,97.20340162503999,97.20340162503999,98.17879262502538,None,0,,,reldom2_s038,001,2025-03-06_12h52.21.202,practice_test1_AC,2022.2.5,None,
1,First_Order,1.0,viswhere,stimulus/viswhere_stim/blank_white.png,stimulus/viswhere_stim/blank_white.png,stimulus/viswhere_stim/90-deg_dot-right_peru.png,stimulus/viswhere_stim/120-deg_dot-right_slateblue.png,stimulus/viswhere_stim/blank_white.png,stimulus/viswhere_stim/dot_box.png,stimulus/viswhere_stim/dot_yes.png,stimulus/viswhere_stim/dot_no.png,None,Dot,None,Dot,1,0.0,0,5.25,0,5.25,0,5.25,0,0.0,0.75,0,0.0,0,0.0,1,0.5,1,2.125,0,0.0,0,0.0,0,0.0,0,0.0,0,,,,,0,1,1,1,,,,,98.17879262502538,98.17879262502538,98.17879262502538,98.17879262502538,98.17879262502538,98.17879262502538,98.17879262502538,98.17879262502538,98.15326641602442,98.17879262502538,98.17879262502538,98.17879262502538,98.15326641602442,98.17879262502538,98.17879262502538,98.17879262502538,100.28727837500628,104.15540375001729,98.17879262502538,98.17879262502538,103.42873695801245,98.66720220801653,99.69289208302507,100.28727837500628,101.30836112500401,98.17879262502538,98.17879262502538,98.16993308269109,98.17879262502538,98.17879262502538,98.17879262502538,98.16993308269109,98.17879262502538,98.17879262502538,103.42873695801245,98.17879262502538,103.42873695801245,103.41276158299297,104.25964870798634,98.17879262502538,1,1,2.264627207943704,,reldom2_s038,001,2025-03-06_12h52.21.202,practice_test1_AC,2022.2.5,None,
2,First_Order,1.0,viswhere,stimulus/viswhere_stim/blank_white.png,stimulus/viswhere_stim/blank_white.png,stimulus/viswhere_stim/30-deg_dot-right_turquoise.png,stimulus/viswhere_stim/60-deg_dot-right_seagreen.png,stimulus/viswhere_stim/blank_white.png,stimulus/viswhere_stim/line_box.png,stimulus/viswhere_stim/line_yes.png,stimulus/viswhere_stim/line_no.png,None,Line,None,Dot,2,0.0,0,5.25,0,5.25,0,5.25,0,0.0,0.75,0,0.0,0,0.0,1,0.5,1,2.125,0,0.0,0,0.0,0,0.0,0,0.0,0,,,,,0,2,2,2,,,,,104.25964870798634,104.25964870798634,104.25964870798634,104.25964870798634,104.25964870798634,104.25964870798634,104.25964870798634,104.25964870798634,104.23873708335061,104.25964870798634,104.25964870798634,104.25964870798634,104.23873708335061,104.25964870798634,104.25964870798634,104.25964870798634,106.36484024999663,110.23363908298779,104.25964870798634,104.25964870798634,109.51731462503085,104.74568537500454,105.76937325001927,106.36484024999663,107.37100520799868,104.25964870798634,104.25964870798634,104.23873708335061,104.25964870798634,104.25964870798634,104.25964870798634,104.23873708335061,104.25964870798634,104.25964870798634,109.51731462503085,104.25964870798634,109.51731462503085,109.50124508299632,110.33780583302723,104.25964870798634,2,1,0.8806089159916155,,reldom2_s038,001,2025-03-06_12h52.21.202,practice_test1_AC,2022.2.5,None,
3,First_Order,1.0,viswhere,stimulus/viswhere_stim/blank_white.png,stimulus/viswhere_stim/blank_white.png,stimulus/viswhere_stim/120-deg_dot-left_goldenrod.png,stimulus/viswhere_stim/90-deg_dot-left_seagreen.png,stimulus/viswhere_stim/blank_white.png,stimulus/viswhere_stim/line_box.png,stimulus/viswhere_stim/line_yes.png,stimulus/viswhere_stim/line_no.png,None,Line,None,Dot,2,0.0,0,5.25,0,5.25,0,5.25,0,0.0,0.75,0,0.0,0,0.0,1,0.5,1,2.125,0,0.0,0,0.0,0,0.0,0,0.0,0,,,,,0,3,3,3,,,,,110.33780583302723,110.33780583302723,110.33780583302723,110.33780583302723,110.33780583302723,110.33780583302723,110.33780583302723,110.33780583302723,110.31697241632112,110.33780583302723,110.33780583302723,110.33780583302723,110.31697241632112,110.33780583302723,110.33780583302723,110.33780583302723,112.43765183299547,116.30431037500966,110.33780583302723,110.33780583302723,115.58978316601133,110.82744604098843,111.85449699999299,112.43765183299547,113.45004341599997,110.33780583302723,110.33780583302723,110.31697241632112,110.33780583302723,110.33780583302723,110.33780583302723,110.31697241632112,110.33780583302723,110.33780583302723,115.58978316601133,110.33780583302723,115.58978316601133,115.57313187501859,116.42470504099037,110.33780583302723,2,1,0.7727303329738788,,reldom2_s038,001,2025-03-06_12h52.21.202,practice_test1_AC,2022.2.5,None,
4,First_Order,1.0,viswhere,stimulus/viswhere_stim/blank_white.png,stimulus/viswhere_stim/blank_white.png,stimulus/viswhere_stim/150-deg_dot-right_royalblue.png,stimulus/viswhere_stim/150-deg_dot-left_slateblue.png,stimulus/viswhere_stim/blank_white.png,stimulus/viswhere_stim/dot_box.png,stimulus/viswhere_stim/dot_yes.png,stimulus/viswhere_stim/dot_no.png,None,Dot,None,Line,2,0.0,0,5.25,0,5.25,0,5.25,0,0.0,0.75,0,0.0,0,0.0,1,0.5,1,2.125,0,0.0,0,0.0,0,0.0,0,0.0,0,,,,,0,4,4,4,,,,,116.42470504099037,116.42470504099037,116.42470504099037,116.42470504099037,116.42470504099037,116.42470504099037,116.42470504099037,116.42470504099037,116.4035618743704,116.42470504099037,116.42470504099037,116.42470504099037,116.4035618743704,116.42470504099037,116.42470504099037,116.42470504099037,118.52772804099368,122.4051936659962,116.42470504099037,116.42470504099037,121.67678679100936,116.89743216603529,117.91981554101221,118.52772804099368,119.55289037502371,116.42470504099037,116.42470504099037,116.4035618743704,116.42470504099037,116.42470504099037,116.42470504099037,116.4035618743704,116.42470504099037,116.42470504099037,121.67678679100936,116.42470504099037,121.67678679100936,121.66006137500517,122.58262083301088,116.42470504099037,1,0,0.6059384989202954,,reldom2_s038,001,2025-03-06_12h52.21.202,practice_test1_AC,2022.2.5,None,
0,0.0,None,fixation,stimulus/viswhere_stim/blank_white.png,stimulus/viswhere_stim/blank_white.png,stimulus/audwhere_stim/blank_white.png,stimulus/audwhere_stim/blank_white.png,stimulus/viswhere_stim/blank_white.png,stimulus/viswhere_stim/blank_white.png,stimulus/viswhere_stim/blank_white.png,stimulus/viswhere_stim/blank_white.png,0.0,0.0,0.0,0.0,0,0.0,0,0.0,0,0.0,0,0.0,0,0.0,0.0,0,0.0,0,0.0,0,0.0,0,0.0,0,0.0,0,0.0,0,0.0,0,0.0,5,,,,,0,5,5,5,,,,,122.58262083301088,122.58262083301088,122.58262083301088,122.58262083301088,122.58262083301088,122.58262083301088,122.58262083301088,122.58262083301088,122.48852699932952,122.58262083301088,122.58262083301088,122.58262083301088,122.48852699932952,122.58262083301088,122.58262083301088,122.58262083301088,122.58262083301088,122.58262083301088,122.58262083301088,122.58262083301088,122.58262083301088,122.58262083301088,122.58262083301088,122.58262083301088,122.58262083301088,122.58262083301088,122.58262083301088,122.53852699932952,122.58262083301088,122.58262083301088,122.58262083301088,122.53852699932952,122.58262083301088,122.58262083301088,122.58262083301088,122.58262083301088,122.58262083301088,127.8319742080057,127.8319742080057,127.66082937503234,None,0,,,reldom2_s038,001,2025-03-06_12h52.21.202,practice_test1_AC,2022.2.5,None,
5,Second_Order,1.0,viswhere,stimulus/viswhere_stim/150-deg_dot-right_slateblue.png,stimulus/viswhere_stim/150-deg_dot-left_turquoise.png,stimulus/viswhere_stim/90-deg_dot-left_mediumslateblue.png,stimulus/viswhere_stim/90-deg_dot-right_peru.png,stimulus/viswhere_stim/match_blank.png,stimulus/viswhere_stim/match_box.png,stimulus/viswhere_stim/match_yes.png,stimulus/viswhere_stim/match_no.png,1.0,Match,Line,Line,1,5.25,0,5.25,0,5.25,0,5.25,0,0.75,0.75,1,0.5,1,2.125,1,0.5,1,2.125,0,0.0,0,0.0,0,0.0,0,0.0,0,,,,,0,6,6,6,,,,,127.8319742080057,133.07172175002052,128.30588508298388,129.30204958299873,129.93528850004077,130.93480554100825,127.8319742080057,127.8319742080057,127.8306149996623,127.8319742080057,127.8319742080057,127.8319742080057,127.8306149996623,127.8319742080057,133.07172175002052,133.8767853330355,135.9403354160022,139.81535945803626,133.8767853330355,133.8767853330355,139.13449299999047,134.31826229102444,135.3276017080061,135.9403354160022,136.94774537498597,133.8767853330355,133.8767853330355,133.8578926249873,133.8767853330355,133.8767853330355,133.8767853330355,133.8578926249873,133.8767853330355,133.8767853330355,139.13449299999047,133.8767853330355,139.13449299999047,139.07267916598357,139.85670391604071,133.8767853330355,1,1,0.8282996239722706,,reldom2_s038,001,2025-03-06_12h52.21.202,practice_test1_AC,2022.2.5,None,
6,Second_Order,1.0,viswhere,stimulus/viswhere_stim/150-deg_dot-right_mediumslateblue.png,stimulus/viswhere_stim/30-deg_dot-right_salmon.png,stimulus/viswhere_stim/120-deg_dot-right_royalblue.png,stimulus/viswhere_stim/120-deg_dot-left_salmon.png,stimulus/viswhere_stim/match_blank.png,stimulus/viswhere_stim/match_box.png,stimulus/viswhere_stim/match_yes.png,stimulus/viswhere_stim/match_no.png,2.0,Match,Dot,Line,2,5.25,0,5.25,0,5.25,0,5.25,0,0.75,0.75,1,0.5,1,2.125,1,0.5,1,2.125,0,0.0,0,0.0,0,0.0,0,0.0,0,,,,,0,7,7,7,,,,,139.85670391604071,145.10097733302973,140.33564687502803,141.32737633300712,141.9643499579979,142.9644462080323,139.85670391604071,139.85670391604071,139.86535945803627,139.85670391604071,139.85670391604071,139.85670391604071,139.86535945803627,139.85670391604071,145.10097733302973,145.89916333300062,147.97507595800562,151.84162850002758,145.89916333300062,145.89916333300062,151.1660461249994,146.36533641599817,147.38951775000896,147.97507595800562,148.98307399998885,145.89916333300062,145.89916333300062,145.8701125413723,145.89916333300062,145.89916333300062,145.89916333300062,145.8701125413723,145.89916333300062,145.89916333300062,151.1660461249994,145.89916333300062,151.1660461249994,151.10416749998694,152.02207658300176,145.89916333300062,2,1,0.9102799579850398,,reldom2_s038,001,2025-03-06_12h52.21.202,practice_test1_AC,2022.2.5,None,
0,0.0,None,fixation,stimulus/viswhere_stim/blank_white.png,stimulus/viswhere_stim/blank_white.png,stimulus/audwhere_stim/blank_white.png,stimulus/audwhere_stim/blank_white.png,stimulus/viswhere_stim/blank_white.png,stimulus/viswhere_stim/blank_white.png,stimulus/viswhere_stim/blank_white.png,stimulus/viswhere_stim/blank_white.png,0.0,0.0,0.0,0.0,0,0.0,0,0.0,0,0.0,0,0.0,0,0.0,0.0,0,0.0,0,0.0,0,0.0,0,0.0,0,0.0,0,0.0,0,0.0,0,0.0,7,,,,,0,8,8,8,,,,,152.02207658300176,152.02207658300176,152.02207658300176,152.02207658300176,152.02207658300176,152.02207658300176,152.02207658300176,152.02207658300176,151.92496183336092,152.02207658300176,152.02207658300176,152.02207658300176,151.92496183336092,152.02207658300176,152.02207658300176,152.02207658300176,152.02207658300176,152.02207658300176,152.02207658300176,152.02207658300176,152.02207658300176,152.02207658300176,152.02207658300176,152.02207658300176,152.02207658300176,152.02207658300176,152.02207658300176,151.97496183336094,152.02207658300176,152.02207658300176,152.02207658300176,151.97496183336094,152.02207658300176,152.02207658300176,152.02207658300176,152.02207658300176,152.02207658300176,157.2096908329986,157.2096908329986,159.25110462500015,None,0,,,reldom2_s038,001,2025-03-06_12h52.21.202,practice_test1_AC,2022.2.5,None,
7,First_Order,2.0,audwhere,stimulus/audwhere_stim/dummy.wav,stimulus/audwhere_stim/dummy.wav,stimulus/audwhere_stim/left_toward_270h.wav,stimulus/audwhere_stim/right_toward_270h.wav,stimulus/audwhere_stim/blank_white.png,stimulus/audwhere_stim/direction_box.png,stimulus/audwhere_stim/direction_yes.png,stimulus/audwhere_stim/direction_no.png,None,Direction,None,Direction,1,0.0,0,5.25,0,5.25,0,5.25,0,0.0,0.75,0,0.0,0,0.0,0,0.0,0,0.0,0,0.0,0,0.0,1,0.5,1,2.125,0,,,,,0,9,9,9,,,,,159.25110462500015,159.25110462500015,159.25110462500015,159.25110462500015,159.25110462500015,159.25110462500015,159.25110462500015,159.25110462500015,159.1767332076949,159.25110462500015,159.25110462500015,159.25110462500015,159.1767332076949,159.25110462500015,159.25110462500015,159.25110462500015,161.3248543330119,165.18734708300326,159.25110462500015,159.25110462500015,164.5417215829948,159.25110462500015,159.25110462500015,159.25110462500015,159.25110462500015,159.69724437501281,160.73443279101048,159.6639062076613,,161.3248543330119,162.365707916033,161.29061558266793,,159.25110462500015,164.5417215829948,159.25110462500015,164.5417215829948,164.44893904100172,165.4002193750348,159.25110462500015,1,1,1.9041487079230137,,reldom2_s038,001,2025-03-06_12h52.21.202,practice_test1_AC,2022.2.5,None,
8,First_Order,2.0,audwhere,stimulus/audwhere_stim/dummy.wav,stimulus/audwhere_stim/dummy.wav,stimulus/audwhere_stim/right_away_280h.wav,stimulus/audwhere_stim/right_toward_290h.wav,stimulus/audwhere_stim/blank_white.png,stimulus/audwhere_stim/side_box.png,stimulus/audwhere_stim/side_yes.png,stimulus/audwhere_stim/side_no.png,None,Side,None,Side,1,0.0,0,5.25,0,5.25,0,5.25,0,0.0,0.75,0,0.0,0,0.0,0,0.0,0,0.0,0,0.0,0,0.0,1,0.5,1,2.125,0,,,,,0,10,10,10,,,,,165.4002193750348,165.4002193750348,165.4002193750348,165.4002193750348,165.4002193750348,165.4002193750348,165.4002193750348,165.4002193750348,165.32068041633661,165.4002193750348,165.4002193750348,165.4002193750348,165.32068041633661,165.4002193750348,165.4002193750348,165.4002193750348,167.4703166250256,171.3767318330356,165.4002193750348,165.4002193750348,170.68590158299776,165.4002193750348,165.4002193750348,165.4002193750348,165.4002193750348,165.84753591602203,166.88025904103415,165.81452770770218,,167.4703166250256,168.50554912502412,167.43749929167487,,165.4002193750348,170.68590158299776,165.4002193750348,170.68590158299776,170.64278804103378,171.5921531250351,165.4002193750348,1,1,1.4048763739992864,,reldom2_s038,001,2025-03-06_12h52.21.202,practice_test1_AC,2022.2.5,None,
9,First_Order,2.0,audwhere,stimulus/audwhere_stim/dummy.wav,stimulus/audwhere_stim/dummy.wav,stimulus/audwhere_stim/right_away_270h.wav,stimulus/audwhere_stim/right_toward_300h.wav,stimulus/audwhere_stim/blank_white.png,stimulus/audwhere_stim/side_box.png,stimulus/audwhere_stim/side_yes.png,stimulus/audwhere_stim/side_no.png,None,Side,None,Side,1,0.0,0,5.25,0,5.25,0,5.25,0,0.0,0.75,0,0.0,0,0.0,0,0.0,0,0.0,0,0.0,0,0.0,1,0.5,1,2.125,0,,,,,0,11,11,11,,,,,171.5921531250351,171.5921531250351,171.5921531250351,171.5921531250351,171.5921531250351,171.5921531250351,171.5921531250351,171.5921531250351,171.51006516636895,171.5921531250351,171.5921531250351,171.5921531250351,171.51006516636895,171.5921531250351,171.5921531250351,171.5921531250351,173.66877554100938,177.53103300003568,171.5921531250351,171.5921531250351,176.88447512499988,171.5921531250351,171.5921531250351,171.5921531250351,171.5921531250351,172.0400698329904,173.07600050000474,172.0069209166725,,173.66877554100938,174.7069144580164,173.6361551246994,,171.5921531250351,176.88447512499988,171.5921531250351,176.88447512499988,176.7913048749906,177.7444397500367,171.5921531250351,1,1,1.272524748928845,,reldom2_s038,001,2025-03-06_12h52.21.202,practice_test1_AC,2022.2.5,None,
10,First_Order,2.0,audwhere,stimulus/audwhere_stim/dummy.wav,stimulus/audwhere_stim/dummy.wav,stimulus/audwhere_stim/right_toward_300h.wav,stimulus/audwhere_stim/right_away_290h.wav,stimulus/audwhere_stim/blank_white.png,stimulus/audwhere_stim/direction_box.png,stimulus/audwhere_stim/direction_yes.png,stimulus/audwhere_stim/direction_no.png,None,Direction,None,Side,2,0.0,0,5.25,0,5.25,0,5.25,0,0.0,0.75,0,0.0,0,0.0,0,0.0,0,0.0,0,0.0,0,0.0,1,0.5,1,2.125,0,,,,,0,12,12,12,,,,,177.7444397500367,177.7444397500367,177.7444397500367,177.7444397500367,177.7444397500367,177.7444397500367,177.7444397500367,177.7444397500367,177.66436633336903,177.7444397500367,177.7444397500367,177.7444397500367,177.66436633336903,177.7444397500367,177.7444397500367,177.7444397500367,179.8392195830238,183.68727637501433,177.7444397500367,177.7444397500367,183.03471354098292,177.7444397500367,177.7444397500367,177.7444397500367,177.7444397500367,178.1925818750169,179.23940816603135,178.15963624965323,,179.8392195830238,180.89094079099596,179.80555212468997,,177.7444397500367,183.03471354098292,177.7444397500367,183.03471354098292,182.94114104099572,183.92310154100414,177.7444397500367,2,1,1.7316766669391654,,reldom2_s038,001,2025-03-06_12h52.21.202,practice_test1_AC,2022.2.5,None,
0,0.0,None,fixation,stimulus/viswhere_stim/blank_white.png,stimulus/viswhere_stim/blank_white.png,stimulus/audwhere_stim/blank_white.png,stimulus/audwhere_stim/blank_white.png,stimulus/viswhere_stim/blank_white.png,stimulus/viswhere_stim/blank_white.png,stimulus/viswhere_stim/blank_white.png,stimulus/viswhere_stim/blank_white.png,0.0,0.0,0.0,0.0,0,0.0,0,0.0,0,0.0,0,0.0,0,0.0,0.0,0,0.0,0,0.0,0,0.0,0,0.0,0,0.0,0,0.0,0,0.0,0,0.0,5,,,,,0,13,13,13,,,,,183.92310154100414,183.92310154100414,183.92310154100414,183.92310154100414,183.92310154100414,183.92310154100414,183.92310154100414,183.92310154100414,183.8206097083477,183.92310154100414,183.92310154100414,183.92310154100414,183.8206097083477,183.92310154100414,183.92310154100414,183.92310154100414,183.92310154100414,183.92310154100414,183.92310154100414,183.92310154100414,183.92310154100414,183.92310154100414,183.92310154100414,183.92310154100414,183.92310154100414,183.92310154100414,183.92310154100414,183.87060970834767,183.92310154100414,183.92310154100414,183.92310154100414,183.87060970834767,183.92310154100414,183.92310154100414,183.92310154100414,183.92310154100414,183.92310154100414,189.22922058298718,189.22922058298718,188.97029704099987,None,0,,,reldom2_s038,001,2025-03-06_12h52.21.202,practice_test1_AC,2022.2.5,None,
11,Second_Order,2.0,audwhere,stimulus/audwhere_stim/right_toward_270h.wav,stimulus/audwhere_stim/left_toward_290h.wav,stimulus/audwhere_stim/left_away_270h.wav,stimulus/audwhere_stim/left_toward_290h.wav,stimulus/viswhere_stim/match_blank.png,stimulus/viswhere_stim/match_box.png,stimulus/viswhere_stim/match_yes.png,stimulus/viswhere_stim/match_no.png,2.0,Match,Direction,Side,2,5.25,0,5.25,0,5.25,0,5.25,0,0.75,0.75,0,0.0,0,0.0,0,0.0,0,0.0,1,0.5,1,2.125,1,0.5,1,2.125,0,,,,,0,14,14,14,,,,,189.22922058298718,194.47222254099324,189.22922058298718,189.22922058298718,189.22922058298718,189.22922058298718,189.67918000003556,190.67163941601757,189.68780708266812,,191.30596958298702,192.29686066601425,191.31453708268626,,194.47222254099324,195.33491237502312,197.3656090410077,201.25089554098668,195.33491237502312,195.33491237502312,200.64279520802666,195.33491237502312,195.33491237502312,195.33491237502312,195.33491237502312,195.78586512501352,196.82241808302933,195.75286241667735,,197.3656090410077,198.41398408298846,197.33205787465366,,195.33491237502312,200.64279520802666,195.33491237502312,200.64279520802666,200.50226908299373,201.3733847910189,195.33491237502312,None,0,,,reldom2_s038,001,2025-03-06_12h52.21.202,practice_test1_AC,2022.2.5,None,
12,Second_Order,2.0,audwhere,stimulus/audwhere_stim/left_toward_270h.wav,stimulus/audwhere_stim/right_toward_300h.wav,stimulus/audwhere_stim/right_toward_300h.wav,stimulus/audwhere_stim/right_away_270h.wav,stimulus/viswhere_stim/match_blank.png,stimulus/viswhere_stim/match_box.png,stimulus/viswhere_stim/match_yes.png,stimulus/viswhere_stim/match_no.png,2.0,Match,Direction,Side,2,5.25,0,5.25,0,5.25,0,5.25,0,0.75,0.75,0,0.0,0,0.0,0,0.0,0,0.0,1,0.5,1,2.125,1,0.5,1,2.125,0,,,,,0,15,15,15,,,,,201.3733847910189,206.61842733301455,201.3733847910189,201.3733847910189,201.3733847910189,201.3733847910189,201.82689995801775,202.82723508303752,201.83484945766784,,203.45071687502787,204.45184458303265,203.4591820417011,,206.61842733301455,207.47789054102032,209.55650608299766,213.3897708330187,207.47789054102032,207.47789054102032,212.7836553750094,207.47789054102032,207.47789054102032,207.47789054102032,207.47789054102032,207.92853762500454,208.9641569579835,207.89648274967138,,209.55650608299766,210.59912362502655,209.52368391666485,,207.47789054102032,212.7836553750094,207.47789054102032,212.7836553750094,212.6414226660272,213.6225365829887,207.47789054102032,2,1,1.5669182909769006,,reldom2_s038,001,2025-03-06_12h52.21.202,practice_test1_AC,2022.2.5,None,
0,0.0,None,fixation,stimulus/viswhere_stim/blank_white.png,stimulus/viswhere_stim/blank_white.png,stimulus/audwhere_stim/blank_white.png,stimulus/audwhere_stim/blank_white.png,stimulus/viswhere_stim/blank_white.png,stimulus/viswhere_stim/blank_white.png,stimulus/viswhere_stim/blank_white.png,stimulus/viswhere_stim/blank_white.png,0.0,0.0,0.0,0.0,0,0.0,0,0.0,0,0.0,0,0.0,0,0.0,0.0,0,0.0,0,0.0,0,0.0,0,0.0,0,0.0,0,0.0,0,0.0,0,0.0,5,,,,,0,16,16,16,,,,,213.6225365829887,213.6225365829887,213.6225365829887,213.6225365829887,213.6225365829887,213.6225365829887,213.6225365829887,213.6225365829887,213.52310416635206,213.6225365829887,213.6225365829887,213.6225365829887,213.52310416635206,213.6225365829887,213.6225365829887,213.6225365829887,213.6225365829887,213.6225365829887,213.6225365829887,213.6225365829887,213.6225365829887,213.6225365829887,213.6225365829887,213.6225365829887,213.6225365829887,213.6225365829887,213.6225365829887,213.57310416635204,213.6225365829887,213.6225365829887,213.6225365829887,213.57310416635204,213.6225365829887,213.6225365829887,213.6225365829887,213.6225365829887,213.6225365829887,218.98495025001466,218.98495025001466,218.6716674999916,None,0,,,reldom2_s038,001,2025-03-06_12h52.21.202,practice_test1_AC,2022.2.5,None,
13,First_Order,3.0,viswhat,stimulus/viswhat_stim/blank_white.png,stimulus/viswhat_stim/blank_white.png,stimulus/viswhat_stim/land_animal-ostrich.png,stimulus/viswhat_stim/land_vehicle-trolley.png,stimulus/viswhat_stim/blank_white.png,stimulus/viswhat_stim/location_box.png,stimulus/viswhat_stim/location_yes.png,stimulus/viswhat_stim/location_no.png,None,Location,None,Location,1,0.0,0,5.25,0,5.25,0,5.25,0,0.0,0.75,0,0.0,0,0.0,1,0.5,1,2.125,0,0.0,0,0.0,0,0.0,0,0.0,0,,,,,0,17,17,17,,,,,218.98495025001466,218.98495025001466,218.98495025001466,218.98495025001466,218.98495025001466,218.98495025001466,218.98495025001466,218.98495025001466,218.94862616665586,218.98495025001466,218.98495025001466,218.98495025001466,218.94862616665586,218.98495025001466,218.98495025001466,218.98495025001466,221.09309908299474,224.94555395800853,218.98495025001466,218.98495025001466,224.23945500003174,219.46963804098777,220.48088279098738,221.09309908299474,222.1056281250203,218.98495025001466,218.98495025001466,218.9652928333225,218.98495025001466,218.98495025001466,218.98495025001466,218.9652928333225,218.98495025001466,218.98495025001466,224.23945500003174,218.98495025001466,224.23945500003174,224.21796687500319,225.1879399580066,218.98495025001466,1,1,1.6208404990029521,,reldom2_s038,001,2025-03-06_12h52.21.202,practice_test1_AC,2022.2.5,None,
14,First_Order,3.0,viswhat,stimulus/viswhat_stim/blank_white.png,stimulus/viswhat_stim/blank_white.png,stimulus/viswhat_stim/water_vehicle-cruiser.png,stimulus/viswhat_stim/water_animal-stingray.png,stimulus/viswhat_stim/blank_white.png,stimulus/viswhat_stim/location_box.png,stimulus/viswhat_stim/location_yes.png,stimulus/viswhat_stim/location_no.png,None,Location,None,Location,1,0.0,0,5.25,0,5.25,0,5.25,0,0.0,0.75,0,0.0,0,0.0,1,0.5,1,2.125,0,0.0,0,0.0,0,0.0,0,0.0,0,,,,,0,18,18,18,,,,,225.1879399580066,225.1879399580066,225.1879399580066,225.1879399580066,225.1879399580066,225.1879399580066,225.1879399580066,225.1879399580066,225.0673675830127,225.1879399580066,225.1879399580066,225.1879399580066,225.0673675830127,225.1879399580066,225.1879399580066,225.1879399580066,227.24923983303597,231.14702020800905,225.1879399580066,225.1879399580066,230.52790254098363,225.60811391600873,226.7002153749927,227.24923983303597,228.3473535410012,225.1879399580066,225.1879399580066,225.11736758301268,225.1879399580066,225.1879399580066,225.1879399580066,225.11736758301268,225.1879399580066,225.1879399580066,230.52790254098363,225.1879399580066,230.52790254098363,230.3988866659929,231.37244150001789,225.1879399580066,1,1,0.9752264579292387,,reldom2_s038,001,2025-03-06_12h52.21.202,practice_test1_AC,2022.2.5,None,
15,First_Order,3.0,viswhat,stimulus/viswhat_stim/blank_white.png,stimulus/viswhat_stim/blank_white.png,stimulus/viswhat_stim/water_vehicle-cargoboat.png,stimulus/viswhat_stim/water_animal-squid.png,stimulus/viswhat_stim/blank_white.png,stimulus/viswhat_stim/type_box.png,stimulus/viswhat_stim/type_yes.png,stimulus/viswhat_stim/type_no.png,None,Type,None,Location,2,0.0,0,5.25,0,5.25,0,5.25,0,0.0,0.75,0,0.0,0,0.0,1,0.5,1,2.125,0,0.0,0,0.0,0,0.0,0,0.0,0,,,,,0,19,19,19,,,,,231.37244150001789,231.37244150001789,231.37244150001789,231.37244150001789,231.37244150001789,231.37244150001789,231.37244150001789,231.37244150001789,231.31368687467574,231.37244150001789,231.37244150001789,231.37244150001789,231.31368687467574,231.37244150001789,231.37244150001789,231.37244150001789,233.48180308303563,237.33839016599813,231.37244150001789,231.37244150001789,236.63555708300555,231.85466791602084,232.89515654102433,233.48180308303563,234.5287012910121,231.37244150001789,231.37244150001789,231.34702020800907,231.37244150001789,231.37244150001789,231.37244150001789,231.34702020800907,231.37244150001789,231.37244150001789,236.63555708300555,231.37244150001789,236.63555708300555,236.60762208298547,237.52699029102223,231.37244150001789,2,1,0.9693683329969645,,reldom2_s038,001,2025-03-06_12h52.21.202,practice_test1_AC,2022.2.5,None,
16,First_Order,3.0,viswhat,stimulus/viswhat_stim/blank_white.png,stimulus/viswhat_stim/blank_white.png,stimulus/viswhat_stim/water_vehicle-ferryboat.png,stimulus/viswhat_stim/water_animal-seaturtle.png,stimulus/viswhat_stim/blank_white.png,stimulus/viswhat_stim/type_box.png,stimulus/viswhat_stim/type_yes.png,stimulus/viswhat_stim/type_no.png,None,Type,None,Location,2,0.0,0,5.25,0,5.25,0,5.25,0,0.0,0.75,0,0.0,0,0.0,1,0.5,1,2.125,0,0.0,0,0.0,0,0.0,0,0.0,0,,,,,0,20,20,20,,,,,237.52699029102223,237.52699029102223,237.52699029102223,237.52699029102223,237.52699029102223,237.52699029102223,237.52699029102223,237.52699029102223,237.4662459580228,237.52699029102223,237.52699029102223,237.52699029102223,237.4662459580228,237.52699029102223,237.52699029102223,237.52699029102223,239.63153166603297,243.48250283300877,237.52699029102223,237.52699029102223,242.82654695800738,238.01579445798416,239.06976095802383,239.63153166603297,240.65363325004,237.52699029102223,237.52699029102223,237.49957929135613,237.52699029102223,237.52699029102223,237.52699029102223,237.49957929135613,237.52699029102223,237.52699029102223,242.82654695800738,237.52699029102223,242.82654695800738,242.75764183298452,243.72801829100354,237.52699029102223,2,1,0.8093352079740725,,reldom2_s038,001,2025-03-06_12h52.21.202,practice_test1_AC,2022.2.5,None,
0,0.0,None,fixation,stimulus/viswhat_stim/blank_white.png,stimulus/viswhat_stim/blank_white.png,stimulus/audwhat_stim/blank_white.png,stimulus/audwhat_stim/blank_white.png,stimulus/viswhat_stim/blank_white.png,stimulus/viswhat_stim/blank_white.png,stimulus/viswhere_stim/blank_white.png,stimulus/viswhere_stim/blank_white.png,0.0,0.0,0.0,0.0,0,0.0,0,0.0,0,0.0,0,0.0,0,0.0,0.0,0,0.0,0,0.0,0,0.0,0,0.0,0,0.0,0,0.0,0,0.0,0,0.0,5,,,,,0,21,21,21,,,,,243.72801829100354,243.72801829100354,243.72801829100354,243.72801829100354,243.72801829100354,243.72801829100354,243.72801829100354,243.72801829100354,243.6298552076604,243.72801829100354,243.72801829100354,243.72801829100354,243.6298552076604,243.72801829100354,243.72801829100354,243.72801829100354,243.72801829100354,243.72801829100354,243.72801829100354,243.72801829100354,243.72801829100354,243.72801829100354,243.72801829100354,243.72801829100354,243.72801829100354,243.72801829100354,243.72801829100354,243.6798552076604,243.72801829100354,243.72801829100354,243.72801829100354,243.6798552076604,243.72801829100354,243.72801829100354,243.72801829100354,243.72801829100354,243.72801829100354,249.0245120000327,249.0245120000327,248.77660620800452,None,0,,,reldom2_s038,001,2025-03-06_12h52.21.202,practice_test1_AC,2022.2.5,None,
17,Second_Order,3.0,viswhat,stimulus/viswhat_stim/land_vehicle-motorcycle.png,stimulus/viswhat_stim/land_animal-dog.png,stimulus/viswhat_stim/water_animal-seahorse.png,stimulus/viswhat_stim/water_vehicle-cargoboat.png,stimulus/viswhere_stim/match_blank.png,stimulus/viswhere_stim/match_box.png,stimulus/viswhere_stim/match_yes.png,stimulus/viswhere_stim/match_no.png,1.0,Match,Location,Location,1,5.25,0,5.25,0,5.25,0,5.25,0,0.75,0.75,1,0.5,1,2.125,1,0.5,1,2.125,0,0.0,0,0.0,0,0.0,0,0.0,0,,,,,0,22,22,22,,,,,249.0245120000327,254.2698725410155,249.48382137500448,250.47697250003694,251.1125487079844,252.10527691600146,249.0245120000327,249.0245120000327,249.02212449934646,249.0245120000327,249.0245120000327,249.0245120000327,249.02212449934646,249.0245120000327,254.2698725410155,255.09334933303762,257.1636915830313,261.02122841600794,255.09334933303762,255.09334933303762,260.3509879580233,255.530436208006,256.55128975003026,257.1636915830313,258.1865792910103,255.09334933303762,255.09334933303762,255.06426670799266,255.09334933303762,255.09334933303762,255.09334933303762,255.06426670799266,255.09334933303762,255.09334933303762,260.3509879580233,255.09334933303762,260.3509879580233,260.27677629102254,261.0805887079914,255.09334933303762,1,1,2.190471666981466,,reldom2_s038,001,2025-03-06_12h52.21.202,practice_test1_AC,2022.2.5,None,
18,Second_Order,3.0,viswhat,stimulus/viswhat_stim/water_animal-squid.png,stimulus/viswhat_stim/land_animal-snake.png,stimulus/viswhat_stim/land_animal-fox.png,stimulus/viswhat_stim/land_vehicle-oldcar.png,stimulus/viswhere_stim/match_blank.png,stimulus/viswhere_stim/match_box.png,stimulus/viswhere_stim/match_yes.png,stimulus/viswhere_stim/match_no.png,2.0,Match,Type,Location,2,5.25,0,5.25,0,5.25,0,5.25,0,0.75,0.75,1,0.5,1,2.125,1,0.5,1,2.125,0,0.0,0,0.0,0,0.0,0,0.0,0,,,,,0,23,23,23,,,,,261.0805887079914,266.3257344160229,261.55131833301857,262.54227987502236,263.1764767910354,264.17154629103607,261.0805887079914,261.0805887079914,261.0878950826746,261.0805887079914,261.0805887079914,261.0805887079914,261.0878950826746,261.0805887079914,266.3257344160229,267.1753779160208,269.2295857500285,273.09988200000953,267.1753779160208,267.1753779160208,272.46923629101366,267.58907045802334,268.6379270410398,269.2295857500285,270.2848929160391,267.1753779160208,267.1753779160208,267.1426502493171,267.1753779160208,267.1753779160208,267.1753779160208,267.1426502493171,267.1753779160208,267.1753779160208,272.46923629101366,267.1753779160208,272.46923629101366,272.3377037080354,273.33212379098404,267.1753779160208,2,1,0.666812082985416,,reldom2_s038,001,2025-03-06_12h52.21.202,practice_test1_AC,2022.2.5,None,
0,0.0,None,fixation,stimulus/viswhat_stim/blank_white.png,stimulus/viswhat_stim/blank_white.png,stimulus/audwhat_stim/blank_white.png,stimulus/audwhat_stim/blank_white.png,stimulus/viswhat_stim/blank_white.png,stimulus/viswhat_stim/blank_white.png,stimulus/viswhere_stim/blank_white.png,stimulus/viswhere_stim/blank_white.png,0.0,0.0,0.0,0.0,0,0.0,0,0.0,0,0.0,0,0.0,0,0.0,0.0,0,0.0,0,0.0,0,0.0,0,0.0,0,0.0,0,0.0,0,0.0,0,0.0,6,,,,,0,24,24,24,,,,,273.33212379098404,273.33212379098404,273.33212379098404,273.33212379098404,273.33212379098404,273.33212379098404,273.33212379098404,273.33212379098404,273.23321533334286,273.33212379098404,273.33212379098404,273.33212379098404,273.23321533334286,273.33212379098404,273.33212379098404,273.33212379098404,273.33212379098404,273.33212379098404,273.33212379098404,273.33212379098404,273.33212379098404,273.33212379098404,273.33212379098404,273.33212379098404,273.33212379098404,273.33212379098404,273.33212379098404,273.28321533334287,273.33212379098404,273.33212379098404,273.33212379098404,273.28321533334287,273.33212379098404,273.33212379098404,273.33212379098404,273.33212379098404,273.33212379098404,278.5515336249955,278.5515336249955,279.5829132500221,None,0,,,reldom2_s038,001,2025-03-06_12h52.21.202,practice_test1_AC,2022.2.5,None,
19,First_Order,4.0,audwhat,stimulus/audwhat_stim/dummy.wav,stimulus/audwhat_stim/dummy.wav,stimulus/audwhat_stim/percussion xylophone_high-pitch_D_loud.wav,stimulus/audwhat_stim/string viola_high-pitch_D_loud.wav,stimulus/audwhat_stim/blank_white.png,stimulus/audwhat_stim/pitch_box.png,stimulus/audwhat_stim/pitch_yes.png,stimulus/audwhat_stim/pitch_no.png,None,Pitch,None,Pitch,1,0.0,0,5.25,0,5.25,0,5.25,0,0.0,0.75,0,0.0,0,0.0,0,0.0,0,0.0,0,0.0,0,0.0,1,0.5,1,2.125,0,,,,,0,25,25,25,,,,,279.5829132500221,279.5829132500221,279.5829132500221,279.5829132500221,279.5829132500221,279.5829132500221,279.5829132500221,279.5829132500221,279.50423112468945,279.5829132500221,279.5829132500221,279.5829132500221,279.50423112468945,279.5829132500221,279.5829132500221,279.5829132500221,281.6829534160206,285.54360800003633,279.5829132500221,279.5829132500221,284.8847721660277,279.5829132500221,279.5829132500221,279.5829132500221,279.5829132500221,280.03359145799186,281.08479875000194,280.0000146667046,281.0351210000226,281.6829534160206,282.7345092080068,281.64984454168393,,279.5829132500221,284.8847721660277,279.5829132500221,284.8847721660277,284.7912374580046,285.76169350004056,279.5829132500221,1,1,1.228931040968746,,reldom2_s038,001,2025-03-06_12h52.21.202,practice_test1_AC,2022.2.5,None,
20,First_Order,4.0,audwhat,stimulus/audwhat_stim/dummy.wav,stimulus/audwhat_stim/dummy.wav,stimulus/audwhat_stim/string cello_high-pitch_Ftri_loud.wav,stimulus/audwhat_stim/string viola_low-pitch_F_loud.wav,stimulus/audwhat_stim/blank_white.png,stimulus/audwhat_stim/pitch_box.png,stimulus/audwhat_stim/pitch_yes.png,stimulus/audwhat_stim/pitch_no.png,None,Pitch,None,Category,2,0.0,0,5.25,0,5.25,0,5.25,0,0.0,0.75,0,0.0,0,0.0,0,0.0,0,0.0,0,0.0,0,0.0,1,0.5,1,2.125,0,,,,,0,26,26,26,,,,,285.76169350004056,285.76169350004056,285.76169350004056,285.76169350004056,285.76169350004056,285.76169350004056,285.76169350004056,285.76169350004056,285.67694133336965,285.76169350004056,285.76169350004056,285.76169350004056,285.67694133336965,285.76169350004056,285.76169350004056,285.76169350004056,287.8601638750406,291.73476554098306,285.76169350004056,285.76169350004056,291.07611591601744,285.76169350004056,285.76169350004056,285.76169350004056,285.76169350004056,286.21149104100186,287.26006250001956,286.17734749970646,,287.8601638750406,288.91522637498565,287.8265799997064,,285.76169350004056,291.07611591601744,285.76169350004056,291.07611591601744,290.98298266599886,291.9512887499877,285.76169350004056,2,1,1.063652666984126,,reldom2_s038,001,2025-03-06_12h52.21.202,practice_test1_AC,2022.2.5,None,
21,First_Order,4.0,audwhat,stimulus/audwhat_stim/dummy.wav,stimulus/audwhat_stim/dummy.wav,stimulus/audwhat_stim/string viola_high-pitch_D_loud.wav,stimulus/audwhat_stim/percussion xylophone_high-pitch_D_loud.wav,stimulus/audwhat_stim/blank_white.png,stimulus/audwhat_stim/pitch_box.png,stimulus/audwhat_stim/pitch_yes.png,stimulus/audwhat_stim/pitch_no.png,None,Pitch,None,Pitch,1,0.0,0,5.25,0,5.25,0,5.25,0,0.0,0.75,0,0.0,0,0.0,0,0.0,0,0.0,0,0.0,0,0.0,1,0.5,1,2.125,0,,,,,0,27,27,27,,,,,291.9512887499877,291.9512887499877,291.9512887499877,291.9512887499877,291.9512887499877,291.9512887499877,291.9512887499877,291.9512887499877,291.8680988743164,291.9512887499877,291.9512887499877,291.9512887499877,291.8680988743164,291.9512887499877,291.9512887499877,291.9512887499877,294.05345279100584,297.9190289580147,291.9512887499877,291.9512887499877,297.26051858300343,291.9512887499877,291.9512887499877,291.9512887499877,291.9512887499877,292.40221520798514,293.4533422910026,292.36872383265677,,294.05345279100584,295.1114923750283,294.01990524965026,295.0607425409835,291.9512887499877,297.26051858300343,291.9512887499877,297.26051858300343,297.1664211660391,298.13902245799545,291.9512887499877,1,1,0.8977735409862362,,reldom2_s038,001,2025-03-06_12h52.21.202,practice_test1_AC,2022.2.5,None,
22,First_Order,4.0,audwhat,stimulus/audwhat_stim/dummy.wav,stimulus/audwhat_stim/dummy.wav,stimulus/audwhat_stim/string cello_low-pitch_F_loud.wav,stimulus/audwhat_stim/string viola_high-pitch_Ftri_loud.wav,stimulus/audwhat_stim/blank_white.png,stimulus/audwhat_stim/category_box.png,stimulus/audwhat_stim/category_yes.png,stimulus/audwhat_stim/category_no.png,None,Category,None,Category,1,0.0,0,5.25,0,5.25,0,5.25,0,0.0,0.75,0,0.0,0,0.0,0,0.0,0,0.0,0,0.0,0,0.0,1,0.5,1,2.125,0,,,,,0,28,28,28,,,,,298.13902245799545,298.13902245799545,298.13902245799545,298.13902245799545,298.13902245799545,298.13902245799545,298.13902245799545,298.13902245799545,298.052362291348,298.13902245799545,298.13902245799545,298.13902245799545,298.052362291348,298.13902245799545,298.13902245799545,298.13902245799545,300.2537091249833,304.0890180830029,298.13902245799545,298.13902245799545,303.4283731250325,298.13902245799545,298.13902245799545,298.13902245799545,298.13902245799545,298.59251095802756,299.6503142910078,298.5587450827045,,300.2537091249833,301.3164364999975,300.21974983270434,,298.13902245799545,303.4283731250325,298.13902245799545,303.4283731250325,303.33364112500567,304.32629483303754,298.13902245799545,1,1,1.132166415976826,,reldom2_s038,001,2025-03-06_12h52.21.202,practice_test1_AC,2022.2.5,None,
0,0.0,None,fixation,stimulus/viswhat_stim/blank_white.png,stimulus/viswhat_stim/blank_white.png,stimulus/audwhat_stim/blank_white.png,stimulus/audwhat_stim/blank_white.png,stimulus/viswhat_stim/blank_white.png,stimulus/viswhat_stim/blank_white.png,stimulus/viswhere_stim/blank_white.png,stimulus/viswhere_stim/blank_white.png,0.0,0.0,0.0,0.0,0,0.0,0,0.0,0,0.0,0,0.0,0,0.0,0.0,0,0.0,0,0.0,0,0.0,0,0.0,0,0.0,0,0.0,0,0.0,0,0.0,5,,,,,0,29,29,29,,,,,304.32629483303754,304.32629483303754,304.32629483303754,304.32629483303754,304.32629483303754,304.32629483303754,304.32629483303754,304.32629483303754,304.2223514163362,304.32629483303754,304.32629483303754,304.32629483303754,304.2223514163362,304.32629483303754,304.32629483303754,304.32629483303754,304.32629483303754,304.32629483303754,304.32629483303754,304.32629483303754,304.32629483303754,304.32629483303754,304.32629483303754,304.32629483303754,304.32629483303754,304.32629483303754,304.32629483303754,304.2723514163362,304.32629483303754,304.32629483303754,304.32629483303754,304.2723514163362,304.32629483303754,304.32629483303754,304.32629483303754,304.32629483303754,304.32629483303754,309.6533031660365,309.6533031660365,309.3894446250051,None,0,,,reldom2_s038,001,2025-03-06_12h52.21.202,practice_test1_AC,2022.2.5,None,
23,Second_Order,4.0,audwhat,stimulus/audwhat_stim/percussion mallet_high-pitch_D_loud.wav,stimulus/audwhat_stim/string cello_high-pitch_D_loud.wav,stimulus/audwhat_stim/percussion mallet_low-pitch_F_loud.wav,stimulus/audwhat_stim/percussion xylophone_high-pitch_Ftri_loud.wav,stimulus/viswhere_stim/match_blank.png,stimulus/viswhere_stim/match_box.png,stimulus/viswhere_stim/match_yes.png,stimulus/viswhere_stim/match_no.png,2.0,Match,Pitch,Category,2,5.25,0,5.25,0,5.25,0,5.25,0,0.75,0.75,0,0.0,0,0.0,0,0.0,0,0.0,1,0.5,1,2.125,1,0.5,1,2.125,0,,,,,0,30,30,30,,,,,309.6533031660365,314.89772033301415,309.6533031660365,309.6533031660365,309.6533031660365,309.6533031660365,310.1011983330245,311.09594600001583,310.1097092076709,,311.72143391601276,312.71318145800615,311.7305286666999,,314.89772033301415,315.7590906660189,317.82367687503574,321.6940124160028,315.7590906660189,315.7590906660189,321.0765920000267,315.7590906660189,315.7590906660189,315.7590906660189,315.7590906660189,316.2166222500382,317.2740070830332,316.1827803326926,,317.82367687503574,318.8749615410343,317.7904648746519,318.8247801660327,315.7590906660189,321.0765920000267,315.7590906660189,321.0765920000267,320.9322657500161,321.8167717080214,315.7590906660189,1,0,1.419051373959519,,reldom2_s038,001,2025-03-06_12h52.21.202,practice_test1_AC,2022.2.5,None,
24,Second_Order,4.0,audwhat,stimulus/audwhat_stim/percussion mallet_low-pitch_Ftri_loud.wav,stimulus/audwhat_stim/percussion xylophone_high-pitch_F_loud.wav,stimulus/audwhat_stim/string cello_low-pitch_F_loud.wav,stimulus/audwhat_stim/string cello_high-pitch_Ftri_loud.wav,stimulus/viswhere_stim/match_blank.png,stimulus/viswhere_stim/match_box.png,stimulus/viswhere_stim/match_yes.png,stimulus/viswhere_stim/match_no.png,1.0,Match,Category,Category,1,5.25,0,5.25,0,5.25,0,5.25,0,0.75,0.75,0,0.0,0,0.0,0,0.0,0,0.0,1,0.5,1,2.125,1,0.5,1,2.125,0,,,,,0,31,31,31,,,,,321.8167717080214,327.06384266598616,321.8167717080214,321.8167717080214,321.8167717080214,321.8167717080214,322.263460999995,323.2549341249978,322.2719774576874,,323.88953824999044,324.8800023330259,323.8968526246647,324.88638591603376,327.06384266598616,327.9233456249931,329.9827778750332,333.8481087909895,327.9233456249931,327.9233456249931,333.234455250029,327.9233456249931,327.9233456249931,327.9233456249931,327.9233456249931,328.33235612499993,329.3815324160387,328.29864704166926,,329.9827778750332,331.0343260000227,329.9488999577045,,327.9233456249931,333.234455250029,327.9233456249931,333.234455250029,333.09051858301973,334.0840968330158,327.9233456249931,1,1,1.0339457909576595,,reldom2_s038,001,2025-03-06_12h52.21.202,practice_test1_AC,2022.2.5,None,
0,0.0,None,fixation,stimulus/viswhat_stim/blank_white.png,stimulus/viswhat_stim/blank_white.png,stimulus/audwhat_stim/blank_white.png,stimulus/audwhat_stim/blank_white.png,stimulus/viswhat_stim/blank_white.png,stimulus/viswhat_stim/blank_white.png,stimulus/viswhere_stim/blank_white.png,stimulus/viswhere_stim/blank_white.png,0.0,0.0,0.0,0.0,0,0.0,0,0.0,0,0.0,0,0.0,0,0.0,0.0,0,0.0,0,0.0,0,0.0,0,0.0,0,0.0,0,0.0,0,0.0,0,0.0,5,,,,,0,32,32,32,,,,,334.0840968330158,334.0840968330158,334.0840968330158,334.0840968330158,334.0840968330158,334.0840968330158,334.0840968330158,334.0840968330158,333.9814421243228,334.0840968330158,334.0840968330158,334.0840968330158,333.9814421243228,334.0840968330158,334.0840968330158,334.0840968330158,334.0840968330158,334.0840968330158,334.0840968330158,334.0840968330158,334.0840968330158,334.0840968330158,334.0840968330158,334.0840968330158,334.0840968330158,334.0840968330158,334.0840968330158,334.03144212432284,334.0840968330158,334.0840968330158,334.0840968330158,334.03144212432284,334.0840968330158,334.0840968330158,334.0840968330158,334.0840968330158,334.0840968330158,339.3901942910161,339.3901942910161,339.14106866600923,None,0,,,reldom2_s038,001,2025-03-06_12h52.21.202,practice_test1_AC,2022.2.5,None,
,,,,,,,,,,,,,,,,,,,,,,,,,,,,,,,,,,,,,,,,,,,,,,,,,,,,,,,,,,,,,,,,,,,,,,,,,,,,,,,,,,,,,,,,,,,,,,,,,,,339.3901942910161,,,,,,,
