Trial,Order,Block,Type,Stimuli_File1,Stimuli_File2,Stimuli_File3,Stimuli_File4,Cue_File1,Cue_File2,Response_File_Yes,Response_File_No,Match,Cue_Dimension,Pair1_Dimension,Pair2_Dimension,Key,Cue1_Duration,Cue1_Onset,Cue2_Duration,Cue2_Onset,ResponseYes_Duration,ResponseYes_Onset,ResponseNo_Duration,ResponseNo_Onset,ITI_Within,ITI_Between,Image1_Duration,Image1_Onset,Image2_Duration,Image2_Onset,Image3_Duration,Image3_Onset,Image4_Duration,Image4_Onset,Sound1_Duration,Sound1_Onset,Sound2_Duration,Sound2_Onset,Sound3_Duration,Sound3_Onset,Sound4_Duration,Sound4_Onset,Fixation_Duration,trials_2.thisRepN,trials_2.thisTrialN,trials_2.thisN,trials_2.thisIndex,trials.thisRepN,trials.thisTrialN,trials.thisN,trials.thisIndex,text_start.started,key_resp_start.started,key_resp_start.keys,key_resp_start.rt,text2.started,key_resp_2.started,key_resp_2.keys,key_resp_2.rt,cue_file1.started,cue_file1.stopped,image_1.started,image_1.stopped,image_2.started,image_2.stopped,sound_icon1.started,sound_icon1.stopped,sound_1.started,sound_1.stopped,sound_icon2.started,sound_icon2.stopped,sound_2.started,sound_2.stopped,image_blank_1.started,image_blank_1.stopped,key_press.started,key_press.stopped,fixation_text.started,cue_file2.started,cue_file2.stopped,image_3.started,image_3.stopped,image_4.started,image_4.stopped,sound_icon3.started,sound_icon3.stopped,sound_3.started,sound_3.stopped,sound_icon4.started,sound_icon4.stopped,sound_4.started,sound_4.stopped,response_yes.started,response_yes.stopped,response_no.started,response_no.stopped,iti_blank.started,iti_blank.stopped,fixation_text.stopped,key_press.keys,key_press.corr,key_press.rt,participant,session,date,expName,psychopyVersion,frameRate,
,,,,,,,,,,,,,,,,,,,,,,,,,,,,,,,,,,,,,,,,,,,,,,,,,,,,7.039796040975489,7.039796040975489,2,0.7866691250237636,,,,,,,,,,,,,,,,,,,,,,,,,,,,,,,,,,,,,,,,,,,,,,,,reldom2_s038,001,2025-03-06_13h35.47.365,Vis-A-Scan_AC,2022.2.5,None,
,,,,,,,,,,,,,,,,,,,,,,,,,,,,,,,,,,,,,,,,,,,,0,0,0,0,,,,,,,,,7.857470540970098,7.857470540970098,5,17.348515916033648,,,,,,,,,,,,,,,,,,,,,,,,,,,,,,,,,,,,,,,,,,,,reldom2_s038,001,2025-03-06_13h35.47.365,Vis-A-Scan_AC,2022.2.5,None,
,,,,,,,,,,,,,,,,,,,,,,,,,,,,,,,,,,,,,,,,,,,,1,0,1,0,,,,,,,,,25.22747275000438,25.22747275000438,5,1.982144417008385,,,,,,,,,,,,,,,,,,,,,,,,,,,,,,,,,,,,,,,,,,,,reldom2_s038,001,2025-03-06_13h35.47.365,Vis-A-Scan_AC,2022.2.5,None,
,,,,,,,,,,,,,,,,,,,,,,,,,,,,,,,,,,,,,,,,,,,,2,0,2,0,,,,,,,,,27.226955499965698,27.226955499965698,5,1.980038500041701,,,,,,,,,,,,,,,,,,,,,,,,,,,,,,,,,,,,,,,,,,,,reldom2_s038,001,2025-03-06_13h35.47.365,Vis-A-Scan_AC,2022.2.5,None,
,,,,,,,,,,,,,,,,,,,,,,,,,,,,,,,,,,,,,,,,,,,,3,0,3,0,,,,,,,,,29.216894207987934,29.216894207987934,5,1.9888711670064367,,,,,,,,,,,,,,,,,,,,,,,,,,,,,,,,,,,,,,,,,,,,reldom2_s038,001,2025-03-06_13h35.47.365,Vis-A-Scan_AC,2022.2.5,None,
0,0.0,None,fixation,stimulus/viswhat_stim/blank_white.png,stimulus/viswhat_stim/blank_white.png,stimulus/viswhere_stim/blank_white.png,stimulus/viswhere_stim/blank_white.png,stimulus/viswhat_stim/blank_white.png,stimulus/viswhat_stim/blank_white.png,stimulus/viswhat_stim/blank_white.png,stimulus/viswhat_stim/blank_white.png,0.0,0.0,0.0,0.0,0,0.0,0,0.0,0,0.0,0,0.0,0,0.0,0.0,0,0.0,0,0.0,0,0.0,0,0.0,0,0,0,0,0,0,0,0,16,,,,,0,0,0,0,,,,,,,,,31.414893457957078,31.414893457957078,31.414893457957078,31.414893457957078,31.414893457957078,31.414893457957078,31.414893457957078,31.414893457957078,31.31572041598847,31.414893457957078,31.414893457957078,31.414893457957078,31.31572041598847,31.414893457957078,31.414893457957078,31.414893457957078,31.414893457957078,31.414893457957078,31.414893457957078,31.414893457957078,31.414893457957078,31.414893457957078,31.414893457957078,31.414893457957078,31.414893457957078,31.414893457957078,31.414893457957078,31.382387082655136,31.414893457957078,31.414893457957078,31.414893457957078,31.382387082655136,31.414893457957078,31.414893457957078,31.414893457957078,31.414893457957078,31.414893457957078,36.63273145799758,36.63273145799758,47.6614484579768,None,0,,reldom2_s038,001,2025-03-06_13h35.47.365,Vis-A-Scan_AC,2022.2.5,None,
1,First_Order,1.0,viswhat,stimulus/viswhat_stim/blank_white.png,stimulus/viswhat_stim/blank_white.png,stimulus/viswhat_stim/land_animal-moose.png,stimulus/viswhat_stim/water_animal-seaturtle.png,stimulus/viswhat_stim/blank_white.png,stimulus/viswhat_stim/type_box.png,stimulus/viswhat_stim/type_yes.png,stimulus/viswhat_stim/type_no.png,None,Type,None,Type,1,0.0,0,5.125,0,5.125,0,5.125,0,0.0,0.625,0,0.0,0,0.0,1,0.5,1,2.125,0,0,0,0,0,0,0,0,0,,,,,0,1,1,1,,,,,,,,,47.6614484579768,47.6614484579768,47.6614484579768,47.6614484579768,47.6614484579768,47.6614484579768,47.6614484579768,47.6614484579768,47.564344540971796,47.6614484579768,47.6614484579768,47.6614484579768,47.564344540971796,47.6614484579768,47.6614484579768,47.6614484579768,49.760555665998254,,47.6614484579768,47.6614484579768,52.8396329159732,48.114955624972936,49.19181733299047,49.760555665998254,50.843087832967285,47.6614484579768,47.6614484579768,47.61434454097179,47.6614484579768,47.6614484579768,47.6614484579768,47.61434454097179,47.6614484579768,47.6614484579768,52.8396329159732,47.6614484579768,52.8396329159732,52.8396329159732,53.513188207987696,47.6614484579768,1,1,0.8778626670246013,reldom2_s038,001,2025-03-06_13h35.47.365,Vis-A-Scan_AC,2022.2.5,None,
2,First_Order,1.0,viswhat,stimulus/viswhat_stim/blank_white.png,stimulus/viswhat_stim/blank_white.png,stimulus/viswhat_stim/water_vehicle-submarine.png,stimulus/viswhat_stim/land_vehicle-firetruck.png,stimulus/viswhat_stim/blank_white.png,stimulus/viswhat_stim/type_box.png,stimulus/viswhat_stim/type_yes.png,stimulus/viswhat_stim/type_no.png,None,Type,None,Type,1,0.0,0,5.125,0,5.125,0,5.125,0,0.0,0.625,0,0.0,0,0.0,1,0.5,1,2.125,0,0,0,0,0,0,0,0,0,,,,,0,2,2,2,,,,,,,,,53.70717487495858,53.70717487495858,53.70717487495858,53.70717487495858,53.70717487495858,53.70717487495858,53.70717487495858,53.70717487495858,53.663188207987695,53.70717487495858,53.70717487495858,53.70717487495858,53.663188207987695,53.70717487495858,53.70717487495858,53.70717487495858,55.798925415962,59.801955790957436,53.70717487495858,53.70717487495858,58.83701600000495,54.18555670796195,55.219665624958,55.798925415962,56.813486374972854,53.70717487495858,53.70717487495858,53.696521541321026,53.70717487495858,53.70717487495858,53.70717487495858,53.696521541321026,53.70717487495858,53.70717487495858,58.83701600000495,53.70717487495858,58.83701600000495,58.91629083297448,59.551209790981375,53.70717487495858,1,1,0.4888245000038296,reldom2_s038,001,2025-03-06_13h35.47.365,Vis-A-Scan_AC,2022.2.5,None,
3,First_Order,1.0,viswhat,stimulus/viswhat_stim/blank_white.png,stimulus/viswhat_stim/blank_white.png,stimulus/viswhat_stim/water_vehicle-kayak.png,stimulus/viswhat_stim/land_vehicle-vespa.png,stimulus/viswhat_stim/blank_white.png,stimulus/viswhat_stim/location_box.png,stimulus/viswhat_stim/location_yes.png,stimulus/viswhat_stim/location_no.png,None,Location,None,Type,2,0.0,0,5.125,0,5.125,0,5.125,0,0.0,0.625,0,0.0,0,0.0,1,0.5,1,2.125,0,0,0,0,0,0,0,0,0,,,,,0,3,3,3,,,,,,,,,59.801955790957436,59.801955790957436,59.801955790957436,59.801955790957436,59.801955790957436,59.801955790957436,59.801955790957436,59.801955790957436,59.749903999990785,59.801955790957436,59.801955790957436,59.801955790957436,59.749903999990785,59.801955790957436,59.801955790957436,59.801955790957436,61.89012608298799,65.88792441599071,59.801955790957436,59.801955790957436,64.955892457976,60.27093070797855,61.31416154099861,61.89012608298799,62.94026795797981,59.801955790957436,59.801955790957436,59.76657066665745,59.801955790957436,59.801955790957436,59.801955790957436,59.76657066665745,59.801955790957436,59.801955790957436,64.955892457976,59.801955790957436,64.955892457976,65.01696099998662,65.65827608300606,59.801955790957436,2,1,0.6613844169769436,reldom2_s038,001,2025-03-06_13h35.47.365,Vis-A-Scan_AC,2022.2.5,None,
4,First_Order,1.0,viswhat,stimulus/viswhat_stim/blank_white.png,stimulus/viswhat_stim/blank_white.png,stimulus/viswhat_stim/water_vehicle-pirateship.png,stimulus/viswhat_stim/land_vehicle-buldozer.png,stimulus/viswhat_stim/blank_white.png,stimulus/viswhat_stim/location_box.png,stimulus/viswhat_stim/location_yes.png,stimulus/viswhat_stim/location_no.png,None,Location,None,Type,2,0.0,0,5.125,0,5.125,0,5.125,0,0.0,0.625,0,0.0,0,0.0,1,0.5,1,2.125,0,0,0,0,0,0,0,0,0,,,,,0,4,4,4,,,,,,,,,65.88792441599071,65.88792441599071,65.88792441599071,65.88792441599071,65.88792441599071,65.88792441599071,65.88792441599071,65.88792441599071,65.83605945764963,65.88792441599071,65.88792441599071,65.88792441599071,65.83605945764963,65.88792441599071,65.88792441599071,65.88792441599071,67.97922362497775,72.02113149996148,65.88792441599071,65.88792441599071,71.02620208298322,66.3598199999542,67.40658145799534,67.97922362497775,68.99895037495298,65.88792441599071,65.88792441599071,65.86939279098297,65.88792441599071,65.88792441599071,65.88792441599071,65.86939279098297,65.88792441599071,65.88792441599071,71.02620208298322,65.88792441599071,71.02620208298322,71.1110683750012,71.76037270796951,65.88792441599071,2,1,0.6501129170064814,reldom2_s038,001,2025-03-06_13h35.47.365,Vis-A-Scan_AC,2022.2.5,None,
0,0.0,None,fixation,stimulus/viswhat_stim/blank_white.png,stimulus/viswhat_stim/blank_white.png,stimulus/viswhere_stim/blank_white.png,stimulus/viswhere_stim/blank_white.png,stimulus/viswhat_stim/blank_white.png,stimulus/viswhat_stim/blank_white.png,stimulus/viswhat_stim/blank_white.png,stimulus/viswhat_stim/blank_white.png,0.0,0.0,0.0,0.0,0,0.0,0,0.0,0,0.0,0,0.0,0,0.0,0.0,0,0.0,0,0.0,0,0.0,0,0.0,0,0,0,0,0,0,0,0,9,,,,,0,5,5,5,,,,,,,,,72.02113149996148,72.02113149996148,72.02113149996148,72.02113149996148,72.02113149996148,72.02113149996148,72.02113149996148,72.02113149996148,71.93281466662107,72.02113149996148,72.02113149996148,72.02113149996148,71.93281466662107,72.02113149996148,72.02113149996148,72.02113149996148,72.02113149996148,72.02113149996148,72.02113149996148,72.02113149996148,72.02113149996148,72.02113149996148,72.02113149996148,72.02113149996148,72.02113149996148,72.02113149996148,72.02113149996148,71.98281466662108,72.02113149996148,72.02113149996148,72.02113149996148,71.98281466662108,72.02113149996148,72.02113149996148,72.02113149996148,72.02113149996148,72.02113149996148,77.25159945798805,77.25159945798805,81.22553762496682,None,0,,reldom2_s038,001,2025-03-06_13h35.47.365,Vis-A-Scan_AC,2022.2.5,None,
5,Second_Order,1.0,viswhat,stimulus/viswhat_stim/water_vehicle-cruiser.png,stimulus/viswhat_stim/land_vehicle-pickuptruck.png,stimulus/viswhat_stim/land_animal-snake.png,stimulus/viswhat_stim/land_vehicle-trolley.png,stimulus/viswhat_stim/match_blank.png,stimulus/viswhat_stim/match_box.png,stimulus/viswhat_stim/match_yes.png,stimulus/viswhat_stim/match_no.png,2.0,Match,Type,Location,2,5.125,0,5.125,0,5.125,0,5.125,0,0.75,0.75,1,0.5,1,2.125,1,0.5,1,2.125,0,0,0,0,0,0,0,0,0,,,,,0,6,6,6,,,,,,,,,81.22553762496682,86.34941420797259,81.6515345829539,82.63901516597252,83.27397362497868,84.27176237496315,81.22553762496682,81.22553762496682,81.2364398332856,81.22553762496682,81.22553762496682,81.22553762496682,81.2364398332856,81.22553762496682,86.34941420797259,87.15062591596507,89.22941333299968,93.08419633295853,87.15062591596507,87.15062591596507,92.29221699998016,87.59879170800559,88.62538470799336,89.22941333299968,90.24136395798996,87.15062591596507,87.15062591596507,87.13241479098797,87.15062591596507,87.15062591596507,87.15062591596507,87.13241479098797,87.15062591596507,87.15062591596507,92.29221699998016,87.15062591596507,92.29221699998016,92.34284724999452,93.13416499999585,87.15062591596507,2,1,0.6414355420856737,reldom2_s038,001,2025-03-06_13h35.47.365,Vis-A-Scan_AC,2022.2.5,None,
6,Second_Order,1.0,viswhat,stimulus/viswhat_stim/land_vehicle-firetruck.png,stimulus/viswhat_stim/land_animal-dog.png,stimulus/viswhat_stim/water_animal-seaturtle.png,stimulus/viswhat_stim/water_vehicle-sailboat.png,stimulus/viswhat_stim/match_blank.png,stimulus/viswhat_stim/match_box.png,stimulus/viswhat_stim/match_yes.png,stimulus/viswhat_stim/match_no.png,1.0,Match,Location,Location,1,5.125,0,5.125,0,5.125,0,5.125,0,0.625,0.625,1,0.5,1,2.125,1,0.5,1,2.125,0,0,0,0,0,0,0,0,0,,,,,0,7,7,7,,,,,,,,,93.13416499999585,98.25416195800062,93.6147459159838,94.61229066597298,95.23492162500042,96.23282645799918,93.13416499999585,93.13416499999585,93.13419633295852,93.13416499999585,93.13416499999585,93.13416499999585,93.13419633295852,93.13416499999585,98.25416195800062,99.00617516599596,101.06846245797351,,99.00617516599596,99.00617516599596,104.18577591597568,99.41665345797082,100.4993666659575,101.06846245797351,102.11015062499791,99.00617516599596,99.00617516599596,98.95540562431172,99.00617516599596,99.00617516599596,99.00617516599596,98.95540562431172,99.00617516599596,99.00617516599596,104.18577591597568,99.00617516599596,104.18577591597568,104.18577591597568,105.07818099996075,99.00617516599596,1,1,0.6553254579775967,reldom2_s038,001,2025-03-06_13h35.47.365,Vis-A-Scan_AC,2022.2.5,None,
0,0.0,None,fixation,stimulus/viswhat_stim/blank_white.png,stimulus/viswhat_stim/blank_white.png,stimulus/viswhere_stim/blank_white.png,stimulus/viswhere_stim/blank_white.png,stimulus/viswhat_stim/blank_white.png,stimulus/viswhat_stim/blank_white.png,stimulus/viswhat_stim/blank_white.png,stimulus/viswhat_stim/blank_white.png,0.0,0.0,0.0,0.0,0,0.0,0,0.0,0,0.0,0,0.0,0,0.0,0.0,0,0.0,0,0.0,0,0.0,0,0.0,0,0,0,0,0,0,0,0,9,,,,,0,8,8,8,,,,,,,,,105.07818099996075,105.07818099996075,105.07818099996075,105.07818099996075,105.07818099996075,105.07818099996075,105.07818099996075,105.07818099996075,104.98277191600064,105.07818099996075,105.07818099996075,105.07818099996075,104.98277191600064,105.07818099996075,105.07818099996075,105.07818099996075,105.07818099996075,105.07818099996075,105.07818099996075,105.07818099996075,105.07818099996075,105.07818099996075,105.07818099996075,105.07818099996075,105.07818099996075,105.07818099996075,105.07818099996075,105.03277191600064,105.07818099996075,105.07818099996075,105.07818099996075,105.03277191600064,105.07818099996075,105.07818099996075,105.07818099996075,105.07818099996075,105.07818099996075,110.30445958295604,110.30445958295604,114.35214266600087,None,0,,reldom2_s038,001,2025-03-06_13h35.47.365,Vis-A-Scan_AC,2022.2.5,None,
7,First_Order,2.0,viswhat,stimulus/viswhat_stim/blank_white.png,stimulus/viswhat_stim/blank_white.png,stimulus/viswhat_stim/water_vehicle-ship.png,stimulus/viswhat_stim/water_animal-stingray.png,stimulus/viswhat_stim/blank_white.png,stimulus/viswhat_stim/type_box.png,stimulus/viswhat_stim/type_yes.png,stimulus/viswhat_stim/type_no.png,None,Type,None,Location,2,0.0,0,5.125,0,5.125,0,5.125,0,0.0,0.625,0,0.0,0,0.0,1,0.5,1,2.125,0,0,0,0,0,0,0,0,0,,,,,0,9,9,9,,,,,,,,,114.35214266600087,114.35214266600087,114.35214266600087,114.35214266600087,114.35214266600087,114.35214266600087,114.35214266600087,114.35214266600087,114.26226291663868,114.35214266600087,114.35214266600087,114.35214266600087,114.26226291663868,114.35214266600087,114.35214266600087,114.35214266600087,116.42518749996088,,114.35214266600087,114.35214266600087,119.53716983296908,114.78897191595752,115.82737512496533,116.42518749996088,117.46335795795312,114.35214266600087,114.35214266600087,114.31226291663867,114.35214266600087,114.35214266600087,114.35214266600087,114.31226291663867,114.35214266600087,114.35214266600087,119.53716983296908,114.35214266600087,119.53716983296908,119.53716983296908,120.22496937500546,114.35214266600087,2,1,1.4696305410470814,reldom2_s038,001,2025-03-06_13h35.47.365,Vis-A-Scan_AC,2022.2.5,None,
8,First_Order,2.0,viswhat,stimulus/viswhat_stim/blank_white.png,stimulus/viswhat_stim/blank_white.png,stimulus/viswhat_stim/land_vehicle-train.png,stimulus/viswhat_stim/land_animal-fox.png,stimulus/viswhat_stim/blank_white.png,stimulus/viswhat_stim/type_box.png,stimulus/viswhat_stim/type_yes.png,stimulus/viswhat_stim/type_no.png,None,Type,None,Location,2,0.0,0,5.125,0,5.125,0,5.125,0,0.0,0.625,0,0.0,0,0.0,1,0.5,1,2.125,0,0,0,0,0,0,0,0,0,,,,,0,10,10,10,,,,,,,,,120.40645358298207,120.40645358298207,120.40645358298207,120.40645358298207,120.40645358298207,120.40645358298207,120.40645358298207,120.40645358298207,120.37496937500546,120.40645358298207,120.40645358298207,120.40645358298207,120.37496937500546,120.40645358298207,120.40645358298207,120.40645358298207,122.51164991600672,126.50242416595574,120.40645358298207,120.40645358298207,125.5474682499771,120.87872983299894,121.88941620796686,122.51164991600672,123.52938041597372,120.40645358298207,120.40645358298207,120.39163604167213,120.40645358298207,120.40645358298207,120.40645358298207,120.39163604167213,120.40645358298207,120.40645358298207,125.5474682499771,120.40645358298207,125.5474682499771,125.62749408296077,126.25382954097586,120.40645358298207,2,1,0.5519120000535622,reldom2_s038,001,2025-03-06_13h35.47.365,Vis-A-Scan_AC,2022.2.5,None,
9,First_Order,2.0,viswhat,stimulus/viswhat_stim/blank_white.png,stimulus/viswhat_stim/blank_white.png,stimulus/viswhat_stim/land_animal-lion.png,stimulus/viswhat_stim/land_vehicle-bus.png,stimulus/viswhat_stim/blank_white.png,stimulus/viswhat_stim/location_box.png,stimulus/viswhat_stim/location_yes.png,stimulus/viswhat_stim/location_no.png,None,Location,None,Location,1,0.0,0,5.125,0,5.125,0,5.125,0,0.0,0.625,0,0.0,0,0.0,1,0.5,1,2.125,0,0,0,0,0,0,0,0,0,,,,,0,11,11,11,,,,,,,,,126.50242416595574,126.50242416595574,126.50242416595574,126.50242416595574,126.50242416595574,126.50242416595574,126.50242416595574,126.50242416595574,126.4374675413322,126.50242416595574,126.50242416595574,126.50242416595574,126.4374675413322,126.50242416595574,126.50242416595574,126.50242416595574,128.5985201249714,132.66806483297842,126.50242416595574,126.50242416595574,131.65408416598802,126.95987354096724,127.98999916599132,128.5985201249714,129.63507070799824,126.50242416595574,126.50242416595574,126.47080087466553,126.50242416595574,126.50242416595574,126.50242416595574,126.47080087466553,126.50242416595574,126.50242416595574,131.65408416598802,126.50242416595574,131.65408416598802,131.71953558298992,132.36510024999734,126.50242416595574,1,1,0.5382006670115516,reldom2_s038,001,2025-03-06_13h35.47.365,Vis-A-Scan_AC,2022.2.5,None,
10,First_Order,2.0,viswhat,stimulus/viswhat_stim/blank_white.png,stimulus/viswhat_stim/blank_white.png,stimulus/viswhat_stim/land_animal-elephant.png,stimulus/viswhat_stim/land_vehicle-motorcycle.png,stimulus/viswhat_stim/blank_white.png,stimulus/viswhat_stim/location_box.png,stimulus/viswhat_stim/location_yes.png,stimulus/viswhat_stim/location_no.png,None,Location,None,Location,1,0.0,0,5.125,0,5.125,0,5.125,0,0.0,0.625,0,0.0,0,0.0,1,0.5,1,2.125,0,0,0,0,0,0,0,0,0,,,,,0,12,12,12,,,,,,,,,132.66806483297842,132.66806483297842,132.66806483297842,132.66806483297842,132.66806483297842,132.66806483297842,132.66806483297842,132.66806483297842,132.54572945766074,132.66806483297842,132.66806483297842,132.66806483297842,132.54572945766074,132.66806483297842,132.66806483297842,132.66806483297842,134.73632679099683,138.8119300410035,132.66806483297842,132.66806483297842,137.86618154100142,133.13603766600136,134.20568029099377,134.73632679099683,135.80827054096153,132.66806483297842,132.66806483297842,132.6123961243274,132.66806483297842,132.66806483297842,132.66806483297842,132.6123961243274,132.66806483297842,132.66806483297842,137.86618154100142,132.66806483297842,137.86618154100142,137.86618154100142,138.53726766596083,132.66806483297842,1,1,0.5673203750629909,reldom2_s038,001,2025-03-06_13h35.47.365,Vis-A-Scan_AC,2022.2.5,None,
0,0.0,None,fixation,stimulus/viswhat_stim/blank_white.png,stimulus/viswhat_stim/blank_white.png,stimulus/viswhere_stim/blank_white.png,stimulus/viswhere_stim/blank_white.png,stimulus/viswhat_stim/blank_white.png,stimulus/viswhat_stim/blank_white.png,stimulus/viswhat_stim/blank_white.png,stimulus/viswhat_stim/blank_white.png,0.0,0.0,0.0,0.0,0,0.0,0,0.0,0,0.0,0,0.0,0,0.0,0.0,0,0.0,0,0.0,0,0.0,0,0.0,0,0,0,0,0,0,0,0,10,,,,,0,13,13,13,,,,,,,,,138.8119300410035,138.8119300410035,138.8119300410035,138.8119300410035,138.8119300410035,138.8119300410035,138.8119300410035,138.8119300410035,138.72060099929416,138.8119300410035,138.8119300410035,138.8119300410035,138.72060099929416,138.8119300410035,138.8119300410035,138.8119300410035,138.8119300410035,138.8119300410035,138.8119300410035,138.8119300410035,138.8119300410035,138.8119300410035,138.8119300410035,138.8119300410035,138.8119300410035,138.8119300410035,138.8119300410035,138.77060099929417,138.8119300410035,138.8119300410035,138.8119300410035,138.77060099929417,138.8119300410035,138.8119300410035,138.8119300410035,138.8119300410035,138.8119300410035,143.99255504098255,143.99255504098255,148.94195274997037,None,0,,reldom2_s038,001,2025-03-06_13h35.47.365,Vis-A-Scan_AC,2022.2.5,None,
11,Second_Order,2.0,viswhat,stimulus/viswhat_stim/water_vehicle-cabincruiser.png,stimulus/viswhat_stim/land_vehicle-scooter.png,stimulus/viswhat_stim/land_animal-giraffe.png,stimulus/viswhat_stim/water_animal-squid.png,stimulus/viswhat_stim/match_blank.png,stimulus/viswhat_stim/match_box.png,stimulus/viswhat_stim/match_yes.png,stimulus/viswhat_stim/match_no.png,1.0,Match,Type,Type,1,5.125,0,5.125,0,5.125,0,5.125,0,0.75,0.75,1,0.5,1,2.125,1,0.5,1,2.125,0,0,0,0,0,0,0,0,0,,,,,0,14,14,14,,,,,,,,,148.94195274997037,154.05543349997606,149.4077745829709,150.3954587499611,151.03163729095832,152.02833912498318,148.94195274997037,148.94195274997037,148.94080441628662,148.94195274997037,148.94195274997037,148.94195274997037,148.94080441628662,148.94195274997037,154.05543349997606,154.92208087496692,156.98146966600325,,154.92208087496692,154.92208087496692,160.084291999985,155.35471516597318,156.4406132499571,156.98146966600325,158.01969229098177,154.92208087496692,154.92208087496692,154.87233924931692,154.92208087496692,154.92208087496692,154.92208087496692,154.87233924931692,154.92208087496692,154.92208087496692,160.084291999985,154.92208087496692,160.084291999985,160.084291999985,,154.92208087496692,1,1,0.56532379204873,reldom2_s038,001,2025-03-06_13h35.47.365,Vis-A-Scan_AC,2022.2.5,None,
12,Second_Order,2.0,viswhat,stimulus/viswhat_stim/land_animal-bunny.png,stimulus/viswhat_stim/land_vehicle-shortbus.png,stimulus/viswhat_stim/water_vehicle-sailboat.png,stimulus/viswhat_stim/water_animal-whale.png,stimulus/viswhat_stim/match_blank.png,stimulus/viswhat_stim/match_box.png,stimulus/viswhat_stim/match_yes.png,stimulus/viswhat_stim/match_no.png,1.0,Match,Location,Location,1,5.125,0,5.125,0,5.125,0,5.125,0,0.625,0.625,1,0.5,1,2.125,1,0.5,1,2.125,0,0,0,0,0,0,0,0,0,,,,,0,15,15,15,,,,,,,,,160.90876824996667,166.03254379099235,161.35189975000685,162.33960358297918,162.97579012496863,163.97294933296507,160.90876824996667,160.90876824996667,160.91660608296516,160.90876824996667,160.90876824996667,160.90876824996667,160.91660608296516,160.90876824996667,166.03254379099235,166.77664345799712,168.8313601249829,,166.77664345799712,166.77664345799712,171.98030491598183,167.18740799999796,168.26785487495363,168.8313601249829,169.86904291599058,166.77664345799712,166.77664345799712,166.72884520832062,166.77664345799712,166.77664345799712,166.77664345799712,166.72884520832062,166.77664345799712,166.77664345799712,171.98030491598183,166.77664345799712,171.98030491598183,171.93471366597805,172.6244341660058,166.77664345799712,1,1,0.5924615840194747,reldom2_s038,001,2025-03-06_13h35.47.365,Vis-A-Scan_AC,2022.2.5,None,
0,0.0,None,fixation,stimulus/viswhat_stim/blank_white.png,stimulus/viswhat_stim/blank_white.png,stimulus/viswhere_stim/blank_white.png,stimulus/viswhere_stim/blank_white.png,stimulus/viswhat_stim/blank_white.png,stimulus/viswhat_stim/blank_white.png,stimulus/viswhat_stim/blank_white.png,stimulus/viswhat_stim/blank_white.png,0.0,0.0,0.0,0.0,0,0.0,0,0.0,0,0.0,0,0.0,0,0.0,0.0,0,0.0,0,0.0,0,0.0,0,0.0,0,0,0,0,0,0,0,0,9,,,,,0,16,16,16,,,,,,,,,172.87255104095675,172.87255104095675,172.87255104095675,172.87255104095675,172.87255104095675,172.87255104095675,172.87255104095675,172.87255104095675,172.77443416600582,172.87255104095675,172.87255104095675,172.87255104095675,172.77443416600582,172.87255104095675,172.87255104095675,172.87255104095675,172.87255104095675,172.87255104095675,172.87255104095675,172.87255104095675,172.87255104095675,172.87255104095675,172.87255104095675,172.87255104095675,172.87255104095675,172.87255104095675,172.87255104095675,172.82443416600583,172.87255104095675,172.87255104095675,172.87255104095675,172.82443416600583,172.87255104095675,172.87255104095675,172.87255104095675,172.87255104095675,172.87255104095675,178.05193283298286,178.05193283298286,182.0688312909915,None,0,,reldom2_s038,001,2025-03-06_13h35.47.365,Vis-A-Scan_AC,2022.2.5,None,
13,First_Order,3.0,viswhere,stimulus/viswhere_stim/blank_white.png,stimulus/viswhere_stim/blank_white.png,stimulus/viswhere_stim/90-deg_dot-left_slateblue.png,stimulus/viswhere_stim/120-deg_dot-left_slateblue.png,stimulus/viswhere_stim/blank_white.png,stimulus/viswhere_stim/dot_box.png,stimulus/viswhere_stim/dot_yes.png,stimulus/viswhere_stim/dot_no.png,None,Dot,None,Dot,1,0.0,0,5.125,0,5.125,0,5.125,0,0.0,0.625,0,0.0,0,0.0,1,0.5,1,2.125,0,0,0,0,0,0,0,0,0,,,,,0,17,17,17,,,,,,,,,182.0688312909915,182.0688312909915,182.0688312909915,182.0688312909915,182.0688312909915,182.0688312909915,182.0688312909915,182.0688312909915,182.04840649965143,182.0688312909915,182.0688312909915,182.0688312909915,182.04840649965143,182.0688312909915,182.0688312909915,182.0688312909915,184.17745883297175,188.12779120798223,182.0688312909915,182.0688312909915,187.20399820798775,182.54333020799095,183.55326133297058,184.17745883297175,185.19163062499138,182.0688312909915,182.0688312909915,182.0650731663181,182.0688312909915,182.0688312909915,182.0688312909915,182.0650731663181,182.0688312909915,182.0688312909915,187.20399820798775,182.0688312909915,187.20399820798775,187.29259191598976,187.9240559579921,182.0688312909915,1,1,0.9173355000093579,reldom2_s038,001,2025-03-06_13h35.47.365,Vis-A-Scan_AC,2022.2.5,None,
14,First_Order,3.0,viswhere,stimulus/viswhere_stim/blank_white.png,stimulus/viswhere_stim/blank_white.png,stimulus/viswhere_stim/30-deg_dot-left_royalblue.png,stimulus/viswhere_stim/30-deg_dot-right_peru.png,stimulus/viswhere_stim/blank_white.png,stimulus/viswhere_stim/dot_box.png,stimulus/viswhere_stim/dot_yes.png,stimulus/viswhere_stim/dot_no.png,None,Dot,None,Line,2,0.0,0,5.125,0,5.125,0,5.125,0,0.0,0.625,0,0.0,0,0.0,1,0.5,1,2.125,0,0,0,0,0,0,0,0,0,,,,,0,18,18,18,,,,,,,,,188.12779120798223,188.12779120798223,188.12779120798223,188.12779120798223,188.12779120798223,188.12779120798223,188.12779120798223,188.12779120798223,188.10780354131325,188.12779120798223,188.12779120798223,188.12779120798223,188.10780354131325,188.12779120798223,188.12779120798223,188.12779120798223,190.2381362079759,194.21299891598755,188.12779120798223,188.12779120798223,193.25009933300316,188.6051275409991,189.61344591598026,190.2381362079759,191.2538937079953,188.12779120798223,188.12779120798223,188.12447020797993,188.12779120798223,188.12779120798223,188.12779120798223,188.12447020797993,188.12779120798223,188.12779120798223,193.25009933300316,188.12779120798223,193.25009933300316,193.34694312495412,193.971079040959,188.12779120798223,2,1,0.8738464170601219,reldom2_s038,001,2025-03-06_13h35.47.365,Vis-A-Scan_AC,2022.2.5,None,
15,First_Order,3.0,viswhere,stimulus/viswhere_stim/blank_white.png,stimulus/viswhere_stim/blank_white.png,stimulus/viswhere_stim/150-deg_dot-right_turquoise.png,stimulus/viswhere_stim/150-deg_dot-left_cyan.png,stimulus/viswhere_stim/blank_white.png,stimulus/viswhere_stim/line_box.png,stimulus/viswhere_stim/line_yes.png,stimulus/viswhere_stim/line_no.png,None,Line,None,Line,1,0.0,0,5.125,0,5.125,0,5.125,0,0.0,0.625,0,0.0,0,0.0,1,0.5,1,2.125,0,0,0,0,0,0,0,0,0,,,,,0,19,19,19,,,,,,,,,194.21299891598755,194.21299891598755,194.21299891598755,194.21299891598755,194.21299891598755,194.21299891598755,194.21299891598755,194.21299891598755,194.19150333329648,194.21299891598755,194.21299891598755,194.21299891598755,194.19150333329648,194.21299891598755,194.21299891598755,194.21299891598755,196.3275903330068,200.27057033299934,194.21299891598755,194.21299891598755,199.337052207964,194.69434029096738,195.7130918749608,196.3275903330068,197.33497033297317,194.21299891598755,194.21299891598755,194.20816999996316,194.21299891598755,194.21299891598755,194.21299891598755,194.20816999996316,194.21299891598755,194.21299891598755,199.337052207964,194.21299891598755,199.337052207964,199.434124374995,200.06905383296544,194.21299891598755,1,1,0.7730627500568517,reldom2_s038,001,2025-03-06_13h35.47.365,Vis-A-Scan_AC,2022.2.5,None,
16,First_Order,3.0,viswhere,stimulus/viswhere_stim/blank_white.png,stimulus/viswhere_stim/blank_white.png,stimulus/viswhere_stim/120-deg_dot-right_mediumslateblue.png,stimulus/viswhere_stim/150-deg_dot-right_royalblue.png,stimulus/viswhere_stim/blank_white.png,stimulus/viswhere_stim/line_box.png,stimulus/viswhere_stim/line_yes.png,stimulus/viswhere_stim/line_no.png,None,Line,None,Dot,2,0.0,0,5.125,0,5.125,0,5.125,0,0.0,0.625,0,0.0,0,0.0,1,0.5,1,2.125,0,0,0,0,0,0,0,0,0,,,,,0,20,20,20,,,,,,,,,200.27057033299934,200.27057033299934,200.27057033299934,200.27057033299934,200.27057033299934,200.27057033299934,200.27057033299934,200.27057033299934,200.24926704129516,200.27057033299934,200.27057033299934,200.27057033299934,200.24926704129516,200.27057033299934,200.27057033299934,200.27057033299934,202.37411816598615,206.41374970797915,200.27057033299934,200.27057033299934,205.40521654096665,200.74835345795145,201.76421620795736,202.37411816598615,203.3765596249723,200.27057033299934,200.27057033299934,200.26593370796184,200.27057033299934,200.27057033299934,200.27057033299934,200.26593370796184,200.27057033299934,200.27057033299934,205.40521654096665,200.27057033299934,205.40521654096665,205.48860616597813,206.11920758296037,200.27057033299934,2,1,0.4376250000204891,reldom2_s038,001,2025-03-06_13h35.47.365,Vis-A-Scan_AC,2022.2.5,None,
0,0.0,None,fixation,stimulus/viswhat_stim/blank_white.png,stimulus/viswhat_stim/blank_white.png,stimulus/viswhere_stim/blank_white.png,stimulus/viswhere_stim/blank_white.png,stimulus/viswhat_stim/blank_white.png,stimulus/viswhat_stim/blank_white.png,stimulus/viswhat_stim/blank_white.png,stimulus/viswhat_stim/blank_white.png,0.0,0.0,0.0,0.0,0,0.0,0,0.0,0,0.0,0,0.0,0,0.0,0.0,0,0.0,0,0.0,0,0.0,0,0.0,0,0,0,0,0,0,0,0,8,,,,,0,21,21,21,,,,,,,,,206.41374970797915,206.41374970797915,206.41374970797915,206.41374970797915,206.41374970797915,206.41374970797915,206.41374970797915,206.41374970797915,206.31627929131113,206.41374970797915,206.41374970797915,206.41374970797915,206.31627929131113,206.41374970797915,206.41374970797915,206.41374970797915,206.41374970797915,206.41374970797915,206.41374970797915,206.41374970797915,206.41374970797915,206.41374970797915,206.41374970797915,206.41374970797915,206.41374970797915,206.41374970797915,206.41374970797915,206.36627929131114,206.41374970797915,206.41374970797915,206.41374970797915,206.36627929131114,206.41374970797915,206.41374970797915,206.41374970797915,206.41374970797915,206.41374970797915,211.63160591595806,211.63160591595806,214.52091537497472,None,0,,reldom2_s038,001,2025-03-06_13h35.47.365,Vis-A-Scan_AC,2022.2.5,None,
17,Second_Order,3.0,viswhere,stimulus/viswhere_stim/60-deg_dot-right_seagreen.png,stimulus/viswhere_stim/150-deg_dot-right_seagreen.png,stimulus/viswhere_stim/90-deg_dot-right_salmon.png,stimulus/viswhere_stim/90-deg_dot-left_seagreen.png,stimulus/viswhat_stim/match_blank.png,stimulus/viswhat_stim/match_box.png,stimulus/viswhat_stim/match_yes.png,stimulus/viswhat_stim/match_no.png,2.0,Match,Dot,Line,2,5.125,0,5.125,0,5.125,0,5.125,0,0.75,0.75,1,0.5,1,2.125,1,0.5,1,2.125,0,0,0,0,0,0,0,0,0,,,,,0,22,22,22,,,,,,,,,214.52091537497472,219.6395718329586,214.99323854100658,215.98091387498425,216.62763279100182,217.61744908295805,214.52091537497472,214.52091537497472,214.5355323333371,214.52091537497472,214.52091537497472,214.52091537497472,214.5355323333371,214.52091537497472,219.6395718329586,220.4346827499685,222.50833079096628,226.40252095798496,220.4346827499685,220.4346827499685,225.56735487497644,220.87942174996715,221.89650979096768,222.50833079096628,223.5145616660011,220.4346827499685,220.4346827499685,220.4240452079801,220.4346827499685,220.4346827499685,220.4346827499685,220.4240452079801,220.4346827499685,220.4346827499685,225.56735487497644,220.4346827499685,225.56735487497644,225.6215285829967,226.40252095798496,220.4346827499685,2,1,0.9049612080561928,reldom2_s038,001,2025-03-06_13h35.47.365,Vis-A-Scan_AC,2022.2.5,None,
18,Second_Order,3.0,viswhere,stimulus/viswhere_stim/150-deg_dot-right_goldenrod.png,stimulus/viswhere_stim/150-deg_dot-left_cyan.png,stimulus/viswhere_stim/120-deg_dot-left_royalblue.png,stimulus/viswhere_stim/60-deg_dot-left_royalblue.png,stimulus/viswhat_stim/match_blank.png,stimulus/viswhat_stim/match_box.png,stimulus/viswhat_stim/match_yes.png,stimulus/viswhat_stim/match_no.png,2.0,Match,Line,Dot,2,5.125,0,5.125,0,5.125,0,5.125,0,0.625,0.625,1,0.5,1,2.125,1,0.5,1,2.125,0,0,0,0,0,0,0,0,0,,,,,0,23,23,23,,,,,,,,,226.40252095798496,231.51672837499063,226.8892890829593,227.88698766595917,228.5100996249821,229.5073716659681,226.40252095798496,226.40252095798496,226.41598591599615,226.40252095798496,226.40252095798496,226.40252095798496,226.41598591599615,226.40252095798496,231.51672837499063,232.186368457973,234.27656774997013,238.32385245797923,232.186368457973,232.186368457973,237.31253241596278,232.64448462496512,233.65250112500507,234.27656774997013,235.29323833296075,232.186368457973,232.186368457973,232.16363258328835,232.186368457973,232.186368457973,232.186368457973,232.16363258328835,232.186368457973,232.186368457973,237.31253241596278,232.186368457973,237.31253241596278,237.38237279100576,238.0031237079529,232.186368457973,2,1,0.7038875829894096,reldom2_s038,001,2025-03-06_13h35.47.365,Vis-A-Scan_AC,2022.2.5,None,
0,0.0,None,fixation,stimulus/viswhat_stim/blank_white.png,stimulus/viswhat_stim/blank_white.png,stimulus/viswhere_stim/blank_white.png,stimulus/viswhere_stim/blank_white.png,stimulus/viswhat_stim/blank_white.png,stimulus/viswhat_stim/blank_white.png,stimulus/viswhat_stim/blank_white.png,stimulus/viswhat_stim/blank_white.png,0.0,0.0,0.0,0.0,0,0.0,0,0.0,0,0.0,0,0.0,0,0.0,0.0,0,0.0,0,0.0,0,0.0,0,0.0,0,0,0,0,0,0,0,0,10,,,,,0,24,24,24,,,,,,,,,238.32385245797923,238.32385245797923,238.32385245797923,238.32385245797923,238.32385245797923,238.32385245797923,238.32385245797923,238.32385245797923,238.226619708313,238.32385245797923,238.32385245797923,238.32385245797923,238.226619708313,238.32385245797923,238.32385245797923,238.32385245797923,238.32385245797923,238.32385245797923,238.32385245797923,238.32385245797923,238.32385245797923,238.32385245797923,238.32385245797923,238.32385245797923,238.32385245797923,238.32385245797923,238.32385245797923,238.276619708313,238.32385245797923,238.32385245797923,238.32385245797923,238.276619708313,238.32385245797923,238.32385245797923,238.32385245797923,238.32385245797923,238.32385245797923,243.54296145797707,243.54296145797707,248.5325886249775,None,0,,reldom2_s038,001,2025-03-06_13h35.47.365,Vis-A-Scan_AC,2022.2.5,None,
19,First_Order,4.0,viswhere,stimulus/viswhere_stim/blank_white.png,stimulus/viswhere_stim/blank_white.png,stimulus/viswhere_stim/90-deg_dot-right_royalblue.png,stimulus/viswhere_stim/120-deg_dot-right_goldenrod.png,stimulus/viswhere_stim/blank_white.png,stimulus/viswhere_stim/dot_box.png,stimulus/viswhere_stim/dot_yes.png,stimulus/viswhere_stim/dot_no.png,None,Dot,None,Dot,1,0.0,0,5.125,0,5.125,0,5.125,0,0.0,0.625,0,0.0,0,0.0,1,0.5,1,2.125,0,0,0,0,0,0,0,0,0,,,,,0,25,25,25,,,,,,,,,248.5325886249775,248.5325886249775,248.5325886249775,248.5325886249775,248.5325886249775,248.5325886249775,248.5325886249775,248.5325886249775,248.5142240416414,248.5325886249775,248.5325886249775,248.5325886249775,248.5142240416414,248.5325886249775,248.5325886249775,248.5325886249775,250.64450574998045,254.58832970797084,248.5325886249775,248.5325886249775,253.6650363749941,249.00798608298646,250.02090583299287,250.64450574998045,251.6605185829685,248.5325886249775,248.5325886249775,248.5142240416414,248.5325886249775,248.5325886249775,248.5325886249775,248.5142240416414,248.5325886249775,248.5325886249775,253.6650363749941,248.5325886249775,253.6650363749941,253.7793617079733,254.40126533299917,248.5325886249775,1,1,2.099009667057544,reldom2_s038,001,2025-03-06_13h35.47.365,Vis-A-Scan_AC,2022.2.5,None,
20,First_Order,4.0,viswhere,stimulus/viswhere_stim/blank_white.png,stimulus/viswhere_stim/blank_white.png,stimulus/viswhere_stim/90-deg_dot-left_peru.png,stimulus/viswhere_stim/90-deg_dot-right_royalblue.png,stimulus/viswhere_stim/blank_white.png,stimulus/viswhere_stim/dot_box.png,stimulus/viswhere_stim/dot_yes.png,stimulus/viswhere_stim/dot_no.png,None,Dot,None,Line,2,0.0,0,5.125,0,5.125,0,5.125,0,0.0,0.625,0,0.0,0,0.0,1,0.5,1,2.125,0,0,0,0,0,0,0,0,0,,,,,0,26,26,26,,,,,,,,,254.58832970797084,254.58832970797084,254.58832970797084,254.58832970797084,254.58832970797084,254.58832970797084,254.58832970797084,254.58832970797084,254.5679757493393,254.58832970797084,254.58832970797084,254.58832970797084,254.5679757493393,254.58832970797084,254.58832970797084,254.58832970797084,256.70423983299406,260.6538964159554,254.58832970797084,254.58832970797084,259.7266051250044,255.06594670796767,256.0784499159781,256.70423983299406,257.72151616599876,254.58832970797084,254.58832970797084,254.58464241600598,254.58832970797084,254.58832970797084,254.58832970797084,254.58464241600598,254.58832970797084,254.58832970797084,259.7266051250044,254.58832970797084,259.7266051250044,259.8097725829575,260.438534832967,254.58832970797084,2,1,0.9968572080251761,reldom2_s038,001,2025-03-06_13h35.47.365,Vis-A-Scan_AC,2022.2.5,None,
21,First_Order,4.0,viswhere,stimulus/viswhere_stim/blank_white.png,stimulus/viswhere_stim/blank_white.png,stimulus/viswhere_stim/120-deg_dot-left_cyan.png,stimulus/viswhere_stim/150-deg_dot-left_seagreen.png,stimulus/viswhere_stim/blank_white.png,stimulus/viswhere_stim/line_box.png,stimulus/viswhere_stim/line_yes.png,stimulus/viswhere_stim/line_no.png,None,Line,None,Dot,2,0.0,0,5.125,0,5.125,0,5.125,0,0.0,0.625,0,0.0,0,0.0,1,0.5,1,2.125,0,0,0,0,0,0,0,0,0,,,,,0,27,27,27,,,,,,,,,260.6538964159554,260.6538964159554,260.6538964159554,260.6538964159554,260.6538964159554,260.6538964159554,260.6538964159554,260.6538964159554,260.6322639582989,260.6538964159554,260.6538964159554,260.6538964159554,260.6322639582989,260.6538964159554,260.6538964159554,260.6538964159554,262.7612595829996,266.71803679096047,260.6538964159554,260.6538964159554,265.7782243329566,261.1344432079932,262.150383375003,262.7612595829996,263.76571995799895,260.6538964159554,260.6538964159554,260.64893062496554,260.6538964159554,260.6538964159554,260.6538964159554,260.64893062496554,260.6538964159554,260.6538964159554,265.7782243329566,260.6538964159554,265.7782243329566,265.87655537499813,266.502539915964,260.6538964159554,2,1,0.6931304590543732,reldom2_s038,001,2025-03-06_13h35.47.365,Vis-A-Scan_AC,2022.2.5,None,
22,First_Order,4.0,viswhere,stimulus/viswhere_stim/blank_white.png,stimulus/viswhere_stim/blank_white.png,stimulus/viswhere_stim/150-deg_dot-right_seagreen.png,stimulus/viswhere_stim/150-deg_dot-left_slateblue.png,stimulus/viswhere_stim/blank_white.png,stimulus/viswhere_stim/line_box.png,stimulus/viswhere_stim/line_yes.png,stimulus/viswhere_stim/line_no.png,None,Line,None,Line,1,0.0,0,5.125,0,5.125,0,5.125,0,0.0,0.625,0,0.0,0,0.0,1,0.5,1,2.125,0,0,0,0,0,0,0,0,0,,,,,0,28,28,28,,,,,,,,,266.71803679096047,266.71803679096047,266.71803679096047,266.71803679096047,266.71803679096047,266.71803679096047,266.71803679096047,266.71803679096047,266.69655212430126,266.71803679096047,266.71803679096047,266.71803679096047,266.69655212430126,266.71803679096047,266.71803679096047,266.71803679096047,268.81812924996484,272.85930916597135,266.71803679096047,266.71803679096047,271.854735040979,267.19965329096885,268.2036761249765,268.81812924996484,269.82734033296583,266.71803679096047,266.71803679096047,266.7132187909679,266.71803679096047,266.71803679096047,266.71803679096047,266.7132187909679,266.71803679096047,266.71803679096047,271.854735040979,266.71803679096047,271.854735040979,271.93804474995704,272.5668077499722,266.71803679096047,1,1,0.7832139170495793,reldom2_s038,001,2025-03-06_13h35.47.365,Vis-A-Scan_AC,2022.2.5,None,
0,0.0,None,fixation,stimulus/viswhat_stim/blank_white.png,stimulus/viswhat_stim/blank_white.png,stimulus/viswhere_stim/blank_white.png,stimulus/viswhere_stim/blank_white.png,stimulus/viswhat_stim/blank_white.png,stimulus/viswhat_stim/blank_white.png,stimulus/viswhat_stim/blank_white.png,stimulus/viswhat_stim/blank_white.png,0.0,0.0,0.0,0.0,0,0.0,0,0.0,0,0.0,0,0.0,0,0.0,0.0,0,0.0,0,0.0,0,0.0,0,0.0,0,0,0,0,0,0,0,0,9,,,,,0,29,29,29,,,,,,,,,272.85930916597135,272.85930916597135,272.85930916597135,272.85930916597135,272.85930916597135,272.85930916597135,272.85930916597135,272.85930916597135,272.76094429132837,272.85930916597135,272.85930916597135,272.85930916597135,272.76094429132837,272.85930916597135,272.85930916597135,272.85930916597135,272.85930916597135,272.85930916597135,272.85930916597135,272.85930916597135,272.85930916597135,272.85930916597135,272.85930916597135,272.85930916597135,272.85930916597135,272.85930916597135,272.85930916597135,272.8109442913284,272.85930916597135,272.85930916597135,272.85930916597135,272.8109442913284,272.85930916597135,272.85930916597135,272.85930916597135,272.85930916597135,272.85930916597135,278.0437380829826,278.0437380829826,282.00042187498184,None,0,,reldom2_s038,001,2025-03-06_13h35.47.365,Vis-A-Scan_AC,2022.2.5,None,
23,Second_Order,4.0,viswhere,stimulus/viswhere_stim/90-deg_dot-right_salmon.png,stimulus/viswhere_stim/150-deg_dot-right_seagreen.png,stimulus/viswhere_stim/150-deg_dot-right_mediumslateblue.png,stimulus/viswhere_stim/150-deg_dot-left_lightsseagreen.png,stimulus/viswhat_stim/match_blank.png,stimulus/viswhat_stim/match_box.png,stimulus/viswhat_stim/match_yes.png,stimulus/viswhat_stim/match_no.png,2.0,Match,Dot,Line,2,5.125,0,5.125,0,5.125,0,5.125,0,0.75,0.75,1,0.5,1,2.125,1,0.5,1,2.125,0,0,0,0,0,0,0,0,0,,,,,0,30,30,30,,,,,,,,,282.00042187498184,287.1238063329947,282.4818891659961,283.46885054098675,284.1043130409671,285.1031433749595,282.00042187498184,282.00042187498184,281.99911283261997,282.00042187498184,282.00042187498184,282.00042187498184,281.99911283261997,282.00042187498184,287.1238063329947,287.920031665999,289.9916852079914,293.89190545800375,287.920031665999,287.920031665999,293.0535912909545,288.3681049159495,289.3754504160024,289.9916852079914,291.0019700829871,287.920031665999,287.920031665999,287.9086912909523,287.920031665999,287.920031665999,287.920031665999,287.9086912909523,287.920031665999,287.920031665999,293.0535912909545,287.920031665999,293.0535912909545,293.10895412496757,293.89190545800375,287.920031665999,2,1,0.8535793329938315,reldom2_s038,001,2025-03-06_13h35.47.365,Vis-A-Scan_AC,2022.2.5,None,
24,Second_Order,4.0,viswhere,stimulus/viswhere_stim/90-deg_dot-left_cyan.png,stimulus/viswhere_stim/60-deg_dot-left_slateblue.png,stimulus/viswhere_stim/120-deg_dot-right_goldenrod.png,stimulus/viswhere_stim/90-deg_dot-right_seagreen.png,stimulus/viswhat_stim/match_blank.png,stimulus/viswhat_stim/match_box.png,stimulus/viswhat_stim/match_yes.png,stimulus/viswhat_stim/match_no.png,1.0,Match,Dot,Dot,1,5.125,0,5.125,0,5.125,0,5.125,0,0.625,0.625,1,0.5,1,2.125,1,0.5,1,2.125,0,0,0,0,0,0,0,0,0,,,,,0,31,31,31,,,,,,,,,293.89190545800375,299.0061385000008,294.377719082986,295.3762917909771,295.99938774999464,296.996774582949,293.89190545800375,293.89190545800375,293.9051444579498,293.89190545800375,293.89190545800375,293.89190545800375,293.9051444579498,293.89190545800375,299.0061385000008,299.6751234579715,301.7621679579606,305.7932659999933,299.6751234579715,299.6751234579715,304.80502579099266,300.13789620797615,301.1494126250036,301.7621679579606,302.78064112499123,299.6751234579715,299.6751234579715,299.6529632493116,299.6751234579715,299.6751234579715,299.6751234579715,299.6529632493116,299.6751234579715,299.6751234579715,304.80502579099266,299.6751234579715,304.80502579099266,304.87432662496576,305.498769333004,299.6751234579715,1,1,0.9384339580428787,reldom2_s038,001,2025-03-06_13h35.47.365,Vis-A-Scan_AC,2022.2.5,None,
0,0.0,None,fixation,stimulus/viswhat_stim/blank_white.png,stimulus/viswhat_stim/blank_white.png,stimulus/viswhere_stim/blank_white.png,stimulus/viswhere_stim/blank_white.png,stimulus/viswhat_stim/blank_white.png,stimulus/viswhat_stim/blank_white.png,stimulus/viswhat_stim/blank_white.png,stimulus/viswhat_stim/blank_white.png,0.0,0.0,0.0,0.0,0,0.0,0,0.0,0,0.0,0,0.0,0,0.0,0.0,0,0.0,0,0.0,0,0.0,0,0.0,0,0,0,0,0,0,0,0,10,,,,,0,32,32,32,,,,,,,,,305.7932659999933,305.7932659999933,305.7932659999933,305.7932659999933,305.7932659999933,305.7932659999933,305.7932659999933,305.7932659999933,305.69579487429775,305.7932659999933,305.7932659999933,305.7932659999933,305.69579487429775,305.7932659999933,305.7932659999933,305.7932659999933,305.7932659999933,305.7932659999933,305.7932659999933,305.7932659999933,305.7932659999933,305.7932659999933,305.7932659999933,305.7932659999933,305.7932659999933,305.7932659999933,305.7932659999933,305.74579487429776,305.7932659999933,305.7932659999933,305.7932659999933,305.74579487429776,305.7932659999933,305.7932659999933,305.7932659999933,305.7932659999933,305.7932659999933,310.9866714999662,310.9866714999662,316.02913712500595,None,0,,reldom2_s038,001,2025-03-06_13h35.47.365,Vis-A-Scan_AC,2022.2.5,None,
25,First_Order,5.0,viswhat,stimulus/viswhat_stim/blank_white.png,stimulus/viswhat_stim/blank_white.png,stimulus/viswhat_stim/land_vehicle-shortbus.png,stimulus/viswhat_stim/land_animal-pig.png,stimulus/viswhat_stim/blank_white.png,stimulus/viswhat_stim/location_box.png,stimulus/viswhat_stim/location_yes.png,stimulus/viswhat_stim/location_no.png,None,Location,None,Location,1,0.0,0,5.125,0,5.125,0,5.125,0,0.0,0.625,0,0.0,0,0.0,1,0.5,1,2.125,0,0,0,0,0,0,0,0,0,,,,,0,33,33,33,,,,,,,,,316.02913712500595,316.02913712500595,316.02913712500595,316.02913712500595,316.02913712500595,316.02913712500595,316.02913712500595,316.02913712500595,315.9902209996168,316.02913712500595,316.02913712500595,316.02913712500595,315.9902209996168,316.02913712500595,316.02913712500595,316.02913712500595,318.1202569580055,322.15589995798655,316.02913712500595,316.02913712500595,321.1770768329734,316.4936047910014,317.51064125000266,318.1202569580055,319.1422410410014,316.02913712500595,316.02913712500595,316.0068876662835,316.02913712500595,316.02913712500595,316.02913712500595,316.0068876662835,316.02913712500595,316.02913712500595,321.1770768329734,316.02913712500595,321.1770768329734,321.2485272079939,321.8803035829915,316.02913712500595,1,1,0.9371653750422411,reldom2_s038,001,2025-03-06_13h35.47.365,Vis-A-Scan_AC,2022.2.5,None,
26,First_Order,5.0,viswhat,stimulus/viswhat_stim/blank_white.png,stimulus/viswhat_stim/blank_white.png,stimulus/viswhat_stim/land_vehicle-rv.png,stimulus/viswhat_stim/land_animal-bunny.png,stimulus/viswhat_stim/blank_white.png,stimulus/viswhat_stim/type_box.png,stimulus/viswhat_stim/type_yes.png,stimulus/viswhat_stim/type_no.png,None,Type,None,Location,2,0.0,0,5.125,0,5.125,0,5.125,0,0.0,0.625,0,0.0,0,0.0,1,0.5,1,2.125,0,0,0,0,0,0,0,0,0,,,,,0,34,34,34,,,,,,,,,322.15589995798655,322.15589995798655,322.15589995798655,322.15589995798655,322.15589995798655,322.15589995798655,322.15589995798655,322.15589995798655,322.07318733297285,322.15589995798655,322.15589995798655,322.15589995798655,322.07318733297285,322.15589995798655,322.15589995798655,322.15589995798655,324.2434461659868,,322.15589995798655,322.15589995798655,327.33643295796355,322.6312436249573,323.6744024999789,324.2434461659868,325.2978667499847,322.15589995798655,322.15589995798655,322.12318733297286,322.15589995798655,322.15589995798655,322.15589995798655,322.12318733297286,322.15589995798655,322.15589995798655,327.33643295796355,322.15589995798655,327.33643295796355,327.3786639999598,328.0476500829682,322.15589995798655,2,1,0.641315917018801,reldom2_s038,001,2025-03-06_13h35.47.365,Vis-A-Scan_AC,2022.2.5,None,
27,First_Order,5.0,viswhat,stimulus/viswhat_stim/blank_white.png,stimulus/viswhat_stim/blank_white.png,stimulus/viswhat_stim/land_animal-zebra.png,stimulus/viswhat_stim/land_vehicle-oldcar.png,stimulus/viswhat_stim/blank_white.png,stimulus/viswhat_stim/location_box.png,stimulus/viswhat_stim/location_yes.png,stimulus/viswhat_stim/location_no.png,None,Location,None,Location,1,0.0,0,5.125,0,5.125,0,5.125,0,0.0,0.625,0,0.0,0,0.0,1,0.5,1,2.125,0,0,0,0,0,0,0,0,0,,,,,0,35,35,35,,,,,,,,,328.2593378329766,328.2593378329766,328.2593378329766,328.2593378329766,328.2593378329766,328.2593378329766,328.2593378329766,328.2593378329766,328.1809834163015,328.2593378329766,328.2593378329766,328.2593378329766,328.1809834163015,328.2593378329766,328.2593378329766,328.2593378329766,330.36386133299675,334.3311760829529,328.2593378329766,328.2593378329766,333.43798141600564,328.7420194579754,329.79600383300567,330.36386133299675,331.42144999996526,328.2593378329766,328.2593378329766,328.2309834163015,328.2593378329766,328.2593378329766,328.2593378329766,328.2309834163015,328.2593378329766,328.2593378329766,333.43798141600564,328.2593378329766,333.43798141600564,333.47670262499014,334.1251115409541,328.2593378329766,1,1,0.7829046660335734,reldom2_s038,001,2025-03-06_13h35.47.365,Vis-A-Scan_AC,2022.2.5,None,
28,First_Order,5.0,viswhat,stimulus/viswhat_stim/blank_white.png,stimulus/viswhat_stim/blank_white.png,stimulus/viswhat_stim/water_vehicle-canoe.png,stimulus/viswhat_stim/land_vehicle-trolley.png,stimulus/viswhat_stim/blank_white.png,stimulus/viswhat_stim/type_box.png,stimulus/viswhat_stim/type_yes.png,stimulus/viswhat_stim/type_no.png,None,Type,None,Type,1,0.0,0,5.125,0,5.125,0,5.125,0,0.0,0.625,0,0.0,0,0.0,1,0.5,1,2.125,0,0,0,0,0,0,0,0,0,,,,,0,36,36,36,,,,,,,,,334.3311760829529,334.3311760829529,334.3311760829529,334.3311760829529,334.3311760829529,334.3311760829529,334.3311760829529,334.3311760829529,334.2962103743067,334.3311760829529,334.3311760829529,334.3311760829529,334.2962103743067,334.3311760829529,334.3311760829529,334.3311760829529,336.4316953329835,340.48039295797935,334.3311760829529,334.3311760829529,339.4659625829663,334.8174979999894,335.84339920798084,336.4316953329835,337.46385741600534,334.3311760829529,334.3311760829529,334.3128770409734,334.3311760829529,334.3311760829529,334.3311760829529,334.3128770409734,334.3311760829529,334.3311760829529,339.4659625829663,334.3311760829529,339.4659625829663,339.5462768749567,340.18710887496127,334.3311760829529,1,1,1.1266932500293478,reldom2_s038,001,2025-03-06_13h35.47.365,Vis-A-Scan_AC,2022.2.5,None,
0,0.0,None,fixation,stimulus/viswhat_stim/blank_white.png,stimulus/viswhat_stim/blank_white.png,stimulus/viswhere_stim/blank_white.png,stimulus/viswhere_stim/blank_white.png,stimulus/viswhat_stim/blank_white.png,stimulus/viswhat_stim/blank_white.png,stimulus/viswhat_stim/blank_white.png,stimulus/viswhat_stim/blank_white.png,0.0,0.0,0.0,0.0,0,0.0,0,0.0,0,0.0,0,0.0,0,0.0,0.0,0,0.0,0,0.0,0,0.0,0,0.0,0,0,0,0,0,0,0,0,9,,,,,0,37,37,37,,,,,,,,,340.48039295797935,340.48039295797935,340.48039295797935,340.48039295797935,340.48039295797935,340.48039295797935,340.48039295797935,340.48039295797935,340.38679445799204,340.48039295797935,340.48039295797935,340.48039295797935,340.38679445799204,340.48039295797935,340.48039295797935,340.48039295797935,340.48039295797935,340.48039295797935,340.48039295797935,340.48039295797935,340.48039295797935,340.48039295797935,340.48039295797935,340.48039295797935,340.48039295797935,340.48039295797935,340.48039295797935,340.43679445799205,340.48039295797935,340.48039295797935,340.48039295797935,340.43679445799205,340.48039295797935,340.48039295797935,340.48039295797935,340.48039295797935,340.48039295797935,345.6606997909839,345.6606997909839,349.6314756249776,None,0,,reldom2_s038,001,2025-03-06_13h35.47.365,Vis-A-Scan_AC,2022.2.5,None,
29,Second_Order,5.0,viswhat,stimulus/viswhat_stim/land_vehicle-schoolbus.png,stimulus/viswhat_stim/land_animal-snake.png,stimulus/viswhat_stim/water_vehicle-cruiser.png,stimulus/viswhat_stim/water_animal-whale.png,stimulus/viswhat_stim/match_blank.png,stimulus/viswhat_stim/match_box.png,stimulus/viswhat_stim/match_yes.png,stimulus/viswhat_stim/match_no.png,1.0,Match,Location,Location,1,5.125,0,5.125,0,5.125,0,5.125,0,0.75,0.75,1,0.5,1,2.125,1,0.5,1,2.125,0,0,0,0,0,0,0,0,0,,,,,0,38,38,38,,,,,,,,,349.6314756249776,354.7517647909699,350.1061476659961,351.10544612497324,351.7278070829925,352.72533549997024,349.6314756249776,349.6314756249776,349.6390652912979,349.6314756249776,349.6314756249776,349.6314756249776,349.6390652912979,349.6314756249776,354.7517647909699,355.65282420796575,357.7088492079638,,355.65282420796575,355.65282420796575,360.8662346659694,356.0635767909698,357.1592280829791,357.7088492079638,358.809493040957,355.65282420796575,355.65282420796575,355.58637508298267,355.65282420796575,355.65282420796575,355.65282420796575,355.58637508298267,355.65282420796575,355.65282420796575,360.8662346659694,355.65282420796575,360.8662346659694,360.80312220798805,,355.65282420796575,1,1,1.0653820839943364,reldom2_s038,001,2025-03-06_13h35.47.365,Vis-A-Scan_AC,2022.2.5,None,
30,Second_Order,5.0,viswhat,stimulus/viswhat_stim/land_vehicle-tank.png,stimulus/viswhat_stim/water_vehicle-cabincruiser.png,stimulus/viswhat_stim/land_animal-pig.png,stimulus/viswhat_stim/water_animal-stingray.png,stimulus/viswhat_stim/match_blank.png,stimulus/viswhat_stim/match_box.png,stimulus/viswhat_stim/match_yes.png,stimulus/viswhat_stim/match_no.png,1.0,Match,Type,Type,1,5.125,0,5.125,0,5.125,0,5.125,0,0.625,0.625,1,0.5,1,2.125,1,0.5,1,2.125,0,0,0,0,0,0,0,0,0,,,,,0,39,39,39,,,,,,,,,361.58556474995567,366.7075529579888,362.04926729097497,363.03616337495623,363.6720738330041,364.66966349998256,361.58556474995567,361.58556474995567,361.58476687499785,361.58556474995567,361.58556474995567,361.58556474995567,361.58476687499785,361.58556474995567,366.7075529579888,367.3877202079748,369.4572636249941,373.5147761660046,367.3877202079748,367.3877202079748,372.5325207079877,367.84545929095475,368.8682644159999,369.4572636249941,370.4616811659653,367.3877202079748,367.3877202079748,367.35927941633463,367.3877202079748,367.3877202079748,367.3877202079748,367.35927941633463,367.3877202079748,367.3877202079748,372.5325207079877,367.3877202079748,372.5325207079877,372.580844082986,373.2081036659656,367.3877202079748,2,0,2.363663250056561,reldom2_s038,001,2025-03-06_13h35.47.365,Vis-A-Scan_AC,2022.2.5,None,
0,0.0,None,fixation,stimulus/viswhat_stim/blank_white.png,stimulus/viswhat_stim/blank_white.png,stimulus/viswhere_stim/blank_white.png,stimulus/viswhere_stim/blank_white.png,stimulus/viswhat_stim/blank_white.png,stimulus/viswhat_stim/blank_white.png,stimulus/viswhat_stim/blank_white.png,stimulus/viswhat_stim/blank_white.png,0.0,0.0,0.0,0.0,0,0.0,0,0.0,0,0.0,0,0.0,0,0.0,0.0,0,0.0,0,0.0,0,0.0,0,0.0,0,0,0,0,0,0,0,0,10,,,,,0,40,40,40,,,,,,,,,373.5147761660046,373.5147761660046,373.5147761660046,373.5147761660046,373.5147761660046,373.5147761660046,373.5147761660046,373.5147761660046,373.4085194583361,373.5147761660046,373.5147761660046,373.5147761660046,373.4085194583361,373.5147761660046,373.5147761660046,373.5147761660046,373.5147761660046,373.5147761660046,373.5147761660046,373.5147761660046,373.5147761660046,373.5147761660046,373.5147761660046,373.5147761660046,373.5147761660046,373.5147761660046,373.5147761660046,373.4751861250028,373.5147761660046,373.5147761660046,373.5147761660046,373.4751861250028,373.5147761660046,373.5147761660046,373.5147761660046,373.5147761660046,373.5147761660046,378.7225914580049,378.7225914580049,383.6980927909608,None,0,,reldom2_s038,001,2025-03-06_13h35.47.365,Vis-A-Scan_AC,2022.2.5,None,
31,First_Order,6.0,viswhat,stimulus/viswhat_stim/blank_white.png,stimulus/viswhat_stim/blank_white.png,stimulus/viswhat_stim/land_vehicle-rv.png,stimulus/viswhat_stim/land_animal-ostrich.png,stimulus/viswhat_stim/blank_white.png,stimulus/viswhat_stim/type_box.png,stimulus/viswhat_stim/type_yes.png,stimulus/viswhat_stim/type_no.png,None,Type,None,Location,2,0.0,0,5.125,0,5.125,0,5.125,0,0.0,0.625,0,0.0,0,0.0,1,0.5,1,2.125,0,0,0,0,0,0,0,0,0,,,,,0,41,41,41,,,,,,,,,383.6980927909608,383.6980927909608,383.6980927909608,383.6980927909608,383.6980927909608,383.6980927909608,383.6980927909608,383.6980927909608,383.6678061666704,383.6980927909608,383.6980927909608,383.6980927909608,383.6678061666704,383.6980927909608,383.6980927909608,383.6980927909608,385.8087062079576,389.8427222909522,383.6980927909608,383.6980927909608,388.83317162498133,384.17775054095546,385.18503912497545,385.8087062079576,386.81982241600053,383.6980927909608,383.6980927909608,383.6844728333371,383.6980927909608,383.6980927909608,383.6980927909608,383.6844728333371,383.6980927909608,383.6980927909608,388.83317162498133,383.6980927909608,388.83317162498133,388.9071153329569,389.5373225410003,383.6980927909608,2,1,0.9620635420433246,reldom2_s038,001,2025-03-06_13h35.47.365,Vis-A-Scan_AC,2022.2.5,None,
32,First_Order,6.0,viswhat,stimulus/viswhat_stim/blank_white.png,stimulus/viswhat_stim/blank_white.png,stimulus/viswhat_stim/land_animal-moose.png,stimulus/viswhat_stim/water_animal-dolphin.png,stimulus/viswhat_stim/blank_white.png,stimulus/viswhat_stim/type_box.png,stimulus/viswhat_stim/type_yes.png,stimulus/viswhat_stim/type_no.png,None,Type,None,Type,1,0.0,0,5.125,0,5.125,0,5.125,0,0.0,0.625,0,0.0,0,0.0,1,0.5,1,2.125,0,0,0,0,0,0,0,0,0,,,,,0,42,42,42,,,,,,,,,389.8427222909522,389.8427222909522,389.8427222909522,389.8427222909522,389.8427222909522,389.8427222909522,389.8427222909522,389.8427222909522,389.7477768329787,389.8427222909522,389.8427222909522,389.8427222909522,389.7477768329787,389.8427222909522,389.8427222909522,389.8427222909522,391.9496290409588,,389.8427222909522,389.8427222909522,395.04826820798917,390.3105577909737,391.3654368330026,391.9496290409588,393.00376304099336,389.8427222909522,389.8427222909522,389.7977768329787,389.8427222909522,389.8427222909522,389.8427222909522,389.7977768329787,389.8427222909522,389.8427222909522,395.04826820798917,389.8427222909522,395.04826820798917,395.04826820798917,395.90170495799975,389.8427222909522,1,1,0.49252770806197077,reldom2_s038,001,2025-03-06_13h35.47.365,Vis-A-Scan_AC,2022.2.5,None,
33,First_Order,6.0,viswhat,stimulus/viswhat_stim/blank_white.png,stimulus/viswhat_stim/blank_white.png,stimulus/viswhat_stim/land_vehicle-buldozer.png,stimulus/viswhat_stim/water_vehicle-canoe.png,stimulus/viswhat_stim/blank_white.png,stimulus/viswhat_stim/location_box.png,stimulus/viswhat_stim/location_yes.png,stimulus/viswhat_stim/location_no.png,None,Location,None,Type,2,0.0,0,5.125,0,5.125,0,5.125,0,0.0,0.625,0,0.0,0,0.0,1,0.5,1,2.125,0,0,0,0,0,0,0,0,0,,,,,0,43,43,43,,,,,,,,,395.90170495799975,395.90170495799975,395.90170495799975,395.90170495799975,395.90170495799975,395.90170495799975,395.90170495799975,395.90170495799975,395.85133354165976,395.90170495799975,395.90170495799975,395.90170495799975,395.85133354165976,395.90170495799975,395.90170495799975,395.90170495799975,397.9965559159755,401.97350383299636,395.90170495799975,395.90170495799975,401.06774545798544,396.37092987500364,397.41993462498067,397.9965559159755,399.04508187499596,395.90170495799975,395.90170495799975,395.86800020832646,395.90170495799975,395.90170495799975,395.90170495799975,395.86800020832646,395.90170495799975,395.90170495799975,401.06774545798544,395.90170495799975,401.06774545798544,401.12892208294943,401.76908066595206,395.90170495799975,2,1,1.3894570000120439,reldom2_s038,001,2025-03-06_13h35.47.365,Vis-A-Scan_AC,2022.2.5,None,
34,First_Order,6.0,viswhat,stimulus/viswhat_stim/blank_white.png,stimulus/viswhat_stim/blank_white.png,stimulus/viswhat_stim/land_vehicle-scooter.png,stimulus/viswhat_stim/water_vehicle-motorboatraft.png,stimulus/viswhat_stim/blank_white.png,stimulus/viswhat_stim/location_box.png,stimulus/viswhat_stim/location_yes.png,stimulus/viswhat_stim/location_no.png,None,Location,None,Type,2,0.0,0,5.125,0,5.125,0,5.125,0,0.0,0.625,0,0.0,0,0.0,1,0.5,1,2.125,0,0,0,0,0,0,0,0,0,,,,,0,44,44,44,,,,,,,,,401.97350383299636,401.97350383299636,401.97350383299636,401.97350383299636,401.97350383299636,401.97350383299636,401.97350383299636,401.97350383299636,401.94637962462537,401.97350383299636,401.97350383299636,401.97350383299636,401.94637962462537,401.97350383299636,401.97350383299636,401.97350383299636,404.08421012497274,408.11413295799866,401.97350383299636,401.97350383299636,407.1084767499706,402.4501370409853,403.4658419159823,404.08421012497274,405.1038331249729,401.97350383299636,401.97350383299636,401.963046291292,401.97350383299636,401.97350383299636,401.97350383299636,401.963046291292,401.97350383299636,401.97350383299636,407.1084767499706,401.97350383299636,407.1084767499706,407.2032509999699,407.8375923749991,401.97350383299636,2,1,0.8337588750291616,reldom2_s038,001,2025-03-06_13h35.47.365,Vis-A-Scan_AC,2022.2.5,None,
0,0.0,None,fixation,stimulus/viswhat_stim/blank_white.png,stimulus/viswhat_stim/blank_white.png,stimulus/viswhere_stim/blank_white.png,stimulus/viswhere_stim/blank_white.png,stimulus/viswhat_stim/blank_white.png,stimulus/viswhat_stim/blank_white.png,stimulus/viswhat_stim/blank_white.png,stimulus/viswhat_stim/blank_white.png,0.0,0.0,0.0,0.0,0,0.0,0,0.0,0,0.0,0,0.0,0,0.0,0.0,0,0.0,0,0.0,0,0.0,0,0.0,0,0,0,0,0,0,0,0,8,,,,,0,45,45,45,,,,,,,,,408.11413295799866,408.11413295799866,408.11413295799866,408.11413295799866,408.11413295799866,408.11413295799866,408.11413295799866,408.11413295799866,408.01341324930155,408.11413295799866,408.11413295799866,408.11413295799866,408.01341324930155,408.11413295799866,408.11413295799866,408.11413295799866,408.11413295799866,408.11413295799866,408.11413295799866,408.11413295799866,408.11413295799866,408.11413295799866,408.11413295799866,408.11413295799866,408.11413295799866,408.11413295799866,408.11413295799866,408.06341324930156,408.11413295799866,408.11413295799866,408.11413295799866,408.06341324930156,408.11413295799866,408.11413295799866,408.11413295799866,408.11413295799866,408.11413295799866,413.31117337499745,413.31117337499745,416.2983108329936,None,0,,reldom2_s038,001,2025-03-06_13h35.47.365,Vis-A-Scan_AC,2022.2.5,None,
35,Second_Order,6.0,viswhat,stimulus/viswhat_stim/land_vehicle-train.png,stimulus/viswhat_stim/land_animal-moose.png,stimulus/viswhat_stim/land_vehicle-schoolbus.png,stimulus/viswhat_stim/water_vehicle-sailboat.png,stimulus/viswhat_stim/match_blank.png,stimulus/viswhat_stim/match_box.png,stimulus/viswhat_stim/match_yes.png,stimulus/viswhat_stim/match_no.png,2.0,Match,Location,Type,2,5.125,0,5.125,0,5.125,0,5.125,0,0.75,0.75,1,0.5,1,2.125,1,0.5,1,2.125,0,0,0,0,0,0,0,0,0,,,,,0,46,46,46,,,,,,,,,416.2983108329936,421.42201537499204,416.74203845800366,417.7297406249563,418.36508670798503,419.36254887498217,416.2983108329936,416.2983108329936,416.3107275826429,416.2983108329936,416.2983108329936,416.2983108329936,416.3107275826429,416.2983108329936,421.42201537499204,422.2860769580002,424.3361605409882,,422.2860769580002,422.2860769580002,427.4715523329796,422.6967164159869,423.7729723749799,424.3361605409882,425.42030312499264,422.2860769580002,422.2860769580002,422.23938637432485,422.2860769580002,422.2860769580002,422.2860769580002,422.23938637432485,422.2860769580002,422.2860769580002,427.4715523329796,422.2860769580002,427.4715523329796,427.4715523329796,,422.2860769580002,2,1,0.7048357500461861,reldom2_s038,001,2025-03-06_13h35.47.365,Vis-A-Scan_AC,2022.2.5,None,
36,Second_Order,6.0,viswhat,stimulus/viswhat_stim/land_animal-moose.png,stimulus/viswhat_stim/land_vehicle-schoolbus.png,stimulus/viswhat_stim/land_vehicle-pickuptruck.png,stimulus/viswhat_stim/water_vehicle-canoe(1).png,stimulus/viswhat_stim/match_blank.png,stimulus/viswhat_stim/match_box.png,stimulus/viswhat_stim/match_yes.png,stimulus/viswhat_stim/match_no.png,2.0,Match,Location,Type,2,5.125,0,5.125,0,5.125,0,5.125,0,0.625,0.625,1,0.5,1,2.125,1,0.5,1,2.125,0,0,0,0,0,0,0,0,0,,,,,0,47,47,47,,,,,,,,,428.25475579098566,433.37832374998834,428.7005665829638,429.68955629097763,430.3263204579707,431.32371612498537,428.25475579098566,428.25475579098566,428.2631831659586,428.25475579098566,428.25475579098566,428.25475579098566,428.2631831659586,428.25475579098566,433.37832374998834,434.0594600409968,436.14613629097585,440.18691683298675,434.0594600409968,434.0594600409968,439.2035949580022,434.511648457963,435.523411415983,436.14613629097585,437.1610215829569,434.0594600409968,434.0594600409968,434.04661987496075,434.0594600409968,434.0594600409968,434.0594600409968,434.04661987496075,434.0594600409968,434.0594600409968,439.2035949580022,434.0594600409968,439.2035949580022,439.25334391597426,439.8788574579521,434.0594600409968,2,1,0.5916653340100311,reldom2_s038,001,2025-03-06_13h35.47.365,Vis-A-Scan_AC,2022.2.5,None,
0,0.0,None,fixation,stimulus/viswhat_stim/blank_white.png,stimulus/viswhat_stim/blank_white.png,stimulus/viswhere_stim/blank_white.png,stimulus/viswhere_stim/blank_white.png,stimulus/viswhat_stim/blank_white.png,stimulus/viswhat_stim/blank_white.png,stimulus/viswhat_stim/blank_white.png,stimulus/viswhat_stim/blank_white.png,0.0,0.0,0.0,0.0,0,0.0,0,0.0,0,0.0,0,0.0,0,0.0,0.0,0,0.0,0,0.0,0,0.0,0,0.0,0,0,0,0,0,0,0,0,8,,,,,0,48,48,48,,,,,,,,,440.18691683298675,440.18691683298675,440.18691683298675,440.18691683298675,440.18691683298675,440.18691683298675,440.18691683298675,440.18691683298675,440.0802943743377,440.18691683298675,440.18691683298675,440.18691683298675,440.0802943743377,440.18691683298675,440.18691683298675,440.18691683298675,440.18691683298675,440.18691683298675,440.18691683298675,440.18691683298675,440.18691683298675,440.18691683298675,440.18691683298675,440.18691683298675,440.18691683298675,440.18691683298675,440.18691683298675,440.1469610410044,440.18691683298675,440.18691683298675,440.18691683298675,440.1469610410044,440.18691683298675,440.18691683298675,440.18691683298675,440.18691683298675,440.18691683298675,445.4005403329502,445.4005403329502,448.4059772909968,None,0,,reldom2_s038,001,2025-03-06_13h35.47.365,Vis-A-Scan_AC,2022.2.5,None,
37,First_Order,7.0,viswhere,stimulus/viswhere_stim/blank_white.png,stimulus/viswhere_stim/blank_white.png,stimulus/viswhere_stim/120-deg_dot-right_turquoise.png,stimulus/viswhere_stim/120-deg_dot-left_slateblue.png,stimulus/viswhere_stim/blank_white.png,stimulus/viswhere_stim/line_box.png,stimulus/viswhere_stim/line_yes.png,stimulus/viswhere_stim/line_no.png,None,Line,None,Line,1,0.0,0,5.125,0,5.125,0,5.125,0,0.0,0.625,0,0.0,0,0.0,1,0.5,1,2.125,0,0,0,0,0,0,0,0,0,,,,,0,49,49,49,,,,,,,,,448.4059772909968,448.4059772909968,448.4059772909968,448.4059772909968,448.4059772909968,448.4059772909968,448.4059772909968,448.4059772909968,448.38617224966094,448.4059772909968,448.4059772909968,448.4059772909968,448.38617224966094,448.4059772909968,448.4059772909968,448.4059772909968,450.5009862079751,454.46368695795536,448.4059772909968,448.4059772909968,453.5288283749833,448.88216162496246,449.8935291660018,450.5009862079751,451.5165317909559,448.4059772909968,448.4059772909968,448.40283891632765,448.4059772909968,448.4059772909968,448.4059772909968,448.40283891632765,448.4059772909968,448.4059772909968,453.5288283749833,448.4059772909968,453.5288283749833,453.62681420799345,454.2621472909814,448.4059772909968,1,1,1.0040836250409484,reldom2_s038,001,2025-03-06_13h35.47.365,Vis-A-Scan_AC,2022.2.5,None,
38,First_Order,7.0,viswhere,stimulus/viswhere_stim/blank_white.png,stimulus/viswhere_stim/blank_white.png,stimulus/viswhere_stim/30-deg_dot-right_royalblue.png,stimulus/viswhere_stim/30-deg_dot-left_royalblue.png,stimulus/viswhere_stim/blank_white.png,stimulus/viswhere_stim/dot_box.png,stimulus/viswhere_stim/dot_yes.png,stimulus/viswhere_stim/dot_no.png,None,Dot,None,Line,2,0.0,0,5.125,0,5.125,0,5.125,0,0.0,0.625,0,0.0,0,0.0,1,0.5,1,2.125,0,0,0,0,0,0,0,0,0,,,,,0,50,50,50,,,,,,,,,454.46368695795536,454.46368695795536,454.46368695795536,454.46368695795536,454.46368695795536,454.46368695795536,454.46368695795536,454.46368695795536,454.4428297493335,454.46368695795536,454.46368695795536,454.46368695795536,454.4428297493335,454.46368695795536,454.46368695795536,454.46368695795536,456.5770624160068,460.5448529999703,454.46368695795536,454.46368695795536,459.59232112497557,454.9394013329875,455.94949779094895,456.5770624160068,457.5926204159623,454.46368695795536,454.46368695795536,454.45949641600015,454.46368695795536,454.46368695795536,454.46368695795536,454.45949641600015,454.46368695795536,454.46368695795536,459.59232112497557,454.46368695795536,459.59232112497557,459.7052054159576,460.3564423749922,454.46368695795536,2,1,0.8760713749798015,reldom2_s038,001,2025-03-06_13h35.47.365,Vis-A-Scan_AC,2022.2.5,None,
39,First_Order,7.0,viswhere,stimulus/viswhere_stim/blank_white.png,stimulus/viswhere_stim/blank_white.png,stimulus/viswhere_stim/150-deg_dot-left_peru.png,stimulus/viswhere_stim/30-deg_dot-left_goldenrod.png,stimulus/viswhere_stim/blank_white.png,stimulus/viswhere_stim/line_box.png,stimulus/viswhere_stim/line_yes.png,stimulus/viswhere_stim/line_no.png,None,Line,None,Dot,2,0.0,0,5.125,0,5.125,0,5.125,0,0.0,0.625,0,0.0,0,0.0,1,0.5,1,2.125,0,0,0,0,0,0,0,0,0,,,,,0,51,51,51,,,,,,,,,460.5448529999703,460.5448529999703,460.5448529999703,460.5448529999703,460.5448529999703,460.5448529999703,460.5448529999703,460.5448529999703,460.5235115413282,460.5448529999703,460.5448529999703,460.5448529999703,460.5235115413282,460.5448529999703,460.5448529999703,460.5448529999703,462.6528201249894,466.6134483329952,460.5448529999703,460.5448529999703,465.6743010409991,461.0248535829596,462.04275708296336,462.6528201249894,463.6586639159941,460.5448529999703,460.5448529999703,460.54017820799487,460.5448529999703,460.5448529999703,460.5448529999703,460.54017820799487,460.5448529999703,460.5448529999703,465.6743010409991,460.5448529999703,465.6743010409991,465.7716252079699,466.39736070798244,460.5448529999703,2,1,1.147707625059411,reldom2_s038,001,2025-03-06_13h35.47.365,Vis-A-Scan_AC,2022.2.5,None,
40,First_Order,7.0,viswhere,stimulus/viswhere_stim/blank_white.png,stimulus/viswhere_stim/blank_white.png,stimulus/viswhere_stim/120-deg_dot-left_royalblue.png,stimulus/viswhere_stim/120-deg_dot-right_slateblue.png,stimulus/viswhere_stim/blank_white.png,stimulus/viswhere_stim/dot_box.png,stimulus/viswhere_stim/dot_yes.png,stimulus/viswhere_stim/dot_no.png,None,Dot,None,Line,2,0.0,0,5.125,0,5.125,0,5.125,0,0.0,0.625,0,0.0,0,0.0,1,0.5,1,2.125,0,0,0,0,0,0,0,0,0,,,,,0,52,52,52,,,,,,,,,466.6134483329952,466.6134483329952,466.6134483329952,466.6134483329952,466.6134483329952,466.6134483329952,466.6134483329952,466.6134483329952,466.59175508331583,466.6134483329952,466.6134483329952,466.6134483329952,466.59175508331583,466.6134483329952,466.6134483329952,466.6134483329952,468.72564658295596,472.75070316600613,466.6134483329952,466.6134483329952,471.7420593749848,467.0896883329842,468.0987247079611,468.72564658295596,469.74415283295093,466.6134483329952,466.6134483329952,466.6084217499825,466.6134483329952,466.6134483329952,466.6134483329952,466.6084217499825,466.6134483329952,466.6134483329952,471.7420593749848,466.6134483329952,471.7420593749848,471.83737354096957,472.4677226659842,466.6134483329952,2,1,0.7046327920397744,reldom2_s038,001,2025-03-06_13h35.47.365,Vis-A-Scan_AC,2022.2.5,None,
0,0.0,None,fixation,stimulus/viswhat_stim/blank_white.png,stimulus/viswhat_stim/blank_white.png,stimulus/viswhere_stim/blank_white.png,stimulus/viswhere_stim/blank_white.png,stimulus/viswhat_stim/blank_white.png,stimulus/viswhat_stim/blank_white.png,stimulus/viswhat_stim/blank_white.png,stimulus/viswhat_stim/blank_white.png,0.0,0.0,0.0,0.0,0,0.0,0,0.0,0,0.0,0,0.0,0,0.0,0.0,0,0.0,0,0.0,0,0.0,0,0.0,0,0,0,0,0,0,0,0,9,,,,,0,53,53,53,,,,,,,,,472.75070316600613,472.75070316600613,472.75070316600613,472.75070316600613,472.75070316600613,472.75070316600613,472.75070316600613,472.75070316600613,472.65155733332114,472.75070316600613,472.75070316600613,472.75070316600613,472.65155733332114,472.75070316600613,472.75070316600613,472.75070316600613,472.75070316600613,472.75070316600613,472.75070316600613,472.75070316600613,472.75070316600613,472.75070316600613,472.75070316600613,472.75070316600613,472.75070316600613,472.75070316600613,472.75070316600613,472.70155733332115,472.75070316600613,472.75070316600613,472.75070316600613,472.70155733332115,472.75070316600613,472.75070316600613,472.75070316600613,472.75070316600613,472.75070316600613,477.9423612909741,477.9423612909741,481.8731799160014,None,0,,reldom2_s038,001,2025-03-06_13h35.47.365,Vis-A-Scan_AC,2022.2.5,None,
41,Second_Order,7.0,viswhere,stimulus/viswhere_stim/90-deg_dot-right_seagreen.png,stimulus/viswhere_stim/90-deg_dot-left_salmon.png,stimulus/viswhere_stim/60-deg_dot-left_slateblue.png,stimulus/viswhere_stim/60-deg_dot-right_lightsseagreen.png,stimulus/viswhat_stim/match_blank.png,stimulus/viswhat_stim/match_box.png,stimulus/viswhat_stim/match_yes.png,stimulus/viswhat_stim/match_no.png,1.0,Match,Line,Line,1,5.125,0,5.125,0,5.125,0,5.125,0,0.75,0.75,1,0.5,1,2.125,1,0.5,1,2.125,0,0,0,0,0,0,0,0,0,,,,,0,54,54,54,,,,,,,,,481.8731799160014,486.98994383297395,482.3434874159866,483.3303858329891,483.9786314579542,484.9680041249958,481.8731799160014,481.8731799160014,481.88679087432877,481.8731799160014,481.8731799160014,481.8731799160014,481.88679087432877,481.8731799160014,486.98994383297395,487.7836135409889,489.8698335409863,493.7556988329743,487.7836135409889,487.7836135409889,492.9153537079692,488.2265151659958,489.2397376659792,489.8698335409863,490.888136708003,487.7836135409889,487.7836135409889,487.7735713749542,487.7836135409889,487.7836135409889,487.7836135409889,487.7735713749542,487.7836135409889,487.7836135409889,492.9153537079692,487.7836135409889,492.9153537079692,492.9850354579976,493.7556988329743,487.7836135409889,1,1,0.6954935420071706,reldom2_s038,001,2025-03-06_13h35.47.365,Vis-A-Scan_AC,2022.2.5,None,
42,Second_Order,7.0,viswhere,stimulus/viswhere_stim/150-deg_dot-left_cyan.png,stimulus/viswhere_stim/60-deg_dot-left_royalblue.png,stimulus/viswhere_stim/30-deg_dot-right_mediumslateblue.png,stimulus/viswhere_stim/90-deg_dot-right_peru.png,stimulus/viswhat_stim/match_blank.png,stimulus/viswhat_stim/match_box.png,stimulus/viswhat_stim/match_yes.png,stimulus/viswhat_stim/match_no.png,1.0,Match,Dot,Dot,1,5.125,0,5.125,0,5.125,0,5.125,0,0.625,0.625,1,0.5,1,2.125,1,0.5,1,2.125,0,0,0,0,0,0,0,0,0,,,,,0,55,55,55,,,,,,,,,493.7556988329743,498.8676366659929,494.23758179100696,495.22879370796727,495.86076745798346,496.858665207983,493.7556988329743,493.7556988329743,493.7699585000053,493.7556988329743,493.7556988329743,493.7556988329743,493.7699585000053,493.7556988329743,498.8676366659929,499.53687545796856,501.62684979097685,505.6586351249716,499.53687545796856,499.53687545796856,504.67211862496333,499.99965266598156,501.01427258295007,501.62684979097685,502.64437662495766,499.53687545796856,499.53687545796856,499.51456208329955,499.53687545796856,499.53687545796856,499.53687545796856,499.51456208329955,499.53687545796856,499.53687545796856,504.67211862496333,499.53687545796856,504.67211862496333,504.7592391659855,505.38744783296715,499.53687545796856,None,0,,reldom2_s038,001,2025-03-06_13h35.47.365,Vis-A-Scan_AC,2022.2.5,None,
0,0.0,None,fixation,stimulus/viswhat_stim/blank_white.png,stimulus/viswhat_stim/blank_white.png,stimulus/viswhere_stim/blank_white.png,stimulus/viswhere_stim/blank_white.png,stimulus/viswhat_stim/blank_white.png,stimulus/viswhat_stim/blank_white.png,stimulus/viswhat_stim/blank_white.png,stimulus/viswhat_stim/blank_white.png,0.0,0.0,0.0,0.0,0,0.0,0,0.0,0,0.0,0,0.0,0,0.0,0.0,0,0.0,0,0.0,0,0.0,0,0.0,0,0,0,0,0,0,0,0,8,,,,,0,56,56,56,,,,,,,,,505.6586351249716,505.6586351249716,505.6586351249716,505.6586351249716,505.6586351249716,505.6586351249716,505.6586351249716,505.6586351249716,505.55775349932566,505.6586351249716,505.6586351249716,505.6586351249716,505.55775349932566,505.6586351249716,505.6586351249716,505.6586351249716,505.6586351249716,505.6586351249716,505.6586351249716,505.6586351249716,505.6586351249716,505.6586351249716,505.6586351249716,505.6586351249716,505.6586351249716,505.6586351249716,505.6586351249716,505.60775349932567,505.6586351249716,505.6586351249716,505.6586351249716,505.60775349932567,505.6586351249716,505.6586351249716,505.6586351249716,505.6586351249716,505.6586351249716,510.886695166002,510.886695166002,513.8494970829925,None,0,,reldom2_s038,001,2025-03-06_13h35.47.365,Vis-A-Scan_AC,2022.2.5,None,
43,First_Order,8.0,viswhere,stimulus/viswhere_stim/blank_white.png,stimulus/viswhere_stim/blank_white.png,stimulus/viswhere_stim/150-deg_dot-left_lightsseagreen.png,stimulus/viswhere_stim/30-deg_dot-left_salmon.png,stimulus/viswhere_stim/blank_white.png,stimulus/viswhere_stim/dot_box.png,stimulus/viswhere_stim/dot_yes.png,stimulus/viswhere_stim/dot_no.png,None,Dot,None,Dot,1,0.0,0,5.125,0,5.125,0,5.125,0,0.0,0.625,0,0.0,0,0.0,1,0.5,1,2.125,0,0,0,0,0,0,0,0,0,,,,,0,57,57,57,,,,,,,,,513.8494970829925,513.8494970829925,513.8494970829925,513.8494970829925,513.8494970829925,513.8494970829925,513.8494970829925,513.8494970829925,513.8299239166469,513.8494970829925,513.8494970829925,513.8494970829925,513.8299239166469,513.8494970829925,513.8494970829925,513.8494970829925,515.953277915949,519.9161286249873,513.8494970829925,513.8494970829925,518.9831409159815,514.328290415986,515.3434972079704,515.953277915949,516.9723372909939,513.8494970829925,513.8494970829925,513.8299239166469,513.8494970829925,513.8494970829925,513.8494970829925,513.8299239166469,513.8494970829925,513.8494970829925,518.9831409159815,513.8494970829925,518.9831409159815,519.0666206659516,519.6976372500067,513.8494970829925,1,1,1.7184665420209058,reldom2_s038,001,2025-03-06_13h35.47.365,Vis-A-Scan_AC,2022.2.5,None,
44,First_Order,8.0,viswhere,stimulus/viswhere_stim/blank_white.png,stimulus/viswhere_stim/blank_white.png,stimulus/viswhere_stim/150-deg_dot-right_seagreen.png,stimulus/viswhere_stim/150-deg_dot-left_goldenrod.png,stimulus/viswhere_stim/blank_white.png,stimulus/viswhere_stim/line_box.png,stimulus/viswhere_stim/line_yes.png,stimulus/viswhere_stim/line_no.png,None,Line,None,Line,1,0.0,0,5.125,0,5.125,0,5.125,0,0.0,0.625,0,0.0,0,0.0,1,0.5,1,2.125,0,0,0,0,0,0,0,0,0,,,,,0,58,58,58,,,,,,,,,519.9161286249873,519.9161286249873,519.9161286249873,519.9161286249873,519.9161286249873,519.9161286249873,519.9161286249873,519.9161286249873,519.8939354582884,519.9161286249873,519.9161286249873,519.9161286249873,519.8939354582884,519.9161286249873,519.9161286249873,519.9161286249873,522.0201001659734,525.9766033749911,519.9161286249873,519.9161286249873,525.0562537079677,520.3999304999597,521.4057512079598,522.0201001659734,523.0274557909579,519.9161286249873,519.9161286249873,519.9106021249551,519.9161286249873,519.9161286249873,519.9161286249873,519.9106021249551,519.9161286249873,519.9161286249873,525.0562537079677,519.9161286249873,525.0562537079677,525.1396646249923,525.7743914999883,519.9161286249873,1,1,1.0655679579940625,reldom2_s038,001,2025-03-06_13h35.47.365,Vis-A-Scan_AC,2022.2.5,None,
45,First_Order,8.0,viswhere,stimulus/viswhere_stim/blank_white.png,stimulus/viswhere_stim/blank_white.png,stimulus/viswhere_stim/150-deg_dot-left_seagreen.png,stimulus/viswhere_stim/60-deg_dot-left_turquoise.png,stimulus/viswhere_stim/blank_white.png,stimulus/viswhere_stim/dot_box.png,stimulus/viswhere_stim/dot_yes.png,stimulus/viswhere_stim/dot_no.png,None,Dot,None,Dot,1,0.0,0,5.125,0,5.125,0,5.125,0,0.0,0.625,0,0.0,0,0.0,1,0.5,1,2.125,0,0,0,0,0,0,0,0,0,,,,,0,59,59,59,,,,,,,,,525.9766033749911,525.9766033749911,525.9766033749911,525.9766033749911,525.9766033749911,525.9766033749911,525.9766033749911,525.9766033749911,525.9547422492955,525.9766033749911,525.9766033749911,525.9766033749911,525.9547422492955,525.9766033749911,525.9766033749911,525.9766033749911,528.0815268330043,532.0455403329688,525.9766033749911,525.9766033749911,531.1137244579731,526.4549564579502,527.4703194999602,528.0815268330043,529.0832903329865,525.9766033749911,525.9766033749911,525.9714089159621,525.9766033749911,525.9766033749911,525.9766033749911,525.9714089159621,525.9766033749911,525.9766033749911,531.1137244579731,525.9766033749911,531.1137244579731,531.1979486659984,531.8288180409581,525.9766033749911,1,1,0.7432893340592273,reldom2_s038,001,2025-03-06_13h35.47.365,Vis-A-Scan_AC,2022.2.5,None,
46,First_Order,8.0,viswhere,stimulus/viswhere_stim/blank_white.png,stimulus/viswhere_stim/blank_white.png,stimulus/viswhere_stim/150-deg_dot-left_lightsseagreen.png,stimulus/viswhere_stim/60-deg_dot-left_royalblue.png,stimulus/viswhere_stim/blank_white.png,stimulus/viswhere_stim/line_box.png,stimulus/viswhere_stim/line_yes.png,stimulus/viswhere_stim/line_no.png,None,Line,None,Dot,2,0.0,0,5.125,0,5.125,0,5.125,0,0.0,0.625,0,0.0,0,0.0,1,0.5,1,2.125,0,0,0,0,0,0,0,0,0,,,,,0,60,60,60,,,,,,,,,532.0455403329688,532.0455403329688,532.0455403329688,532.0455403329688,532.0455403329688,532.0455403329688,532.0455403329688,532.0455403329688,532.0245065413377,532.0455403329688,532.0455403329688,532.0455403329688,532.0245065413377,532.0455403329688,532.0455403329688,532.0455403329688,534.1587763749994,538.1890154999564,532.0455403329688,532.0455403329688,537.179440915992,532.5256554159569,533.5453138749581,534.1587763749994,535.1637622499838,532.0455403329688,532.0455403329688,532.0411732080044,532.0455403329688,532.0455403329688,532.0455403329688,532.0411732080044,532.0455403329688,532.0455403329688,537.179440915992,532.0455403329688,537.179440915992,537.2844755409751,537.9100066249957,532.0455403329688,2,1,0.5759190830285661,reldom2_s038,001,2025-03-06_13h35.47.365,Vis-A-Scan_AC,2022.2.5,None,
0,0.0,None,fixation,stimulus/viswhat_stim/blank_white.png,stimulus/viswhat_stim/blank_white.png,stimulus/viswhere_stim/blank_white.png,stimulus/viswhere_stim/blank_white.png,stimulus/viswhat_stim/blank_white.png,stimulus/viswhat_stim/blank_white.png,stimulus/viswhat_stim/blank_white.png,stimulus/viswhat_stim/blank_white.png,0.0,0.0,0.0,0.0,0,0.0,0,0.0,0,0.0,0,0.0,0,0.0,0.0,0,0.0,0,0.0,0,0.0,0,0.0,0,0,0,0,0,0,0,0,9,,,,,0,61,61,61,,,,,,,,,538.1890154999564,538.1890154999564,538.1890154999564,538.1890154999564,538.1890154999564,538.1890154999564,538.1890154999564,538.1890154999564,538.0899559162984,538.1890154999564,538.1890154999564,538.1890154999564,538.0899559162984,538.1890154999564,538.1890154999564,538.1890154999564,538.1890154999564,538.1890154999564,538.1890154999564,538.1890154999564,538.1890154999564,538.1890154999564,538.1890154999564,538.1890154999564,538.1890154999564,538.1890154999564,538.1890154999564,538.1399559162984,538.1890154999564,538.1890154999564,538.1890154999564,538.1399559162984,538.1890154999564,538.1890154999564,538.1890154999564,538.1890154999564,538.1890154999564,543.385810790991,543.385810790991,547.3047509999597,None,0,,reldom2_s038,001,2025-03-06_13h35.47.365,Vis-A-Scan_AC,2022.2.5,None,
47,Second_Order,8.0,viswhere,stimulus/viswhere_stim/120-deg_dot-left_goldenrod.png,stimulus/viswhere_stim/120-deg_dot-right_seagreen.png,stimulus/viswhere_stim/90-deg_dot-left_peru.png,stimulus/viswhere_stim/90-deg_dot-right_turquoise.png,stimulus/viswhat_stim/match_blank.png,stimulus/viswhat_stim/match_box.png,stimulus/viswhat_stim/match_yes.png,stimulus/viswhat_stim/match_no.png,1.0,Match,Line,Line,1,5.125,0,5.125,0,5.125,0,5.125,0,0.75,0.75,1,0.5,1,2.125,1,0.5,1,2.125,0,0,0,0,0,0,0,0,0,,,,,0,62,62,62,,,,,,,,,547.3047509999597,552.4247278749826,547.778429500002,548.7651010829723,549.4008932909928,550.3988595829578,547.3047509999597,547.3047509999597,547.3175778332826,547.3047509999597,547.3047509999597,547.3047509999597,547.3175778332826,547.3047509999597,552.4247278749826,553.2165279999608,555.2965064159944,559.1882944160025,553.2165279999608,553.2165279999608,558.338106249983,553.6634022909566,554.6816188749508,555.2965064159944,556.3022192909848,553.2165279999608,553.2165279999608,553.1922968743097,553.2165279999608,553.2165279999608,553.2165279999608,553.1922968743097,553.2165279999608,553.2165279999608,558.338106249983,553.2165279999608,558.338106249983,558.4072476659785,559.1882944160025,553.2165279999608,1,1,0.487871624995023,reldom2_s038,001,2025-03-06_13h35.47.365,Vis-A-Scan_AC,2022.2.5,None,
48,Second_Order,8.0,viswhere,stimulus/viswhere_stim/150-deg_dot-right_salmon.png,stimulus/viswhere_stim/90-deg_dot-right_cyan.png,stimulus/viswhere_stim/60-deg_dot-left_mediumslateblue.png,stimulus/viswhere_stim/30-deg_dot-left_turquoise.png,stimulus/viswhat_stim/match_blank.png,stimulus/viswhat_stim/match_box.png,stimulus/viswhat_stim/match_yes.png,stimulus/viswhat_stim/match_no.png,1.0,Match,Dot,Dot,1,5.125,0,5.125,0,5.125,0,5.125,0,0.625,0.625,1,0.5,1,2.125,1,0.5,1,2.125,0,0,0,0,0,0,0,0,0,,,,,0,63,63,63,,,,,,,,,559.1882944160025,564.3020903329598,559.6726738329744,560.6592907909653,561.2951606659917,562.2930845409865,559.1882944160025,559.1882944160025,559.2013470829813,559.1882944160025,559.1882944160025,559.1882944160025,559.2013470829813,559.1882944160025,564.3020903329598,564.9729134159861,567.0586655410007,571.0884819999919,564.9729134159861,564.9729134159861,570.1044164579944,565.4378276249627,566.4498868329683,567.0586655410007,568.0608138329699,564.9729134159861,564.9729134159861,564.9493818742999,564.9729134159861,564.9729134159861,564.9729134159861,564.9493818742999,564.9729134159861,564.9729134159861,570.1044164579944,564.9729134159861,570.1044164579944,570.1740362079581,570.8084909159807,564.9729134159861,1,1,0.6954225419904105,reldom2_s038,001,2025-03-06_13h35.47.365,Vis-A-Scan_AC,2022.2.5,None,
0,0.0,None,fixation,stimulus/viswhat_stim/blank_white.png,stimulus/viswhat_stim/blank_white.png,stimulus/viswhere_stim/blank_white.png,stimulus/viswhere_stim/blank_white.png,stimulus/viswhat_stim/blank_white.png,stimulus/viswhat_stim/blank_white.png,stimulus/viswhat_stim/blank_white.png,stimulus/viswhat_stim/blank_white.png,0.0,0.0,0.0,0.0,0,0.0,0,0.0,0,0.0,0,0.0,0,0.0,0.0,0,0.0,0,0.0,0,0.0,0,0.0,0,0,0,0,0,0,0,0,16,,,,,0,64,64,64,,,,,,,,,571.0884819999919,571.0884819999919,571.0884819999919,571.0884819999919,571.0884819999919,571.0884819999919,571.0884819999919,571.0884819999919,570.9888153742844,571.0884819999919,571.0884819999919,571.0884819999919,570.9888153742844,571.0884819999919,571.0884819999919,571.0884819999919,571.0884819999919,571.0884819999919,571.0884819999919,571.0884819999919,571.0884819999919,571.0884819999919,571.0884819999919,571.0884819999919,571.0884819999919,571.0884819999919,571.0884819999919,571.0388153742844,571.0884819999919,571.0884819999919,571.0884819999919,571.0388153742844,571.0884819999919,571.0884819999919,571.0884819999919,571.0884819999919,571.0884819999919,576.3136523749563,576.3136523749563,587.2305700829602,None,0,,reldom2_s038,001,2025-03-06_13h35.47.365,Vis-A-Scan_AC,2022.2.5,None,
