Trial,Order,Block,Type,Stimuli_File1,Stimuli_File2,Stimuli_File3,Stimuli_File4,Cue_File1,Cue_File2,Response_File_Yes,Response_File_No,Match,Cue_Dimension,Pair1_Dimension,Pair2_Dimension,Key,Cue1_Duration,Cue1_Onset,Cue2_Duration,Cue2_Onset,ResponseYes_Duration,ResponseYes_Onset,ResponseNo_Duration,ResponseNo_Onset,ITI_Within,ITI_Between,Image1_Duration,Image1_Onset,Image2_Duration,Image2_Onset,Image3_Duration,Image3_Onset,Image4_Duration,Image4_Onset,Sound1_Duration,Sound1_Onset,Sound2_Duration,Sound2_Onset,Sound3_Duration,Sound3_Onset,Sound4_Duration,Sound4_Onset,Fixation_Duration,trials_2.thisRepN,trials_2.thisTrialN,trials_2.thisN,trials_2.thisIndex,trials.thisRepN,trials.thisTrialN,trials.thisN,trials.thisIndex,text_start.started,key_resp_start.started,key_resp_start.keys,key_resp_start.rt,text2.started,key_resp_2.started,key_resp_2.keys,key_resp_2.rt,cue_file1.started,cue_file1.stopped,image_1.started,image_1.stopped,image_2.started,image_2.stopped,sound_icon1.started,sound_icon1.stopped,sound_1.started,sound_1.stopped,sound_icon2.started,sound_icon2.stopped,sound_2.started,sound_2.stopped,image_blank_1.started,image_blank_1.stopped,key_press.started,key_press.stopped,fixation_text.started,cue_file2.started,cue_file2.stopped,image_3.started,image_3.stopped,image_4.started,image_4.stopped,sound_icon3.started,sound_icon3.stopped,sound_3.started,sound_3.stopped,sound_icon4.started,sound_icon4.stopped,sound_4.started,sound_4.stopped,response_yes.started,response_yes.stopped,response_no.started,response_no.stopped,iti_blank.started,iti_blank.stopped,fixation_text.stopped,key_press.keys,key_press.corr,key_press.rt,participant,session,date,expName,psychopyVersion,frameRate,
,,,,,,,,,,,,,,,,,,,,,,,,,,,,,,,,,,,,,,,,,,,,,,,,,,,,8.168691583996406,8.168691583996406,2,1.062467916024616,,,,,,,,,,,,,,,,,,,,,,,,,,,,,,,,,,,,,,,,,,,,,,,,reldom2_s023,001,2025-02-27_15h42.50.121,What-B-Scan_AC,2022.2.5,None,
,,,,,,,,,,,,,,,,,,,,,,,,,,,,,,,,,,,,,,,,,,,,0,0,0,0,,,,,,,,,9.264145124994684,9.264145124994684,5,17.777493166009663,,,,,,,,,,,,,,,,,,,,,,,,,,,,,,,,,,,,,,,,,,,,reldom2_s023,001,2025-02-27_15h42.50.121,What-B-Scan_AC,2022.2.5,None,
,,,,,,,,,,,,,,,,,,,,,,,,,,,,,,,,,,,,,,,,,,,,1,0,1,0,,,,,,,,,27.062751459016,27.062751459016,5,1.9810831240029074,,,,,,,,,,,,,,,,,,,,,,,,,,,,,,,,,,,,,,,,,,,,reldom2_s023,001,2025-02-27_15h42.50.121,What-B-Scan_AC,2022.2.5,None,
,,,,,,,,,,,,,,,,,,,,,,,,,,,,,,,,,,,,,,,,,,,,2,0,2,0,,,,,,,,,29.060160584020196,29.060160584020196,5,1.9819937910069712,,,,,,,,,,,,,,,,,,,,,,,,,,,,,,,,,,,,,,,,,,,,reldom2_s023,001,2025-02-27_15h42.50.121,What-B-Scan_AC,2022.2.5,None,
,,,,,,,,,,,,,,,,,,,,,,,,,,,,,,,,,,,,,,,,,,,,3,0,3,0,,,,,,,,,31.053975542017724,31.053975542017724,5,1.9885783740319312,,,,,,,,,,,,,,,,,,,,,,,,,,,,,,,,,,,,,,,,,,,,reldom2_s023,001,2025-02-27_15h42.50.121,What-B-Scan_AC,2022.2.5,None,
0,0.0,None,fixation,stimulus/viswhat_stim/blank_white.png,stimulus/viswhat_stim/blank_white.png,stimulus/audwhat_stim/blank_white.png,stimulus/audwhat_stim/blank_white.png,stimulus/viswhat_stim/blank_white.png,stimulus/viswhat_stim/blank_white.png,stimulus/viswhat_stim/blank_white.png,stimulus/viswhat_stim/blank_white.png,0.0,0.0,0.0,0.0,0,0.0,0,0.0,0,0.0,0,0.0,0,0.0,0.0,0,0.0,0,0.0,0,0.0,0,0.0,0,0.0,0,0.0,0,0.0,0,0.0,16,,,,,0,0,0,0,,,,,,,,,33.25917008399847,33.25917008399847,33.25917008399847,33.25917008399847,33.25917008399847,33.25917008399847,33.25917008399847,33.25917008399847,33.166431708666885,33.25917008399847,33.25917008399847,33.25917008399847,33.166431708666885,33.25917008399847,33.25917008399847,33.25917008399847,33.25917008399847,33.25917008399847,33.25917008399847,33.25917008399847,33.25917008399847,33.25917008399847,33.25917008399847,33.25917008399847,33.25917008399847,33.25917008399847,33.25917008399847,33.21643170866688,33.25917008399847,33.25917008399847,33.25917008399847,33.21643170866688,33.25917008399847,33.25917008399847,33.25917008399847,33.25917008399847,33.25917008399847,38.44606937500066,38.44606937500066,49.70529537499533,None,0,,reldom2_s023,001,2025-02-27_15h42.50.121,What-B-Scan_AC,2022.2.5,None,
1,First_Order,1.0,viswhat,stimulus/viswhat_stim/blank_white.png,stimulus/viswhat_stim/blank_white.png,stimulus/viswhat_stim/water_vehicle-pirateship.png,stimulus/viswhat_stim/water_animal-lobster.png,stimulus/viswhat_stim/blank_white.png,stimulus/viswhat_stim/location_box.png,stimulus/viswhat_stim/location_yes.png,stimulus/viswhat_stim/location_no.png,None,Location,None,Location,1,0.0,0,5.125,0,5.125,0,5.125,0,0.0,0.625,0,0.0,0,0.0,1,0.5,1,2.125,0,0.0,0,0.0,0,0.0,0,0.0,0,,,,,0,1,1,1,,,,,,,,,49.70529537499533,49.70529537499533,49.70529537499533,49.70529537499533,49.70529537499533,49.70529537499533,49.70529537499533,49.70529537499533,49.420479291997616,49.70529537499533,49.70529537499533,49.70529537499533,49.420479291997616,49.70529537499533,49.70529537499533,49.70529537499533,51.69772604200989,55.75730495899916,49.70529537499533,49.70529537499533,54.98043075000169,50.13276066700928,51.271116499992786,51.69772604200989,52.8405694590183,49.70529537499533,49.70529537499533,49.570479291997614,49.70529537499533,49.70529537499533,49.70529537499533,49.570479291997614,49.70529537499533,49.70529537499533,54.98043075000169,49.70529537499533,54.98043075000169,54.84273762500379,,49.70529537499533,1,1,2.1822216660075355,reldom2_s023,001,2025-02-27_15h42.50.121,What-B-Scan_AC,2022.2.5,None,
2,First_Order,1.0,viswhat,stimulus/viswhat_stim/blank_white.png,stimulus/viswhat_stim/blank_white.png,stimulus/viswhat_stim/land_vehicle-firetruck.png,stimulus/viswhat_stim/water_vehicle-jetski.png,stimulus/viswhat_stim/blank_white.png,stimulus/viswhat_stim/location_box.png,stimulus/viswhat_stim/location_yes.png,stimulus/viswhat_stim/location_no.png,None,Location,None,Type,2,0.0,0,5.125,0,5.125,0,5.125,0,0.0,0.625,0,0.0,0,0.0,1,0.5,1,2.125,0,0.0,0,0.0,0,0.0,0,0.0,0,,,,,0,2,2,2,,,,,,,,,55.75730495899916,55.75730495899916,55.75730495899916,55.75730495899916,55.75730495899916,55.75730495899916,55.75730495899916,55.75730495899916,55.72772562534859,55.75730495899916,55.75730495899916,55.75730495899916,55.72772562534859,55.75730495899916,55.75730495899916,55.75730495899916,57.860128833999624,61.89280941701145,55.75730495899916,55.75730495899916,60.894185709010344,56.24038699999801,57.25726391701028,57.860128833999624,58.87854395899922,55.75730495899916,55.75730495899916,55.744392292015256,55.75730495899916,55.75730495899916,55.75730495899916,55.744392292015256,55.75730495899916,55.75730495899916,60.894185709010344,55.75730495899916,60.894185709010344,60.9701340419997,61.60509312499198,55.75730495899916,2,1,1.1705197910196148,reldom2_s023,001,2025-02-27_15h42.50.121,What-B-Scan_AC,2022.2.5,None,
3,First_Order,1.0,viswhat,stimulus/viswhat_stim/blank_white.png,stimulus/viswhat_stim/blank_white.png,stimulus/viswhat_stim/land_animal-moose.png,stimulus/viswhat_stim/water_animal-jellyfish.png,stimulus/viswhat_stim/blank_white.png,stimulus/viswhat_stim/type_box.png,stimulus/viswhat_stim/type_yes.png,stimulus/viswhat_stim/type_no.png,None,Type,None,Type,1,0.0,0,5.125,0,5.125,0,5.125,0,0.0,0.625,0,0.0,0,0.0,1,0.5,1,2.125,0,0.0,0,0.0,0,0.0,0,0.0,0,,,,,0,3,3,3,,,,,,,,,61.89280941701145,61.89280941701145,61.89280941701145,61.89280941701145,61.89280941701145,61.89280941701145,61.89280941701145,61.89280941701145,61.79874654200976,61.89280941701145,61.89280941701145,61.89280941701145,61.79874654200976,61.89280941701145,61.89280941701145,61.89280941701145,63.956776667007944,67.9943534170161,61.89280941701145,61.89280941701145,67.08752629201626,62.36310937500093,63.425472208997235,63.956776667007944,65.02065470902016,61.89280941701145,61.89280941701145,61.848746542009756,61.89280941701145,61.89280941701145,61.89280941701145,61.848746542009756,61.89280941701145,61.89280941701145,67.08752629201626,61.89280941701145,67.08752629201626,67.08752629201626,67.7821128340147,61.89280941701145,1,1,2.6489022909954656,reldom2_s023,001,2025-02-27_15h42.50.121,What-B-Scan_AC,2022.2.5,None,
4,First_Order,1.0,viswhat,stimulus/viswhat_stim/blank_white.png,stimulus/viswhat_stim/blank_white.png,stimulus/viswhat_stim/land_animal-tiger.png,stimulus/viswhat_stim/land_vehicle-rv.png,stimulus/viswhat_stim/blank_white.png,stimulus/viswhat_stim/type_box.png,stimulus/viswhat_stim/type_yes.png,stimulus/viswhat_stim/type_no.png,None,Type,None,Location,2,0.0,0,5.125,0,5.125,0,5.125,0,0.0,0.625,0,0.0,0,0.0,1,0.5,1,2.125,0,0.0,0,0.0,0,0.0,0,0.0,0,,,,,0,4,4,4,,,,,,,,,67.9943534170161,67.9943534170161,67.9943534170161,67.9943534170161,67.9943534170161,67.9943534170161,67.9943534170161,67.9943534170161,67.94877950068137,67.9943534170161,67.9943534170161,67.9943534170161,67.94877950068137,67.9943534170161,67.9943534170161,67.9943534170161,70.08116816700203,,67.9943534170161,67.9943534170161,73.13695300000836,68.47204279201105,69.50012387501192,70.08116816700203,71.11699091701303,67.9943534170161,67.9943534170161,67.96544616734803,67.9943534170161,67.9943534170161,67.9943534170161,67.96544616734803,67.9943534170161,67.9943534170161,73.13695300000836,67.9943534170161,73.13695300000836,73.22288308400312,73.88324279201333,67.9943534170161,2,1,0.7648541660164483,reldom2_s023,001,2025-02-27_15h42.50.121,What-B-Scan_AC,2022.2.5,None,
0,0.0,None,fixation,stimulus/viswhat_stim/blank_white.png,stimulus/viswhat_stim/blank_white.png,stimulus/audwhat_stim/blank_white.png,stimulus/audwhat_stim/blank_white.png,stimulus/viswhat_stim/blank_white.png,stimulus/viswhat_stim/blank_white.png,stimulus/viswhat_stim/blank_white.png,stimulus/viswhat_stim/blank_white.png,0.0,0.0,0.0,0.0,0,0.0,0,0.0,0,0.0,0,0.0,0,0.0,0.0,0,0.0,0,0.0,0,0.0,0,0.0,0,0.0,0,0.0,0,0.0,0,0.0,9,,,,,0,5,5,5,,,,,,,,,74.12042708400986,74.12042708400986,74.12042708400986,74.12042708400986,74.12042708400986,74.12042708400986,74.12042708400986,74.12042708400986,74.02859679166964,74.12042708400986,74.12042708400986,74.12042708400986,74.02859679166964,74.12042708400986,74.12042708400986,74.12042708400986,74.12042708400986,74.12042708400986,74.12042708400986,74.12042708400986,74.12042708400986,74.12042708400986,74.12042708400986,74.12042708400986,74.12042708400986,74.12042708400986,74.12042708400986,74.07859679166965,74.12042708400986,74.12042708400986,74.12042708400986,74.07859679166965,74.12042708400986,74.12042708400986,74.12042708400986,74.12042708400986,74.12042708400986,79.32198291699751,79.32198291699751,83.28082441701554,None,0,,reldom2_s023,001,2025-02-27_15h42.50.121,What-B-Scan_AC,2022.2.5,None,
5,Second_Order,1.0,viswhat,stimulus/viswhat_stim/land_animal-bunny.png,stimulus/viswhat_stim/land_vehicle-motorcycle.png,stimulus/viswhat_stim/water_animal-octopus.png,stimulus/viswhat_stim/land_animal-fox.png,stimulus/viswhat_stim/match_blank.png,stimulus/viswhat_stim/match_box.png,stimulus/viswhat_stim/match_yes.png,stimulus/viswhat_stim/match_no.png,2.0,Match,Location,Type,2,5.125,0,5.125,0,5.125,0,5.125,0,0.75,0.75,1,0.5,1,2.125,1,0.5,1,2.125,0,0.0,0,0.0,0,0.0,0,0.0,0,,,,,0,6,6,6,,,,,,,,,83.28082441701554,88.39864979201229,83.71956758401939,84.70580291701481,85.34180154200294,86.33928462502081,83.28082441701554,83.28082441701554,83.29385925067861,83.28082441701554,83.28082441701554,83.28082441701554,83.29385925067861,83.28082441701554,88.39864979201229,89.21879970899317,91.28381662501488,95.19704270901275,89.21879970899317,89.21879970899317,94.3702559999947,89.64710791700054,90.66688470900408,91.28381662501488,92.30448633400374,89.21879970899317,89.21879970899317,89.18245508400723,89.21879970899317,89.21879970899317,89.21879970899317,89.18245508400723,89.21879970899317,89.21879970899317,94.3702559999947,89.21879970899317,94.3702559999947,94.39588537500822,95.19704270901275,89.21879970899317,2,1,1.7924309159861878,reldom2_s023,001,2025-02-27_15h42.50.121,What-B-Scan_AC,2022.2.5,None,
6,Second_Order,1.0,viswhat,stimulus/viswhat_stim/land_vehicle-tank.png,stimulus/viswhat_stim/land_animal-wolf.png,stimulus/viswhat_stim/water_vehicle-motorboatraft.png,stimulus/viswhat_stim/water_animal-squid.png,stimulus/viswhat_stim/match_blank.png,stimulus/viswhat_stim/match_box.png,stimulus/viswhat_stim/match_yes.png,stimulus/viswhat_stim/match_no.png,1.0,Match,Location,Location,1,5.125,0,5.125,0,5.125,0,5.125,0,0.625,0.625,1,0.5,1,2.125,1,0.5,1,2.125,0,0.0,0,0.0,0,0.0,0,0.0,0,,,,,0,7,7,7,,,,,,,,,95.19704270901275,100.30907662500977,95.67967062501702,96.66651387501042,97.3024656670168,98.30028329201741,95.19704270901275,95.19704270901275,95.1996293756684,95.19704270901275,95.19704270901275,95.19704270901275,95.1996293756684,95.19704270901275,100.30907662500977,101.0057091670169,103.06972087500617,107.12161083400133,101.0057091670169,101.0057091670169,106.16430379200028,101.44144283400965,102.45710612501716,103.06972087500617,104.09162533399649,101.0057091670169,101.0057091670169,100.9729986249993,101.0057091670169,101.0057091670169,101.0057091670169,100.9729986249993,101.0057091670169,101.0057091670169,106.16430379200028,101.0057091670169,106.16430379200028,106.18830125001841,106.82699620901258,101.0057091670169,1,1,1.9584052070276812,reldom2_s023,001,2025-02-27_15h42.50.121,What-B-Scan_AC,2022.2.5,None,
0,0.0,None,fixation,stimulus/viswhat_stim/blank_white.png,stimulus/viswhat_stim/blank_white.png,stimulus/audwhat_stim/blank_white.png,stimulus/audwhat_stim/blank_white.png,stimulus/viswhat_stim/blank_white.png,stimulus/viswhat_stim/blank_white.png,stimulus/viswhat_stim/blank_white.png,stimulus/viswhat_stim/blank_white.png,0.0,0.0,0.0,0.0,0,0.0,0,0.0,0,0.0,0,0.0,0,0.0,0.0,0,0.0,0,0.0,0,0.0,0,0.0,0,0.0,0,0.0,0,0.0,0,0.0,9,,,,,0,8,8,8,,,,,,,,,107.12161083400133,107.12161083400133,107.12161083400133,107.12161083400133,107.12161083400133,107.12161083400133,107.12161083400133,107.12161083400133,107.02174279200844,107.12161083400133,107.12161083400133,107.12161083400133,107.02174279200844,107.12161083400133,107.12161083400133,107.12161083400133,107.12161083400133,107.12161083400133,107.12161083400133,107.12161083400133,107.12161083400133,107.12161083400133,107.12161083400133,107.12161083400133,107.12161083400133,107.12161083400133,107.12161083400133,107.07174279200845,107.12161083400133,107.12161083400133,107.12161083400133,107.07174279200845,107.12161083400133,107.12161083400133,107.12161083400133,107.12161083400133,107.12161083400133,112.34693250001874,112.34693250001874,116.59021695901174,None,0,,reldom2_s023,001,2025-02-27_15h42.50.121,What-B-Scan_AC,2022.2.5,None,
7,First_Order,2.0,viswhat,stimulus/viswhat_stim/blank_white.png,stimulus/viswhat_stim/blank_white.png,stimulus/viswhat_stim/water_animal-lobster.png,stimulus/viswhat_stim/water_vehicle-canoe.png,stimulus/viswhat_stim/blank_white.png,stimulus/viswhat_stim/location_box.png,stimulus/viswhat_stim/location_yes.png,stimulus/viswhat_stim/location_no.png,None,Location,None,Location,1,0.0,0,5.125,0,5.125,0,5.125,0,0.0,0.625,0,0.0,0,0.0,1,0.5,1,2.125,0,0.0,0,0.0,0,0.0,0,0.0,0,,,,,0,9,9,9,,,,,,,,,116.59021695901174,116.59021695901174,116.59021695901174,116.59021695901174,116.59021695901174,116.59021695901174,116.59021695901174,116.59021695901174,116.31296604168408,116.59021695901174,116.59021695901174,116.59021695901174,116.31296604168408,116.59021695901174,116.59021695901174,116.59021695901174,118.66535845899489,,116.59021695901174,116.59021695901174,121.93579325001338,117.03524575001211,118.22087400002056,118.66535845899489,119.8564687500184,116.59021695901174,116.59021695901174,116.4462993750174,116.59021695901174,116.59021695901174,116.59021695901174,116.4462993750174,116.59021695901174,116.59021695901174,121.93579325001338,116.59021695901174,121.93579325001338,121.79305675000069,,116.59021695901174,1,1,2.572046000015689,reldom2_s023,001,2025-02-27_15h42.50.121,What-B-Scan_AC,2022.2.5,None,
8,First_Order,2.0,viswhat,stimulus/viswhat_stim/blank_white.png,stimulus/viswhat_stim/blank_white.png,stimulus/viswhat_stim/water_animal-jellyfish.png,stimulus/viswhat_stim/land_animal-bunny.png,stimulus/viswhat_stim/blank_white.png,stimulus/viswhat_stim/type_box.png,stimulus/viswhat_stim/type_yes.png,stimulus/viswhat_stim/type_no.png,None,Type,None,Type,1,0.0,0,5.125,0,5.125,0,5.125,0,0.0,0.625,0,0.0,0,0.0,1,0.5,1,2.125,0,0.0,0,0.0,0,0.0,0,0.0,0,,,,,0,10,10,10,,,,,,,,,122.65313049999531,122.65313049999531,122.65313049999531,122.65313049999531,122.65313049999531,122.65313049999531,122.65313049999531,122.65313049999531,122.55576400032926,122.65313049999531,122.65313049999531,122.65313049999531,122.55576400032926,122.65313049999531,122.65313049999531,122.65313049999531,124.72581837500911,,122.65313049999531,122.65313049999531,127.84042033401784,123.12049670901615,124.1552881670068,124.72581837500911,125.76629466700251,122.65313049999531,122.65313049999531,122.60576400032926,122.65313049999531,122.65313049999531,122.65313049999531,122.60576400032926,122.65313049999531,122.65313049999531,127.84042033401784,122.65313049999531,127.84042033401784,127.84042033401784,128.53488791701966,122.65313049999531,1,1,2.4366913739941083,reldom2_s023,001,2025-02-27_15h42.50.121,What-B-Scan_AC,2022.2.5,None,
9,First_Order,2.0,viswhat,stimulus/viswhat_stim/blank_white.png,stimulus/viswhat_stim/blank_white.png,stimulus/viswhat_stim/land_animal-cat.png,stimulus/viswhat_stim/water_animal-whale (1).png,stimulus/viswhat_stim/blank_white.png,stimulus/viswhat_stim/location_box.png,stimulus/viswhat_stim/location_yes.png,stimulus/viswhat_stim/location_no.png,None,Location,None,Type,2,0.0,0,5.125,0,5.125,0,5.125,0,0.0,0.625,0,0.0,0,0.0,1,0.5,1,2.125,0,0.0,0,0.0,0,0.0,0,0.0,0,,,,,0,11,11,11,,,,,,,,,128.73229775001528,128.73229775001528,128.73229775001528,128.73229775001528,128.73229775001528,128.73229775001528,128.73229775001528,128.73229775001528,128.68488791701967,128.73229775001528,128.73229775001528,128.73229775001528,128.68488791701967,128.73229775001528,128.73229775001528,128.73229775001528,130.83780583401676,134.84156429200084,128.73229775001528,128.73229775001528,133.8737769589934,129.21276912500616,130.23372841702076,130.83780583401676,131.8667555419961,128.73229775001528,128.73229775001528,128.70155458368635,128.73229775001528,128.73229775001528,128.73229775001528,128.70155458368635,128.73229775001528,128.73229775001528,133.8737769589934,128.73229775001528,133.8737769589934,133.95245587499812,134.6085659590026,128.73229775001528,2,1,1.7677289569983259,reldom2_s023,001,2025-02-27_15h42.50.121,What-B-Scan_AC,2022.2.5,None,
10,First_Order,2.0,viswhat,stimulus/viswhat_stim/blank_white.png,stimulus/viswhat_stim/blank_white.png,stimulus/viswhat_stim/water_animal-shark.png,stimulus/viswhat_stim/water_vehicle-yacht.png,stimulus/viswhat_stim/blank_white.png,stimulus/viswhat_stim/type_box.png,stimulus/viswhat_stim/type_yes.png,stimulus/viswhat_stim/type_no.png,None,Type,None,Location,2,0.0,0,5.125,0,5.125,0,5.125,0,0.0,0.625,0,0.0,0,0.0,1,0.5,1,2.125,0,0.0,0,0.0,0,0.0,0,0.0,0,,,,,0,12,12,12,,,,,,,,,134.84156429200084,134.84156429200084,134.84156429200084,134.84156429200084,134.84156429200084,134.84156429200084,134.84156429200084,134.84156429200084,134.7610630840005,134.84156429200084,134.84156429200084,134.84156429200084,134.7610630840005,134.84156429200084,134.84156429200084,134.84156429200084,136.9274637089984,,134.84156429200084,134.84156429200084,139.99213170900475,135.31143904200871,136.37481816700893,136.9274637089984,137.99472891699406,134.84156429200084,134.84156429200084,134.8110630840005,134.84156429200084,134.84156429200084,134.84156429200084,134.8110630840005,134.84156429200084,134.84156429200084,139.99213170900475,134.84156429200084,139.99213170900475,140.06643487501424,140.73035704201902,134.84156429200084,2,1,0.5491846660152078,reldom2_s023,001,2025-02-27_15h42.50.121,What-B-Scan_AC,2022.2.5,None,
0,0.0,None,fixation,stimulus/viswhat_stim/blank_white.png,stimulus/viswhat_stim/blank_white.png,stimulus/audwhat_stim/blank_white.png,stimulus/audwhat_stim/blank_white.png,stimulus/viswhat_stim/blank_white.png,stimulus/viswhat_stim/blank_white.png,stimulus/viswhat_stim/blank_white.png,stimulus/viswhat_stim/blank_white.png,0.0,0.0,0.0,0.0,0,0.0,0,0.0,0,0.0,0,0.0,0,0.0,0.0,0,0.0,0,0.0,0,0.0,0,0.0,0,0.0,0,0.0,0,0.0,0,0.0,10,,,,,0,13,13,13,,,,,,,,,140.95759479200933,140.95759479200933,140.95759479200933,140.95759479200933,140.95759479200933,140.95759479200933,140.95759479200933,140.95759479200933,140.86369037535238,140.95759479200933,140.95759479200933,140.95759479200933,140.86369037535238,140.95759479200933,140.95759479200933,140.95759479200933,140.95759479200933,140.95759479200933,140.95759479200933,140.95759479200933,140.95759479200933,140.95759479200933,140.95759479200933,140.95759479200933,140.95759479200933,140.95759479200933,140.95759479200933,140.91369037535236,140.95759479200933,140.95759479200933,140.95759479200933,140.91369037535236,140.95759479200933,140.95759479200933,140.95759479200933,140.95759479200933,140.95759479200933,146.145800667,146.145800667,151.07814666701597,None,0,,reldom2_s023,001,2025-02-27_15h42.50.121,What-B-Scan_AC,2022.2.5,None,
11,Second_Order,2.0,viswhat,stimulus/viswhat_stim/land_animal-ostrich.png,stimulus/viswhat_stim/water_animal-stingray.png,stimulus/viswhat_stim/water_vehicle-cruiseship.png,stimulus/viswhat_stim/water_animal-seaturtle.png,stimulus/viswhat_stim/match_blank.png,stimulus/viswhat_stim/match_box.png,stimulus/viswhat_stim/match_yes.png,stimulus/viswhat_stim/match_no.png,2.0,Match,Type,Location,2,5.125,0,5.125,0,5.125,0,5.125,0,0.75,0.75,1,0.5,1,2.125,1,0.5,1,2.125,0,0.0,0,0.0,0,0.0,0,0.0,0,,,,,0,14,14,14,,,,,,,,,151.07814666701597,156.20079066700418,151.55722524999874,152.54582820899668,153.18146462499863,154.1795014590025,151.07814666701597,151.07814666701597,151.09005466735303,151.07814666701597,151.07814666701597,151.07814666701597,151.09005466735303,151.07814666701597,156.20079066700418,157.17951954199816,159.19413120902027,,157.17951954199816,157.17951954199816,162.41569458399317,157.58323933399515,158.68925395901897,159.19413120902027,160.303931500006,157.17951954199816,157.17951954199816,157.08583237502026,157.17951954199816,157.17951954199816,157.17951954199816,157.08583237502026,157.17951954199816,157.17951954199816,162.41569458399317,157.17951954199816,162.41569458399317,162.3205893340055,,157.17951954199816,2,1,1.0441386250022333,reldom2_s023,001,2025-02-27_15h42.50.121,What-B-Scan_AC,2022.2.5,None,
12,Second_Order,2.0,viswhat,stimulus/viswhat_stim/land_animal-ostrich.png,stimulus/viswhat_stim/land_vehicle-oldcar.png,stimulus/viswhat_stim/water_vehicle-ship.png,stimulus/viswhat_stim/land_vehicle-vespa.png,stimulus/viswhat_stim/match_blank.png,stimulus/viswhat_stim/match_box.png,stimulus/viswhat_stim/match_yes.png,stimulus/viswhat_stim/match_no.png,2.0,Match,Location,Type,2,5.125,0,5.125,0,5.125,0,5.125,0,0.625,0.625,1,0.5,1,2.125,1,0.5,1,2.125,0,0.0,0,0.0,0,0.0,0,0.0,0,,,,,0,15,15,15,,,,,,,,,163.11468041699845,168.23332800000207,163.57140566699672,164.57005883401143,165.19205420900835,166.19065937501728,163.11468041699845,163.11468041699845,163.1237146253368,163.11468041699845,163.11468041699845,163.11468041699845,163.1237146253368,163.11468041699845,168.23332800000207,169.00973741701455,171.034978709009,175.1154169999936,169.00973741701455,169.00973741701455,174.21423320900067,169.4137925840041,170.49500195900328,171.034978709009,172.11880254201242,169.00973741701455,169.00973741701455,168.94649345901564,169.00973741701455,169.00973741701455,169.00973741701455,168.94649345901564,169.00973741701455,169.00973741701455,174.21423320900067,169.00973741701455,174.21423320900067,174.15247870900203,174.83518387499498,169.00973741701455,2,1,1.4075060409959406,reldom2_s023,001,2025-02-27_15h42.50.121,What-B-Scan_AC,2022.2.5,None,
0,0.0,None,fixation,stimulus/viswhat_stim/blank_white.png,stimulus/viswhat_stim/blank_white.png,stimulus/audwhat_stim/blank_white.png,stimulus/audwhat_stim/blank_white.png,stimulus/viswhat_stim/blank_white.png,stimulus/viswhat_stim/blank_white.png,stimulus/viswhat_stim/blank_white.png,stimulus/viswhat_stim/blank_white.png,0.0,0.0,0.0,0.0,0,0.0,0,0.0,0,0.0,0,0.0,0,0.0,0.0,0,0.0,0,0.0,0,0.0,0,0.0,0,0.0,0,0.0,0,0.0,0,0.0,9,,,,,0,16,16,16,,,,,,,,,175.1154169999936,175.1154169999936,175.1154169999936,175.1154169999936,175.1154169999936,175.1154169999936,175.1154169999936,175.1154169999936,175.01851720832832,175.1154169999936,175.1154169999936,175.1154169999936,175.01851720832832,175.1154169999936,175.1154169999936,175.1154169999936,175.1154169999936,175.1154169999936,175.1154169999936,175.1154169999936,175.1154169999936,175.1154169999936,175.1154169999936,175.1154169999936,175.1154169999936,175.1154169999936,175.1154169999936,175.06851720832833,175.1154169999936,175.1154169999936,175.1154169999936,175.06851720832833,175.1154169999936,175.1154169999936,175.1154169999936,175.1154169999936,175.1154169999936,180.33200841699727,180.33200841699727,184.34117762499955,None,0,,reldom2_s023,001,2025-02-27_15h42.50.121,What-B-Scan_AC,2022.2.5,None,
13,First_Order,3.0,audwhat,stimulus/audwhat_stim/dummy.wav,stimulus/audwhat_stim/dummy.wav,stimulus/audwhat_stim/percussion mallet_low-pitch_Ftri_loud.wav,stimulus/audwhat_stim/percussion xylophone_high-pitch_Dtri_loud.wav,stimulus/audwhat_stim/blank_white.png,stimulus/audwhat_stim/pitch_box.png,stimulus/audwhat_stim/pitch_yes.png,stimulus/audwhat_stim/pitch_no.png,None,Pitch,None,Category,2,0.0,0,5.125,0,5.125,0,5.125,0,0.0,0.625,0,0.0,0,0.0,0,0.0,0,0.0,0,0.0,0,0.0,1,0.5,1,2.125,0,,,,,0,17,17,17,,,,,,,,,184.34117762499955,184.34117762499955,184.34117762499955,184.34117762499955,184.34117762499955,184.34117762499955,184.34117762499955,184.34117762499955,184.27253720866673,184.34117762499955,184.34117762499955,184.34117762499955,184.27253720866673,184.34117762499955,184.34117762499955,184.34117762499955,186.44612858400797,,184.34117762499955,184.34117762499955,189.51136595901335,184.34117762499955,184.34117762499955,184.34117762499955,184.34117762499955,184.799433667009,185.85095458402066,184.77013020866823,,186.44612858400797,187.50098629199783,186.41683975066215,187.4551104590064,184.34117762499955,189.51136595901335,184.34117762499955,189.51136595901335,189.55213679201552,190.23604212500504,184.34117762499955,2,1,1.9831070000072941,reldom2_s023,001,2025-02-27_15h42.50.121,What-B-Scan_AC,2022.2.5,None,
14,First_Order,3.0,audwhat,stimulus/audwhat_stim/dummy.wav,stimulus/audwhat_stim/dummy.wav,stimulus/audwhat_stim/string cello_low-pitch_D_loud.wav,stimulus/audwhat_stim/percussion mallet_low-pitch_D_loud.wav,stimulus/audwhat_stim/blank_white.png,stimulus/audwhat_stim/pitch_box.png,stimulus/audwhat_stim/pitch_yes.png,stimulus/audwhat_stim/pitch_no.png,None,Pitch,None,Pitch,1,0.0,0,5.125,0,5.125,0,5.125,0,0.0,0.625,0,0.0,0,0.0,0,0.0,0,0.0,0,0.0,0,0.0,1,0.5,1,2.125,0,,,,,0,18,18,18,,,,,,,,,190.44712791699567,190.44712791699567,190.44712791699567,190.44712791699567,190.44712791699567,190.44712791699567,190.44712791699567,190.44712791699567,190.3693754583384,190.44712791699567,190.44712791699567,190.44712791699567,190.3693754583384,190.44712791699567,190.44712791699567,190.44712791699567,192.55508679201012,196.57216920901556,190.44712791699567,190.44712791699567,195.63318016700214,190.44712791699567,190.44712791699567,190.44712791699567,190.44712791699567,190.9049677500152,191.95732612500433,190.87539145865983,,192.55508679201012,193.6150379590108,192.5255730416723,,190.44712791699567,195.63318016700214,190.44712791699567,195.63318016700214,195.67360470900894,196.36054799999692,190.44712791699567,1,1,1.5882964990159962,reldom2_s023,001,2025-02-27_15h42.50.121,What-B-Scan_AC,2022.2.5,None,
15,First_Order,3.0,audwhat,stimulus/audwhat_stim/dummy.wav,stimulus/audwhat_stim/dummy.wav,stimulus/audwhat_stim/string cello_high-pitch_D_loud.wav,stimulus/audwhat_stim/string cello_low-pitch_Ftri_loud.wav,stimulus/audwhat_stim/blank_white.png,stimulus/audwhat_stim/category_box.png,stimulus/audwhat_stim/category_yes.png,stimulus/audwhat_stim/category_no.png,None,Category,None,Category,1,0.0,0,5.125,0,5.125,0,5.125,0,0.0,0.625,0,0.0,0,0.0,0,0.0,0,0.0,0,0.0,0,0.0,1,0.5,1,2.125,0,,,,,0,19,19,19,,,,,,,,,196.57216920901556,196.57216920901556,196.57216920901556,196.57216920901556,196.57216920901556,196.57216920901556,196.57216920901556,196.57216920901556,196.49388133333028,196.57216920901556,196.57216920901556,196.57216920901556,196.49388133333028,196.57216920901556,196.57216920901556,196.57216920901556,198.6436888750177,202.68707983399509,196.57216920901556,196.57216920901556,201.74313733400777,196.57216920901556,196.57216920901556,196.57216920901556,196.57216920901556,197.0319353750092,198.09116191699286,197.00215791666804,,198.6436888750177,199.7106770419923,198.61438916667637,,196.57216920901556,201.74313733400777,196.57216920901556,201.74313733400777,201.7841566670104,202.43413662500097,196.57216920901556,1,1,1.0899354160064831,reldom2_s023,001,2025-02-27_15h42.50.121,What-B-Scan_AC,2022.2.5,None,
16,First_Order,3.0,audwhat,stimulus/audwhat_stim/dummy.wav,stimulus/audwhat_stim/dummy.wav,stimulus/audwhat_stim/string viola_low-pitch_F_loud.wav,stimulus/audwhat_stim/percussion mallet_low-pitch_F_loud.wav,stimulus/audwhat_stim/blank_white.png,stimulus/audwhat_stim/category_box.png,stimulus/audwhat_stim/category_yes.png,stimulus/audwhat_stim/category_no.png,None,Category,None,Pitch,2,0.0,0,5.125,0,5.125,0,5.125,0,0.0,0.625,0,0.0,0,0.0,0,0.0,0,0.0,0,0.0,0,0.0,1,0.5,1,2.125,0,,,,,0,20,20,20,,,,,,,,,202.68707983399509,202.68707983399509,202.68707983399509,202.68707983399509,202.68707983399509,202.68707983399509,202.68707983399509,202.68707983399509,202.60812491734592,202.68707983399509,202.68707983399509,202.68707983399509,202.60812491734592,202.68707983399509,202.68707983399509,202.68707983399509,204.76796100000502,208.8332159590209,202.68707983399509,202.68707983399509,207.8680317090184,202.68707983399509,202.68707983399509,202.68707983399509,202.68707983399509,203.15144320900436,204.21287541699712,203.1217371256828,,204.76796100000502,205.83462658399367,204.7385456256782,,202.68707983399509,207.8680317090184,202.68707983399509,207.8680317090184,207.90879891699296,208.56036441700417,202.68707983399509,2,1,2.5195085830055177,reldom2_s023,001,2025-02-27_15h42.50.121,What-B-Scan_AC,2022.2.5,None,
0,0.0,None,fixation,stimulus/viswhat_stim/blank_white.png,stimulus/viswhat_stim/blank_white.png,stimulus/audwhat_stim/blank_white.png,stimulus/audwhat_stim/blank_white.png,stimulus/viswhat_stim/blank_white.png,stimulus/viswhat_stim/blank_white.png,stimulus/viswhat_stim/blank_white.png,stimulus/viswhat_stim/blank_white.png,0.0,0.0,0.0,0.0,0,0.0,0,0.0,0,0.0,0,0.0,0,0.0,0.0,0,0.0,0,0.0,0,0.0,0,0.0,0,0.0,0,0.0,0,0.0,0,0.0,9,,,,,0,21,21,21,,,,,,,,,208.8332159590209,208.8332159590209,208.8332159590209,208.8332159590209,208.8332159590209,208.8332159590209,208.8332159590209,208.8332159590209,208.73429166735346,208.8332159590209,208.8332159590209,208.8332159590209,208.73429166735346,208.8332159590209,208.8332159590209,208.8332159590209,208.8332159590209,208.8332159590209,208.8332159590209,208.8332159590209,208.8332159590209,208.8332159590209,208.8332159590209,208.8332159590209,208.8332159590209,208.8332159590209,208.8332159590209,208.78429166735344,208.8332159590209,208.8332159590209,208.8332159590209,208.78429166735344,208.8332159590209,208.8332159590209,208.8332159590209,208.8332159590209,208.8332159590209,214.0379076669924,214.0379076669924,218.00942233399837,None,0,,reldom2_s023,001,2025-02-27_15h42.50.121,What-B-Scan_AC,2022.2.5,None,
17,Second_Order,3.0,audwhat,stimulus/audwhat_stim/percussion mallet_high-pitch_Ftri_loud.wav,stimulus/audwhat_stim/string cello_high-pitch_Ftri_loud.wav,stimulus/audwhat_stim/percussion mallet_low-pitch_D_loud.wav,stimulus/audwhat_stim/string viola_low-pitch_D_loud.wav,stimulus/viswhat_stim/match_blank.png,stimulus/viswhat_stim/match_box.png,stimulus/viswhat_stim/match_yes.png,stimulus/viswhat_stim/match_no.png,1.0,Match,Pitch,Pitch,1,5.125,0,5.125,0,5.125,0,5.125,0,0.75,0.75,0,0.0,0,0.0,0,0.0,0,0.0,1,0.5,1,2.125,1,0.5,1,2.125,0,,,,,0,22,22,22,,,,,,,,,218.00942233399837,223.12610987501102,218.00942233399837,218.00942233399837,218.00942233399837,218.00942233399837,218.46340370899998,219.45018741700915,218.4776097506731,,220.0865043340018,221.0837412920082,220.09859533366787,,223.12610987501102,223.9749527919921,226.02665187499952,229.9757996670087,223.9749527919921,223.9749527919921,229.13314341701334,223.9749527919921,223.9749527919921,223.9749527919921,223.9749527919921,224.42903241701424,225.4789112090075,224.4002613336818,,226.02665187499952,227.08027070900425,225.9973059586812,,223.9749527919921,229.13314341701334,223.9749527919921,229.13314341701334,229.17389495900716,,223.9749527919921,1,1,0.8404529990220908,reldom2_s023,001,2025-02-27_15h42.50.121,What-B-Scan_AC,2022.2.5,None,
18,Second_Order,3.0,audwhat,stimulus/audwhat_stim/percussion mallet_high-pitch_Dtri_loud.wav,stimulus/audwhat_stim/string cello_high-pitch_Dtri_loud.wav,stimulus/audwhat_stim/string viola_low-pitch_Ftri_loud.wav,stimulus/audwhat_stim/percussion mallet_low-pitch_Ftri_loud.wav,stimulus/viswhat_stim/match_blank.png,stimulus/viswhat_stim/match_box.png,stimulus/viswhat_stim/match_yes.png,stimulus/viswhat_stim/match_no.png,1.0,Match,Pitch,Pitch,1,5.125,0,5.125,0,5.125,0,5.125,0,0.625,0.625,0,0.0,0,0.0,0,0.0,0,0.0,1,0.5,1,2.125,1,0.5,1,2.125,0,,,,,0,23,23,23,,,,,,,,,229.9757996670087,235.09968516702065,229.9757996670087,229.9757996670087,229.9757996670087,229.9757996670087,230.4240097500151,231.41144845899544,230.4383066666817,,232.05904849999934,233.04986324999481,232.06271054168272,,235.09968516702065,235.83337475001463,237.914474374993,,235.83337475001463,235.83337475001463,241.005037541996,235.83337475001463,235.83337475001463,235.83337475001463,235.83337475001463,236.2839022919943,237.32504883399815,236.25522133367875,,237.914474374993,238.9614743750135,237.88545750067377,,235.83337475001463,241.005037541996,235.83337475001463,241.005037541996,241.005037541996,241.68928745901212,235.83337475001463,None,0,,reldom2_s023,001,2025-02-27_15h42.50.121,What-B-Scan_AC,2022.2.5,None,
0,0.0,None,fixation,stimulus/viswhat_stim/blank_white.png,stimulus/viswhat_stim/blank_white.png,stimulus/audwhat_stim/blank_white.png,stimulus/audwhat_stim/blank_white.png,stimulus/viswhat_stim/blank_white.png,stimulus/viswhat_stim/blank_white.png,stimulus/viswhat_stim/blank_white.png,stimulus/viswhat_stim/blank_white.png,0.0,0.0,0.0,0.0,0,0.0,0,0.0,0,0.0,0,0.0,0,0.0,0.0,0,0.0,0,0.0,0,0.0,0,0.0,0,0.0,0,0.0,0,0.0,0,0.0,8,,,,,0,24,24,24,,,,,,,,,241.91647545900196,241.91647545900196,241.91647545900196,241.91647545900196,241.91647545900196,241.91647545900196,241.91647545900196,241.91647545900196,241.82262079234548,241.91647545900196,241.91647545900196,241.91647545900196,241.82262079234548,241.91647545900196,241.91647545900196,241.91647545900196,241.91647545900196,241.91647545900196,241.91647545900196,241.91647545900196,241.91647545900196,241.91647545900196,241.91647545900196,241.91647545900196,241.91647545900196,241.91647545900196,241.91647545900196,241.87262079234546,241.91647545900196,241.91647545900196,241.91647545900196,241.87262079234546,241.91647545900196,241.91647545900196,241.91647545900196,241.91647545900196,241.91647545900196,247.10605158400722,247.10605158400722,250.1785015000205,None,0,,reldom2_s023,001,2025-02-27_15h42.50.121,What-B-Scan_AC,2022.2.5,None,
19,First_Order,4.0,audwhat,stimulus/audwhat_stim/dummy.wav,stimulus/audwhat_stim/dummy.wav,stimulus/audwhat_stim/percussion mallet_low-pitch_Ftri_loud.wav,stimulus/audwhat_stim/string viola_low-pitch_Ftri_loud.wav,stimulus/audwhat_stim/blank_white.png,stimulus/audwhat_stim/pitch_box.png,stimulus/audwhat_stim/pitch_yes.png,stimulus/audwhat_stim/pitch_no.png,None,Pitch,None,Pitch,1,0.0,0,5.125,0,5.125,0,5.125,0,0.0,0.625,0,0.0,0,0.0,0,0.0,0,0.0,0,0.0,0,0.0,1,0.5,1,2.125,0,,,,,0,25,25,25,,,,,,,,,250.1785015000205,250.1785015000205,250.1785015000205,250.1785015000205,250.1785015000205,250.1785015000205,250.1785015000205,250.1785015000205,250.10948283365968,250.1785015000205,250.1785015000205,250.1785015000205,250.10948283365968,250.1785015000205,250.1785015000205,250.1785015000205,252.2829697499983,256.30027666699607,250.1785015000205,250.1785015000205,255.35980216701864,250.1785015000205,250.1785015000205,250.1785015000205,250.1785015000205,250.63622012501583,251.6882789170195,250.60652729167876,,252.2829697499983,253.34192491701106,252.25340154167887,,250.1785015000205,255.35980216701864,250.1785015000205,255.35980216701864,255.40081383401412,256.0891849590116,250.1785015000205,1,1,2.7812997500004712,reldom2_s023,001,2025-02-27_15h42.50.121,What-B-Scan_AC,2022.2.5,None,
20,First_Order,4.0,audwhat,stimulus/audwhat_stim/dummy.wav,stimulus/audwhat_stim/dummy.wav,stimulus/audwhat_stim/string viola_low-pitch_F_loud.wav,stimulus/audwhat_stim/string cello_high-pitch_Ftri_loud.wav,stimulus/audwhat_stim/blank_white.png,stimulus/audwhat_stim/category_box.png,stimulus/audwhat_stim/category_yes.png,stimulus/audwhat_stim/category_no.png,None,Category,None,Category,1,0.0,0,5.125,0,5.125,0,5.125,0,0.0,0.625,0,0.0,0,0.0,0,0.0,0,0.0,0,0.0,0,0.0,1,0.5,1,2.125,0,,,,,0,26,26,26,,,,,,,,,256.30027666699607,256.30027666699607,256.30027666699607,256.30027666699607,256.30027666699607,256.30027666699607,256.30027666699607,256.30027666699607,256.22251829234494,256.30027666699607,256.30027666699607,256.30027666699607,256.22251829234494,256.30027666699607,256.30027666699607,256.30027666699607,258.37198162500863,262.4143686250027,256.30027666699607,256.30027666699607,261.4693168750091,256.30027666699607,256.30027666699607,256.30027666699607,256.30027666699607,256.76135245899786,257.82080083401524,256.7319417506844,,258.37198162500863,259.4416812499985,258.3431597506608,,256.30027666699607,261.4693168750091,256.30027666699607,261.4693168750091,261.51034979202086,262.16023249999853,256.30027666699607,1,1,2.0556036659982055,reldom2_s023,001,2025-02-27_15h42.50.121,What-B-Scan_AC,2022.2.5,None,
21,First_Order,4.0,audwhat,stimulus/audwhat_stim/dummy.wav,stimulus/audwhat_stim/dummy.wav,stimulus/audwhat_stim/string viola_high-pitch_F_loud.wav,stimulus/audwhat_stim/percussion mallet_high-pitch_F_loud.wav,stimulus/audwhat_stim/blank_white.png,stimulus/audwhat_stim/category_box.png,stimulus/audwhat_stim/category_yes.png,stimulus/audwhat_stim/category_no.png,None,Category,None,Pitch,2,0.0,0,5.125,0,5.125,0,5.125,0,0.0,0.625,0,0.0,0,0.0,0,0.0,0,0.0,0,0.0,0,0.0,1,0.5,1,2.125,0,,,,,0,27,27,27,,,,,,,,,262.4143686250027,262.4143686250027,262.4143686250027,262.4143686250027,262.4143686250027,262.4143686250027,262.4143686250027,262.4143686250027,262.33379933334265,262.4143686250027,262.4143686250027,262.4143686250027,262.33379933334265,262.4143686250027,262.4143686250027,262.4143686250027,264.4960971669934,,262.4143686250027,262.4143686250027,267.5986921250005,262.4143686250027,262.4143686250027,262.4143686250027,262.4143686250027,262.876211166993,263.94315925001865,262.8462642506677,,264.4960971669934,265.56268104200717,264.46664479168635,,262.4143686250027,267.5986921250005,262.4143686250027,267.5986921250005,267.6394692090107,268.2901401669951,262.4143686250027,2,1,1.8276468330004718,reldom2_s023,001,2025-02-27_15h42.50.121,What-B-Scan_AC,2022.2.5,None,
22,First_Order,4.0,audwhat,stimulus/audwhat_stim/dummy.wav,stimulus/audwhat_stim/dummy.wav,stimulus/audwhat_stim/percussion xylophone_high-pitch_D_loud.wav,stimulus/audwhat_stim/percussion mallet_low-pitch_F_loud.wav,stimulus/audwhat_stim/blank_white.png,stimulus/audwhat_stim/pitch_box.png,stimulus/audwhat_stim/pitch_yes.png,stimulus/audwhat_stim/pitch_no.png,None,Pitch,None,Category,2,0.0,0,5.125,0,5.125,0,5.125,0,0.0,0.625,0,0.0,0,0.0,0,0.0,0,0.0,0,0.0,0,0.0,1,0.5,1,2.125,0,,,,,0,28,28,28,,,,,,,,,268.50212270900374,268.50212270900374,268.50212270900374,268.50212270900374,268.50212270900374,268.50212270900374,268.50212270900374,268.50212270900374,268.42347350032844,268.50212270900374,268.50212270900374,268.50212270900374,268.42347350032844,268.50212270900374,268.50212270900374,268.50212270900374,270.5736557500204,,268.50212270900374,268.50212270900374,273.6593367920141,268.50212270900374,268.50212270900374,268.50212270900374,268.50212270900374,268.9609645839955,270.02252170900465,268.9314939586659,269.97593766701175,270.5736557500204,271.63548404199537,270.5444755836836,,268.50212270900374,273.6593367920141,268.50212270900374,273.6593367920141,273.7004508750106,274.35106466701836,268.50212270900374,2,1,2.466360041027656,reldom2_s023,001,2025-02-27_15h42.50.121,What-B-Scan_AC,2022.2.5,None,
0,0.0,None,fixation,stimulus/viswhat_stim/blank_white.png,stimulus/viswhat_stim/blank_white.png,stimulus/audwhat_stim/blank_white.png,stimulus/audwhat_stim/blank_white.png,stimulus/viswhat_stim/blank_white.png,stimulus/viswhat_stim/blank_white.png,stimulus/viswhat_stim/blank_white.png,stimulus/viswhat_stim/blank_white.png,0.0,0.0,0.0,0.0,0,0.0,0,0.0,0,0.0,0,0.0,0,0.0,0.0,0,0.0,0,0.0,0,0.0,0,0.0,0,0.0,0,0.0,0,0.0,0,0.0,10,,,,,0,29,29,29,,,,,,,,,274.6240229590039,274.6240229590039,274.6240229590039,274.6240229590039,274.6240229590039,274.6240229590039,274.6240229590039,274.6240229590039,274.52564045833617,274.6240229590039,274.6240229590039,274.6240229590039,274.52564045833617,274.6240229590039,274.6240229590039,274.6240229590039,274.6240229590039,274.6240229590039,274.6240229590039,274.6240229590039,274.6240229590039,274.6240229590039,274.6240229590039,274.6240229590039,274.6240229590039,274.6240229590039,274.6240229590039,274.5756404583362,274.6240229590039,274.6240229590039,274.6240229590039,274.5756404583362,274.6240229590039,274.6240229590039,274.6240229590039,274.6240229590039,274.6240229590039,279.83186762500554,279.83186762500554,284.75956641699304,None,0,,reldom2_s023,001,2025-02-27_15h42.50.121,What-B-Scan_AC,2022.2.5,None,
23,Second_Order,4.0,audwhat,stimulus/audwhat_stim/percussion mallet_high-pitch_Ftri_loud.wav,stimulus/audwhat_stim/percussion mallet_low-pitch_Dtri_loud.wav,stimulus/audwhat_stim/percussion mallet_high-pitch_D_loud.wav,stimulus/audwhat_stim/string viola_high-pitch_D_loud.wav,stimulus/viswhat_stim/match_blank.png,stimulus/viswhat_stim/match_box.png,stimulus/viswhat_stim/match_yes.png,stimulus/viswhat_stim/match_no.png,2.0,Match,Category,Pitch,2,5.125,0,5.125,0,5.125,0,5.125,0,0.75,0.75,0,0.0,0,0.0,0,0.0,0,0.0,1,0.5,1,2.125,1,0.5,1,2.125,0,,,,,0,30,30,30,,,,,,,,,284.75956641699304,289.881827959005,284.75956641699304,284.75956641699304,284.75956641699304,284.75956641699304,285.2154026670032,286.20471066699247,285.21899091668115,,286.84115100000054,287.8381643340108,286.85249725066046,,289.881827959005,290.7316712090105,292.78678995900555,,290.7316712090105,290.7316712090105,295.90631762502016,290.7316712090105,290.7316712090105,290.7316712090105,290.7316712090105,291.1894364170148,292.2399215839978,291.1601940836738,,292.78678995900555,293.8409567089984,292.75809354166654,,290.7316712090105,295.90631762502016,290.7316712090105,295.90631762502016,295.90631762502016,,290.7316712090105,1,0,1.3841959160054103,reldom2_s023,001,2025-02-27_15h42.50.121,What-B-Scan_AC,2022.2.5,None,
24,Second_Order,4.0,audwhat,stimulus/audwhat_stim/string viola_high-pitch_Dtri_loud.wav,stimulus/audwhat_stim/percussion mallet_high-pitch_Dtri_loud.wav,stimulus/audwhat_stim/string cello_low-pitch_Dtri_loud.wav,stimulus/audwhat_stim/string viola_high-pitch_Ftri_loud.wav,stimulus/viswhat_stim/match_blank.png,stimulus/viswhat_stim/match_box.png,stimulus/viswhat_stim/match_yes.png,stimulus/viswhat_stim/match_no.png,2.0,Match,Pitch,Category,2,5.125,0,5.125,0,5.125,0,5.125,0,0.625,0.625,0,0.0,0,0.0,0,0.0,0,0.0,1,0.5,1,2.125,1,0.5,1,2.125,0,,,,,0,31,31,31,,,,,,,,,296.7091972500202,301.8256505840109,296.7091972500202,296.7091972500202,296.7091972500202,296.7091972500202,297.1620435420191,298.14885404199595,297.1760672086714,,298.7847746250045,299.7823210839997,298.7968084586648,,301.8256505840109,302.55798054201296,304.60318104200996,308.6585457920155,302.55798054201296,302.55798054201296,307.70685099999537,302.55798054201296,302.55798054201296,302.55798054201296,302.55798054201296,303.0087416669994,304.05787025002064,302.97986700066053,,304.60318104200996,305.6534617920115,304.57409666668195,,302.55798054201296,307.70685099999537,302.55798054201296,307.70685099999537,307.74745758401696,308.42993787501473,302.55798054201296,1,0,1.0958297490142286,reldom2_s023,001,2025-02-27_15h42.50.121,What-B-Scan_AC,2022.2.5,None,
0,0.0,None,fixation,stimulus/viswhat_stim/blank_white.png,stimulus/viswhat_stim/blank_white.png,stimulus/audwhat_stim/blank_white.png,stimulus/audwhat_stim/blank_white.png,stimulus/viswhat_stim/blank_white.png,stimulus/viswhat_stim/blank_white.png,stimulus/viswhat_stim/blank_white.png,stimulus/viswhat_stim/blank_white.png,0.0,0.0,0.0,0.0,0,0.0,0,0.0,0,0.0,0,0.0,0,0.0,0.0,0,0.0,0,0.0,0,0.0,0,0.0,0,0.0,0,0.0,0,0.0,0,0.0,9,,,,,0,32,32,32,,,,,,,,,308.6585457920155,308.6585457920155,308.6585457920155,308.6585457920155,308.6585457920155,308.6585457920155,308.6585457920155,308.6585457920155,308.56327120834806,308.6585457920155,308.6585457920155,308.6585457920155,308.56327120834806,308.6585457920155,308.6585457920155,308.6585457920155,308.6585457920155,308.6585457920155,308.6585457920155,308.6585457920155,308.6585457920155,308.6585457920155,308.6585457920155,308.6585457920155,308.6585457920155,308.6585457920155,308.6585457920155,308.61327120834807,308.6585457920155,308.6585457920155,308.6585457920155,308.61327120834807,308.6585457920155,308.6585457920155,308.6585457920155,308.6585457920155,308.6585457920155,313.86319141701097,313.86319141701097,317.9161305419984,None,0,,reldom2_s023,001,2025-02-27_15h42.50.121,What-B-Scan_AC,2022.2.5,None,
25,First_Order,5.0,viswhat,stimulus/viswhat_stim/blank_white.png,stimulus/viswhat_stim/blank_white.png,stimulus/viswhat_stim/land_animal-elephant.png,stimulus/viswhat_stim/land_vehicle-firetruck.png,stimulus/viswhat_stim/blank_white.png,stimulus/viswhat_stim/location_box.png,stimulus/viswhat_stim/location_yes.png,stimulus/viswhat_stim/location_no.png,None,Location,None,Location,1,0.0,0,5.125,0,5.125,0,5.125,0,0.0,0.625,0,0.0,0,0.0,1,0.5,1,2.125,0,0.0,0,0.0,0,0.0,0,0.0,0,,,,,0,33,33,33,,,,,,,,,317.9161305419984,317.9161305419984,317.9161305419984,317.9161305419984,317.9161305419984,317.9161305419984,317.9161305419984,317.9161305419984,317.81695745865966,317.9161305419984,317.9161305419984,317.9161305419984,317.81695745865966,317.9161305419984,317.9161305419984,317.9161305419984,319.98256245901575,,317.9161305419984,317.9161305419984,323.1184684589971,318.3873958750046,319.45171587500954,319.98256245901575,321.0498062919942,317.9161305419984,317.9161305419984,317.86695745865967,317.9161305419984,317.9161305419984,317.9161305419984,317.86695745865967,317.9161305419984,317.9161305419984,323.1184684589971,317.9161305419984,323.1184684589971,323.1184684589971,323.9505726250063,317.9161305419984,1,1,2.012263749988051,reldom2_s023,001,2025-02-27_15h42.50.121,What-B-Scan_AC,2022.2.5,None,
26,First_Order,5.0,viswhat,stimulus/viswhat_stim/blank_white.png,stimulus/viswhat_stim/blank_white.png,stimulus/viswhat_stim/land_vehicle-tank.png,stimulus/viswhat_stim/land_animal-pig.png,stimulus/viswhat_stim/blank_white.png,stimulus/viswhat_stim/type_box.png,stimulus/viswhat_stim/type_yes.png,stimulus/viswhat_stim/type_no.png,None,Type,None,Location,2,0.0,0,5.125,0,5.125,0,5.125,0,0.0,0.625,0,0.0,0,0.0,1,0.5,1,2.125,0,0.0,0,0.0,0,0.0,0,0.0,0,,,,,0,34,34,34,,,,,,,,,323.9505726250063,323.9505726250063,323.9505726250063,323.9505726250063,323.9505726250063,323.9505726250063,323.9505726250063,323.9505726250063,323.9274520006826,323.9505726250063,323.9505726250063,323.9505726250063,323.9274520006826,323.9505726250063,323.9505726250063,323.9505726250063,326.0650983340165,330.10934799999814,323.9505726250063,323.9505726250063,329.07656129199313,324.4294238339935,325.43383208400337,326.0650983340165,327.07176458401955,323.9505726250063,323.9505726250063,323.9441186673493,323.9505726250063,323.9505726250063,323.9505726250063,323.9441186673493,323.9505726250063,323.9505726250063,329.07656129199313,323.9505726250063,329.07656129199313,329.17410729199764,329.8034156670037,323.9505726250063,2,1,2.2158855410234537,reldom2_s023,001,2025-02-27_15h42.50.121,What-B-Scan_AC,2022.2.5,None,
27,First_Order,5.0,viswhat,stimulus/viswhat_stim/blank_white.png,stimulus/viswhat_stim/blank_white.png,stimulus/viswhat_stim/land_animal-moose.png,stimulus/viswhat_stim/land_vehicle-vespa.png,stimulus/viswhat_stim/blank_white.png,stimulus/viswhat_stim/location_box.png,stimulus/viswhat_stim/location_yes.png,stimulus/viswhat_stim/location_no.png,None,Location,None,Location,1,0.0,0,5.125,0,5.125,0,5.125,0,0.0,0.625,0,0.0,0,0.0,1,0.5,1,2.125,0,0.0,0,0.0,0,0.0,0,0.0,0,,,,,0,35,35,35,,,,,,,,,330.10934799999814,330.10934799999814,330.10934799999814,330.10934799999814,330.10934799999814,330.10934799999814,330.10934799999814,330.10934799999814,329.98694362534053,330.10934799999814,330.10934799999814,330.10934799999814,329.98694362534053,330.10934799999814,330.10934799999814,330.10934799999814,332.17833591700764,,330.10934799999814,330.10934799999814,335.31481916701887,330.57578937499784,331.6460621250153,332.17833591700764,333.25049245901755,330.10934799999814,330.10934799999814,330.0536102920072,330.10934799999814,330.10934799999814,330.10934799999814,330.0536102920072,330.10934799999814,330.10934799999814,335.31481916701887,330.10934799999814,335.31481916701887,335.31481916701887,336.19739679200575,330.10934799999814,1,1,2.2861394160136115,reldom2_s023,001,2025-02-27_15h42.50.121,What-B-Scan_AC,2022.2.5,None,
28,First_Order,5.0,viswhat,stimulus/viswhat_stim/blank_white.png,stimulus/viswhat_stim/blank_white.png,stimulus/viswhat_stim/land_animal-giraffe.png,stimulus/viswhat_stim/water_animal-squid.png,stimulus/viswhat_stim/blank_white.png,stimulus/viswhat_stim/location_box.png,stimulus/viswhat_stim/location_yes.png,stimulus/viswhat_stim/location_no.png,None,Location,None,Type,2,0.0,0,5.125,0,5.125,0,5.125,0,0.0,0.625,0,0.0,0,0.0,1,0.5,1,2.125,0,0.0,0,0.0,0,0.0,0,0.0,0,,,,,0,36,36,36,,,,,,,,,336.19739679200575,336.19739679200575,336.19739679200575,336.19739679200575,336.19739679200575,336.19739679200575,336.19739679200575,336.19739679200575,336.108523875343,336.19739679200575,336.19739679200575,336.19739679200575,336.108523875343,336.19739679200575,336.19739679200575,336.19739679200575,338.30485979199875,342.34119262499735,336.19739679200575,336.19739679200575,341.39723062500707,336.6426104590064,337.6967862920137,338.30485979199875,339.35765266700764,336.19739679200575,336.19739679200575,336.15852387534295,336.19739679200575,336.19739679200575,336.19739679200575,336.15852387534295,336.19739679200575,336.19739679200575,341.39723062500707,336.19739679200575,341.39723062500707,341.39723062500707,342.0894492499938,336.19739679200575,2,1,1.8630369160091504,reldom2_s023,001,2025-02-27_15h42.50.121,What-B-Scan_AC,2022.2.5,None,
0,0.0,None,fixation,stimulus/viswhat_stim/blank_white.png,stimulus/viswhat_stim/blank_white.png,stimulus/audwhat_stim/blank_white.png,stimulus/audwhat_stim/blank_white.png,stimulus/viswhat_stim/blank_white.png,stimulus/viswhat_stim/blank_white.png,stimulus/viswhat_stim/blank_white.png,stimulus/viswhat_stim/blank_white.png,0.0,0.0,0.0,0.0,0,0.0,0,0.0,0,0.0,0,0.0,0,0.0,0.0,0,0.0,0,0.0,0,0.0,0,0.0,0,0.0,0,0.0,0,0.0,0,0.0,9,,,,,0,37,37,37,,,,,,,,,342.34119262499735,342.34119262499735,342.34119262499735,342.34119262499735,342.34119262499735,342.34119262499735,342.34119262499735,342.34119262499735,342.23944924999375,342.34119262499735,342.34119262499735,342.34119262499735,342.23944924999375,342.34119262499735,342.34119262499735,342.34119262499735,342.34119262499735,342.34119262499735,342.34119262499735,342.34119262499735,342.34119262499735,342.34119262499735,342.34119262499735,342.34119262499735,342.34119262499735,342.34119262499735,342.34119262499735,342.28944924999377,342.34119262499735,342.34119262499735,342.34119262499735,342.28944924999377,342.34119262499735,342.34119262499735,342.34119262499735,342.34119262499735,342.34119262499735,347.56795079199946,347.56795079199946,351.4749619170034,None,0,,reldom2_s023,001,2025-02-27_15h42.50.121,What-B-Scan_AC,2022.2.5,None,
29,Second_Order,5.0,viswhat,stimulus/viswhat_stim/water_vehicle-pirateship.png,stimulus/viswhat_stim/land_vehicle-schoolbus.png,stimulus/viswhat_stim/water_animal-dolphin.png,stimulus/viswhat_stim/land_animal-cat.png,stimulus/viswhat_stim/match_blank.png,stimulus/viswhat_stim/match_box.png,stimulus/viswhat_stim/match_yes.png,stimulus/viswhat_stim/match_no.png,1.0,Match,Type,Type,1,5.125,0,5.125,0,5.125,0,5.125,0,0.75,0.75,1,0.5,1,2.125,1,0.5,1,2.125,0,0.0,0,0.0,0,0.0,0,0.0,0,,,,,0,38,38,38,,,,,,,,,351.4749619170034,356.59724066700437,351.9380149170174,352.92536441699485,353.573441000015,354.5619964170037,351.4749619170034,351.4749619170034,351.4818953753294,351.4749619170034,351.4749619170034,351.4749619170034,351.4818953753294,351.4749619170034,356.59724066700437,357.42258737501106,359.4829432090046,363.4578315000108,357.42258737501106,357.42258737501106,362.5663902499946,357.8658237500058,358.91093045900925,359.4829432090046,360.50081266701454,357.42258737501106,357.42258737501106,357.3984587506721,357.42258737501106,357.42258737501106,357.42258737501106,357.3984587506721,357.42258737501106,357.42258737501106,362.5663902499946,357.42258737501106,362.5663902499946,362.5927732500131,,357.42258737501106,1,1,2.78924070802168,reldom2_s023,001,2025-02-27_15h42.50.121,What-B-Scan_AC,2022.2.5,None,
30,Second_Order,5.0,viswhat,stimulus/viswhat_stim/water_animal-orka.png,stimulus/viswhat_stim/land_animal-bunny.png,stimulus/viswhat_stim/land_vehicle-motorcycle.png,stimulus/viswhat_stim/water_vehicle-motorboatraft.png,stimulus/viswhat_stim/match_blank.png,stimulus/viswhat_stim/match_box.png,stimulus/viswhat_stim/match_yes.png,stimulus/viswhat_stim/match_no.png,1.0,Match,Type,Type,1,5.125,0,5.125,0,5.125,0,5.125,0,0.625,0.625,1,0.5,1,2.125,1,0.5,1,2.125,0,0.0,0,0.0,0,0.0,0,0.0,0,,,,,0,39,39,39,,,,,,,,,363.4578315000108,368.5790396250086,363.86599216700415,364.8525636669947,365.48900495900307,366.48668033399736,363.4578315000108,363.4578315000108,363.45784179234954,363.4578315000108,363.4578315000108,363.4578315000108,363.45784179234954,363.4578315000108,368.5790396250086,369.2767785000033,371.34265816700645,375.3904147919966,369.2767785000033,369.2767785000033,374.42124870899715,369.7182452090201,370.75029733401607,371.34265816700645,372.38116683400585,369.2767785000033,369.2767785000033,369.2432284590148,369.2767785000033,369.2767785000033,369.2767785000033,369.2432284590148,369.2767785000033,369.2767785000033,374.42124870899715,369.2767785000033,374.42124870899715,374.4695331249968,375.11497445899295,369.2767785000033,1,1,2.0051696660229936,reldom2_s023,001,2025-02-27_15h42.50.121,What-B-Scan_AC,2022.2.5,None,
0,0.0,None,fixation,stimulus/viswhat_stim/blank_white.png,stimulus/viswhat_stim/blank_white.png,stimulus/audwhat_stim/blank_white.png,stimulus/audwhat_stim/blank_white.png,stimulus/viswhat_stim/blank_white.png,stimulus/viswhat_stim/blank_white.png,stimulus/viswhat_stim/blank_white.png,stimulus/viswhat_stim/blank_white.png,0.0,0.0,0.0,0.0,0,0.0,0,0.0,0,0.0,0,0.0,0,0.0,0.0,0,0.0,0,0.0,0,0.0,0,0.0,0,0.0,0,0.0,0,0.0,0,0.0,9,,,,,0,40,40,40,,,,,,,,,375.3904147919966,375.3904147919966,375.3904147919966,375.3904147919966,375.3904147919966,375.3904147919966,375.3904147919966,375.3904147919966,375.286375499994,375.3904147919966,375.3904147919966,375.3904147919966,375.286375499994,375.3904147919966,375.3904147919966,375.3904147919966,375.3904147919966,375.3904147919966,375.3904147919966,375.3904147919966,375.3904147919966,375.3904147919966,375.3904147919966,375.3904147919966,375.3904147919966,375.3904147919966,375.3904147919966,375.35304216666066,375.3904147919966,375.3904147919966,375.3904147919966,375.35304216666066,375.3904147919966,375.3904147919966,375.3904147919966,375.3904147919966,375.3904147919966,380.60764112501056,380.60764112501056,384.6746788340097,None,0,,reldom2_s023,001,2025-02-27_15h42.50.121,What-B-Scan_AC,2022.2.5,None,
31,First_Order,6.0,viswhat,stimulus/viswhat_stim/blank_white.png,stimulus/viswhat_stim/blank_white.png,stimulus/viswhat_stim/water_vehicle-ship.png,stimulus/viswhat_stim/land_vehicle-schoolbus.png,stimulus/viswhat_stim/blank_white.png,stimulus/viswhat_stim/location_box.png,stimulus/viswhat_stim/location_yes.png,stimulus/viswhat_stim/location_no.png,None,Location,None,Type,2,0.0,0,5.125,0,5.125,0,5.125,0,0.0,0.625,0,0.0,0,0.0,1,0.5,1,2.125,0,0.0,0,0.0,0,0.0,0,0.0,0,,,,,0,41,41,41,,,,,,,,,384.6746788340097,384.6746788340097,384.6746788340097,384.6746788340097,384.6746788340097,384.6746788340097,384.6746788340097,384.6746788340097,384.573296291676,384.6746788340097,384.6746788340097,384.6746788340097,384.573296291676,384.6746788340097,384.6746788340097,384.6746788340097,386.7736323749996,390.74973045900697,384.6746788340097,384.6746788340097,389.89285587501945,385.15516854199814,386.2345456670155,386.7736323749996,387.8560339999967,384.6746788340097,384.6746788340097,384.623296291676,384.6746788340097,384.6746788340097,384.6746788340097,384.623296291676,384.6746788340097,384.6746788340097,389.89285587501945,384.6746788340097,389.89285587501945,389.89285587501945,390.74973045900697,384.6746788340097,1,0,0.7750959990080446,reldom2_s023,001,2025-02-27_15h42.50.121,What-B-Scan_AC,2022.2.5,None,
32,First_Order,6.0,viswhat,stimulus/viswhat_stim/blank_white.png,stimulus/viswhat_stim/blank_white.png,stimulus/viswhat_stim/land_vehicle-bus.png,stimulus/viswhat_stim/water_vehicle-jetski.png,stimulus/viswhat_stim/blank_white.png,stimulus/viswhat_stim/type_box.png,stimulus/viswhat_stim/type_yes.png,stimulus/viswhat_stim/type_no.png,None,Type,None,Type,1,0.0,0,5.125,0,5.125,0,5.125,0,0.0,0.625,0,0.0,0,0.0,1,0.5,1,2.125,0,0.0,0,0.0,0,0.0,0,0.0,0,,,,,0,42,42,42,,,,,,,,,390.74973045900697,390.74973045900697,390.74973045900697,390.74973045900697,390.74973045900697,390.74973045900697,390.74973045900697,390.74973045900697,390.7101126256845,390.74973045900697,390.74973045900697,390.74973045900697,390.7101126256845,390.74973045900697,390.74973045900697,390.74973045900697,392.8456861250161,396.8528981670097,390.74973045900697,390.74973045900697,395.90035658399574,391.2180312090204,392.2367392920132,392.8456861250161,393.8674320419959,390.74973045900697,390.74973045900697,390.7267792923512,390.74973045900697,390.74973045900697,390.74973045900697,390.7267792923512,390.74973045900697,390.74973045900697,395.90035658399574,390.74973045900697,395.90035658399574,395.97106358400197,396.6045344590093,390.74973045900697,1,1,2.1879433750000317,reldom2_s023,001,2025-02-27_15h42.50.121,What-B-Scan_AC,2022.2.5,None,
33,First_Order,6.0,viswhat,stimulus/viswhat_stim/blank_white.png,stimulus/viswhat_stim/blank_white.png,stimulus/viswhat_stim/water_animal-seahorse.png,stimulus/viswhat_stim/water_vehicle-cabincruiser.png,stimulus/viswhat_stim/blank_white.png,stimulus/viswhat_stim/type_box.png,stimulus/viswhat_stim/type_yes.png,stimulus/viswhat_stim/type_no.png,None,Type,None,Location,2,0.0,0,5.125,0,5.125,0,5.125,0,0.0,0.625,0,0.0,0,0.0,1,0.5,1,2.125,0,0.0,0,0.0,0,0.0,0,0.0,0,,,,,0,43,43,43,,,,,,,,,396.8528981670097,396.8528981670097,396.8528981670097,396.8528981670097,396.8528981670097,396.8528981670097,396.8528981670097,396.8528981670097,396.79765325001205,396.8528981670097,396.8528981670097,396.8528981670097,396.79765325001205,396.8528981670097,396.8528981670097,396.8528981670097,398.9543169999961,,396.8528981670097,396.8528981670097,402.0207087919989,397.33467708399985,398.3697960000136,398.9543169999961,399.9914405000163,396.8528981670097,396.8528981670097,396.8309865833454,396.8528981670097,396.8528981670097,396.8528981670097,396.8309865833454,396.8528981670097,396.8528981670097,402.0207087919989,396.8528981670097,402.0207087919989,402.078974959004,402.74116695899284,396.8528981670097,2,1,1.9888375829905272,reldom2_s023,001,2025-02-27_15h42.50.121,What-B-Scan_AC,2022.2.5,None,
34,First_Order,6.0,viswhat,stimulus/viswhat_stim/blank_white.png,stimulus/viswhat_stim/blank_white.png,stimulus/viswhat_stim/land_animal-tiger.png,stimulus/viswhat_stim/water_animal-octopus.png,stimulus/viswhat_stim/blank_white.png,stimulus/viswhat_stim/type_box.png,stimulus/viswhat_stim/type_yes.png,stimulus/viswhat_stim/type_no.png,None,Type,None,Type,1,0.0,0,5.125,0,5.125,0,5.125,0,0.0,0.625,0,0.0,0,0.0,1,0.5,1,2.125,0,0.0,0,0.0,0,0.0,0,0.0,0,,,,,0,44,44,44,,,,,,,,,402.9534357500088,402.9534357500088,402.9534357500088,402.9534357500088,402.9534357500088,402.9534357500088,402.9534357500088,402.9534357500088,402.88654512568417,402.9534357500088,402.9534357500088,402.9534357500088,402.88654512568417,402.9534357500088,402.9534357500088,402.9534357500088,405.0575325420068,,402.9534357500088,402.9534357500088,408.1075582920166,403.4268639170041,404.4560609589971,405.0575325420068,406.0914079170034,402.9534357500088,402.9534357500088,402.91987845901747,402.9534357500088,402.9534357500088,402.9534357500088,402.91987845901747,402.9534357500088,402.9534357500088,408.1075582920166,402.9534357500088,408.1075582920166,408.1821561669931,408.85495370900026,402.9534357500088,1,1,2.498631791007938,reldom2_s023,001,2025-02-27_15h42.50.121,What-B-Scan_AC,2022.2.5,None,
0,0.0,None,fixation,stimulus/viswhat_stim/blank_white.png,stimulus/viswhat_stim/blank_white.png,stimulus/audwhat_stim/blank_white.png,stimulus/audwhat_stim/blank_white.png,stimulus/viswhat_stim/blank_white.png,stimulus/viswhat_stim/blank_white.png,stimulus/viswhat_stim/blank_white.png,stimulus/viswhat_stim/blank_white.png,0.0,0.0,0.0,0.0,0,0.0,0,0.0,0,0.0,0,0.0,0,0.0,0.0,0,0.0,0,0.0,0,0.0,0,0.0,0,0.0,0,0.0,0,0.0,0,0.0,8,,,,,0,45,45,45,,,,,,,,,409.0852790000208,409.0852790000208,409.0852790000208,409.0852790000208,409.0852790000208,409.0852790000208,409.0852790000208,409.0852790000208,408.9882870423336,409.0852790000208,409.0852790000208,409.0852790000208,408.9882870423336,409.0852790000208,409.0852790000208,409.0852790000208,409.0852790000208,409.0852790000208,409.0852790000208,409.0852790000208,409.0852790000208,409.0852790000208,409.0852790000208,409.0852790000208,409.0852790000208,409.0852790000208,409.0852790000208,409.0382870423336,409.0852790000208,409.0852790000208,409.0852790000208,409.0382870423336,409.0852790000208,409.0852790000208,409.0852790000208,409.0852790000208,409.0852790000208,414.30289679201087,414.30289679201087,417.2002765840152,None,0,,reldom2_s023,001,2025-02-27_15h42.50.121,What-B-Scan_AC,2022.2.5,None,
35,Second_Order,6.0,viswhat,stimulus/viswhat_stim/land_animal-wolf.png,stimulus/viswhat_stim/land_vehicle-schoolbus.png,stimulus/viswhat_stim/water_animal-shark.png,stimulus/viswhat_stim/water_vehicle-ship.png,stimulus/viswhat_stim/match_blank.png,stimulus/viswhat_stim/match_box.png,stimulus/viswhat_stim/match_yes.png,stimulus/viswhat_stim/match_no.png,1.0,Match,Location,Location,1,5.125,0,5.125,0,5.125,0,5.125,0,0.75,0.75,1,0.5,1,2.125,1,0.5,1,2.125,0,0.0,0,0.0,0,0.0,0,0.0,0,,,,,0,46,46,46,,,,,,,,,417.2002765840152,422.32087608400616,417.6746296250203,418.67380237500765,419.2959965839982,420.29431758401915,417.2002765840152,417.2002765840152,417.20883729233367,417.2002765840152,417.2002765840152,417.2002765840152,417.20883729233367,417.2002765840152,422.32087608400616,423.2216523750103,425.30141320900293,,423.2216523750103,423.2216523750103,428.42310679200455,423.63616966700647,424.74608120901394,425.30141320900293,426.4158564170066,423.2216523750103,423.2216523750103,423.1573859589931,423.2216523750103,423.2216523750103,423.2216523750103,423.1573859589931,423.2216523750103,423.2216523750103,428.42310679200455,423.2216523750103,428.42310679200455,428.42310679200455,,423.2216523750103,None,0,,reldom2_s023,001,2025-02-27_15h42.50.121,What-B-Scan_AC,2022.2.5,None,
36,Second_Order,6.0,viswhat,stimulus/viswhat_stim/land_vehicle-oldcar.png,stimulus/viswhat_stim/land_animal-cat.png,stimulus/viswhat_stim/water_vehicle-cargoboat.png,stimulus/viswhat_stim/water_animal-orka.png,stimulus/viswhat_stim/match_blank.png,stimulus/viswhat_stim/match_box.png,stimulus/viswhat_stim/match_yes.png,stimulus/viswhat_stim/match_no.png,1.0,Match,Location,Location,1,5.125,0,5.125,0,5.125,0,5.125,0,0.625,0.625,1,0.5,1,2.125,1,0.5,1,2.125,0,0.0,0,0.0,0,0.0,0,0.0,0,,,,,0,47,47,47,,,,,,,,,429.1644344170054,434.28127808400313,429.6175244170008,430.60495979202096,431.2421584170079,432.23864308401244,429.1644344170054,429.1644344170054,429.1634580006745,429.1644344170054,429.1644344170054,429.1644344170054,429.1634580006745,429.1644344170054,434.28127808400313,435.0536584999936,437.13127837501816,,435.0536584999936,435.0536584999936,440.25974949999363,435.5061314170016,436.6098054170143,437.13127837501816,438.24052108399337,435.0536584999936,435.0536584999936,434.9948890420142,435.0536584999936,435.0536584999936,435.0536584999936,434.9948890420142,435.0536584999936,435.0536584999936,440.25974949999363,435.0536584999936,440.25974949999363,440.20035937501234,441.1344724170049,435.0536584999936,2,0,2.293502290995093,reldom2_s023,001,2025-02-27_15h42.50.121,What-B-Scan_AC,2022.2.5,None,
0,0.0,None,fixation,stimulus/viswhat_stim/blank_white.png,stimulus/viswhat_stim/blank_white.png,stimulus/audwhat_stim/blank_white.png,stimulus/audwhat_stim/blank_white.png,stimulus/viswhat_stim/blank_white.png,stimulus/viswhat_stim/blank_white.png,stimulus/viswhat_stim/blank_white.png,stimulus/viswhat_stim/blank_white.png,0.0,0.0,0.0,0.0,0,0.0,0,0.0,0,0.0,0,0.0,0,0.0,0.0,0,0.0,0,0.0,0,0.0,0,0.0,0,0.0,0,0.0,0,0.0,0,0.0,10,,,,,0,48,48,48,,,,,,,,,441.1344724170049,441.1344724170049,441.1344724170049,441.1344724170049,441.1344724170049,441.1344724170049,441.1344724170049,441.1344724170049,441.0416443333515,441.1344724170049,441.1344724170049,441.1344724170049,441.0416443333515,441.1344724170049,441.1344724170049,441.1344724170049,441.1344724170049,441.1344724170049,441.1344724170049,441.1344724170049,441.1344724170049,441.1344724170049,441.1344724170049,441.1344724170049,441.1344724170049,441.1344724170049,441.1344724170049,441.09164433335144,441.1344724170049,441.1344724170049,441.1344724170049,441.09164433335144,441.1344724170049,441.1344724170049,441.1344724170049,441.1344724170049,441.1344724170049,446.358996459021,446.358996459021,451.36073320900323,None,0,,reldom2_s023,001,2025-02-27_15h42.50.121,What-B-Scan_AC,2022.2.5,None,
37,First_Order,7.0,audwhat,stimulus/audwhat_stim/dummy.wav,stimulus/audwhat_stim/dummy.wav,stimulus/audwhat_stim/string viola_low-pitch_Ftri_loud.wav,stimulus/audwhat_stim/string viola_high-pitch_Dtri_loud.wav,stimulus/audwhat_stim/blank_white.png,stimulus/audwhat_stim/category_box.png,stimulus/audwhat_stim/category_yes.png,stimulus/audwhat_stim/category_no.png,None,Category,None,Category,1,0.0,0,5.125,0,5.125,0,5.125,0,0.0,0.625,0,0.0,0,0.0,0,0.0,0,0.0,0,0.0,0,0.0,1,0.5,1,2.125,0,,,,,0,49,49,49,,,,,,,,,451.36073320900323,451.36073320900323,451.36073320900323,451.36073320900323,451.36073320900323,451.36073320900323,451.36073320900323,451.36073320900323,451.29038858368096,451.36073320900323,451.36073320900323,451.36073320900323,451.29038858368096,451.36073320900323,451.36073320900323,451.36073320900323,453.4419283750176,457.4883010420017,451.36073320900323,451.36073320900323,456.5422400420066,451.36073320900323,451.36073320900323,451.36073320900323,451.36073320900323,451.8238924170146,452.8860345419962,451.79403845867296,,453.4419283750176,454.5094768750132,453.4121925416732,,451.36073320900323,456.5422400420066,451.36073320900323,456.5422400420066,456.58307070902083,457.23524337500567,451.36073320900323,None,0,,reldom2_s023,001,2025-02-27_15h42.50.121,What-B-Scan_AC,2022.2.5,None,
38,First_Order,7.0,audwhat,stimulus/audwhat_stim/dummy.wav,stimulus/audwhat_stim/dummy.wav,stimulus/audwhat_stim/percussion mallet_high-pitch_D_loud.wav,stimulus/audwhat_stim/string viola_high-pitch_D_loud.wav,stimulus/audwhat_stim/blank_white.png,stimulus/audwhat_stim/pitch_box.png,stimulus/audwhat_stim/pitch_yes.png,stimulus/audwhat_stim/pitch_no.png,None,Pitch,None,Pitch,1,0.0,0,5.125,0,5.125,0,5.125,0,0.0,0.625,0,0.0,0,0.0,0,0.0,0,0.0,0,0.0,0,0.0,1,0.5,1,2.125,0,,,,,0,50,50,50,,,,,,,,,457.4883010420017,457.4883010420017,457.4883010420017,457.4883010420017,457.4883010420017,457.4883010420017,457.4883010420017,457.4883010420017,457.4088099173406,457.4883010420017,457.4883010420017,457.4883010420017,457.4088099173406,457.4883010420017,457.4883010420017,457.4883010420017,459.56476549999206,463.60131862500566,457.4883010420017,457.4883010420017,462.6557133340102,457.4883010420017,457.4883010420017,457.4883010420017,457.4883010420017,457.94986983400304,459.0122254170128,457.92055087566064,,459.56476549999206,460.6264019170194,459.5354932506782,,457.4883010420017,462.6557133340102,457.4883010420017,462.6557133340102,462.696622959018,463.3471042920137,457.4883010420017,1,1,1.2248614580312278,reldom2_s023,001,2025-02-27_15h42.50.121,What-B-Scan_AC,2022.2.5,None,
39,First_Order,7.0,audwhat,stimulus/audwhat_stim/dummy.wav,stimulus/audwhat_stim/dummy.wav,stimulus/audwhat_stim/string viola_low-pitch_Dtri_loud.wav,stimulus/audwhat_stim/percussion mallet_low-pitch_Dtri_loud.wav,stimulus/audwhat_stim/blank_white.png,stimulus/audwhat_stim/category_box.png,stimulus/audwhat_stim/category_yes.png,stimulus/audwhat_stim/category_no.png,None,Category,None,Pitch,2,0.0,0,5.125,0,5.125,0,5.125,0,0.0,0.625,0,0.0,0,0.0,0,0.0,0,0.0,0,0.0,0,0.0,1,0.5,1,2.125,0,,,,,0,51,51,51,,,,,,,,,463.60131862500566,463.60131862500566,463.60131862500566,463.60131862500566,463.60131862500566,463.60131862500566,463.60131862500566,463.60131862500566,463.5209884583329,463.60131862500566,463.60131862500566,463.60131862500566,463.5209884583329,463.60131862500566,463.60131862500566,463.60131862500566,465.6831102500146,,463.60131862500566,463.60131862500566,468.78846208401956,463.60131862500566,463.60131862500566,463.60131862500566,463.60131862500566,464.0636509169999,465.12735633400735,464.03404816668285,,465.6831102500146,466.7504079999926,465.6531760006658,,463.60131862500566,468.78846208401956,463.60131862500566,468.78846208401956,468.82926033399417,469.4852520840068,463.60131862500566,2,1,2.240461416018661,reldom2_s023,001,2025-02-27_15h42.50.121,What-B-Scan_AC,2022.2.5,None,
40,First_Order,7.0,audwhat,stimulus/audwhat_stim/dummy.wav,stimulus/audwhat_stim/dummy.wav,stimulus/audwhat_stim/string viola_high-pitch_F_loud.wav,stimulus/audwhat_stim/string viola_low-pitch_Ftri_loud.wav,stimulus/audwhat_stim/blank_white.png,stimulus/audwhat_stim/pitch_box.png,stimulus/audwhat_stim/pitch_yes.png,stimulus/audwhat_stim/pitch_no.png,None,Pitch,None,Category,2,0.0,0,5.125,0,5.125,0,5.125,0,0.0,0.625,0,0.0,0,0.0,0,0.0,0,0.0,0,0.0,0,0.0,1,0.5,1,2.125,0,,,,,0,52,52,52,,,,,,,,,469.69830779201584,469.69830779201584,469.69830779201584,469.69830779201584,469.69830779201584,469.69830779201584,469.69830779201584,469.69830779201584,469.6185854173401,469.69830779201584,469.69830779201584,469.69830779201584,469.6185854173401,469.69830779201584,469.69830779201584,469.69830779201584,471.7814362090139,475.84614341700217,469.69830779201584,469.69830779201584,474.87712662501144,469.69830779201584,469.69830779201584,469.69830779201584,469.69830779201584,470.16092729201773,471.22560654199333,470.13124420866757,,471.7814362090139,472.84788220899645,471.75190012567714,,469.69830779201584,474.87712662501144,469.69830779201584,474.87712662501144,474.91827500000363,475.57213075002073,469.69830779201584,1,0,0.7888807489944156,reldom2_s023,001,2025-02-27_15h42.50.121,What-B-Scan_AC,2022.2.5,None,
0,0.0,None,fixation,stimulus/viswhat_stim/blank_white.png,stimulus/viswhat_stim/blank_white.png,stimulus/audwhat_stim/blank_white.png,stimulus/audwhat_stim/blank_white.png,stimulus/viswhat_stim/blank_white.png,stimulus/viswhat_stim/blank_white.png,stimulus/viswhat_stim/blank_white.png,stimulus/viswhat_stim/blank_white.png,0.0,0.0,0.0,0.0,0,0.0,0,0.0,0,0.0,0,0.0,0,0.0,0.0,0,0.0,0,0.0,0,0.0,0,0.0,0,0.0,0,0.0,0,0.0,0,0.0,9,,,,,0,53,53,53,,,,,,,,,475.84614341700217,475.84614341700217,475.84614341700217,475.84614341700217,475.84614341700217,475.84614341700217,475.84614341700217,475.84614341700217,475.74636741733605,475.84614341700217,475.84614341700217,475.84614341700217,475.74636741733605,475.84614341700217,475.84614341700217,475.84614341700217,475.84614341700217,475.84614341700217,475.84614341700217,475.84614341700217,475.84614341700217,475.84614341700217,475.84614341700217,475.84614341700217,475.84614341700217,475.84614341700217,475.84614341700217,475.79636741733606,475.84614341700217,475.84614341700217,475.84614341700217,475.79636741733606,475.84614341700217,475.84614341700217,475.84614341700217,475.84614341700217,475.84614341700217,481.06971862501814,481.06971862501814,484.99684387500747,None,0,,reldom2_s023,001,2025-02-27_15h42.50.121,What-B-Scan_AC,2022.2.5,None,
41,Second_Order,7.0,audwhat,stimulus/audwhat_stim/percussion mallet_low-pitch_F_loud.wav,stimulus/audwhat_stim/percussion mallet_high-pitch_D_loud.wav,stimulus/audwhat_stim/string cello_low-pitch_Dtri_loud.wav,stimulus/audwhat_stim/string viola_high-pitch_F_loud.wav,stimulus/viswhat_stim/match_blank.png,stimulus/viswhat_stim/match_box.png,stimulus/viswhat_stim/match_yes.png,stimulus/viswhat_stim/match_no.png,1.0,Match,Category,Category,1,5.125,0,5.125,0,5.125,0,5.125,0,0.75,0.75,0,0.0,0,0.0,0,0.0,0,0.0,1,0.5,1,2.125,1,0.5,1,2.125,0,,,,,0,54,54,54,,,,,,,,,484.99684387500747,490.1099014590145,484.99684387500747,484.99684387500747,484.99684387500747,484.99684387500747,485.44659150001826,486.4341852920188,485.4607908756627,,487.06926762501826,488.06752729200525,487.0815658756803,,490.1099014590145,490.96229866700014,493.0270322090073,496.9580449589994,490.96229866700014,490.96229866700014,496.1131453750131,490.96229866700014,490.96229866700014,490.96229866700014,490.96229866700014,491.37576437499956,492.4293841670151,491.34662504168614,,493.0270322090073,494.08973233401775,492.9973076666686,,490.96229866700014,496.1131453750131,490.96229866700014,496.1131453750131,496.15408845900674,,490.96229866700014,1,1,0.45850404098746367,reldom2_s023,001,2025-02-27_15h42.50.121,What-B-Scan_AC,2022.2.5,None,
42,Second_Order,7.0,audwhat,stimulus/audwhat_stim/percussion mallet_high-pitch_Ftri_loud.wav,stimulus/audwhat_stim/percussion mallet_low-pitch_F_loud.wav,stimulus/audwhat_stim/percussion mallet_low-pitch_Dtri_loud.wav,stimulus/audwhat_stim/string viola_low-pitch_Dtri_loud.wav,stimulus/viswhat_stim/match_blank.png,stimulus/viswhat_stim/match_box.png,stimulus/viswhat_stim/match_yes.png,stimulus/viswhat_stim/match_no.png,2.0,Match,Category,Pitch,2,5.125,0,5.125,0,5.125,0,5.125,0,0.625,0.625,0,0.0,0,0.0,0,0.0,0,0.0,1,0.5,1,2.125,1,0.5,1,2.125,0,,,,,0,55,55,55,,,,,,,,,496.9580449589994,502.0728555000096,496.9580449589994,496.9580449589994,496.9580449589994,496.9580449589994,497.4080641250184,498.3947476670146,497.42205300066075,,499.04317195899785,500.0324325840047,499.04681429168363,,502.0728555000096,502.7994614590134,504.85064099999727,,502.7994614590134,502.7994614590134,507.9659359170182,502.7994614590134,502.7994614590134,502.7994614590134,502.7994614590134,503.2553493340092,504.3036212089937,503.2265169166824,,504.85064099999727,505.9066410000087,504.82135212567323,,502.7994614590134,507.9659359170182,502.7994614590134,507.9659359170182,507.9659359170182,508.65244204201736,502.7994614590134,2,1,0.3831983739801217,reldom2_s023,001,2025-02-27_15h42.50.121,What-B-Scan_AC,2022.2.5,None,
0,0.0,None,fixation,stimulus/viswhat_stim/blank_white.png,stimulus/viswhat_stim/blank_white.png,stimulus/audwhat_stim/blank_white.png,stimulus/audwhat_stim/blank_white.png,stimulus/viswhat_stim/blank_white.png,stimulus/viswhat_stim/blank_white.png,stimulus/viswhat_stim/blank_white.png,stimulus/viswhat_stim/blank_white.png,0.0,0.0,0.0,0.0,0,0.0,0,0.0,0,0.0,0,0.0,0,0.0,0.0,0,0.0,0,0.0,0,0.0,0,0.0,0,0.0,0,0.0,0,0.0,0,0.0,9,,,,,0,56,56,56,,,,,,,,,508.88230183400447,508.88230183400447,508.88230183400447,508.88230183400447,508.88230183400447,508.88230183400447,508.88230183400447,508.88230183400447,508.7857753753507,508.88230183400447,508.88230183400447,508.88230183400447,508.7857753753507,508.88230183400447,508.88230183400447,508.88230183400447,508.88230183400447,508.88230183400447,508.88230183400447,508.88230183400447,508.88230183400447,508.88230183400447,508.88230183400447,508.88230183400447,508.88230183400447,508.88230183400447,508.88230183400447,508.8357753753507,508.88230183400447,508.88230183400447,508.88230183400447,508.8357753753507,508.88230183400447,508.88230183400447,508.88230183400447,508.88230183400447,508.88230183400447,514.1136650000117,514.1136650000117,518.1177834169939,None,0,,reldom2_s023,001,2025-02-27_15h42.50.121,What-B-Scan_AC,2022.2.5,None,
43,First_Order,8.0,audwhat,stimulus/audwhat_stim/dummy.wav,stimulus/audwhat_stim/dummy.wav,stimulus/audwhat_stim/string cello_high-pitch_D_loud.wav,stimulus/audwhat_stim/string cello_low-pitch_F_loud.wav,stimulus/audwhat_stim/blank_white.png,stimulus/audwhat_stim/pitch_box.png,stimulus/audwhat_stim/pitch_yes.png,stimulus/audwhat_stim/pitch_no.png,None,Pitch,None,Category,2,0.0,0,5.125,0,5.125,0,5.125,0,0.0,0.625,0,0.0,0,0.0,0,0.0,0,0.0,0,0.0,0,0.0,1,0.5,1,2.125,0,,,,,0,57,57,57,,,,,,,,,518.1177834169939,518.1177834169939,518.1177834169939,518.1177834169939,518.1177834169939,518.1177834169939,518.1177834169939,518.1177834169939,518.0459871666777,518.1177834169939,518.1177834169939,518.1177834169939,518.0459871666777,518.1177834169939,518.1177834169939,518.1177834169939,520.1928092089947,524.2331194590079,518.1177834169939,518.1177834169939,523.2867397920054,518.1177834169939,518.1177834169939,518.1177834169939,518.1177834169939,518.579508750001,519.6403777920059,518.5497619586861,,520.1928092089947,521.2579860420083,520.1633082916708,,518.1177834169939,523.2867397920054,518.1177834169939,523.2867397920054,523.3281521669996,523.979261208995,518.1177834169939,1,0,2.3853875410277396,reldom2_s023,001,2025-02-27_15h42.50.121,What-B-Scan_AC,2022.2.5,None,
44,First_Order,8.0,audwhat,stimulus/audwhat_stim/dummy.wav,stimulus/audwhat_stim/dummy.wav,stimulus/audwhat_stim/percussion mallet_low-pitch_F_loud.wav,stimulus/audwhat_stim/string cello_low-pitch_F_loud.wav,stimulus/audwhat_stim/blank_white.png,stimulus/audwhat_stim/pitch_box.png,stimulus/audwhat_stim/pitch_yes.png,stimulus/audwhat_stim/pitch_no.png,None,Pitch,None,Pitch,1,0.0,0,5.125,0,5.125,0,5.125,0,0.0,0.625,0,0.0,0,0.0,0,0.0,0,0.0,0,0.0,0,0.0,1,0.5,1,2.125,0,,,,,0,58,58,58,,,,,,,,,524.2331194590079,524.2331194590079,524.2331194590079,524.2331194590079,524.2331194590079,524.2331194590079,524.2331194590079,524.2331194590079,524.1534311673332,524.2331194590079,524.2331194590079,524.2331194590079,524.1534311673332,524.2331194590079,524.2331194590079,524.2331194590079,526.3065127090085,,524.2331194590079,524.2331194590079,529.3960463340045,524.2331194590079,524.2331194590079,524.2331194590079,524.2331194590079,524.6943962090008,525.7551318750193,524.6654881256729,,526.3065127090085,527.3706225420174,526.2768660006734,,524.2331194590079,529.3960463340045,524.2331194590079,529.3960463340045,529.4371144589968,530.0880509590206,524.2331194590079,1,1,2.373198290995788,reldom2_s023,001,2025-02-27_15h42.50.121,What-B-Scan_AC,2022.2.5,None,
45,First_Order,8.0,audwhat,stimulus/audwhat_stim/dummy.wav,stimulus/audwhat_stim/dummy.wav,stimulus/audwhat_stim/string viola_low-pitch_Dtri_loud.wav,stimulus/audwhat_stim/string cello_high-pitch_Ftri_loud.wav,stimulus/audwhat_stim/blank_white.png,stimulus/audwhat_stim/category_box.png,stimulus/audwhat_stim/category_yes.png,stimulus/audwhat_stim/category_no.png,None,Category,None,Category,1,0.0,0,5.125,0,5.125,0,5.125,0,0.0,0.625,0,0.0,0,0.0,0,0.0,0,0.0,0,0.0,0,0.0,1,0.5,1,2.125,0,,,,,0,59,59,59,,,,,,,,,530.3402532920009,530.3402532920009,530.3402532920009,530.3402532920009,530.3402532920009,530.3402532920009,530.3402532920009,530.3402532920009,530.2617682083529,530.3402532920009,530.3402532920009,530.3402532920009,530.2617682083529,530.3402532920009,530.3402532920009,530.3402532920009,532.4266425840033,,530.3402532920009,530.3402532920009,535.4899965840159,530.3402532920009,530.3402532920009,530.3402532920009,530.3402532920009,530.8037764590117,531.8716628749971,530.7736068336856,,532.4266425840033,533.4979475,532.3967368756751,,530.3402532920009,535.4899965840159,530.3402532920009,535.4899965840159,535.531292959,536.1839093750168,530.3402532920009,1,1,1.2292634159966838,reldom2_s023,001,2025-02-27_15h42.50.121,What-B-Scan_AC,2022.2.5,None,
46,First_Order,8.0,audwhat,stimulus/audwhat_stim/dummy.wav,stimulus/audwhat_stim/dummy.wav,stimulus/audwhat_stim/string viola_high-pitch_Ftri_loud.wav,stimulus/audwhat_stim/percussion xylophone_high-pitch_Ftri_loud.wav,stimulus/audwhat_stim/blank_white.png,stimulus/audwhat_stim/category_box.png,stimulus/audwhat_stim/category_yes.png,stimulus/audwhat_stim/category_no.png,None,Category,None,Pitch,2,0.0,0,5.125,0,5.125,0,5.125,0,0.0,0.625,0,0.0,0,0.0,0,0.0,0,0.0,0,0.0,0,0.0,1,0.5,1,2.125,0,,,,,0,60,60,60,,,,,,,,,536.4378519589955,536.4378519589955,536.4378519589955,536.4378519589955,536.4378519589955,536.4378519589955,536.4378519589955,536.4378519589955,536.3574382923272,536.4378519589955,536.4378519589955,536.4378519589955,536.3574382923272,536.4378519589955,536.4378519589955,536.4378519589955,538.5299065840081,,536.4378519589955,536.4378519589955,541.5960795840074,536.4378519589955,536.4378519589955,536.4378519589955,536.4378519589955,536.9038542089984,537.973329875007,536.8737100006877,,538.5299065840081,539.6007660420146,538.4999422086732,539.5543022089987,536.4378519589955,541.5960795840074,536.4378519589955,541.5960795840074,541.6373456669971,542.291449625016,536.4378519589955,1,0,2.370932874007849,reldom2_s023,001,2025-02-27_15h42.50.121,What-B-Scan_AC,2022.2.5,None,
0,0.0,None,fixation,stimulus/viswhat_stim/blank_white.png,stimulus/viswhat_stim/blank_white.png,stimulus/audwhat_stim/blank_white.png,stimulus/audwhat_stim/blank_white.png,stimulus/viswhat_stim/blank_white.png,stimulus/viswhat_stim/blank_white.png,stimulus/viswhat_stim/blank_white.png,stimulus/viswhat_stim/blank_white.png,0.0,0.0,0.0,0.0,0,0.0,0,0.0,0,0.0,0,0.0,0,0.0,0.0,0,0.0,0,0.0,0,0.0,0,0.0,0,0.0,0,0.0,0,0.0,0,0.0,8,,,,,0,61,61,61,,,,,,,,,542.5664837920049,542.5664837920049,542.5664837920049,542.5664837920049,542.5664837920049,542.5664837920049,542.5664837920049,542.5664837920049,542.4654142083328,542.5664837920049,542.5664837920049,542.5664837920049,542.4654142083328,542.5664837920049,542.5664837920049,542.5664837920049,542.5664837920049,542.5664837920049,542.5664837920049,542.5664837920049,542.5664837920049,542.5664837920049,542.5664837920049,542.5664837920049,542.5664837920049,542.5664837920049,542.5664837920049,542.5154142083328,542.5664837920049,542.5664837920049,542.5664837920049,542.5154142083328,542.5664837920049,542.5664837920049,542.5664837920049,542.5664837920049,542.5664837920049,547.7917861250171,547.7917861250171,550.7120578750037,None,0,,reldom2_s023,001,2025-02-27_15h42.50.121,What-B-Scan_AC,2022.2.5,None,
47,Second_Order,8.0,audwhat,stimulus/audwhat_stim/string cello_low-pitch_Dtri_loud.wav,stimulus/audwhat_stim/string viola_high-pitch_D_loud.wav,stimulus/audwhat_stim/percussion xylophone_high-pitch_F_loud.wav,stimulus/audwhat_stim/percussion mallet_low-pitch_D_loud.wav,stimulus/viswhat_stim/match_blank.png,stimulus/viswhat_stim/match_box.png,stimulus/viswhat_stim/match_yes.png,stimulus/viswhat_stim/match_no.png,1.0,Match,Category,Category,1,5.125,0,5.125,0,5.125,0,5.125,0,0.75,0.75,0,0.0,0,0.0,0,0.0,0,0.0,1,0.5,1,2.125,1,0.5,1,2.125,0,,,,,0,62,62,62,,,,,,,,,550.7120578750037,555.8286409589928,550.7120578750037,550.7120578750037,550.7120578750037,550.7120578750037,551.1652711670031,552.1520776670077,551.1795708336615,,552.7895091669925,553.7857839589997,552.8003835006714,,555.8286409589928,556.6776872500195,558.7413430419983,562.6716627500136,556.6776872500195,556.6776872500195,561.8260799590207,556.6776872500195,556.6776872500195,556.6776872500195,556.6776872500195,557.1356766670069,558.1897812919924,557.1065700416841,558.1440635000181,558.7413430419983,559.8024386250181,558.7117943756787,,556.6776872500195,561.8260799590207,556.6776872500195,561.8260799590207,561.8671686250018,,556.6776872500195,1,1,2.649004416016396,reldom2_s023,001,2025-02-27_15h42.50.121,What-B-Scan_AC,2022.2.5,None,
48,Second_Order,8.0,audwhat,stimulus/audwhat_stim/percussion mallet_high-pitch_D_loud.wav,stimulus/audwhat_stim/percussion mallet_low-pitch_Dtri_loud.wav,stimulus/audwhat_stim/string viola_high-pitch_F_loud.wav,stimulus/audwhat_stim/string viola_low-pitch_Dtri_loud.wav,stimulus/viswhat_stim/match_blank.png,stimulus/viswhat_stim/match_box.png,stimulus/viswhat_stim/match_yes.png,stimulus/viswhat_stim/match_no.png,1.0,Match,Category,Category,1,5.125,0,5.125,0,5.125,0,5.125,0,0.625,0.625,0,0.0,0,0.0,0,0.0,0,0.0,1,0.5,1,2.125,1,0.5,1,2.125,0,,,,,0,63,63,63,,,,,,,,,562.6716627500136,567.7895278340147,562.6716627500136,562.6716627500136,562.6716627500136,562.6716627500136,563.126244959014,564.11352045901,563.1402407506869,,564.7488217920181,565.746971125016,564.7610883756754,,567.7895278340147,568.5203444170184,570.5715862920042,,568.5203444170184,568.5203444170184,573.6890012920194,568.5203444170184,568.5203444170184,568.5203444170184,568.5203444170184,568.9737505840021,570.0243587089935,568.9447670836855,,570.5715862920042,571.6295529589988,570.5429217916719,,568.5203444170184,573.6890012920194,568.5203444170184,573.6890012920194,573.6890012920194,574.3749452500197,568.5203444170184,1,1,0.5794565830146894,reldom2_s023,001,2025-02-27_15h42.50.121,What-B-Scan_AC,2022.2.5,None,
0,0.0,None,fixation,stimulus/viswhat_stim/blank_white.png,stimulus/viswhat_stim/blank_white.png,stimulus/audwhat_stim/blank_white.png,stimulus/audwhat_stim/blank_white.png,stimulus/viswhat_stim/blank_white.png,stimulus/viswhat_stim/blank_white.png,stimulus/viswhat_stim/blank_white.png,stimulus/viswhat_stim/blank_white.png,0.0,0.0,0.0,0.0,0,0.0,0,0.0,0,0.0,0,0.0,0,0.0,0.0,0,0.0,0,0.0,0,0.0,0,0.0,0,0.0,0,0.0,0,0.0,0,0.0,16,,,,,0,64,64,64,,,,,,,,,574.6058641670097,574.6058641670097,574.6058641670097,574.6058641670097,574.6058641670097,574.6058641670097,574.6058641670097,574.6058641670097,574.508278583353,574.6058641670097,574.6058641670097,574.6058641670097,574.508278583353,574.6058641670097,574.6058641670097,574.6058641670097,574.6058641670097,574.6058641670097,574.6058641670097,574.6058641670097,574.6058641670097,574.6058641670097,574.6058641670097,574.6058641670097,574.6058641670097,574.6058641670097,574.6058641670097,574.558278583353,574.6058641670097,574.6058641670097,574.6058641670097,574.558278583353,574.6058641670097,574.6058641670097,574.6058641670097,574.6058641670097,574.6058641670097,579.8361297500087,579.8361297500087,590.7464208340098,None,0,,reldom2_s023,001,2025-02-27_15h42.50.121,What-B-Scan_AC,2022.2.5,None,
