Trial,Order,Block,Type,Stimuli_File1,Stimuli_File2,Stimuli_File3,Stimuli_File4,Cue_File1,Cue_File2,Response_File_Yes,Response_File_No,Match,Cue_Dimension,Pair1_Dimension,Pair2_Dimension,Key,Cue1_Duration,Cue1_Onset,Cue2_Duration,Cue2_Onset,ResponseYes_Duration,ResponseYes_Onset,ResponseNo_Duration,ResponseNo_Onset,ITI_Within,ITI_Between,Image1_Duration,Image1_Onset,Image2_Duration,Image2_Onset,Image3_Duration,Image3_Onset,Image4_Duration,Image4_Onset,Sound1_Duration,Sound1_Onset,Sound2_Duration,Sound2_Onset,Sound3_Duration,Sound3_Onset,Sound4_Duration,Sound4_Onset,Fixation_Duration,trials_2.thisRepN,trials_2.thisTrialN,trials_2.thisN,trials_2.thisIndex,trials.thisRepN,trials.thisTrialN,trials.thisN,trials.thisIndex,text_start.started,key_resp_start.started,key_resp_start.keys,key_resp_start.rt,text2.started,key_resp_2.started,key_resp_2.keys,key_resp_2.rt,cue_file1.started,cue_file1.stopped,image_1.started,image_1.stopped,image_2.started,image_2.stopped,sound_icon1.started,sound_icon1.stopped,sound_1.started,sound_1.stopped,sound_icon2.started,sound_icon2.stopped,sound_2.started,sound_2.stopped,image_blank_1.started,image_blank_1.stopped,key_press.started,key_press.stopped,fixation_text.started,cue_file2.started,cue_file2.stopped,image_3.started,image_3.stopped,image_4.started,image_4.stopped,sound_icon3.started,sound_icon3.stopped,sound_3.started,sound_3.stopped,sound_icon4.started,sound_icon4.stopped,sound_4.started,sound_4.stopped,response_yes.started,response_yes.stopped,response_no.started,response_no.stopped,iti_blank.started,iti_blank.stopped,fixation_text.stopped,key_press.keys,key_press.corr,key_press.rt,participant,session,date,expName,psychopyVersion,frameRate,
,,,,,,,,,,,,,,,,,,,,,,,,,,,,,,,,,,,,,,,,,,,,,,,,,,,,8.003294334019301,8.003294334019301,2,4.513345415994991,,,,,,,,,,,,,,,,,,,,,,,,,,,,,,,,,,,,,,,,,,,,,,,,reldom2_s023,001,2025-02-27_15h30.55.406,Vis-B-Scan_AC,2022.2.5,None,
,,,,,,,,,,,,,,,,,,,,,,,,,,,,,,,,,,,,,,,,,,,,0,0,0,0,,,,,,,,,12.533614125015447,12.533614125015447,5,17.936886458017398,,,,,,,,,,,,,,,,,,,,,,,,,,,,,,,,,,,,,,,,,,,,reldom2_s023,001,2025-02-27_15h30.55.406,Vis-B-Scan_AC,2022.2.5,None,
,,,,,,,,,,,,,,,,,,,,,,,,,,,,,,,,,,,,,,,,,,,,1,0,1,0,,,,,,,,,30.47735670901602,30.47735670901602,5,1.9916779579943977,,,,,,,,,,,,,,,,,,,,,,,,,,,,,,,,,,,,,,,,,,,,reldom2_s023,001,2025-02-27_15h30.55.406,Vis-B-Scan_AC,2022.2.5,None,
,,,,,,,,,,,,,,,,,,,,,,,,,,,,,,,,,,,,,,,,,,,,2,0,2,0,,,,,,,,,32.483251917001326,32.483251917001326,5,1.985320456995396,,,,,,,,,,,,,,,,,,,,,,,,,,,,,,,,,,,,,,,,,,,,reldom2_s023,001,2025-02-27_15h30.55.406,Vis-B-Scan_AC,2022.2.5,None,
,,,,,,,,,,,,,,,,,,,,,,,,,,,,,,,,,,,,,,,,,,,,3,0,3,0,,,,,,,,,34.480772417009575,34.480772417009575,5,1.9902156240132172,,,,,,,,,,,,,,,,,,,,,,,,,,,,,,,,,,,,,,,,,,,,reldom2_s023,001,2025-02-27_15h30.55.406,Vis-B-Scan_AC,2022.2.5,None,
0,0.0,None,fixation,stimulus/viswhere_stim/blank_white.png,stimulus/viswhere_stim/blank_white.png,stimulus/viswhat_stim/blank_white.png,stimulus/viswhat_stim/blank_white.png,stimulus/viswhere_stim/blank_white.png,stimulus/viswhere_stim/blank_white.png,stimulus/viswhere_stim/blank_white.png,stimulus/viswhere_stim/blank_white.png,0.0,0.0,0.0,0.0,0,0.0,0,0.0,0,0.0,0,0.0,0,0.0,0.0,0,0.0,0,0.0,0,0.0,0,0.0,0,0,0,0,0,0,0,0,16,,,,,0,0,0,0,,,,,,,,,36.687675374996616,36.687675374996616,36.687675374996616,36.687675374996616,36.687675374996616,36.687675374996616,36.687675374996616,36.687675374996616,36.5895045836786,36.687675374996616,36.687675374996616,36.687675374996616,36.5895045836786,36.687675374996616,36.687675374996616,36.687675374996616,36.687675374996616,36.687675374996616,36.687675374996616,36.687675374996616,36.687675374996616,36.687675374996616,36.687675374996616,36.687675374996616,36.687675374996616,36.687675374996616,36.687675374996616,36.639504583678594,36.687675374996616,36.687675374996616,36.687675374996616,36.639504583678594,36.687675374996616,36.687675374996616,36.687675374996616,36.687675374996616,36.687675374996616,41.90424187501776,41.90424187501776,52.863450792006915,None,0,,reldom2_s023,001,2025-02-27_15h30.55.406,Vis-B-Scan_AC,2022.2.5,None,
1,First_Order,1.0,viswhere,stimulus/viswhere_stim/blank_white.png,stimulus/viswhere_stim/blank_white.png,stimulus/viswhere_stim/150-deg_dot-left_royalblue.png,stimulus/viswhere_stim/150-deg_dot-right_peru.png,stimulus/viswhere_stim/blank_white.png,stimulus/viswhere_stim/dot_box.png,stimulus/viswhere_stim/dot_yes.png,stimulus/viswhere_stim/dot_no.png,None,Dot,None,Line,2,0.0,0,5.125,0,5.125,0,5.125,0,0.0,0.625,0,0.0,0,0.0,1,0.5,1,2.125,0,0,0,0,0,0,0,0,0,,,,,0,1,1,1,,,,,,,,,52.863450792006915,52.863450792006915,52.863450792006915,52.863450792006915,52.863450792006915,52.863450792006915,52.863450792006915,52.863450792006915,52.84347112500691,52.863450792006915,52.863450792006915,52.863450792006915,52.84347112500691,52.863450792006915,52.863450792006915,52.863450792006915,54.97060749999946,58.921850542014,52.863450792006915,52.863450792006915,57.986596750008175,53.34243091699318,54.34937616699608,54.97060749999946,55.98744633400929,52.863450792006915,52.863450792006915,52.86013779167357,52.863450792006915,52.863450792006915,52.863450792006915,52.86013779167357,52.863450792006915,52.863450792006915,57.986596750008175,52.863450792006915,57.986596750008175,58.08086137499777,58.71514054201543,52.863450792006915,2,1,0.8395229580055457,reldom2_s023,001,2025-02-27_15h30.55.406,Vis-B-Scan_AC,2022.2.5,None,
2,First_Order,1.0,viswhere,stimulus/viswhere_stim/blank_white.png,stimulus/viswhere_stim/blank_white.png,stimulus/viswhere_stim/30-deg_dot-left_salmon.png,stimulus/viswhere_stim/30-deg_dot-right_seagreen.png,stimulus/viswhere_stim/blank_white.png,stimulus/viswhere_stim/dot_box.png,stimulus/viswhere_stim/dot_yes.png,stimulus/viswhere_stim/dot_no.png,None,Dot,None,Line,2,0.0,0,5.125,0,5.125,0,5.125,0,0.0,0.625,0,0.0,0,0.0,1,0.5,1,2.125,0,0,0,0,0,0,0,0,0,,,,,0,2,2,2,,,,,,,,,58.921850542014,58.921850542014,58.921850542014,58.921850542014,58.921850542014,58.921850542014,58.921850542014,58.921850542014,58.90499608334115,58.921850542014,58.921850542014,58.921850542014,58.90499608334115,58.921850542014,58.921850542014,58.921850542014,61.02968525001779,64.97849345899886,58.921850542014,58.921850542014,64.05041208400507,59.41214891700656,60.41276062501129,61.02968525001779,62.03412991701043,58.921850542014,58.921850542014,58.90499608334115,58.921850542014,58.921850542014,58.921850542014,58.90499608334115,58.921850542014,58.921850542014,64.05041208400507,58.921850542014,64.05041208400507,64.14500170899555,64.77130695900996,58.921850542014,2,1,0.7334363749832846,reldom2_s023,001,2025-02-27_15h30.55.406,Vis-B-Scan_AC,2022.2.5,None,
3,First_Order,1.0,viswhere,stimulus/viswhere_stim/blank_white.png,stimulus/viswhere_stim/blank_white.png,stimulus/viswhere_stim/120-deg_dot-left_goldenrod.png,stimulus/viswhere_stim/30-deg_dot-left_slateblue.png,stimulus/viswhere_stim/blank_white.png,stimulus/viswhere_stim/dot_box.png,stimulus/viswhere_stim/dot_yes.png,stimulus/viswhere_stim/dot_no.png,None,Dot,None,Dot,1,0.0,0,5.125,0,5.125,0,5.125,0,0.0,0.625,0,0.0,0,0.0,1,0.5,1,2.125,0,0,0,0,0,0,0,0,0,,,,,0,3,3,3,,,,,,,,,64.97849345899886,64.97849345899886,64.97849345899886,64.97849345899886,64.97849345899886,64.97849345899886,64.97849345899886,64.97849345899886,64.96279504233583,64.97849345899886,64.97849345899886,64.97849345899886,64.96279504233583,64.97849345899886,64.97849345899886,64.97849345899886,67.08700091700302,71.04625666700304,64.97849345899886,64.97849345899886,70.11442920900299,65.46735191700282,66.4849181669997,67.08700091700302,68.09015758399619,64.97849345899886,64.97849345899886,64.96279504233583,64.97849345899886,64.97849345899886,64.97849345899886,64.96279504233583,64.97849345899886,64.97849345899886,70.11442920900299,64.97849345899886,70.11442920900299,70.20873166699312,70.83540579199325,64.97849345899886,1,1,1.0178457500005607,reldom2_s023,001,2025-02-27_15h30.55.406,Vis-B-Scan_AC,2022.2.5,None,
4,First_Order,1.0,viswhere,stimulus/viswhere_stim/blank_white.png,stimulus/viswhere_stim/blank_white.png,stimulus/viswhere_stim/150-deg_dot-right_royalblue.png,stimulus/viswhere_stim/30-deg_dot-right_salmon.png,stimulus/viswhere_stim/blank_white.png,stimulus/viswhere_stim/line_box.png,stimulus/viswhere_stim/line_yes.png,stimulus/viswhere_stim/line_no.png,None,Line,None,Dot,2,0.0,0,5.125,0,5.125,0,5.125,0,0.0,0.625,0,0.0,0,0.0,1,0.5,1,2.125,0,0,0,0,0,0,0,0,0,,,,,0,4,4,4,,,,,,,,,71.04625666700304,71.04625666700304,71.04625666700304,71.04625666700304,71.04625666700304,71.04625666700304,71.04625666700304,71.04625666700304,71.02658520832968,71.04625666700304,71.04625666700304,71.04625666700304,71.02658520832968,71.04625666700304,71.04625666700304,71.04625666700304,73.14666299999226,77.175751458999,71.04625666700304,71.04625666700304,76.16719608401763,71.52465458400548,72.54065558401635,73.14666299999226,74.14759604199207,71.04625666700304,71.04625666700304,71.02658520832968,71.04625666700304,71.04625666700304,71.04625666700304,71.02658520832968,71.04625666700304,71.04625666700304,76.16719608401763,71.04625666700304,76.16719608401763,76.26208762501483,76.88354483401054,71.04625666700304,2,1,1.2376779990154319,reldom2_s023,001,2025-02-27_15h30.55.406,Vis-B-Scan_AC,2022.2.5,None,
0,0.0,None,fixation,stimulus/viswhere_stim/blank_white.png,stimulus/viswhere_stim/blank_white.png,stimulus/viswhat_stim/blank_white.png,stimulus/viswhat_stim/blank_white.png,stimulus/viswhere_stim/blank_white.png,stimulus/viswhere_stim/blank_white.png,stimulus/viswhere_stim/blank_white.png,stimulus/viswhere_stim/blank_white.png,0.0,0.0,0.0,0.0,0,0.0,0,0.0,0,0.0,0,0.0,0,0.0,0.0,0,0.0,0,0.0,0,0.0,0,0.0,0,0,0,0,0,0,0,0,9,,,,,0,5,5,5,,,,,,,,,77.175751458999,77.175751458999,77.175751458999,77.175751458999,77.175751458999,77.175751458999,77.175751458999,77.175751458999,77.08710725034082,77.175751458999,77.175751458999,77.175751458999,77.08710725034082,77.175751458999,77.175751458999,77.175751458999,77.175751458999,77.175751458999,77.175751458999,77.175751458999,77.175751458999,77.175751458999,77.175751458999,77.175751458999,77.175751458999,77.175751458999,77.175751458999,77.13710725034082,77.175751458999,77.175751458999,77.175751458999,77.13710725034082,77.175751458999,77.175751458999,77.175751458999,77.175751458999,77.175751458999,82.38343675000942,82.38343675000942,86.29205466699204,None,0,,reldom2_s023,001,2025-02-27_15h30.55.406,Vis-B-Scan_AC,2022.2.5,None,
5,Second_Order,1.0,viswhere,stimulus/viswhere_stim/90-deg_dot-left_mediumslateblue.png,stimulus/viswhere_stim/30-deg_dot-left_slateblue.png,stimulus/viswhere_stim/90-deg_dot-left_royalblue.png,stimulus/viswhere_stim/90-deg_dot-right_goldenrod.png,stimulus/viswhere_stim/match_blank.png,stimulus/viswhere_stim/match_box.png,stimulus/viswhere_stim/match_yes.png,stimulus/viswhere_stim/match_no.png,2.0,Match,Dot,Line,2,5.125,0,5.125,0,5.125,0,5.125,0,0.75,0.75,1,0.5,1,2.125,1,0.5,1,2.125,0,0,0,0,0,0,0,0,0,,,,,0,6,6,6,,,,,,,,,86.29205466699204,91.4165198749979,86.77193904199521,87.77040320899687,88.39289479199215,89.39060016701114,86.29205466699204,86.29205466699204,86.29471945867213,86.29205466699204,86.29205466699204,86.29205466699204,86.29471945867213,86.29205466699204,91.4165198749979,92.20836899999995,94.28444762501749,98.14906520899967,92.20836899999995,92.20836899999995,97.34170700001414,92.65684145901469,93.6741894170118,94.28444762501749,95.29534662500373,92.20836899999995,92.20836899999995,92.18512845834678,92.20836899999995,92.20836899999995,92.20836899999995,92.18512845834678,92.20836899999995,92.20836899999995,97.34170700001414,92.20836899999995,97.34170700001414,97.4082248750201,98.18465529201785,92.20836899999995,2,1,0.4472165409824811,reldom2_s023,001,2025-02-27_15h30.55.406,Vis-B-Scan_AC,2022.2.5,None,
6,Second_Order,1.0,viswhere,stimulus/viswhere_stim/30-deg_dot-right_turquoise.png,stimulus/viswhere_stim/30-deg_dot-left_goldenrod.png,stimulus/viswhere_stim/60-deg_dot-left_salmon.png,stimulus/viswhere_stim/60-deg_dot-right_slateblue.png,stimulus/viswhere_stim/match_blank.png,stimulus/viswhere_stim/match_box.png,stimulus/viswhere_stim/match_yes.png,stimulus/viswhere_stim/match_no.png,1.0,Match,Line,Line,1,5.125,0,5.125,0,5.125,0,5.125,0,0.625,0.625,1,0.5,1,2.125,1,0.5,1,2.125,0,0,0,0,0,0,0,0,0,,,,,0,7,7,7,,,,,,,,,98.18465529201785,103.30618924999726,98.66600404199562,99.66441504200338,100.2870404169953,101.2847368340008,98.18465529201785,98.18465529201785,98.19906520899967,98.18465529201785,98.18465529201785,98.18465529201785,98.19906520899967,98.18465529201785,103.30618924999726,103.98024125001393,106.06875108400709,110.08956304201274,103.98024125001393,103.98024125001393,109.11224408401176,104.4441893750045,105.456708334008,106.06875108400709,107.07524608401582,103.98024125001393,103.98024125001393,103.9576104173398,103.98024125001393,103.98024125001393,103.98024125001393,103.9576104173398,103.98024125001393,103.98024125001393,109.11224408401176,103.98024125001393,109.11224408401176,109.17864791699685,109.80657179199625,103.98024125001393,1,1,0.5490963330084924,reldom2_s023,001,2025-02-27_15h30.55.406,Vis-B-Scan_AC,2022.2.5,None,
0,0.0,None,fixation,stimulus/viswhere_stim/blank_white.png,stimulus/viswhere_stim/blank_white.png,stimulus/viswhat_stim/blank_white.png,stimulus/viswhat_stim/blank_white.png,stimulus/viswhere_stim/blank_white.png,stimulus/viswhere_stim/blank_white.png,stimulus/viswhere_stim/blank_white.png,stimulus/viswhere_stim/blank_white.png,0.0,0.0,0.0,0.0,0,0.0,0,0.0,0,0.0,0,0.0,0,0.0,0.0,0,0.0,0,0.0,0,0.0,0,0.0,0,0,0,0,0,0,0,0,9,,,,,0,8,8,8,,,,,,,,,110.08956304201274,110.08956304201274,110.08956304201274,110.08956304201274,110.08956304201274,110.08956304201274,110.08956304201274,110.08956304201274,109.99678704234732,110.08956304201274,110.08956304201274,110.08956304201274,109.99678704234732,110.08956304201274,110.08956304201274,110.08956304201274,110.08956304201274,110.08956304201274,110.08956304201274,110.08956304201274,110.08956304201274,110.08956304201274,110.08956304201274,110.08956304201274,110.08956304201274,110.08956304201274,110.08956304201274,110.04678704234732,110.08956304201274,110.08956304201274,110.08956304201274,110.04678704234732,110.08956304201274,110.08956304201274,110.08956304201274,110.08956304201274,110.08956304201274,115.31962987501174,115.31962987501174,119.25155712501146,None,0,,reldom2_s023,001,2025-02-27_15h30.55.406,Vis-B-Scan_AC,2022.2.5,None,
7,First_Order,2.0,viswhere,stimulus/viswhere_stim/blank_white.png,stimulus/viswhere_stim/blank_white.png,stimulus/viswhere_stim/60-deg_dot-right_peru.png,stimulus/viswhere_stim/120-deg_dot-right_goldenrod.png,stimulus/viswhere_stim/blank_white.png,stimulus/viswhere_stim/line_box.png,stimulus/viswhere_stim/line_yes.png,stimulus/viswhere_stim/line_no.png,None,Line,None,Dot,2,0.0,0,5.125,0,5.125,0,5.125,0,0.0,0.625,0,0.0,0,0.0,1,0.5,1,2.125,0,0,0,0,0,0,0,0,0,,,,,0,9,9,9,,,,,,,,,119.25155712501146,119.25155712501146,119.25155712501146,119.25155712501146,119.25155712501146,119.25155712501146,119.25155712501146,119.25155712501146,119.22191170900479,119.25155712501146,119.25155712501146,119.25155712501146,119.22191170900479,119.25155712501146,119.25155712501146,119.25155712501146,121.34594050000305,125.30873054201948,119.25155712501146,119.25155712501146,124.37552179201157,119.73790000000736,120.74825262499508,121.34594050000305,122.35802712501027,119.25155712501146,119.25155712501146,119.23857837567145,119.25155712501146,119.25155712501146,119.25155712501146,119.23857837567145,119.25155712501146,119.25155712501146,124.37552179201157,119.25155712501146,124.37552179201157,124.47082841701922,125.10218300000997,119.25155712501146,2,1,1.6857977080217097,reldom2_s023,001,2025-02-27_15h30.55.406,Vis-B-Scan_AC,2022.2.5,None,
8,First_Order,2.0,viswhere,stimulus/viswhere_stim/blank_white.png,stimulus/viswhere_stim/blank_white.png,stimulus/viswhere_stim/90-deg_dot-left_turquoise.png,stimulus/viswhere_stim/90-deg_dot-right_peru.png,stimulus/viswhere_stim/blank_white.png,stimulus/viswhere_stim/line_box.png,stimulus/viswhere_stim/line_yes.png,stimulus/viswhere_stim/line_no.png,None,Line,None,Line,1,0.0,0,5.125,0,5.125,0,5.125,0,0.0,0.625,0,0.0,0,0.0,1,0.5,1,2.125,0,0,0,0,0,0,0,0,0,,,,,0,10,10,10,,,,,,,,,125.30873054201948,125.30873054201948,125.30873054201948,125.30873054201948,125.30873054201948,125.30873054201948,125.30873054201948,125.30873054201948,125.29212537534961,125.30873054201948,125.30873054201948,125.30873054201948,125.29212537534961,125.30873054201948,125.30873054201948,125.30873054201948,127.41377291700337,131.37030920901452,125.30873054201948,125.30873054201948,130.43480300001102,125.79653779201908,126.81273979201796,127.41377291700337,128.41850850000628,125.30873054201948,125.30873054201948,125.29212537534961,125.30873054201948,125.30873054201948,125.30873054201948,125.29212537534961,125.30873054201948,125.30873054201948,130.43480300001102,125.30873054201948,130.43480300001102,130.53193887500674,131.15653358399868,125.30873054201948,1,1,0.8074314999976195,reldom2_s023,001,2025-02-27_15h30.55.406,Vis-B-Scan_AC,2022.2.5,None,
9,First_Order,2.0,viswhere,stimulus/viswhere_stim/blank_white.png,stimulus/viswhere_stim/blank_white.png,stimulus/viswhere_stim/60-deg_dot-right_seagreen.png,stimulus/viswhere_stim/120-deg_dot-right_salmon.png,stimulus/viswhere_stim/blank_white.png,stimulus/viswhere_stim/dot_box.png,stimulus/viswhere_stim/dot_yes.png,stimulus/viswhere_stim/dot_no.png,None,Dot,None,Dot,1,0.0,0,5.125,0,5.125,0,5.125,0,0.0,0.625,0,0.0,0,0.0,1,0.5,1,2.125,0,0,0,0,0,0,0,0,0,,,,,0,11,11,11,,,,,,,,,131.37030920901452,131.37030920901452,131.37030920901452,131.37030920901452,131.37030920901452,131.37030920901452,131.37030920901452,131.37030920901452,131.353053792341,131.37030920901452,131.37030920901452,131.37030920901452,131.353053792341,131.37030920901452,131.37030920901452,131.37030920901452,133.473070750013,137.4348097089969,131.37030920901452,131.37030920901452,136.49883229201077,131.85823891701875,132.87176812501275,133.473070750013,134.4907797090127,131.37030920901452,131.37030920901452,131.353053792341,131.37030920901452,131.37030920901452,131.37030920901452,131.353053792341,131.37030920901452,131.37030920901452,136.49883229201077,131.37030920901452,136.49883229201077,136.5917976250057,137.21357358401292,131.37030920901452,1,1,1.8346366659970954,reldom2_s023,001,2025-02-27_15h30.55.406,Vis-B-Scan_AC,2022.2.5,None,
10,First_Order,2.0,viswhere,stimulus/viswhere_stim/blank_white.png,stimulus/viswhere_stim/blank_white.png,stimulus/viswhere_stim/120-deg_dot-right_cyan.png,stimulus/viswhere_stim/120-deg_dot-left_turquoise.png,stimulus/viswhere_stim/blank_white.png,stimulus/viswhere_stim/line_box.png,stimulus/viswhere_stim/line_yes.png,stimulus/viswhere_stim/line_no.png,None,Line,None,Line,1,0.0,0,5.125,0,5.125,0,5.125,0,0.0,0.625,0,0.0,0,0.0,1,0.5,1,2.125,0,0,0,0,0,0,0,0,0,,,,,0,12,12,12,,,,,,,,,137.4348097089969,137.4348097089969,137.4348097089969,137.4348097089969,137.4348097089969,137.4348097089969,137.4348097089969,137.4348097089969,137.41716370835397,137.4348097089969,137.4348097089969,137.4348097089969,137.41716370835397,137.4348097089969,137.4348097089969,137.4348097089969,139.5509485840157,143.57646704200306,137.4348097089969,137.4348097089969,142.56863987501129,137.9268453340046,138.93030420900322,139.5509485840157,140.55790029201307,137.4348097089969,137.4348097089969,137.41716370835397,137.4348097089969,137.4348097089969,137.4348097089969,137.41716370835397,137.4348097089969,137.4348097089969,142.56863987501129,137.4348097089969,142.56863987501129,142.66546237500734,143.29429787499248,137.4348097089969,1,1,0.8387743329803925,reldom2_s023,001,2025-02-27_15h30.55.406,Vis-B-Scan_AC,2022.2.5,None,
0,0.0,None,fixation,stimulus/viswhere_stim/blank_white.png,stimulus/viswhere_stim/blank_white.png,stimulus/viswhat_stim/blank_white.png,stimulus/viswhat_stim/blank_white.png,stimulus/viswhere_stim/blank_white.png,stimulus/viswhere_stim/blank_white.png,stimulus/viswhere_stim/blank_white.png,stimulus/viswhere_stim/blank_white.png,0.0,0.0,0.0,0.0,0,0.0,0,0.0,0,0.0,0,0.0,0,0.0,0.0,0,0.0,0,0.0,0,0.0,0,0.0,0,0,0,0,0,0,0,0,8,,,,,0,13,13,13,,,,,,,,,143.57646704200306,143.57646704200306,143.57646704200306,143.57646704200306,143.57646704200306,143.57646704200306,143.57646704200306,143.57646704200306,143.48395183335137,143.57646704200306,143.57646704200306,143.57646704200306,143.48395183335137,143.57646704200306,143.57646704200306,143.57646704200306,143.57646704200306,143.57646704200306,143.57646704200306,143.57646704200306,143.57646704200306,143.57646704200306,143.57646704200306,143.57646704200306,143.57646704200306,143.57646704200306,143.57646704200306,143.53395183335138,143.57646704200306,143.57646704200306,143.57646704200306,143.53395183335138,143.57646704200306,143.57646704200306,143.57646704200306,143.57646704200306,143.57646704200306,148.79048929200508,148.79048929200508,151.6967867500207,None,0,,reldom2_s023,001,2025-02-27_15h30.55.406,Vis-B-Scan_AC,2022.2.5,None,
11,Second_Order,2.0,viswhere,stimulus/viswhere_stim/120-deg_dot-left_slateblue.png,stimulus/viswhere_stim/60-deg_dot-left_seagreen.png,stimulus/viswhere_stim/90-deg_dot-right_seagreen.png,stimulus/viswhere_stim/30-deg_dot-right_mediumslateblue.png,stimulus/viswhere_stim/match_blank.png,stimulus/viswhere_stim/match_box.png,stimulus/viswhere_stim/match_yes.png,stimulus/viswhere_stim/match_no.png,1.0,Match,Dot,Dot,1,5.125,0,5.125,0,5.125,0,5.125,0,0.75,0.75,1,0.5,1,2.125,1,0.5,1,2.125,0,0,0,0,0,0,0,0,0,,,,,0,14,14,14,,,,,,,,,151.6967867500207,156.81826804199954,152.17284637500416,153.17136866701185,153.79401120901457,154.79171616700478,151.6967867500207,151.6967867500207,151.69694900067213,151.6967867500207,151.6967867500207,151.6967867500207,151.69694900067213,151.6967867500207,156.81826804199954,157.61271833401406,159.68904912500875,163.58006483400823,157.61271833401406,157.61271833401406,162.74270383399562,158.06761416699737,159.08645975001855,159.68904912500875,160.69743475000723,157.61271833401406,157.61271833401406,157.6016622090072,157.61271833401406,157.61271833401406,157.61271833401406,157.6016622090072,157.61271833401406,157.61271833401406,162.74270383399562,157.61271833401406,162.74270383399562,162.80937750000157,163.58006483400823,157.61271833401406,1,1,0.5531842080235947,reldom2_s023,001,2025-02-27_15h30.55.406,Vis-B-Scan_AC,2022.2.5,None,
12,Second_Order,2.0,viswhere,stimulus/viswhere_stim/90-deg_dot-right_cyan.png,stimulus/viswhere_stim/90-deg_dot-left_salmon.png,stimulus/viswhere_stim/30-deg_dot-left_goldenrod.png,stimulus/viswhere_stim/60-deg_dot-left_turquoise.png,stimulus/viswhere_stim/match_blank.png,stimulus/viswhere_stim/match_box.png,stimulus/viswhere_stim/match_yes.png,stimulus/viswhere_stim/match_no.png,2.0,Match,Line,Dot,2,5.125,0,5.125,0,5.125,0,5.125,0,0.625,0.625,1,0.5,1,2.125,1,0.5,1,2.125,0,0,0,0,0,0,0,0,0,,,,,0,15,15,15,,,,,,,,,163.58006483400823,168.69492125001852,164.0672916250187,165.06548245900194,165.68769820901798,166.68558608400053,163.58006483400823,163.58006483400823,163.59440174999764,163.58006483400823,163.58006483400823,163.58006483400823,163.59440174999764,163.58006483400823,168.69492125001852,169.36612066699308,171.44847404200118,175.47427479200996,169.36612066699308,169.36612066699308,174.50319066701923,169.81805904200883,170.83039404201554,171.44847404200118,172.46594416699372,169.36612066699308,169.36612066699308,169.3424935423323,169.36612066699308,169.36612066699308,169.36612066699308,169.3424935423323,169.36612066699308,169.36612066699308,174.50319066701923,169.36612066699308,174.50319066701923,174.55652050001663,175.20503570901928,169.36612066699308,2,1,1.0411379990109708,reldom2_s023,001,2025-02-27_15h30.55.406,Vis-B-Scan_AC,2022.2.5,None,
0,0.0,None,fixation,stimulus/viswhere_stim/blank_white.png,stimulus/viswhere_stim/blank_white.png,stimulus/viswhat_stim/blank_white.png,stimulus/viswhat_stim/blank_white.png,stimulus/viswhere_stim/blank_white.png,stimulus/viswhere_stim/blank_white.png,stimulus/viswhere_stim/blank_white.png,stimulus/viswhere_stim/blank_white.png,0.0,0.0,0.0,0.0,0,0.0,0,0.0,0,0.0,0,0.0,0,0.0,0.0,0,0.0,0,0.0,0,0.0,0,0.0,0,0,0,0,0,0,0,0,10,,,,,0,16,16,16,,,,,,,,,175.47427479200996,175.47427479200996,175.47427479200996,175.47427479200996,175.47427479200996,175.47427479200996,175.47427479200996,175.47427479200996,175.38152641735118,175.47427479200996,175.47427479200996,175.47427479200996,175.38152641735118,175.47427479200996,175.47427479200996,175.47427479200996,175.47427479200996,175.47427479200996,175.47427479200996,175.47427479200996,175.47427479200996,175.47427479200996,175.47427479200996,175.47427479200996,175.47427479200996,175.47427479200996,175.47427479200996,175.4315264173512,175.47427479200996,175.47427479200996,175.47427479200996,175.4315264173512,175.47427479200996,175.47427479200996,175.47427479200996,175.47427479200996,175.47427479200996,180.69398875001934,180.69398875001934,185.73612629200215,None,0,,reldom2_s023,001,2025-02-27_15h30.55.406,Vis-B-Scan_AC,2022.2.5,None,
13,First_Order,3.0,viswhat,stimulus/viswhat_stim/blank_white.png,stimulus/viswhat_stim/blank_white.png,stimulus/viswhat_stim/land_animal-moose.png,stimulus/viswhat_stim/water_animal-whale (1).png,stimulus/viswhat_stim/blank_white.png,stimulus/viswhat_stim/type_box.png,stimulus/viswhat_stim/type_yes.png,stimulus/viswhat_stim/type_no.png,None,Type,None,Type,1,0.0,0,5.125,0,5.125,0,5.125,0,0.0,0.625,0,0.0,0,0.0,1,0.5,1,2.125,0,0,0,0,0,0,0,0,0,,,,,0,17,17,17,,,,,,,,,185.73612629200215,185.73612629200215,185.73612629200215,185.73612629200215,185.73612629200215,185.73612629200215,185.73612629200215,185.73612629200215,185.62318033399643,185.73612629200215,185.73612629200215,185.73612629200215,185.62318033399643,185.73612629200215,185.73612629200215,185.73612629200215,187.80792445901898,,185.73612629200215,185.73612629200215,190.91333895901334,186.19611470901873,187.29082266701153,187.80792445901898,188.90440025000134,185.73612629200215,185.73612629200215,185.6898470006631,185.73612629200215,185.73612629200215,185.73612629200215,185.6898470006631,185.73612629200215,185.73612629200215,190.91333895901334,185.73612629200215,190.91333895901334,190.91333895901334,191.5877341250016,185.73612629200215,1,1,1.2040488330239896,reldom2_s023,001,2025-02-27_15h30.55.406,Vis-B-Scan_AC,2022.2.5,None,
14,First_Order,3.0,viswhat,stimulus/viswhat_stim/blank_white.png,stimulus/viswhat_stim/blank_white.png,stimulus/viswhat_stim/land_vehicle-trolley.png,stimulus/viswhat_stim/water_vehicle-jetski.png,stimulus/viswhat_stim/blank_white.png,stimulus/viswhat_stim/location_box.png,stimulus/viswhat_stim/location_yes.png,stimulus/viswhat_stim/location_no.png,None,Location,None,Type,2,0.0,0,5.125,0,5.125,0,5.125,0,0.0,0.625,0,0.0,0,0.0,1,0.5,1,2.125,0,0,0,0,0,0,0,0,0,,,,,0,18,18,18,,,,,,,,,191.78221337500145,191.78221337500145,191.78221337500145,191.78221337500145,191.78221337500145,191.78221337500145,191.78221337500145,191.78221337500145,191.7377341250016,191.78221337500145,191.78221337500145,191.78221337500145,191.7377341250016,191.78221337500145,191.78221337500145,191.78221337500145,193.89022216701414,197.85428158400464,191.78221337500145,191.78221337500145,196.92752175001078,192.2539359999937,193.27274541699444,193.89022216701414,194.91556641701027,191.78221337500145,191.78221337500145,191.77106745833493,191.78221337500145,191.78221337500145,191.78221337500145,191.77106745833493,191.78221337500145,191.78221337500145,196.92752175001078,191.78221337500145,196.92752175001078,197.00366658400162,197.63495970901567,191.78221337500145,2,1,1.9472924990113825,reldom2_s023,001,2025-02-27_15h30.55.406,Vis-B-Scan_AC,2022.2.5,None,
15,First_Order,3.0,viswhat,stimulus/viswhat_stim/blank_white.png,stimulus/viswhat_stim/blank_white.png,stimulus/viswhat_stim/land_animal-ostrich.png,stimulus/viswhat_stim/land_vehicle-train.png,stimulus/viswhat_stim/blank_white.png,stimulus/viswhat_stim/location_box.png,stimulus/viswhat_stim/location_yes.png,stimulus/viswhat_stim/location_no.png,None,Location,None,Location,1,0.0,0,5.125,0,5.125,0,5.125,0,0.0,0.625,0,0.0,0,0.0,1,0.5,1,2.125,0,0,0,0,0,0,0,0,0,,,,,0,19,19,19,,,,,,,,,197.85428158400464,197.85428158400464,197.85428158400464,197.85428158400464,197.85428158400464,197.85428158400464,197.85428158400464,197.85428158400464,197.8305027919938,197.85428158400464,197.85428158400464,197.85428158400464,197.8305027919938,197.85428158400464,197.85428158400464,197.85428158400464,199.9494100419979,204.25558141700458,197.85428158400464,197.85428158400464,203.00223883401486,198.3324450420041,199.35786758401082,199.9494100419979,200.95751987499534,197.85428158400464,197.85428158400464,197.84716945866046,197.85428158400464,197.85428158400464,197.85428158400464,197.84716945866046,197.85428158400464,197.85428158400464,203.00223883401486,197.85428158400464,203.00223883401486,203.0725422920077,203.7067129590141,197.85428158400464,1,1,1.1585349580273032,reldom2_s023,001,2025-02-27_15h30.55.406,Vis-B-Scan_AC,2022.2.5,None,
16,First_Order,3.0,viswhat,stimulus/viswhat_stim/blank_white.png,stimulus/viswhat_stim/blank_white.png,stimulus/viswhat_stim/water_animal-lobster.png,stimulus/viswhat_stim/land_animal-moose.png,stimulus/viswhat_stim/blank_white.png,stimulus/viswhat_stim/location_box.png,stimulus/viswhat_stim/location_yes.png,stimulus/viswhat_stim/location_no.png,None,Location,None,Type,2,0.0,0,5.125,0,5.125,0,5.125,0,0.0,0.625,0,0.0,0,0.0,1,0.5,1,2.125,0,0,0,0,0,0,0,0,0,,,,,0,20,20,20,,,,,,,,,204.25558141700458,204.25558141700458,204.25558141700458,204.25558141700458,204.25558141700458,204.25558141700458,204.25558141700458,204.25558141700458,203.8920043753363,204.25558141700458,204.25558141700458,204.25558141700458,203.8920043753363,204.25558141700458,204.25558141700458,204.25558141700458,206.20757787500042,,204.25558141700458,204.25558141700458,209.5751759170089,204.6125203340198,205.8526314170158,206.20757787500042,207.4508915420156,204.25558141700458,204.25558141700458,204.07533770866965,204.25558141700458,204.25558141700458,204.25558141700458,204.07533770866965,204.25558141700458,204.25558141700458,209.5751759170089,204.25558141700458,209.5751759170089,209.40369395900052,,204.25558141700458,2,1,1.1588172080228105,reldom2_s023,001,2025-02-27_15h30.55.406,Vis-B-Scan_AC,2022.2.5,None,
0,0.0,None,fixation,stimulus/viswhere_stim/blank_white.png,stimulus/viswhere_stim/blank_white.png,stimulus/viswhat_stim/blank_white.png,stimulus/viswhat_stim/blank_white.png,stimulus/viswhere_stim/blank_white.png,stimulus/viswhere_stim/blank_white.png,stimulus/viswhere_stim/blank_white.png,stimulus/viswhere_stim/blank_white.png,0.0,0.0,0.0,0.0,0,0.0,0,0.0,0,0.0,0,0.0,0,0.0,0.0,0,0.0,0,0.0,0,0.0,0,0.0,0,0,0,0,0,0,0,0,8,,,,,0,21,21,21,,,,,,,,,210.2420066250197,210.2420066250197,210.2420066250197,210.2420066250197,210.2420066250197,210.2420066250197,210.2420066250197,210.2420066250197,210.14676475001616,210.2420066250197,210.2420066250197,210.2420066250197,210.14676475001616,210.2420066250197,210.2420066250197,210.2420066250197,210.2420066250197,210.2420066250197,210.2420066250197,210.2420066250197,210.2420066250197,210.2420066250197,210.2420066250197,210.2420066250197,210.2420066250197,210.2420066250197,210.2420066250197,210.19676475001617,210.2420066250197,210.2420066250197,210.2420066250197,210.19676475001617,210.2420066250197,210.2420066250197,210.2420066250197,210.2420066250197,210.2420066250197,215.457559167,215.457559167,218.37180287501542,None,0,,reldom2_s023,001,2025-02-27_15h30.55.406,Vis-B-Scan_AC,2022.2.5,None,
17,Second_Order,3.0,viswhat,stimulus/viswhat_stim/land_animal-giraffe.png,stimulus/viswhat_stim/water_animal-stingray.png,stimulus/viswhat_stim/water_animal-squid.png,stimulus/viswhat_stim/water_vehicle-yacht.png,stimulus/viswhere_stim/match_blank.png,stimulus/viswhere_stim/match_box.png,stimulus/viswhere_stim/match_yes.png,stimulus/viswhere_stim/match_no.png,2.0,Match,Type,Location,2,5.125,0,5.125,0,5.125,0,5.125,0,0.75,0.75,1,0.5,1,2.125,1,0.5,1,2.125,0,0,0,0,0,0,0,0,0,,,,,0,22,22,22,,,,,,,,,218.37180287501542,223.4891644169984,218.827080417017,219.82543679201626,220.4476297920046,221.44593462499324,218.37180287501542,218.37180287501542,218.37782066700166,218.37180287501542,218.37180287501542,218.37180287501542,218.37782066700166,218.37180287501542,223.4891644169984,224.323576166993,226.39002487499965,,224.323576166993,224.323576166993,229.4678080000158,224.76584300000104,225.7994718340051,226.39002487499965,227.43105541699333,224.323576166993,224.323576166993,224.28881804166403,224.323576166993,224.323576166993,224.323576166993,224.28881804166403,224.323576166993,224.323576166993,229.4678080000158,224.323576166993,229.4678080000158,229.49951625001268,,224.323576166993,2,1,1.249085791001562,reldom2_s023,001,2025-02-27_15h30.55.406,Vis-B-Scan_AC,2022.2.5,None,
18,Second_Order,3.0,viswhat,stimulus/viswhat_stim/water_animal-whale (1).png,stimulus/viswhat_stim/land_animal-tiger.png,stimulus/viswhat_stim/water_animal-orka.png,stimulus/viswhat_stim/water_vehicle-cargoboat.png,stimulus/viswhere_stim/match_blank.png,stimulus/viswhere_stim/match_box.png,stimulus/viswhere_stim/match_yes.png,stimulus/viswhere_stim/match_no.png,2.0,Match,Type,Location,2,5.125,0,5.125,0,5.125,0,5.125,0,0.625,0.625,1,0.5,1,2.125,1,0.5,1,2.125,0,0,0,0,0,0,0,0,0,,,,,0,23,23,23,,,,,,,,,230.28678708401276,235.39893887500511,230.75289525001426,231.73949904201436,232.37528254199424,233.37332129201968,230.28678708401276,230.28678708401276,230.2934489590058,230.28678708401276,230.28678708401276,230.28678708401276,230.2934489590058,230.28678708401276,235.39893887500511,236.17165875001228,238.22086262499215,242.2817842499935,236.17165875001228,236.17165875001228,241.36754500001553,236.6195116250019,237.70920237500104,238.22086262499215,239.31331954200868,236.17165875001228,236.17165875001228,236.1131450420013,236.17165875001228,236.17165875001228,236.17165875001228,236.1131450420013,236.17165875001228,236.17165875001228,241.36754500001553,236.17165875001228,241.36754500001553,241.36754500001553,242.2817842499935,236.17165875001228,2,1,1.1991461660072673,reldom2_s023,001,2025-02-27_15h30.55.406,Vis-B-Scan_AC,2022.2.5,None,
0,0.0,None,fixation,stimulus/viswhere_stim/blank_white.png,stimulus/viswhere_stim/blank_white.png,stimulus/viswhat_stim/blank_white.png,stimulus/viswhat_stim/blank_white.png,stimulus/viswhere_stim/blank_white.png,stimulus/viswhere_stim/blank_white.png,stimulus/viswhere_stim/blank_white.png,stimulus/viswhere_stim/blank_white.png,0.0,0.0,0.0,0.0,0,0.0,0,0.0,0,0.0,0,0.0,0,0.0,0.0,0,0.0,0,0.0,0,0.0,0,0.0,0,0,0,0,0,0,0,0,9,,,,,0,24,24,24,,,,,,,,,242.2817842499935,242.2817842499935,242.2817842499935,242.2817842499935,242.2817842499935,242.2817842499935,242.2817842499935,242.2817842499935,242.17841041668242,242.2817842499935,242.2817842499935,242.2817842499935,242.17841041668242,242.2817842499935,242.2817842499935,242.2817842499935,242.2817842499935,242.2817842499935,242.2817842499935,242.2817842499935,242.2817842499935,242.2817842499935,242.2817842499935,242.2817842499935,242.2817842499935,242.2817842499935,242.2817842499935,242.2450770833491,242.2817842499935,242.2817842499935,242.2817842499935,242.2450770833491,242.2817842499935,242.2817842499935,242.2817842499935,242.2817842499935,242.2817842499935,247.48366479200195,247.48366479200195,251.5174632090202,None,0,,reldom2_s023,001,2025-02-27_15h30.55.406,Vis-B-Scan_AC,2022.2.5,None,
19,First_Order,4.0,viswhat,stimulus/viswhat_stim/blank_white.png,stimulus/viswhat_stim/blank_white.png,stimulus/viswhat_stim/water_animal-dolphin.png,stimulus/viswhat_stim/water_vehicle-canoe.png,stimulus/viswhat_stim/blank_white.png,stimulus/viswhat_stim/type_box.png,stimulus/viswhat_stim/type_yes.png,stimulus/viswhat_stim/type_no.png,None,Type,None,Location,2,0.0,0,5.125,0,5.125,0,5.125,0,0.0,0.625,0,0.0,0,0.0,1,0.5,1,2.125,0,0,0,0,0,0,0,0,0,,,,,0,25,25,25,,,,,,,,,251.5174632090202,251.5174632090202,251.5174632090202,251.5174632090202,251.5174632090202,251.5174632090202,251.5174632090202,251.5174632090202,251.4648006249976,251.5174632090202,251.5174632090202,251.5174632090202,251.4648006249976,251.5174632090202,251.5174632090202,251.5174632090202,253.6060138750181,257.66510683399974,251.5174632090202,251.5174632090202,256.67620099999476,252.00238629200612,253.03356083401013,253.6060138750181,254.64155550001306,251.5174632090202,251.5174632090202,251.49813395833092,251.5174632090202,251.5174632090202,251.5174632090202,251.49813395833092,251.5174632090202,251.5174632090202,256.67620099999476,251.5174632090202,256.67620099999476,256.7222608750162,257.3680791250081,251.5174632090202,2,1,1.5240764580084942,reldom2_s023,001,2025-02-27_15h30.55.406,Vis-B-Scan_AC,2022.2.5,None,
20,First_Order,4.0,viswhat,stimulus/viswhat_stim/blank_white.png,stimulus/viswhat_stim/blank_white.png,stimulus/viswhat_stim/land_animal-elephant.png,stimulus/viswhat_stim/land_vehicle-pickuptruck.png,stimulus/viswhat_stim/blank_white.png,stimulus/viswhat_stim/type_box.png,stimulus/viswhat_stim/type_yes.png,stimulus/viswhat_stim/type_no.png,None,Type,None,Location,2,0.0,0,5.125,0,5.125,0,5.125,0,0.0,0.625,0,0.0,0,0.0,1,0.5,1,2.125,0,0,0,0,0,0,0,0,0,,,,,0,26,26,26,,,,,,,,,257.66510683399974,257.66510683399974,257.66510683399974,257.66510683399974,257.66510683399974,257.66510683399974,257.66510683399974,257.66510683399974,257.5602465839998,257.66510683399974,257.66510683399974,257.66510683399974,257.5602465839998,257.66510683399974,257.66510683399974,257.66510683399974,259.72230275001493,,257.66510683399974,257.66510683399974,262.83555979200173,258.1347137920093,259.1941140840063,259.72230275001493,260.78337400002056,257.66510683399974,257.66510683399974,257.6102465839998,257.66510683399974,257.66510683399974,257.66510683399974,257.6102465839998,257.66510683399974,257.66510683399974,262.83555979200173,257.66510683399974,262.83555979200173,262.88804291700944,263.9184227499936,257.66510683399974,2,1,1.9992287080094684,reldom2_s023,001,2025-02-27_15h30.55.406,Vis-B-Scan_AC,2022.2.5,None,
21,First_Order,4.0,viswhat,stimulus/viswhat_stim/blank_white.png,stimulus/viswhat_stim/blank_white.png,stimulus/viswhat_stim/water_vehicle-cruiseship.png,stimulus/viswhat_stim/land_vehicle-oldcar.png,stimulus/viswhat_stim/blank_white.png,stimulus/viswhat_stim/type_box.png,stimulus/viswhat_stim/type_yes.png,stimulus/viswhat_stim/type_no.png,None,Type,None,Type,1,0.0,0,5.125,0,5.125,0,5.125,0,0.0,0.625,0,0.0,0,0.0,1,0.5,1,2.125,0,0,0,0,0,0,0,0,0,,,,,0,27,27,27,,,,,,,,,263.9184227499936,263.9184227499936,263.9184227499936,263.9184227499936,263.9184227499936,263.9184227499936,263.9184227499936,263.9184227499936,263.69588454167626,263.9184227499936,263.9184227499936,263.9184227499936,263.69588454167626,263.9184227499936,263.9184227499936,263.9184227499936,265.9864170420042,,263.9184227499936,263.9184227499936,269.1983344590117,264.3780919590208,265.52743550000014,265.9864170420042,267.1372646249947,263.9184227499936,263.9184227499936,263.81255120834294,263.9184227499936,263.9184227499936,263.9184227499936,263.81255120834294,263.9184227499936,263.9184227499936,269.1983344590117,263.9184227499936,269.1983344590117,269.0890156670066,,263.9184227499936,1,1,0.6944537489907816,reldom2_s023,001,2025-02-27_15h30.55.406,Vis-B-Scan_AC,2022.2.5,None,
22,First_Order,4.0,viswhat,stimulus/viswhat_stim/blank_white.png,stimulus/viswhat_stim/blank_white.png,stimulus/viswhat_stim/water_vehicle-pirateship.png,stimulus/viswhat_stim/water_animal-orka.png,stimulus/viswhat_stim/blank_white.png,stimulus/viswhat_stim/location_box.png,stimulus/viswhat_stim/location_yes.png,stimulus/viswhat_stim/location_no.png,None,Location,None,Location,1,0.0,0,5.125,0,5.125,0,5.125,0,0.0,0.625,0,0.0,0,0.0,1,0.5,1,2.125,0,0,0,0,0,0,0,0,0,,,,,0,28,28,28,,,,,,,,,270.0317675420083,270.0317675420083,270.0317675420083,270.0317675420083,270.0317675420083,270.0317675420083,270.0317675420083,270.0317675420083,269.90162662568423,270.0317675420083,270.0317675420083,270.0317675420083,269.90162662568423,270.0317675420083,270.0317675420083,270.0317675420083,272.0928329169983,276.1657301670057,270.0317675420083,270.0317675420083,275.2192080420209,270.4960683750105,271.56039925001096,272.0928329169983,273.1587578339968,270.0317675420083,270.0317675420083,269.9682932923509,270.0317675420083,270.0317675420083,270.0317675420083,269.9682932923509,270.0317675420083,270.0317675420083,275.2192080420209,270.0317675420083,275.2192080420209,275.2192080420209,275.8915107920184,270.0317675420083,1,1,1.6844862070283853,reldom2_s023,001,2025-02-27_15h30.55.406,Vis-B-Scan_AC,2022.2.5,None,
0,0.0,None,fixation,stimulus/viswhere_stim/blank_white.png,stimulus/viswhere_stim/blank_white.png,stimulus/viswhat_stim/blank_white.png,stimulus/viswhat_stim/blank_white.png,stimulus/viswhere_stim/blank_white.png,stimulus/viswhere_stim/blank_white.png,stimulus/viswhere_stim/blank_white.png,stimulus/viswhere_stim/blank_white.png,0.0,0.0,0.0,0.0,0,0.0,0,0.0,0,0.0,0,0.0,0,0.0,0.0,0,0.0,0,0.0,0,0.0,0,0.0,0,0,0,0,0,0,0,0,10,,,,,0,29,29,29,,,,,,,,,276.1657301670057,276.1657301670057,276.1657301670057,276.1657301670057,276.1657301670057,276.1657301670057,276.1657301670057,276.1657301670057,276.0748441253517,276.1657301670057,276.1657301670057,276.1657301670057,276.0748441253517,276.1657301670057,276.1657301670057,276.1657301670057,276.1657301670057,276.1657301670057,276.1657301670057,276.1657301670057,276.1657301670057,276.1657301670057,276.1657301670057,276.1657301670057,276.1657301670057,276.1657301670057,276.1657301670057,276.1248441253517,276.1657301670057,276.1657301670057,276.1657301670057,276.1248441253517,276.1657301670057,276.1657301670057,276.1657301670057,276.1657301670057,276.1657301670057,281.35977845900925,281.35977845900925,286.32924150000326,None,0,,reldom2_s023,001,2025-02-27_15h30.55.406,Vis-B-Scan_AC,2022.2.5,None,
23,Second_Order,4.0,viswhat,stimulus/viswhat_stim/land_vehicle-pickuptruck.png,stimulus/viswhat_stim/land_animal-lion.png,stimulus/viswhat_stim/water_animal-jellyfish.png,stimulus/viswhat_stim/water_vehicle-cabincruiser.png,stimulus/viswhere_stim/match_blank.png,stimulus/viswhere_stim/match_box.png,stimulus/viswhere_stim/match_yes.png,stimulus/viswhere_stim/match_no.png,1.0,Match,Location,Location,1,5.125,0,5.125,0,5.125,0,5.125,0,0.75,0.75,1,0.5,1,2.125,1,0.5,1,2.125,0,0,0,0,0,0,0,0,0,,,,,0,30,30,30,,,,,,,,,286.32924150000326,291.44552420900436,286.7970067500137,287.7860084169952,288.421925208997,289.4192633750208,286.32924150000326,286.32924150000326,286.3295258333402,286.32924150000326,286.32924150000326,286.32924150000326,286.3295258333402,286.32924150000326,291.44552420900436,292.285044749995,294.36625820901827,,292.285044749995,292.285044749995,297.4451874590013,292.7153614590061,293.7751565420185,294.36625820901827,295.39767991701956,292.285044749995,292.285044749995,292.2461662916622,292.285044749995,292.285044749995,292.285044749995,292.2461662916622,292.285044749995,292.285044749995,297.4451874590013,292.285044749995,297.4451874590013,297.47940137499245,,292.285044749995,1,1,0.46818645801977254,reldom2_s023,001,2025-02-27_15h30.55.406,Vis-B-Scan_AC,2022.2.5,None,
24,Second_Order,4.0,viswhat,stimulus/viswhat_stim/water_vehicle-pirateship.png,stimulus/viswhat_stim/land_vehicle-oldcar.png,stimulus/viswhat_stim/land_animal-zebra.png,stimulus/viswhat_stim/water_animal-seahorse.png,stimulus/viswhere_stim/match_blank.png,stimulus/viswhere_stim/match_box.png,stimulus/viswhere_stim/match_yes.png,stimulus/viswhere_stim/match_no.png,1.0,Match,Type,Type,1,5.125,0,5.125,0,5.125,0,5.125,0,0.625,0.625,1,0.5,1,2.125,1,0.5,1,2.125,0,0,0,0,0,0,0,0,0,,,,,0,31,31,31,,,,,,,,,298.25809149999986,303.37356691699824,298.70988458400825,299.6966566250194,300.3445521669928,301.3337475419976,298.25809149999986,298.25809149999986,298.2577960840077,298.25809149999986,298.25809149999986,298.25809149999986,298.2577960840077,298.25809149999986,303.37356691699824,304.0570848339994,306.1219675420143,310.17015487499884,304.0570848339994,304.0570848339994,309.18331858399324,304.5149298750039,305.5223230420088,306.1219675420143,307.14084416700643,304.0570848339994,304.0570848339994,304.03629595901003,304.0570848339994,304.0570848339994,304.0570848339994,304.03629595901003,304.0570848339994,304.0570848339994,309.18331858399324,304.0570848339994,309.18331858399324,309.2392517919943,309.8699096670025,304.0570848339994,1,1,0.5271813329891302,reldom2_s023,001,2025-02-27_15h30.55.406,Vis-B-Scan_AC,2022.2.5,None,
0,0.0,None,fixation,stimulus/viswhere_stim/blank_white.png,stimulus/viswhere_stim/blank_white.png,stimulus/viswhat_stim/blank_white.png,stimulus/viswhat_stim/blank_white.png,stimulus/viswhere_stim/blank_white.png,stimulus/viswhere_stim/blank_white.png,stimulus/viswhere_stim/blank_white.png,stimulus/viswhere_stim/blank_white.png,0.0,0.0,0.0,0.0,0,0.0,0,0.0,0,0.0,0,0.0,0,0.0,0.0,0,0.0,0,0.0,0,0.0,0,0.0,0,0,0,0,0,0,0,0,9,,,,,0,32,32,32,,,,,,,,,310.17015487499884,310.17015487499884,310.17015487499884,310.17015487499884,310.17015487499884,310.17015487499884,310.17015487499884,310.17015487499884,310.08063845900466,310.17015487499884,310.17015487499884,310.17015487499884,310.08063845900466,310.17015487499884,310.17015487499884,310.17015487499884,310.17015487499884,310.17015487499884,310.17015487499884,310.17015487499884,310.17015487499884,310.17015487499884,310.17015487499884,310.17015487499884,310.17015487499884,310.17015487499884,310.17015487499884,310.1306384590047,310.17015487499884,310.17015487499884,310.17015487499884,310.1306384590047,310.17015487499884,310.17015487499884,310.17015487499884,310.17015487499884,310.17015487499884,315.352015750017,315.352015750017,319.3866405420122,None,0,,reldom2_s023,001,2025-02-27_15h30.55.406,Vis-B-Scan_AC,2022.2.5,None,
25,First_Order,5.0,viswhere,stimulus/viswhere_stim/blank_white.png,stimulus/viswhere_stim/blank_white.png,stimulus/viswhere_stim/90-deg_dot-right_seagreen.png,stimulus/viswhere_stim/150-deg_dot-right_turquoise.png,stimulus/viswhere_stim/blank_white.png,stimulus/viswhere_stim/line_box.png,stimulus/viswhere_stim/line_yes.png,stimulus/viswhere_stim/line_no.png,None,Line,None,Dot,2,0.0,0,5.125,0,5.125,0,5.125,0,0.0,0.625,0,0.0,0,0.0,1,0.5,1,2.125,0,0,0,0,0,0,0,0,0,,,,,0,33,33,33,,,,,,,,,319.3866405420122,319.3866405420122,319.3866405420122,319.3866405420122,319.3866405420122,319.3866405420122,319.3866405420122,319.3866405420122,319.37002191667364,319.3866405420122,319.3866405420122,319.3866405420122,319.37002191667364,319.3866405420122,319.3866405420122,319.3866405420122,321.48918629201944,325.4467013340036,319.3866405420122,319.3866405420122,324.5224515000009,319.8657455840148,320.8797772919934,321.48918629201944,322.50957220900455,319.3866405420122,319.3866405420122,319.37002191667364,319.3866405420122,319.3866405420122,319.3866405420122,319.37002191667364,319.3866405420122,319.3866405420122,324.5224515000009,319.3866405420122,324.5224515000009,324.6043286670174,325.2315447090077,319.3866405420122,2,1,1.3505017909919843,reldom2_s023,001,2025-02-27_15h30.55.406,Vis-B-Scan_AC,2022.2.5,None,
26,First_Order,5.0,viswhere,stimulus/viswhere_stim/blank_white.png,stimulus/viswhere_stim/blank_white.png,stimulus/viswhere_stim/150-deg_dot-left_seagreen.png,stimulus/viswhere_stim/150-deg_dot-right_seagreen.png,stimulus/viswhere_stim/blank_white.png,stimulus/viswhere_stim/dot_box.png,stimulus/viswhere_stim/dot_yes.png,stimulus/viswhere_stim/dot_no.png,None,Dot,None,Line,2,0.0,0,5.125,0,5.125,0,5.125,0,0.0,0.625,0,0.0,0,0.0,1,0.5,1,2.125,0,0,0,0,0,0,0,0,0,,,,,0,34,34,34,,,,,,,,,325.4467013340036,325.4467013340036,325.4467013340036,325.4467013340036,325.4467013340036,325.4467013340036,325.4467013340036,325.4467013340036,325.42556000034284,325.4467013340036,325.4467013340036,325.4467013340036,325.42556000034284,325.4467013340036,325.4467013340036,325.4467013340036,327.5562051250017,331.5159204590018,325.4467013340036,325.4467013340036,330.57285558400326,325.9252215420129,326.9436026670155,327.5562051250017,328.5586053339939,325.4467013340036,325.4467013340036,325.4422266670095,325.4467013340036,325.4467013340036,325.4467013340036,325.4422266670095,325.4467013340036,325.4467013340036,330.57285558400326,325.4467013340036,330.57285558400326,330.6685126250086,331.3008550000086,325.4467013340036,2,1,2.342620748997433,reldom2_s023,001,2025-02-27_15h30.55.406,Vis-B-Scan_AC,2022.2.5,None,
27,First_Order,5.0,viswhere,stimulus/viswhere_stim/blank_white.png,stimulus/viswhere_stim/blank_white.png,stimulus/viswhere_stim/90-deg_dot-left_turquoise.png,stimulus/viswhere_stim/90-deg_dot-right_seagreen.png,stimulus/viswhere_stim/blank_white.png,stimulus/viswhere_stim/line_box.png,stimulus/viswhere_stim/line_yes.png,stimulus/viswhere_stim/line_no.png,None,Line,None,Line,1,0.0,0,5.125,0,5.125,0,5.125,0,0.0,0.625,0,0.0,0,0.0,1,0.5,1,2.125,0,0,0,0,0,0,0,0,0,,,,,0,35,35,35,,,,,,,,,331.5159204590018,331.5159204590018,331.5159204590018,331.5159204590018,331.5159204590018,331.5159204590018,331.5159204590018,331.5159204590018,331.49581979234546,331.5159204590018,331.5159204590018,331.5159204590018,331.49581979234546,331.5159204590018,331.5159204590018,331.5159204590018,333.61757025000406,337.5800631250022,331.5159204590018,331.5159204590018,336.6445950840134,331.9953382090025,333.0078688749927,333.61757025000406,334.6364995420154,331.5159204590018,331.5159204590018,331.5124864590121,331.5159204590018,331.5159204590018,331.5159204590018,331.5124864590121,331.5159204590018,331.5159204590018,336.6445950840134,331.5159204590018,336.6445950840134,336.7416123340081,337.3760231670167,331.5159204590018,1,1,0.8715051660255995,reldom2_s023,001,2025-02-27_15h30.55.406,Vis-B-Scan_AC,2022.2.5,None,
28,First_Order,5.0,viswhere,stimulus/viswhere_stim/blank_white.png,stimulus/viswhere_stim/blank_white.png,stimulus/viswhere_stim/120-deg_dot-right_mediumslateblue.png,stimulus/viswhere_stim/90-deg_dot-right_lightsseagreen.png,stimulus/viswhere_stim/blank_white.png,stimulus/viswhere_stim/dot_box.png,stimulus/viswhere_stim/dot_yes.png,stimulus/viswhere_stim/dot_no.png,None,Dot,None,Dot,1,0.0,0,5.125,0,5.125,0,5.125,0,0.0,0.625,0,0.0,0,0.0,1,0.5,1,2.125,0,0,0,0,0,0,0,0,0,,,,,0,36,36,36,,,,,,,,,337.5800631250022,337.5800631250022,337.5800631250022,337.5800631250022,337.5800631250022,337.5800631250022,337.5800631250022,337.5800631250022,337.55973508333165,337.5800631250022,337.5800631250022,337.5800631250022,337.55973508333165,337.5800631250022,337.5800631250022,337.5800631250022,339.6916038340132,343.72016045899363,337.5800631250022,337.5800631250022,342.7084730420029,338.05573233400355,339.0669966250134,339.6916038340132,340.7078118339996,337.5800631250022,337.5800631250022,337.5764017499983,337.5800631250022,337.5800631250022,337.5800631250022,337.5764017499983,337.5800631250022,337.5800631250022,342.7084730420029,337.5800631250022,342.7084730420029,342.8089081670041,343.4401841670042,337.5800631250022,1,1,0.9076226240140386,reldom2_s023,001,2025-02-27_15h30.55.406,Vis-B-Scan_AC,2022.2.5,None,
0,0.0,None,fixation,stimulus/viswhere_stim/blank_white.png,stimulus/viswhere_stim/blank_white.png,stimulus/viswhat_stim/blank_white.png,stimulus/viswhat_stim/blank_white.png,stimulus/viswhere_stim/blank_white.png,stimulus/viswhere_stim/blank_white.png,stimulus/viswhere_stim/blank_white.png,stimulus/viswhere_stim/blank_white.png,0.0,0.0,0.0,0.0,0,0.0,0,0.0,0,0.0,0,0.0,0,0.0,0.0,0,0.0,0,0.0,0,0.0,0,0.0,0,0,0,0,0,0,0,0,10,,,,,0,37,37,37,,,,,,,,,343.72016045899363,343.72016045899363,343.72016045899363,343.72016045899363,343.72016045899363,343.72016045899363,343.72016045899363,343.72016045899363,343.62376383333077,343.72016045899363,343.72016045899363,343.72016045899363,343.62376383333077,343.72016045899363,343.72016045899363,343.72016045899363,343.72016045899363,343.72016045899363,343.72016045899363,343.72016045899363,343.72016045899363,343.72016045899363,343.72016045899363,343.72016045899363,343.72016045899363,343.72016045899363,343.72016045899363,343.6737638333308,343.72016045899363,343.72016045899363,343.72016045899363,343.6737638333308,343.72016045899363,343.72016045899363,343.72016045899363,343.72016045899363,343.72016045899363,348.9462070419977,348.9462070419977,353.8673310840095,None,0,,reldom2_s023,001,2025-02-27_15h30.55.406,Vis-B-Scan_AC,2022.2.5,None,
29,Second_Order,5.0,viswhere,stimulus/viswhere_stim/30-deg_dot-right_peru.png,stimulus/viswhere_stim/120-deg_dot-right_royalblue.png,stimulus/viswhere_stim/120-deg_dot-left_lightsseagreen.png,stimulus/viswhere_stim/90-deg_dot-left_seagreen.png,stimulus/viswhere_stim/match_blank.png,stimulus/viswhere_stim/match_box.png,stimulus/viswhere_stim/match_yes.png,stimulus/viswhere_stim/match_no.png,1.0,Match,Dot,Dot,1,5.125,0,5.125,0,5.125,0,5.125,0,0.75,0.75,1,0.5,1,2.125,1,0.5,1,2.125,0,0,0,0,0,0,0,0,0,,,,,0,38,38,38,,,,,,,,,353.8673310840095,358.98558766700444,354.3393562500132,355.33817170900875,355.9775035420025,356.97539666699595,353.8673310840095,353.8673310840095,353.8662306256864,353.8673310840095,353.8673310840095,353.8673310840095,353.8662306256864,353.8673310840095,358.98558766700444,359.77714099999866,361.8569895840192,365.7441465840093,359.77714099999866,359.77714099999866,364.8985327090195,360.23910870900727,361.24923820901313,361.8569895840192,362.8751878750045,359.77714099999866,359.77714099999866,359.75210029233904,359.77714099999866,359.77714099999866,359.77714099999866,359.75210029233904,359.77714099999866,359.77714099999866,364.8985327090195,359.77714099999866,364.8985327090195,364.9671929590113,365.7441465840093,359.77714099999866,1,1,0.6056386240234133,reldom2_s023,001,2025-02-27_15h30.55.406,Vis-B-Scan_AC,2022.2.5,None,
30,Second_Order,5.0,viswhere,stimulus/viswhere_stim/60-deg_dot-right_seagreen.png,stimulus/viswhere_stim/60-deg_dot-left_slateblue.png,stimulus/viswhere_stim/120-deg_dot-left_seagreen.png,stimulus/viswhere_stim/30-deg_dot-left_cyan.png,stimulus/viswhere_stim/match_blank.png,stimulus/viswhere_stim/match_box.png,stimulus/viswhere_stim/match_yes.png,stimulus/viswhere_stim/match_no.png,2.0,Match,Line,Dot,2,5.125,0,5.125,0,5.125,0,5.125,0,0.625,0.625,1,0.5,1,2.125,1,0.5,1,2.125,0,0,0,0,0,0,0,0,0,,,,,0,39,39,39,,,,,,,,,365.7441465840093,370.8620095840015,366.2472887090116,367.2361810840084,367.8559945420129,368.85310437501175,365.7441465840093,365.7441465840093,365.75815195899924,365.7441465840093,365.7441465840093,365.7441465840093,365.75815195899924,365.7441465840093,370.8620095840015,371.5338461250067,373.6189359590062,377.6446127500094,371.5338461250067,371.5338461250067,376.6703709590074,371.99027995902,372.99596295901574,373.6189359590062,374.6327111670107,371.5338461250067,371.5338461250067,371.5091547923298,371.5338461250067,371.5338461250067,371.5338461250067,371.5091547923298,371.5338461250067,371.5338461250067,376.6703709590074,371.5338461250067,376.6703709590074,376.72415187500883,377.3718233749969,371.5338461250067,2,1,0.5554824160062708,reldom2_s023,001,2025-02-27_15h30.55.406,Vis-B-Scan_AC,2022.2.5,None,
0,0.0,None,fixation,stimulus/viswhere_stim/blank_white.png,stimulus/viswhere_stim/blank_white.png,stimulus/viswhat_stim/blank_white.png,stimulus/viswhat_stim/blank_white.png,stimulus/viswhere_stim/blank_white.png,stimulus/viswhere_stim/blank_white.png,stimulus/viswhere_stim/blank_white.png,stimulus/viswhere_stim/blank_white.png,0.0,0.0,0.0,0.0,0,0.0,0,0.0,0,0.0,0,0.0,0,0.0,0.0,0,0.0,0,0.0,0,0.0,0,0.0,0,0,0,0,0,0,0,0,9,,,,,0,40,40,40,,,,,,,,,377.6446127500094,377.6446127500094,377.6446127500094,377.6446127500094,377.6446127500094,377.6446127500094,377.6446127500094,377.6446127500094,377.5489978333256,377.6446127500094,377.6446127500094,377.6446127500094,377.5489978333256,377.6446127500094,377.6446127500094,377.6446127500094,377.6446127500094,377.6446127500094,377.6446127500094,377.6446127500094,377.6446127500094,377.6446127500094,377.6446127500094,377.6446127500094,377.6446127500094,377.6446127500094,377.6446127500094,377.5989978333256,377.6446127500094,377.6446127500094,377.6446127500094,377.5989978333256,377.6446127500094,377.6446127500094,377.6446127500094,377.6446127500094,377.6446127500094,382.8682267499971,382.8682267499971,386.81635554201785,None,0,,reldom2_s023,001,2025-02-27_15h30.55.406,Vis-B-Scan_AC,2022.2.5,None,
31,First_Order,6.0,viswhere,stimulus/viswhere_stim/blank_white.png,stimulus/viswhere_stim/blank_white.png,stimulus/viswhere_stim/120-deg_dot-left_royalblue.png,stimulus/viswhere_stim/30-deg_dot-left_goldenrod.png,stimulus/viswhere_stim/blank_white.png,stimulus/viswhere_stim/dot_box.png,stimulus/viswhere_stim/dot_yes.png,stimulus/viswhere_stim/dot_no.png,None,Dot,None,Dot,1,0.0,0,5.125,0,5.125,0,5.125,0,0.0,0.625,0,0.0,0,0.0,1,0.5,1,2.125,0,0,0,0,0,0,0,0,0,,,,,0,41,41,41,,,,,,,,,386.81635554201785,386.81635554201785,386.81635554201785,386.81635554201785,386.81635554201785,386.81635554201785,386.81635554201785,386.81635554201785,386.7976047916842,386.81635554201785,386.81635554201785,386.81635554201785,386.7976047916842,386.81635554201785,386.81635554201785,386.81635554201785,388.92259795899736,392.87107354201726,386.81635554201785,386.81635554201785,391.946038708993,387.2907208749966,388.29633429201203,388.92259795899736,389.93359100000816,386.81635554201785,386.81635554201785,386.7976047916842,386.81635554201785,386.81635554201785,386.81635554201785,386.7976047916842,386.81635554201785,386.81635554201785,391.946038708993,386.81635554201785,391.946038708993,392.0324502089934,392.6537249170069,386.81635554201785,1,1,0.9165807499957737,reldom2_s023,001,2025-02-27_15h30.55.406,Vis-B-Scan_AC,2022.2.5,None,
32,First_Order,6.0,viswhere,stimulus/viswhere_stim/blank_white.png,stimulus/viswhere_stim/blank_white.png,stimulus/viswhere_stim/150-deg_dot-left_salmon.png,stimulus/viswhere_stim/150-deg_dot-right_salmon.png,stimulus/viswhere_stim/blank_white.png,stimulus/viswhere_stim/dot_box.png,stimulus/viswhere_stim/dot_yes.png,stimulus/viswhere_stim/dot_no.png,None,Dot,None,Line,2,0.0,0,5.125,0,5.125,0,5.125,0,0.0,0.625,0,0.0,0,0.0,1,0.5,1,2.125,0,0,0,0,0,0,0,0,0,,,,,0,42,42,42,,,,,,,,,392.87107354201726,392.87107354201726,392.87107354201726,392.87107354201726,392.87107354201726,392.87107354201726,392.87107354201726,392.87107354201726,392.8509616673303,392.87107354201726,392.87107354201726,392.87107354201726,392.8509616673303,392.87107354201726,392.87107354201726,392.87107354201726,394.9851372090052,398.9425341669994,392.87107354201726,392.87107354201726,398.00531554201734,393.3503636250098,394.36936400001287,394.9851372090052,396.0047151670151,392.87107354201726,392.87107354201726,392.86762833399695,392.87107354201726,392.87107354201726,392.87107354201726,392.86762833399695,392.87107354201726,392.87107354201726,398.00531554201734,392.87107354201726,398.00531554201734,398.0889321670111,398.71194829200977,392.87107354201726,2,1,1.7122110410127789,reldom2_s023,001,2025-02-27_15h30.55.406,Vis-B-Scan_AC,2022.2.5,None,
33,First_Order,6.0,viswhere,stimulus/viswhere_stim/blank_white.png,stimulus/viswhere_stim/blank_white.png,stimulus/viswhere_stim/150-deg_dot-left_cyan.png,stimulus/viswhere_stim/150-deg_dot-right_seagreen.png,stimulus/viswhere_stim/blank_white.png,stimulus/viswhere_stim/line_box.png,stimulus/viswhere_stim/line_yes.png,stimulus/viswhere_stim/line_no.png,None,Line,None,Line,1,0.0,0,5.125,0,5.125,0,5.125,0,0.0,0.625,0,0.0,0,0.0,1,0.5,1,2.125,0,0,0,0,0,0,0,0,0,,,,,0,43,43,43,,,,,,,,,398.9425341669994,398.9425341669994,398.9425341669994,398.9425341669994,398.9425341669994,398.9425341669994,398.9425341669994,398.9425341669994,398.92135675035144,398.9425341669994,398.9425341669994,398.9425341669994,398.92135675035144,398.9425341669994,398.9425341669994,398.9425341669994,401.0408486670058,405.0105450840201,398.9425341669994,398.9425341669994,404.07188770899666,399.4239525840094,400.4447377920151,401.0408486670058,402.0473327499931,398.9425341669994,398.9425341669994,398.9380234170181,398.9425341669994,398.9425341669994,398.9425341669994,398.9380234170181,398.9425341669994,398.9425341669994,404.07188770899666,398.9425341669994,404.07188770899666,404.1695460000192,404.7954517920152,398.9425341669994,1,1,1.0477443750132807,reldom2_s023,001,2025-02-27_15h30.55.406,Vis-B-Scan_AC,2022.2.5,None,
34,First_Order,6.0,viswhere,stimulus/viswhere_stim/blank_white.png,stimulus/viswhere_stim/blank_white.png,stimulus/viswhere_stim/150-deg_dot-right_cyan.png,stimulus/viswhere_stim/120-deg_dot-right_cyan.png,stimulus/viswhere_stim/blank_white.png,stimulus/viswhere_stim/line_box.png,stimulus/viswhere_stim/line_yes.png,stimulus/viswhere_stim/line_no.png,None,Line,None,Dot,2,0.0,0,5.125,0,5.125,0,5.125,0,0.0,0.625,0,0.0,0,0.0,1,0.5,1,2.125,0,0,0,0,0,0,0,0,0,,,,,0,44,44,44,,,,,,,,,405.0105450840201,405.0105450840201,405.0105450840201,405.0105450840201,405.0105450840201,405.0105450840201,405.0105450840201,405.0105450840201,404.98987075033557,405.0105450840201,405.0105450840201,405.0105450840201,404.98987075033557,405.0105450840201,405.0105450840201,405.0105450840201,407.11656441699597,411.15063929199823,405.0105450840201,405.0105450840201,410.1499238340184,405.4888343750208,406.50360287501826,407.11656441699597,408.13544174999697,405.0105450840201,405.0105450840201,405.0065374170022,405.0105450840201,405.0105450840201,405.0105450840201,405.0065374170022,405.0105450840201,405.0105450840201,410.1499238340184,405.0105450840201,410.1499238340184,410.2335005000059,410.8596285840031,405.0105450840201,2,1,1.2902635410137009,reldom2_s023,001,2025-02-27_15h30.55.406,Vis-B-Scan_AC,2022.2.5,None,
0,0.0,None,fixation,stimulus/viswhere_stim/blank_white.png,stimulus/viswhere_stim/blank_white.png,stimulus/viswhat_stim/blank_white.png,stimulus/viswhat_stim/blank_white.png,stimulus/viswhere_stim/blank_white.png,stimulus/viswhere_stim/blank_white.png,stimulus/viswhere_stim/blank_white.png,stimulus/viswhere_stim/blank_white.png,0.0,0.0,0.0,0.0,0,0.0,0,0.0,0,0.0,0,0.0,0,0.0,0.0,0,0.0,0,0.0,0,0.0,0,0.0,0,0,0,0,0,0,0,0,8,,,,,0,45,45,45,,,,,,,,,411.15063929199823,411.15063929199823,411.15063929199823,411.15063929199823,411.15063929199823,411.15063929199823,411.15063929199823,411.15063929199823,411.05327904235065,411.15063929199823,411.15063929199823,411.15063929199823,411.05327904235065,411.15063929199823,411.15063929199823,411.15063929199823,411.15063929199823,411.15063929199823,411.15063929199823,411.15063929199823,411.15063929199823,411.15063929199823,411.15063929199823,411.15063929199823,411.15063929199823,411.15063929199823,411.15063929199823,411.10327904235066,411.15063929199823,411.15063929199823,411.15063929199823,411.10327904235066,411.15063929199823,411.15063929199823,411.15063929199823,411.15063929199823,411.15063929199823,416.34998237501713,416.34998237501713,419.2736689590092,None,0,,reldom2_s023,001,2025-02-27_15h30.55.406,Vis-B-Scan_AC,2022.2.5,None,
35,Second_Order,6.0,viswhere,stimulus/viswhere_stim/60-deg_dot-right_cyan.png,stimulus/viswhere_stim/60-deg_dot-left_goldenrod.png,stimulus/viswhere_stim/150-deg_dot-left_salmon.png,stimulus/viswhere_stim/150-deg_dot-right_goldenrod.png,stimulus/viswhere_stim/match_blank.png,stimulus/viswhere_stim/match_box.png,stimulus/viswhere_stim/match_yes.png,stimulus/viswhere_stim/match_no.png,1.0,Match,Line,Line,1,5.125,0,5.125,0,5.125,0,5.125,0,0.75,0.75,1,0.5,1,2.125,1,0.5,1,2.125,0,0,0,0,0,0,0,0,0,,,,,0,46,46,46,,,,,,,,,419.2736689590092,424.3979675419978,419.75713887499296,420.7562392920081,421.3788044170069,422.37642866701935,419.2736689590092,419.2736689590092,419.28851683333244,419.2736689590092,419.2736689590092,419.2736689590092,419.28851683333244,419.2736689590092,424.3979675419978,425.19513337500393,427.26187433401356,431.1345327089948,425.19513337500393,425.19513337500393,430.31881629201234,425.64125341700856,426.6466424590035,427.26187433401356,428.26957466700696,425.19513337500393,425.19513337500393,425.1832893749932,425.19513337500393,425.19513337500393,425.19513337500393,425.1832893749932,425.19513337500393,425.19513337500393,430.31881629201234,425.19513337500393,430.31881629201234,430.3886055420153,431.1711784170184,425.19513337500393,2,0,1.1480738329992164,reldom2_s023,001,2025-02-27_15h30.55.406,Vis-B-Scan_AC,2022.2.5,None,
36,Second_Order,6.0,viswhere,stimulus/viswhere_stim/120-deg_dot-right_slateblue.png,stimulus/viswhere_stim/120-deg_dot-left_royalblue.png,stimulus/viswhere_stim/150-deg_dot-right_royalblue.png,stimulus/viswhere_stim/150-deg_dot-left_salmon.png,stimulus/viswhere_stim/match_blank.png,stimulus/viswhere_stim/match_box.png,stimulus/viswhere_stim/match_yes.png,stimulus/viswhere_stim/match_no.png,1.0,Match,Line,Line,1,5.125,0,5.125,0,5.125,0,5.125,0,0.625,0.625,1,0.5,1,2.125,1,0.5,1,2.125,0,0,0,0,0,0,0,0,0,,,,,0,47,47,47,,,,,,,,,431.1711784170184,436.2922913749935,431.6519600000174,432.65017837501364,433.27442454200354,434.2708111249958,431.1711784170184,431.1711784170184,431.1845327089948,431.1711784170184,431.1711784170184,431.1711784170184,431.1845327089948,431.1711784170184,436.2922913749935,436.9664462090004,439.0434141670121,443.08371575002093,436.9664462090004,436.9664462090004,442.092826417007,437.430634459015,438.44795879200683,439.0434141670121,440.05065200000536,436.9664462090004,436.9664462090004,436.9435881673494,436.9664462090004,436.9664462090004,436.9664462090004,436.9435881673494,436.9664462090004,436.9664462090004,442.092826417007,436.9664462090004,442.092826417007,442.16230654201354,442.7920485000068,436.9664462090004,1,1,0.641483415995026,reldom2_s023,001,2025-02-27_15h30.55.406,Vis-B-Scan_AC,2022.2.5,None,
0,0.0,None,fixation,stimulus/viswhere_stim/blank_white.png,stimulus/viswhere_stim/blank_white.png,stimulus/viswhat_stim/blank_white.png,stimulus/viswhat_stim/blank_white.png,stimulus/viswhere_stim/blank_white.png,stimulus/viswhere_stim/blank_white.png,stimulus/viswhere_stim/blank_white.png,stimulus/viswhere_stim/blank_white.png,0.0,0.0,0.0,0.0,0,0.0,0,0.0,0,0.0,0,0.0,0,0.0,0.0,0,0.0,0,0.0,0,0.0,0,0.0,0,0,0,0,0,0,0,0,10,,,,,0,48,48,48,,,,,,,,,443.08371575002093,443.08371575002093,443.08371575002093,443.08371575002093,443.08371575002093,443.08371575002093,443.08371575002093,443.08371575002093,442.9869262083278,443.08371575002093,443.08371575002093,443.08371575002093,442.9869262083278,443.08371575002093,443.08371575002093,443.08371575002093,443.08371575002093,443.08371575002093,443.08371575002093,443.08371575002093,443.08371575002093,443.08371575002093,443.08371575002093,443.08371575002093,443.08371575002093,443.08371575002093,443.08371575002093,443.0369262083278,443.08371575002093,443.08371575002093,443.08371575002093,443.0369262083278,443.08371575002093,443.08371575002093,443.08371575002093,443.08371575002093,443.08371575002093,448.26611366699217,448.26611366699217,453.349531667016,None,0,,reldom2_s023,001,2025-02-27_15h30.55.406,Vis-B-Scan_AC,2022.2.5,None,
37,First_Order,7.0,viswhat,stimulus/viswhat_stim/blank_white.png,stimulus/viswhat_stim/blank_white.png,stimulus/viswhat_stim/water_vehicle-sailboat.png,stimulus/viswhat_stim/land_vehicle-bus.png,stimulus/viswhat_stim/blank_white.png,stimulus/viswhat_stim/location_box.png,stimulus/viswhat_stim/location_yes.png,stimulus/viswhat_stim/location_no.png,None,Location,None,Type,2,0.0,0,5.125,0,5.125,0,5.125,0,0.0,0.625,0,0.0,0,0.0,1,0.5,1,2.125,0,0,0,0,0,0,0,0,0,,,,,0,49,49,49,,,,,,,,,453.349531667016,453.349531667016,453.349531667016,453.349531667016,453.349531667016,453.349531667016,453.349531667016,453.349531667016,453.26283079168445,453.349531667016,453.349531667016,453.349531667016,453.26283079168445,453.349531667016,453.349531667016,453.349531667016,455.4185379590199,,453.349531667016,453.349531667016,458.54135916699306,453.8274725000083,454.8892258340202,455.4185379590199,456.47879695901065,453.349531667016,453.349531667016,453.31283079168446,453.349531667016,453.349531667016,453.349531667016,453.31283079168446,453.349531667016,453.349531667016,458.54135916699306,453.349531667016,458.54135916699306,458.54135916699306,459.2035752920201,453.349531667016,2,1,1.273355081997579,reldom2_s023,001,2025-02-27_15h30.55.406,Vis-B-Scan_AC,2022.2.5,None,
38,First_Order,7.0,viswhat,stimulus/viswhat_stim/blank_white.png,stimulus/viswhat_stim/blank_white.png,stimulus/viswhat_stim/land_vehicle-tank.png,stimulus/viswhat_stim/land_animal-elephant.png,stimulus/viswhat_stim/blank_white.png,stimulus/viswhat_stim/type_box.png,stimulus/viswhat_stim/type_yes.png,stimulus/viswhat_stim/type_no.png,None,Type,None,Location,2,0.0,0,5.125,0,5.125,0,5.125,0,0.0,0.625,0,0.0,0,0.0,1,0.5,1,2.125,0,0,0,0,0,0,0,0,0,,,,,0,50,50,50,,,,,,,,,459.4546040419955,459.4546040419955,459.4546040419955,459.4546040419955,459.4546040419955,459.4546040419955,459.4546040419955,459.4546040419955,459.3535752920201,459.4546040419955,459.4546040419955,459.4546040419955,459.3535752920201,459.4546040419955,459.4546040419955,459.4546040419955,461.5281560420117,,459.4546040419955,459.4546040419955,464.6399424590054,459.9145792089985,461.00954895900213,461.5281560420117,462.5713848340092,459.4546040419955,459.4546040419955,459.4035752920201,459.4546040419955,459.4546040419955,459.4546040419955,459.4035752920201,459.4546040419955,459.4546040419955,464.6399424590054,459.4546040419955,464.6399424590054,464.6399424590054,465.3150652089971,459.4546040419955,2,1,1.621407791011734,reldom2_s023,001,2025-02-27_15h30.55.406,Vis-B-Scan_AC,2022.2.5,None,
39,First_Order,7.0,viswhat,stimulus/viswhat_stim/blank_white.png,stimulus/viswhat_stim/blank_white.png,stimulus/viswhat_stim/land_animal-ostrich.png,stimulus/viswhat_stim/water_animal-whale.png,stimulus/viswhat_stim/blank_white.png,stimulus/viswhat_stim/location_box.png,stimulus/viswhat_stim/location_yes.png,stimulus/viswhat_stim/location_no.png,None,Location,None,Type,2,0.0,0,5.125,0,5.125,0,5.125,0,0.0,0.625,0,0.0,0,0.0,1,0.5,1,2.125,0,0,0,0,0,0,0,0,0,,,,,0,51,51,51,,,,,,,,,465.5154897500179,465.5154897500179,465.5154897500179,465.5154897500179,465.5154897500179,465.5154897500179,465.5154897500179,465.5154897500179,465.48173187566374,465.5154897500179,465.5154897500179,465.5154897500179,465.48173187566374,465.5154897500179,465.5154897500179,465.5154897500179,467.6264960420085,471.58985495902016,465.5154897500179,465.5154897500179,470.65318370901514,465.98183883400634,466.9978002500138,467.6264960420085,468.6500759590126,465.5154897500179,465.5154897500179,465.49839854233045,465.5154897500179,465.5154897500179,465.5154897500179,465.49839854233045,465.5154897500179,465.5154897500179,470.65318370901514,465.5154897500179,470.65318370901514,470.74020400000154,471.37201695900876,465.5154897500179,1,0,0.7685370830004103,reldom2_s023,001,2025-02-27_15h30.55.406,Vis-B-Scan_AC,2022.2.5,None,
40,First_Order,7.0,viswhat,stimulus/viswhat_stim/blank_white.png,stimulus/viswhat_stim/blank_white.png,stimulus/viswhat_stim/land_vehicle-truck.png,stimulus/viswhat_stim/land_animal-fox.png,stimulus/viswhat_stim/blank_white.png,stimulus/viswhat_stim/location_box.png,stimulus/viswhat_stim/location_yes.png,stimulus/viswhat_stim/location_no.png,None,Location,None,Location,1,0.0,0,5.125,0,5.125,0,5.125,0,0.0,0.625,0,0.0,0,0.0,1,0.5,1,2.125,0,0,0,0,0,0,0,0,0,,,,,0,52,52,52,,,,,,,,,471.58985495902016,471.58985495902016,471.58985495902016,471.58985495902016,471.58985495902016,471.58985495902016,471.58985495902016,471.58985495902016,471.5587681670091,471.58985495902016,471.58985495902016,471.58985495902016,471.5587681670091,471.58985495902016,471.58985495902016,471.58985495902016,473.69133504200727,477.7214987500047,471.58985495902016,471.58985495902016,476.7373218749999,472.0560910839995,473.0620762920007,473.69133504200727,474.7034647090186,471.58985495902016,471.58985495902016,471.5754348336758,471.58985495902016,471.58985495902016,471.58985495902016,471.5754348336758,471.58985495902016,471.58985495902016,476.7373218749999,471.58985495902016,476.7373218749999,476.80754574999446,477.444914666994,471.58985495902016,1,1,1.0582683330285363,reldom2_s023,001,2025-02-27_15h30.55.406,Vis-B-Scan_AC,2022.2.5,None,
0,0.0,None,fixation,stimulus/viswhere_stim/blank_white.png,stimulus/viswhere_stim/blank_white.png,stimulus/viswhat_stim/blank_white.png,stimulus/viswhat_stim/blank_white.png,stimulus/viswhere_stim/blank_white.png,stimulus/viswhere_stim/blank_white.png,stimulus/viswhere_stim/blank_white.png,stimulus/viswhere_stim/blank_white.png,0.0,0.0,0.0,0.0,0,0.0,0,0.0,0,0.0,0,0.0,0,0.0,0.0,0,0.0,0,0.0,0,0.0,0,0.0,0,0,0,0,0,0,0,0,8,,,,,0,53,53,53,,,,,,,,,477.7214987500047,477.7214987500047,477.7214987500047,477.7214987500047,477.7214987500047,477.7214987500047,477.7214987500047,477.7214987500047,477.6161496673497,477.7214987500047,477.7214987500047,477.7214987500047,477.6161496673497,477.7214987500047,477.7214987500047,477.7214987500047,477.7214987500047,477.7214987500047,477.7214987500047,477.7214987500047,477.7214987500047,477.7214987500047,477.7214987500047,477.7214987500047,477.7214987500047,477.7214987500047,477.7214987500047,477.68281633401637,477.7214987500047,477.7214987500047,477.7214987500047,477.68281633401637,477.7214987500047,477.7214987500047,477.7214987500047,477.7214987500047,477.7214987500047,482.94307454201044,482.94307454201044,485.8384282500192,None,0,,reldom2_s023,001,2025-02-27_15h30.55.406,Vis-B-Scan_AC,2022.2.5,None,
41,Second_Order,7.0,viswhat,stimulus/viswhat_stim/water_animal-whale (1).png,stimulus/viswhat_stim/water_vehicle-canoe(1).png,stimulus/viswhat_stim/land_animal-tiger.png,stimulus/viswhat_stim/land_vehicle-train.png,stimulus/viswhere_stim/match_blank.png,stimulus/viswhere_stim/match_box.png,stimulus/viswhere_stim/match_yes.png,stimulus/viswhere_stim/match_no.png,1.0,Match,Location,Location,1,5.125,0,5.125,0,5.125,0,5.125,0,0.75,0.75,1,0.5,1,2.125,1,0.5,1,2.125,0,0,0,0,0,0,0,0,0,,,,,0,54,54,54,,,,,,,,,485.8384282500192,490.9559301249974,486.3115251249983,487.3099464169936,487.9326710420137,488.93009437501314,485.8384282500192,485.8384282500192,485.846377458338,485.8384282500192,485.8384282500192,485.8384282500192,485.846377458338,485.8384282500192,490.9559301249974,491.7827979589929,493.8487131250149,497.75726308400044,491.7827979589929,491.7827979589929,496.92662904202007,492.21509583402076,493.2479501670168,493.8487131250149,494.8903095420101,491.7827979589929,491.7827979589929,491.75728520866056,491.7827979589929,491.7827979589929,491.7827979589929,491.75728520866056,491.7827979589929,491.7827979589929,496.92662904202007,491.7827979589929,496.92662904202007,496.95464850001736,,491.7827979589929,1,1,0.567405207984848,reldom2_s023,001,2025-02-27_15h30.55.406,Vis-B-Scan_AC,2022.2.5,None,
42,Second_Order,7.0,viswhat,stimulus/viswhat_stim/land_vehicle-buldozer.png,stimulus/viswhat_stim/water_vehicle-jetski.png,stimulus/viswhat_stim/water_animal-whale.png,stimulus/viswhat_stim/land_animal-fox.png,stimulus/viswhere_stim/match_blank.png,stimulus/viswhere_stim/match_box.png,stimulus/viswhere_stim/match_yes.png,stimulus/viswhere_stim/match_no.png,1.0,Match,Type,Type,1,5.125,0,5.125,0,5.125,0,5.125,0,0.625,0.625,1,0.5,1,2.125,1,0.5,1,2.125,0,0,0,0,0,0,0,0,0,,,,,0,55,55,55,,,,,,,,,497.75726308400044,502.87913245899836,498.22226354200393,499.2206102090131,499.84301779200905,500.84132683399366,497.75726308400044,497.75726308400044,497.75805250033346,497.75726308400044,497.75726308400044,497.75726308400044,497.75805250033346,497.75726308400044,502.87913245899836,503.57135400001425,505.6400384590088,509.6791791249998,503.57135400001425,503.57135400001425,508.7241590000049,504.0128638340102,505.0319736250094,505.6400384590088,506.6617231249984,503.57135400001425,503.57135400001425,503.54737095899765,503.57135400001425,503.57135400001425,503.57135400001425,503.54737095899765,503.57135400001425,503.57135400001425,508.7241590000049,503.57135400001425,508.7241590000049,508.76556687499397,509.4020967090037,503.57135400001425,2,0,1.2140495000057854,reldom2_s023,001,2025-02-27_15h30.55.406,Vis-B-Scan_AC,2022.2.5,None,
0,0.0,None,fixation,stimulus/viswhere_stim/blank_white.png,stimulus/viswhere_stim/blank_white.png,stimulus/viswhat_stim/blank_white.png,stimulus/viswhat_stim/blank_white.png,stimulus/viswhere_stim/blank_white.png,stimulus/viswhere_stim/blank_white.png,stimulus/viswhere_stim/blank_white.png,stimulus/viswhere_stim/blank_white.png,0.0,0.0,0.0,0.0,0,0.0,0,0.0,0,0.0,0,0.0,0,0.0,0.0,0,0.0,0,0.0,0,0.0,0,0.0,0,0,0,0,0,0,0,0,9,,,,,0,56,56,56,,,,,,,,,509.6791791249998,509.6791791249998,509.6791791249998,509.6791791249998,509.6791791249998,509.6791791249998,509.6791791249998,509.6791791249998,509.58348420902036,509.6791791249998,509.6791791249998,509.6791791249998,509.58348420902036,509.6791791249998,509.6791791249998,509.6791791249998,509.6791791249998,509.6791791249998,509.6791791249998,509.6791791249998,509.6791791249998,509.6791791249998,509.6791791249998,509.6791791249998,509.6791791249998,509.6791791249998,509.6791791249998,509.63348420902037,509.6791791249998,509.6791791249998,509.6791791249998,509.63348420902037,509.6791791249998,509.6791791249998,509.6791791249998,509.6791791249998,509.6791791249998,514.8770907500002,514.8770907500002,518.9175773750176,None,0,,reldom2_s023,001,2025-02-27_15h30.55.406,Vis-B-Scan_AC,2022.2.5,None,
43,First_Order,8.0,viswhat,stimulus/viswhat_stim/blank_white.png,stimulus/viswhat_stim/blank_white.png,stimulus/viswhat_stim/land_animal-fox.png,stimulus/viswhat_stim/land_vehicle-motorcycle.png,stimulus/viswhat_stim/blank_white.png,stimulus/viswhat_stim/type_box.png,stimulus/viswhat_stim/type_yes.png,stimulus/viswhat_stim/type_no.png,None,Type,None,Location,2,0.0,0,5.125,0,5.125,0,5.125,0,0.0,0.625,0,0.0,0,0.0,1,0.5,1,2.125,0,0,0,0,0,0,0,0,0,,,,,0,57,57,57,,,,,,,,,518.9175773750176,518.9175773750176,518.9175773750176,518.9175773750176,518.9175773750176,518.9175773750176,518.9175773750176,518.9175773750176,518.8764763756868,518.9175773750176,518.9175773750176,518.9175773750176,518.8764763756868,518.9175773750176,518.9175773750176,518.9175773750176,521.0284595419944,,518.9175773750176,518.9175773750176,524.076556459011,519.4000380840153,520.4241421670013,521.0284595419944,522.0573161249922,518.9175773750176,518.9175773750176,518.8931430423535,518.9175773750176,518.9175773750176,518.9175773750176,518.8931430423535,518.9175773750176,518.9175773750176,524.076556459011,518.9175773750176,524.076556459011,524.1263736250112,524.7688077090133,518.9175773750176,2,1,3.036520041030599,reldom2_s023,001,2025-02-27_15h30.55.406,Vis-B-Scan_AC,2022.2.5,None,
44,First_Order,8.0,viswhat,stimulus/viswhat_stim/blank_white.png,stimulus/viswhat_stim/blank_white.png,stimulus/viswhat_stim/land_animal-pig.png,stimulus/viswhat_stim/land_vehicle-firetruck.png,stimulus/viswhat_stim/blank_white.png,stimulus/viswhat_stim/location_box.png,stimulus/viswhat_stim/location_yes.png,stimulus/viswhat_stim/location_no.png,None,Location,None,Location,1,0.0,0,5.125,0,5.125,0,5.125,0,0.0,0.625,0,0.0,0,0.0,1,0.5,1,2.125,0,0,0,0,0,0,0,0,0,,,,,0,58,58,58,,,,,,,,,524.9794767500134,524.9794767500134,524.9794767500134,524.9794767500134,524.9794767500134,524.9794767500134,524.9794767500134,524.9794767500134,524.9425888750062,524.9794767500134,524.9794767500134,524.9794767500134,524.9425888750062,524.9794767500134,524.9794767500134,524.9794767500134,527.0840340839932,531.0982714999991,524.9794767500134,524.9794767500134,530.1075738749932,525.4455336249957,526.4517081670056,527.0840340839932,528.0964021669934,524.9794767500134,524.9794767500134,524.9592555416729,524.9794767500134,524.9794767500134,524.9794767500134,524.9592555416729,524.9794767500134,524.9794767500134,530.1075738749932,524.9794767500134,530.1075738749932,530.1961852090026,530.8353159590042,524.9794767500134,1,1,0.6630927910155151,reldom2_s023,001,2025-02-27_15h30.55.406,Vis-B-Scan_AC,2022.2.5,None,
45,First_Order,8.0,viswhat,stimulus/viswhat_stim/blank_white.png,stimulus/viswhat_stim/blank_white.png,stimulus/viswhat_stim/land_vehicle-trolley.png,stimulus/viswhat_stim/water_vehicle-sailboat.png,stimulus/viswhat_stim/blank_white.png,stimulus/viswhat_stim/type_box.png,stimulus/viswhat_stim/type_yes.png,stimulus/viswhat_stim/type_no.png,None,Type,None,Type,1,0.0,0,5.125,0,5.125,0,5.125,0,0.0,0.625,0,0.0,0,0.0,1,0.5,1,2.125,0,0,0,0,0,0,0,0,0,,,,,0,59,59,59,,,,,,,,,531.0982714999991,531.0982714999991,531.0982714999991,531.0982714999991,531.0982714999991,531.0982714999991,531.0982714999991,531.0982714999991,531.0068392083534,531.0982714999991,531.0982714999991,531.0982714999991,531.0068392083534,531.0982714999991,531.0982714999991,531.0982714999991,533.1843927500013,,531.0982714999991,531.0982714999991,536.2952324170037,531.5834159590013,532.6525749590073,533.1843927500013,534.2592932090047,531.0982714999991,531.0982714999991,531.0568392083534,531.0982714999991,531.0982714999991,531.0982714999991,531.0568392083534,531.0982714999991,531.0982714999991,536.2952324170037,531.0982714999991,536.2952324170037,536.2952324170037,536.9831526670023,531.0982714999991,1,1,1.3096586240280885,reldom2_s023,001,2025-02-27_15h30.55.406,Vis-B-Scan_AC,2022.2.5,None,
46,First_Order,8.0,viswhat,stimulus/viswhat_stim/blank_white.png,stimulus/viswhat_stim/blank_white.png,stimulus/viswhat_stim/water_vehicle-canoe(1).png,stimulus/viswhat_stim/land_vehicle-truck.png,stimulus/viswhat_stim/blank_white.png,stimulus/viswhat_stim/type_box.png,stimulus/viswhat_stim/type_yes.png,stimulus/viswhat_stim/type_no.png,None,Type,None,Type,1,0.0,0,5.125,0,5.125,0,5.125,0,0.0,0.625,0,0.0,0,0.0,1,0.5,1,2.125,0,0,0,0,0,0,0,0,0,,,,,0,60,60,60,,,,,,,,,537.152570834005,537.152570834005,537.152570834005,537.152570834005,537.152570834005,537.152570834005,537.152570834005,537.152570834005,537.1164860003356,537.152570834005,537.152570834005,537.152570834005,537.1164860003356,537.152570834005,537.152570834005,537.152570834005,539.2477691670065,543.2932985420048,537.152570834005,537.152570834005,542.2888886670116,537.6331569589966,538.639214416995,539.2477691670065,540.2537537089956,537.152570834005,537.152570834005,537.1331526670023,537.152570834005,537.152570834005,537.152570834005,537.1331526670023,537.152570834005,537.152570834005,542.2888886670116,537.152570834005,542.2888886670116,542.3721855840122,543.0068470000115,537.152570834005,1,1,2.302486499014776,reldom2_s023,001,2025-02-27_15h30.55.406,Vis-B-Scan_AC,2022.2.5,None,
0,0.0,None,fixation,stimulus/viswhere_stim/blank_white.png,stimulus/viswhere_stim/blank_white.png,stimulus/viswhat_stim/blank_white.png,stimulus/viswhat_stim/blank_white.png,stimulus/viswhere_stim/blank_white.png,stimulus/viswhere_stim/blank_white.png,stimulus/viswhere_stim/blank_white.png,stimulus/viswhere_stim/blank_white.png,0.0,0.0,0.0,0.0,0,0.0,0,0.0,0,0.0,0,0.0,0,0.0,0.0,0,0.0,0,0.0,0,0.0,0,0.0,0,0,0,0,0,0,0,0,9,,,,,0,61,61,61,,,,,,,,,543.2932985420048,543.2932985420048,543.2932985420048,543.2932985420048,543.2932985420048,543.2932985420048,543.2932985420048,543.2932985420048,543.190392250331,543.2932985420048,543.2932985420048,543.2932985420048,543.190392250331,543.2932985420048,543.2932985420048,543.2932985420048,543.2932985420048,543.2932985420048,543.2932985420048,543.2932985420048,543.2932985420048,543.2932985420048,543.2932985420048,543.2932985420048,543.2932985420048,543.2932985420048,543.2932985420048,543.240392250331,543.2932985420048,543.2932985420048,543.2932985420048,543.240392250331,543.2932985420048,543.2932985420048,543.2932985420048,543.2932985420048,543.2932985420048,548.5108163340192,548.5108163340192,552.4083456250082,None,0,,reldom2_s023,001,2025-02-27_15h30.55.406,Vis-B-Scan_AC,2022.2.5,None,
47,Second_Order,8.0,viswhat,stimulus/viswhat_stim/water_animal-seaturtle.png,stimulus/viswhat_stim/water_vehicle-kayak.png,stimulus/viswhat_stim/water_vehicle-motorboatraft.png,stimulus/viswhat_stim/land_vehicle-tank.png,stimulus/viswhere_stim/match_blank.png,stimulus/viswhere_stim/match_box.png,stimulus/viswhere_stim/match_yes.png,stimulus/viswhere_stim/match_no.png,2.0,Match,Location,Type,2,5.125,0,5.125,0,5.125,0,5.125,0,0.75,0.75,1,0.5,1,2.125,1,0.5,1,2.125,0,0,0,0,0,0,0,0,0,,,,,0,62,62,62,,,,,,,,,552.4083456250082,557.5263447920152,552.8785078749934,553.8667241249932,554.5037956250017,555.5008596249972,552.4083456250082,552.4083456250082,552.4129104583427,552.4083456250082,552.4083456250082,552.4083456250082,552.4129104583427,552.4083456250082,557.5263447920152,558.3249743750202,560.3951383749954,564.2949825419928,558.3249743750202,558.3249743750202,563.4609614590008,558.7802160420106,559.8029242090124,560.3951383749954,561.4054481250059,558.3249743750202,558.3249743750202,558.3110165000078,558.3249743750202,558.3249743750202,558.3249743750202,558.3110165000078,558.3249743750202,558.3249743750202,563.4609614590008,558.3249743750202,563.4609614590008,563.5211075000116,,558.3249743750202,2,1,2.2319442910084035,reldom2_s023,001,2025-02-27_15h30.55.406,Vis-B-Scan_AC,2022.2.5,None,
48,Second_Order,8.0,viswhat,stimulus/viswhat_stim/land_vehicle-rv.png,stimulus/viswhat_stim/water_vehicle-cargoboat.png,stimulus/viswhat_stim/water_animal-squid.png,stimulus/viswhat_stim/land_animal-dog.png,stimulus/viswhere_stim/match_blank.png,stimulus/viswhere_stim/match_box.png,stimulus/viswhere_stim/match_yes.png,stimulus/viswhere_stim/match_no.png,1.0,Match,Type,Type,1,5.125,0,5.125,0,5.125,0,5.125,0,0.625,0.625,1,0.5,1,2.125,1,0.5,1,2.125,0,0,0,0,0,0,0,0,0,,,,,0,63,63,63,,,,,,,,,564.2949825419928,569.4162664590112,564.7762854169996,565.7745504170016,566.3973143750045,567.3953168750159,564.2949825419928,564.2949825419928,564.3000073749979,564.2949825419928,564.2949825419928,564.2949825419928,564.3000073749979,564.2949825419928,569.4162664590112,570.1207493340189,572.1835990840045,576.2340348750004,570.1207493340189,570.1207493340189,575.2719436670013,570.5506853340194,571.5669042500085,572.1835990840045,573.2068582499924,570.1207493340189,570.1207493340189,570.0843958750017,570.1207493340189,570.1207493340189,570.1207493340189,570.0843958750017,570.1207493340189,570.1207493340189,575.2719436670013,570.1207493340189,575.2719436670013,575.2976447090041,575.9537867089966,570.1207493340189,1,1,0.9550503329955973,reldom2_s023,001,2025-02-27_15h30.55.406,Vis-B-Scan_AC,2022.2.5,None,
0,0.0,None,fixation,stimulus/viswhere_stim/blank_white.png,stimulus/viswhere_stim/blank_white.png,stimulus/viswhat_stim/blank_white.png,stimulus/viswhat_stim/blank_white.png,stimulus/viswhere_stim/blank_white.png,stimulus/viswhere_stim/blank_white.png,stimulus/viswhere_stim/blank_white.png,stimulus/viswhere_stim/blank_white.png,0.0,0.0,0.0,0.0,0,0.0,0,0.0,0,0.0,0,0.0,0,0.0,0.0,0,0.0,0,0.0,0,0.0,0,0.0,0,0,0,0,0,0,0,0,16,,,,,0,64,64,64,,,,,,,,,576.2340348750004,576.2340348750004,576.2340348750004,576.2340348750004,576.2340348750004,576.2340348750004,576.2340348750004,576.2340348750004,576.1292343750189,576.2340348750004,576.2340348750004,576.2340348750004,576.1292343750189,576.2340348750004,576.2340348750004,576.2340348750004,576.2340348750004,576.2340348750004,576.2340348750004,576.2340348750004,576.2340348750004,576.2340348750004,576.2340348750004,576.2340348750004,576.2340348750004,576.2340348750004,576.2340348750004,576.1959010416855,576.2340348750004,576.2340348750004,576.2340348750004,576.1959010416855,576.2340348750004,576.2340348750004,576.2340348750004,576.2340348750004,576.2340348750004,581.4340769170085,581.4340769170085,592.3845966670197,None,0,,reldom2_s023,001,2025-02-27_15h30.55.406,Vis-B-Scan_AC,2022.2.5,None,
