Trial,Order,Block,Type,Stimuli_File1,Stimuli_File2,Stimuli_File3,Stimuli_File4,Cue_File1,Cue_File2,Response_File_Yes,Response_File_No,Match,Cue_Dimension,Pair1_Dimension,Pair2_Dimension,Key,Cue1_Duration,Cue1_Onset,Cue2_Duration,Cue2_Onset,ResponseYes_Duration,ResponseYes_Onset,ResponseNo_Duration,ResponseNo_Onset,ITI_Within,ITI_Between,Image1_Duration,Image1_Onset,Image2_Duration,Image2_Onset,Image3_Duration,Image3_Onset,Image4_Duration,Image4_Onset,Sound1_Duration,Sound1_Onset,Sound2_Duration,Sound2_Onset,Sound3_Duration,Sound3_Onset,Sound4_Duration,Sound4_Onset,Fixation_Duration,trials_2.thisRepN,trials_2.thisTrialN,trials_2.thisN,trials_2.thisIndex,trials.thisRepN,trials.thisTrialN,trials.thisN,trials.thisIndex,text_start.started,key_resp_start.started,key_resp_start.keys,key_resp_start.rt,text2.started,key_resp_2.started,key_resp_2.keys,key_resp_2.rt,cue_file1.started,cue_file1.stopped,image_1.started,image_1.stopped,image_2.started,image_2.stopped,sound_icon1.started,sound_icon1.stopped,sound_1.started,sound_1.stopped,sound_icon2.started,sound_icon2.stopped,sound_2.started,sound_2.stopped,image_blank_1.started,image_blank_1.stopped,key_press.started,key_press.stopped,fixation_text.started,cue_file2.started,cue_file2.stopped,image_3.started,image_3.stopped,image_4.started,image_4.stopped,sound_icon3.started,sound_icon3.stopped,sound_3.started,sound_3.stopped,sound_icon4.started,sound_icon4.stopped,sound_4.started,sound_4.stopped,response_yes.started,response_yes.stopped,response_no.started,response_no.stopped,iti_blank.started,iti_blank.stopped,fixation_text.stopped,key_press.keys,key_press.corr,key_press.rt,participant,session,date,expName,psychopyVersion,frameRate,
,,,,,,,,,,,,,,,,,,,,,,,,,,,,,,,,,,,,,,,,,,,,,,,,,,,,7.044278291024966,7.044278291024966,2,1.1244584159867372,,,,,,,,,,,,,,,,,,,,,,,,,,,,,,,,,,,,,,,,,,,,,,,,reldom2_s023,001,2025-02-27_15h54.49.713,Where-B-Scan_AC,2022.2.5,None,
,,,,,,,,,,,,,,,,,,,,,,,,,,,,,,,,,,,,,,,,,,,,0,0,0,0,,,,,,,,,8.198276541021187,8.198276541021187,5,14.738992166967364,,,,,,,,,,,,,,,,,,,,,,,,,,,,,,,,,,,,,,,,,,,,reldom2_s023,001,2025-02-27_15h54.49.713,Where-B-Scan_AC,2022.2.5,None,
,,,,,,,,,,,,,,,,,,,,,,,,,,,,,,,,,,,,,,,,,,,,1,0,1,0,,,,,,,,,22.944086083007278,22.944086083007278,5,1.9929997499857564,,,,,,,,,,,,,,,,,,,,,,,,,,,,,,,,,,,,,,,,,,,,reldom2_s023,001,2025-02-27_15h54.49.713,Where-B-Scan_AC,2022.2.5,None,
,,,,,,,,,,,,,,,,,,,,,,,,,,,,,,,,,,,,,,,,,,,,2,0,2,0,,,,,,,,,24.9588364160154,24.9588364160154,5,1.9773448749620002,,,,,,,,,,,,,,,,,,,,,,,,,,,,,,,,,,,,,,,,,,,,reldom2_s023,001,2025-02-27_15h54.49.713,Where-B-Scan_AC,2022.2.5,None,
,,,,,,,,,,,,,,,,,,,,,,,,,,,,,,,,,,,,,,,,,,,,3,0,3,0,,,,,,,,,26.95701354101766,26.95701354101766,5,1.9814129589649383,,,,,,,,,,,,,,,,,,,,,,,,,,,,,,,,,,,,,,,,,,,,reldom2_s023,001,2025-02-27_15h54.49.713,Where-B-Scan_AC,2022.2.5,None,
0,0.0,None,fixation,stimulus/audwhere_stim/blank_white.png,stimulus/audwhere_stim/blank_white.png,stimulus/viswhere_stim/blank_white.png,stimulus/viswhere_stim/blank_white.png,stimulus/audwhere_stim/blank_white.png,stimulus/audwhere_stim/blank_white.png,stimulus/audwhere_stim/blank_white.png,stimulus/audwhere_stim/blank_white.png,0.0,0.0,0.0,0.0,0,0.0,0,0.0,0,0.0,0,0.0,0,0.0,0.0,0,0.0,0,0.0,0,0.0,0,0.0,0,0.0,0,0.0,0,0.0,0,0.0,16,,,,,0,0,0,0,,,,,,,,,29.154790000000503,29.154790000000503,29.154790000000503,29.154790000000503,29.154790000000503,29.154790000000503,29.154790000000503,29.154790000000503,29.0567044576727,29.154790000000503,29.154790000000503,29.154790000000503,29.0567044576727,29.154790000000503,29.154790000000503,29.154790000000503,29.154790000000503,29.154790000000503,29.154790000000503,29.154790000000503,29.154790000000503,29.154790000000503,29.154790000000503,29.154790000000503,29.154790000000503,29.154790000000503,29.154790000000503,29.1067044576727,29.154790000000503,29.154790000000503,29.154790000000503,29.1067044576727,29.154790000000503,29.154790000000503,29.154790000000503,29.154790000000503,29.154790000000503,34.34041558302124,34.34041558302124,45.40456345802522,None,0,,reldom2_s023,001,2025-02-27_15h54.49.713,Where-B-Scan_AC,2022.2.5,None,
1,First_Order,1.0,audwhere,stimulus/audwhere_stim/dummy.wav,stimulus/audwhere_stim/dummy.wav,stimulus/audwhere_stim/right_away_290h.wav,stimulus/audwhere_stim/right_toward_300h.wav,stimulus/audwhere_stim/blank_white.png,stimulus/audwhere_stim/direction_box.png,stimulus/audwhere_stim/direction_yes.png,stimulus/audwhere_stim/direction_no.png,None,Direction,None,Side,2,0.0,0,5.125,0,5.125,0,5.125,0,0.0,0.625,0,0.0,0,0.0,0,0.0,0,0.0,0,0.0,0,0.0,1,0.5,1,2.125,0,,,,,0,1,1,1,,,,,,,,,45.40456345802522,45.40456345802522,45.40456345802522,45.40456345802522,45.40456345802522,45.40456345802522,45.40456345802522,45.40456345802522,45.329655875021125,45.40456345802522,45.40456345802522,45.40456345802522,45.329655875021125,45.40456345802522,45.40456345802522,45.40456345802522,47.487116208008956,51.53337908300455,45.40456345802522,45.40456345802522,50.56233154100482,45.40456345802522,45.40456345802522,45.40456345802522,45.40456345802522,45.85810833302094,46.89856491601677,45.829896957675615,,47.487116208008956,48.52881529100705,47.458156499666316,,45.40456345802522,50.56233154100482,45.40456345802522,50.56233154100482,50.60217254102463,51.2824655000004,45.40456345802522,1,0,3.060709166980814,reldom2_s023,001,2025-02-27_15h54.49.713,Where-B-Scan_AC,2022.2.5,None,
2,First_Order,1.0,audwhere,stimulus/audwhere_stim/dummy.wav,stimulus/audwhere_stim/dummy.wav,stimulus/audwhere_stim/left_toward_290h.wav,stimulus/audwhere_stim/right_toward_280h.wav,stimulus/audwhere_stim/blank_white.png,stimulus/audwhere_stim/side_box.png,stimulus/audwhere_stim/side_yes.png,stimulus/audwhere_stim/side_no.png,None,Side,None,Direction,2,0.0,0,5.125,0,5.125,0,5.125,0,0.0,0.625,0,0.0,0,0.0,0,0.0,0,0.0,0,0.0,0,0.0,1,0.5,1,2.125,0,,,,,0,2,2,2,,,,,,,,,51.53337908300455,51.53337908300455,51.53337908300455,51.53337908300455,51.53337908300455,51.53337908300455,51.53337908300455,51.53337908300455,51.455989999349306,51.53337908300455,51.53337908300455,51.53337908300455,51.455989999349306,51.53337908300455,51.53337908300455,51.53337908300455,53.61693041599938,,51.53337908300455,51.53337908300455,56.697406625025906,51.53337908300455,51.53337908300455,51.53337908300455,51.53337908300455,51.98668929102132,53.02691750001395,51.95820049968121,,53.61693041599938,54.659772041020915,53.58784062468136,,51.53337908300455,56.697406625025906,51.53337908300455,56.697406625025906,56.73729329102207,57.41636612502043,51.53337908300455,2,1,1.0183932499785442,reldom2_s023,001,2025-02-27_15h54.49.713,Where-B-Scan_AC,2022.2.5,None,
3,First_Order,1.0,audwhere,stimulus/audwhere_stim/dummy.wav,stimulus/audwhere_stim/dummy.wav,stimulus/audwhere_stim/right_toward_280h.wav,stimulus/audwhere_stim/right_away_300h.wav,stimulus/audwhere_stim/blank_white.png,stimulus/audwhere_stim/direction_box.png,stimulus/audwhere_stim/direction_yes.png,stimulus/audwhere_stim/direction_no.png,None,Direction,None,Side,2,0.0,0,5.125,0,5.125,0,5.125,0,0.0,0.625,0,0.0,0,0.0,0,0.0,0,0.0,0,0.0,0,0.0,1,0.5,1,2.125,0,,,,,0,3,3,3,,,,,,,,,57.62652033302584,57.62652033302584,57.62652033302584,57.62652033302584,57.62652033302584,57.62652033302584,57.62652033302584,57.62652033302584,57.549699458353764,57.62652033302584,57.62652033302584,57.62652033302584,57.549699458353764,57.62652033302584,57.62652033302584,57.62652033302584,59.73007154100924,,57.62652033302584,57.62652033302584,62.79099995800061,57.62652033302584,57.62652033302584,57.62652033302584,57.62652033302584,58.08402466602274,59.13603820800199,58.05443766666964,,59.73007154100924,60.78021883300971,59.70089854169443,,57.62652033302584,62.79099995800061,57.62652033302584,62.79099995800061,62.83170050001354,63.51461479102727,57.62652033302584,2,1,1.638520749984309,reldom2_s023,001,2025-02-27_15h54.49.713,Where-B-Scan_AC,2022.2.5,None,
4,First_Order,1.0,audwhere,stimulus/audwhere_stim/dummy.wav,stimulus/audwhere_stim/dummy.wav,stimulus/audwhere_stim/left_toward_270h.wav,stimulus/audwhere_stim/right_toward_300h.wav,stimulus/audwhere_stim/blank_white.png,stimulus/audwhere_stim/direction_box.png,stimulus/audwhere_stim/direction_yes.png,stimulus/audwhere_stim/direction_no.png,None,Direction,None,Direction,1,0.0,0,5.125,0,5.125,0,5.125,0,0.0,0.625,0,0.0,0,0.0,0,0.0,0,0.0,0,0.0,0,0.0,1,0.5,1,2.125,0,,,,,0,4,4,4,,,,,,,,,63.72262133299955,63.72262133299955,63.72262133299955,63.72262133299955,63.72262133299955,63.72262133299955,63.72262133299955,63.72262133299955,63.6479481243606,63.72262133299955,63.72262133299955,63.72262133299955,63.6479481243606,63.72262133299955,63.72262133299955,63.72262133299955,65.82720670802519,69.85897162501351,63.72262133299955,63.72262133299955,68.90134600002784,63.72262133299955,63.72262133299955,63.72262133299955,63.72262133299955,64.17962862501736,65.23279666600865,64.15029729166805,,65.82720670802519,66.88190550002037,65.79788666667106,,63.72262133299955,68.90134600002784,63.72262133299955,68.90134600002784,68.94282545801252,69.62959541601595,63.72262133299955,1,1,1.3649554169969633,reldom2_s023,001,2025-02-27_15h54.49.713,Where-B-Scan_AC,2022.2.5,None,
0,0.0,None,fixation,stimulus/audwhere_stim/blank_white.png,stimulus/audwhere_stim/blank_white.png,stimulus/viswhere_stim/blank_white.png,stimulus/viswhere_stim/blank_white.png,stimulus/audwhere_stim/blank_white.png,stimulus/audwhere_stim/blank_white.png,stimulus/audwhere_stim/blank_white.png,stimulus/audwhere_stim/blank_white.png,0.0,0.0,0.0,0.0,0,0.0,0,0.0,0,0.0,0,0.0,0,0.0,0.0,0,0.0,0,0.0,0,0.0,0,0.0,0,0.0,0,0.0,0,0.0,0,0.0,10,,,,,0,5,5,5,,,,,,,,,69.85897162501351,69.85897162501351,69.85897162501351,69.85897162501351,69.85897162501351,69.85897162501351,69.85897162501351,69.85897162501351,69.76292874934927,69.85897162501351,69.85897162501351,69.85897162501351,69.76292874934927,69.85897162501351,69.85897162501351,69.85897162501351,69.85897162501351,69.85897162501351,69.85897162501351,69.85897162501351,69.85897162501351,69.85897162501351,69.85897162501351,69.85897162501351,69.85897162501351,69.85897162501351,69.85897162501351,69.81292874934928,69.85897162501351,69.85897162501351,69.85897162501351,69.81292874934928,69.85897162501351,69.85897162501351,69.85897162501351,69.85897162501351,69.85897162501351,75.07726329102297,75.07726329102297,80.03098166600103,None,0,,reldom2_s023,001,2025-02-27_15h54.49.713,Where-B-Scan_AC,2022.2.5,None,
5,Second_Order,1.0,audwhere,stimulus/audwhere_stim/right_toward_300h.wav,stimulus/audwhere_stim/left_toward_280h.wav,stimulus/audwhere_stim/right_toward_280h.wav,stimulus/audwhere_stim/right_away_280h.wav,stimulus/audwhere_stim/match_blank.png,stimulus/audwhere_stim/match_box.png,stimulus/audwhere_stim/match_yes.png,stimulus/audwhere_stim/match_no.png,2.0,Match,Direction,Side,2,5.125,0,5.125,0,5.125,0,5.125,0,0.75,0.75,0,0.0,0,0.0,0,0.0,0,0.0,1,0.5,1,2.125,1,0.5,1,2.125,0,,,,,0,6,6,6,,,,,,,,,80.03098166600103,85.15387120802188,80.03098166600103,80.03098166600103,80.03098166600103,80.03098166600103,80.48814795800718,81.4768186660076,80.49029395767526,81.4768186660076,82.11224491600296,83.11062095800298,82.12486749969345,,85.15387120802188,86.00314754102146,88.0473904160026,91.98896429102751,86.00314754102146,86.00314754102146,91.15101137501188,86.00314754102146,86.00314754102146,86.00314754102146,86.00314754102146,86.45562237501144,87.50199162500212,86.42708816667825,87.45661016600206,88.0473904160026,89.09943416601163,88.01857929167842,,86.00314754102146,91.15101137501188,86.00314754102146,91.15101137501188,91.1912952500279,,86.00314754102146,2,1,1.2391672919911798,reldom2_s023,001,2025-02-27_15h54.49.713,Where-B-Scan_AC,2022.2.5,None,
6,Second_Order,1.0,audwhere,stimulus/audwhere_stim/right_toward_270h.wav,stimulus/audwhere_stim/right_away_290h.wav,stimulus/audwhere_stim/left_toward_300h.wav,stimulus/audwhere_stim/left_away_290h.wav,stimulus/audwhere_stim/match_blank.png,stimulus/audwhere_stim/match_box.png,stimulus/audwhere_stim/match_yes.png,stimulus/audwhere_stim/match_no.png,1.0,Match,Side,Side,1,5.125,0,5.125,0,5.125,0,5.125,0,0.625,0.625,0,0.0,0,0.0,0,0.0,0,0.0,1,0.5,1,2.125,1,0.5,1,2.125,0,,,,,0,7,7,7,,,,,,,,,91.98896429102751,97.10981870800606,91.98896429102751,91.98896429102751,91.98896429102751,91.98896429102751,92.44907300002524,93.43819879100192,92.45201237468088,93.43819879100192,94.07405583301443,95.07187479099957,94.08616916666894,,97.10981870800606,97.8425050000078,99.92160116601735,103.9530398750212,97.8425050000078,97.8425050000078,103.00623466601246,97.8425050000078,97.8425050000078,97.8425050000078,97.8425050000078,98.2914081250201,99.33371308300411,98.26299187468636,,99.92160116601735,100.96612500000629,99.89254287467726,,97.8425050000078,103.00623466601246,97.8425050000078,103.00623466601246,103.00623466601246,103.68403820801177,97.8425050000078,1,1,1.6193215409875847,reldom2_s023,001,2025-02-27_15h54.49.713,Where-B-Scan_AC,2022.2.5,None,
0,0.0,None,fixation,stimulus/audwhere_stim/blank_white.png,stimulus/audwhere_stim/blank_white.png,stimulus/viswhere_stim/blank_white.png,stimulus/viswhere_stim/blank_white.png,stimulus/audwhere_stim/blank_white.png,stimulus/audwhere_stim/blank_white.png,stimulus/audwhere_stim/blank_white.png,stimulus/audwhere_stim/blank_white.png,0.0,0.0,0.0,0.0,0,0.0,0,0.0,0,0.0,0,0.0,0,0.0,0.0,0,0.0,0,0.0,0,0.0,0,0.0,0,0.0,0,0.0,0,0.0,0,0.0,9,,,,,0,8,8,8,,,,,,,,,103.9530398750212,103.9530398750212,103.9530398750212,103.9530398750212,103.9530398750212,103.9530398750212,103.9530398750212,103.9530398750212,103.8572959583563,103.9530398750212,103.9530398750212,103.9530398750212,103.8572959583563,103.9530398750212,103.9530398750212,103.9530398750212,103.9530398750212,103.9530398750212,103.9530398750212,103.9530398750212,103.9530398750212,103.9530398750212,103.9530398750212,103.9530398750212,103.9530398750212,103.9530398750212,103.9530398750212,103.90729595835631,103.9530398750212,103.9530398750212,103.9530398750212,103.90729595835631,103.9530398750212,103.9530398750212,103.9530398750212,103.9530398750212,103.9530398750212,109.13917241600575,109.13917241600575,113.19586350000463,None,0,,reldom2_s023,001,2025-02-27_15h54.49.713,Where-B-Scan_AC,2022.2.5,None,
7,First_Order,2.0,audwhere,stimulus/audwhere_stim/dummy.wav,stimulus/audwhere_stim/dummy.wav,stimulus/audwhere_stim/left_toward_270h.wav,stimulus/audwhere_stim/right_toward_270h.wav,stimulus/audwhere_stim/blank_white.png,stimulus/audwhere_stim/direction_box.png,stimulus/audwhere_stim/direction_yes.png,stimulus/audwhere_stim/direction_no.png,None,Direction,None,Direction,1,0.0,0,5.125,0,5.125,0,5.125,0,0.0,0.625,0,0.0,0,0.0,0,0.0,0,0.0,0,0.0,0,0.0,1,0.5,1,2.125,0,,,,,0,9,9,9,,,,,,,,,113.19586350000463,113.19586350000463,113.19586350000463,113.19586350000463,113.19586350000463,113.19586350000463,113.19586350000463,113.19586350000463,113.12595545769243,113.19586350000463,113.19586350000463,113.19586350000463,113.12595545769243,113.19586350000463,113.19586350000463,113.19586350000463,115.27118825001526,,113.19586350000463,113.19586350000463,118.36313200002769,113.19586350000463,113.19586350000463,113.19586350000463,113.19586350000463,113.65660854100133,114.71578591602156,113.62689337469443,,115.27118825001526,116.33422933300608,115.24151895768979,,113.19586350000463,118.36313200002769,113.19586350000463,118.36313200002769,118.40305070800241,119.09071445802692,113.19586350000463,1,1,1.1810336249764077,reldom2_s023,001,2025-02-27_15h54.49.713,Where-B-Scan_AC,2022.2.5,None,
8,First_Order,2.0,audwhere,stimulus/audwhere_stim/dummy.wav,stimulus/audwhere_stim/dummy.wav,stimulus/audwhere_stim/left_toward_280h.wav,stimulus/audwhere_stim/right_toward_290h.wav,stimulus/audwhere_stim/blank_white.png,stimulus/audwhere_stim/side_box.png,stimulus/audwhere_stim/side_yes.png,stimulus/audwhere_stim/side_no.png,None,Side,None,Direction,2,0.0,0,5.125,0,5.125,0,5.125,0,0.0,0.625,0,0.0,0,0.0,0,0.0,0,0.0,0,0.0,0,0.0,1,0.5,1,2.125,0,,,,,0,10,10,10,,,,,,,,,119.30146370801958,119.30146370801958,119.30146370801958,119.30146370801958,119.30146370801958,119.30146370801958,119.30146370801958,119.30146370801958,119.22404779136025,119.30146370801958,119.30146370801958,119.30146370801958,119.22404779136025,119.30146370801958,119.30146370801958,119.30146370801958,121.41379700001562,,119.30146370801958,119.30146370801958,124.45053891601856,119.30146370801958,119.30146370801958,119.30146370801958,119.30146370801958,119.7604573330027,120.81534441601252,119.73086983268537,,121.41379700001562,122.47438433300704,121.3843239576711,,119.30146370801958,124.45053891601856,119.30146370801958,124.45053891601856,124.53228745801607,125.1815482910024,119.30146370801958,1,0,1.696563208970474,reldom2_s023,001,2025-02-27_15h54.49.713,Where-B-Scan_AC,2022.2.5,None,
9,First_Order,2.0,audwhere,stimulus/audwhere_stim/dummy.wav,stimulus/audwhere_stim/dummy.wav,stimulus/audwhere_stim/left_away_270h.wav,stimulus/audwhere_stim/left_toward_290h.wav,stimulus/audwhere_stim/blank_white.png,stimulus/audwhere_stim/side_box.png,stimulus/audwhere_stim/side_yes.png,stimulus/audwhere_stim/side_no.png,None,Side,None,Side,1,0.0,0,5.125,0,5.125,0,5.125,0,0.0,0.625,0,0.0,0,0.0,0,0.0,0,0.0,0,0.0,0,0.0,1,0.5,1,2.125,0,,,,,0,11,11,11,,,,,,,,,125.39325979101704,125.39325979101704,125.39325979101704,125.39325979101704,125.39325979101704,125.39325979101704,125.39325979101704,125.39325979101704,125.31488162433573,125.39325979101704,125.39325979101704,125.39325979101704,125.31488162433573,125.39325979101704,125.39325979101704,125.39325979101704,127.46830400000908,,125.39325979101704,125.39325979101704,130.5550311250263,125.39325979101704,125.39325979101704,125.39325979101704,125.39325979101704,125.85476212500362,126.9138992910157,125.82502708267226,,127.46830400000908,128.5277607080061,127.43832441667134,,125.39325979101704,130.5550311250263,125.39325979101704,130.5550311250263,130.59576791600557,131.24787516600918,125.39325979101704,1,1,1.5830934579716995,reldom2_s023,001,2025-02-27_15h54.49.713,Where-B-Scan_AC,2022.2.5,None,
10,First_Order,2.0,audwhere,stimulus/audwhere_stim/dummy.wav,stimulus/audwhere_stim/dummy.wav,stimulus/audwhere_stim/right_away_290h.wav,stimulus/audwhere_stim/right_toward_290h.wav,stimulus/audwhere_stim/blank_white.png,stimulus/audwhere_stim/side_box.png,stimulus/audwhere_stim/side_yes.png,stimulus/audwhere_stim/side_no.png,None,Side,None,Side,1,0.0,0,5.125,0,5.125,0,5.125,0,0.0,0.625,0,0.0,0,0.0,0,0.0,0,0.0,0,0.0,0,0.0,1,0.5,1,2.125,0,,,,,0,12,12,12,,,,,,,,,131.50391775000026,131.50391775000026,131.50391775000026,131.50391775000026,131.50391775000026,131.50391775000026,131.50391775000026,131.50391775000026,131.42193474935098,131.50391775000026,131.50391775000026,131.50391775000026,131.42193474935098,131.50391775000026,131.50391775000026,131.50391775000026,133.57873725000536,,131.50391775000026,131.50391775000026,136.6631021659996,131.50391775000026,131.50391775000026,131.50391775000026,131.50391775000026,131.96601833301247,133.02727037502336,131.93635479169123,,133.57873725000536,134.6398581250105,133.5492852916689,,131.50391775000026,136.6631021659996,131.50391775000026,136.6631021659996,136.70416120800655,137.35563358300715,131.50391775000026,1,1,0.7532163749856409,reldom2_s023,001,2025-02-27_15h54.49.713,Where-B-Scan_AC,2022.2.5,None,
0,0.0,None,fixation,stimulus/audwhere_stim/blank_white.png,stimulus/audwhere_stim/blank_white.png,stimulus/viswhere_stim/blank_white.png,stimulus/viswhere_stim/blank_white.png,stimulus/audwhere_stim/blank_white.png,stimulus/audwhere_stim/blank_white.png,stimulus/audwhere_stim/blank_white.png,stimulus/audwhere_stim/blank_white.png,0.0,0.0,0.0,0.0,0,0.0,0,0.0,0,0.0,0,0.0,0,0.0,0.0,0,0.0,0,0.0,0,0.0,0,0.0,0,0.0,0,0.0,0,0.0,0,0.0,9,,,,,0,13,13,13,,,,,,,,,137.62772058302653,137.62772058302653,137.62772058302653,137.62772058302653,137.62772058302653,137.62772058302653,137.62772058302653,137.62772058302653,137.52938354134872,137.62772058302653,137.62772058302653,137.62772058302653,137.52938354134872,137.62772058302653,137.62772058302653,137.62772058302653,137.62772058302653,137.62772058302653,137.62772058302653,137.62772058302653,137.62772058302653,137.62772058302653,137.62772058302653,137.62772058302653,137.62772058302653,137.62772058302653,137.62772058302653,137.5793835413487,137.62772058302653,137.62772058302653,137.62772058302653,137.5793835413487,137.62772058302653,137.62772058302653,137.62772058302653,137.62772058302653,137.62772058302653,142.83542929100804,142.83542929100804,146.754771833017,None,0,,reldom2_s023,001,2025-02-27_15h54.49.713,Where-B-Scan_AC,2022.2.5,None,
11,Second_Order,2.0,audwhere,stimulus/audwhere_stim/left_toward_280h.wav,stimulus/audwhere_stim/left_away_290h.wav,stimulus/audwhere_stim/left_away_290h.wav,stimulus/audwhere_stim/right_away_280h.wav,stimulus/audwhere_stim/match_blank.png,stimulus/audwhere_stim/match_box.png,stimulus/audwhere_stim/match_yes.png,stimulus/audwhere_stim/match_no.png,2.0,Match,Side,Direction,2,5.125,0,5.125,0,5.125,0,5.125,0,0.75,0.75,0,0.0,0,0.0,0,0.0,0,0.0,1,0.5,1,2.125,1,0.5,1,2.125,0,,,,,0,14,14,14,,,,,,,,,146.754771833017,151.87571970801218,146.754771833017,146.754771833017,146.754771833017,146.754771833017,147.21290779102128,148.21137650002493,147.22565049966605,,148.83293370800675,149.83136845802073,148.84564437467296,,151.87571970801218,152.7241965830035,154.7831374160014,158.71233433301677,152.7241965830035,152.7241965830035,157.90962475002743,152.7241965830035,152.7241965830035,152.7241965830035,152.7241965830035,153.18044783300138,154.23404304101132,153.15171987467718,,154.7831374160014,155.84257337500458,154.75349262467742,,152.7241965830035,157.90962475002743,152.7241965830035,157.90962475002743,157.90962475002743,,152.7241965830035,2,1,1.3178922919905744,reldom2_s023,001,2025-02-27_15h54.49.713,Where-B-Scan_AC,2022.2.5,None,
12,Second_Order,2.0,audwhere,stimulus/audwhere_stim/left_away_270h.wav,stimulus/audwhere_stim/left_toward_280h.wav,stimulus/audwhere_stim/right_away_280h.wav,stimulus/audwhere_stim/right_toward_300h.wav,stimulus/audwhere_stim/match_blank.png,stimulus/audwhere_stim/match_box.png,stimulus/audwhere_stim/match_yes.png,stimulus/audwhere_stim/match_no.png,1.0,Match,Side,Side,1,5.125,0,5.125,0,5.125,0,5.125,0,0.625,0.625,0,0.0,0,0.0,0,0.0,0,0.0,1,0.5,1,2.125,1,0.5,1,2.125,0,,,,,0,15,15,15,,,,,,,,,158.71233433301677,163.83594729102333,158.71233433301677,158.71233433301677,158.71233433301677,158.71233433301677,159.17374162501073,160.17245900002308,159.18640549967338,,160.7944481250015,161.79240016601398,160.80678162468055,161.79610508301994,163.83594729102333,164.56570583302528,166.6108117500262,170.67467358300928,164.56570583302528,164.56570583302528,169.7189597079996,164.56570583302528,164.56570583302528,164.56570583302528,164.56570583302528,165.01941233300022,166.06606287500472,164.99029745767282,,166.6108117500262,167.663847000018,166.58161891668377,,164.56570583302528,169.7189597079996,164.56570583302528,169.7189597079996,169.7595978330064,170.44356287500705,164.56570583302528,1,1,1.275070291972952,reldom2_s023,001,2025-02-27_15h54.49.713,Where-B-Scan_AC,2022.2.5,None,
0,0.0,None,fixation,stimulus/audwhere_stim/blank_white.png,stimulus/audwhere_stim/blank_white.png,stimulus/viswhere_stim/blank_white.png,stimulus/viswhere_stim/blank_white.png,stimulus/audwhere_stim/blank_white.png,stimulus/audwhere_stim/blank_white.png,stimulus/audwhere_stim/blank_white.png,stimulus/audwhere_stim/blank_white.png,0.0,0.0,0.0,0.0,0,0.0,0,0.0,0,0.0,0,0.0,0,0.0,0.0,0,0.0,0,0.0,0,0.0,0,0.0,0,0.0,0,0.0,0,0.0,0,0.0,8,,,,,0,16,16,16,,,,,,,,,170.67467358300928,170.67467358300928,170.67467358300928,170.67467358300928,170.67467358300928,170.67467358300928,170.67467358300928,170.67467358300928,170.5768962083404,170.67467358300928,170.67467358300928,170.67467358300928,170.5768962083404,170.67467358300928,170.67467358300928,170.67467358300928,170.67467358300928,170.67467358300928,170.67467358300928,170.67467358300928,170.67467358300928,170.67467358300928,170.67467358300928,170.67467358300928,170.67467358300928,170.67467358300928,170.67467358300928,170.62689620834038,170.67467358300928,170.67467358300928,170.67467358300928,170.62689620834038,170.67467358300928,170.67467358300928,170.67467358300928,170.67467358300928,170.67467358300928,175.88324545801152,175.88324545801152,178.86702895801864,None,0,,reldom2_s023,001,2025-02-27_15h54.49.713,Where-B-Scan_AC,2022.2.5,None,
13,First_Order,3.0,viswhere,stimulus/viswhere_stim/blank_white.png,stimulus/viswhere_stim/blank_white.png,stimulus/viswhere_stim/150-deg_dot-left_seagreen.png,stimulus/viswhere_stim/150-deg_dot-right_royalblue.png,stimulus/viswhere_stim/blank_white.png,stimulus/viswhere_stim/line_box.png,stimulus/viswhere_stim/line_yes.png,stimulus/viswhere_stim/line_no.png,None,Line,None,Line,1,0.0,0,5.125,0,5.125,0,5.125,0,0.0,0.625,0,0.0,0,0.0,1,0.5,1,2.125,0,0.0,0,0.0,0,0.0,0,0.0,0,,,,,0,17,17,17,,,,,,,,,178.86702895801864,178.86702895801864,178.86702895801864,178.86702895801864,178.86702895801864,178.86702895801864,178.86702895801864,178.86702895801864,178.84691437468672,178.86702895801864,178.86702895801864,178.86702895801864,178.84691437468672,178.86702895801864,178.86702895801864,178.86702895801864,180.96824708301574,184.92344129100093,178.86702895801864,178.86702895801864,183.99883016600506,179.3511748330202,180.3714468330145,180.96824708301574,181.97500250002486,178.86702895801864,178.86702895801864,178.86358104135337,178.86702895801864,178.86702895801864,178.86702895801864,178.86358104135337,178.86702895801864,178.86702895801864,183.99883016600506,178.86702895801864,183.99883016600506,184.08184100000653,184.70821637500194,178.86702895801864,1,1,1.5631423329759855,reldom2_s023,001,2025-02-27_15h54.49.713,Where-B-Scan_AC,2022.2.5,None,
14,First_Order,3.0,viswhere,stimulus/viswhere_stim/blank_white.png,stimulus/viswhere_stim/blank_white.png,stimulus/viswhere_stim/90-deg_dot-right_cyan.png,stimulus/viswhere_stim/90-deg_dot-left_turquoise.png,stimulus/viswhere_stim/blank_white.png,stimulus/viswhere_stim/line_box.png,stimulus/viswhere_stim/line_yes.png,stimulus/viswhere_stim/line_no.png,None,Line,None,Line,1,0.0,0,5.125,0,5.125,0,5.125,0,0.0,0.625,0,0.0,0,0.0,1,0.5,1,2.125,0,0.0,0,0.0,0,0.0,0,0.0,0,,,,,0,18,18,18,,,,,,,,,184.92344129100093,184.92344129100093,184.92344129100093,184.92344129100093,184.92344129100093,184.92344129100093,184.92344129100093,184.92344129100093,184.9024000413386,184.92344129100093,184.92344129100093,184.92344129100093,184.9024000413386,184.92344129100093,184.92344129100093,184.92344129100093,187.02893520801445,190.9951039160078,184.92344129100093,184.92344129100093,190.05899483300163,185.40389916600543,186.41694783300045,187.02893520801445,188.0305561660207,184.92344129100093,184.92344129100093,184.9190667080053,184.92344129100093,184.92344129100093,184.92344129100093,184.9190667080053,184.92344129100093,184.92344129100093,190.05899483300163,184.92344129100093,190.05899483300163,190.14293308299966,190.79208737501176,184.92344129100093,1,1,0.5695598339661956,reldom2_s023,001,2025-02-27_15h54.49.713,Where-B-Scan_AC,2022.2.5,None,
15,First_Order,3.0,viswhere,stimulus/viswhere_stim/blank_white.png,stimulus/viswhere_stim/blank_white.png,stimulus/viswhere_stim/60-deg_dot-right_salmon.png,stimulus/viswhere_stim/150-deg_dot-right_turquoise.png,stimulus/viswhere_stim/blank_white.png,stimulus/viswhere_stim/dot_box.png,stimulus/viswhere_stim/dot_yes.png,stimulus/viswhere_stim/dot_no.png,None,Dot,None,Dot,1,0.0,0,5.125,0,5.125,0,5.125,0,0.0,0.625,0,0.0,0,0.0,1,0.5,1,2.125,0,0.0,0,0.0,0,0.0,0,0.0,0,,,,,0,19,19,19,,,,,,,,,190.9951039160078,190.9951039160078,190.9951039160078,190.9951039160078,190.9951039160078,190.9951039160078,190.9951039160078,190.9951039160078,190.97235608335663,190.9951039160078,190.9951039160078,190.9951039160078,190.97235608335663,190.9951039160078,190.9951039160078,190.9951039160078,193.1026641660137,197.0603449580085,190.9951039160078,190.9951039160078,196.12979300000006,191.47365841601277,192.48940783302533,193.1026641660137,194.11990479100496,190.9951039160078,190.9951039160078,190.9890227500233,190.9951039160078,190.9951039160078,190.9951039160078,190.9890227500233,190.9951039160078,190.9951039160078,196.12979300000006,190.9951039160078,196.12979300000006,196.21241079102037,196.8439497910149,190.9951039160078,1,1,1.361860874982085,reldom2_s023,001,2025-02-27_15h54.49.713,Where-B-Scan_AC,2022.2.5,None,
16,First_Order,3.0,viswhere,stimulus/viswhere_stim/blank_white.png,stimulus/viswhere_stim/blank_white.png,stimulus/viswhere_stim/120-deg_dot-left_peru.png,stimulus/viswhere_stim/120-deg_dot-right_royalblue.png,stimulus/viswhere_stim/blank_white.png,stimulus/viswhere_stim/dot_box.png,stimulus/viswhere_stim/dot_yes.png,stimulus/viswhere_stim/dot_no.png,None,Dot,None,Line,2,0.0,0,5.125,0,5.125,0,5.125,0,0.0,0.625,0,0.0,0,0.0,1,0.5,1,2.125,0,0.0,0,0.0,0,0.0,0,0.0,0,,,,,0,20,20,20,,,,,,,,,197.0603449580085,197.0603449580085,197.0603449580085,197.0603449580085,197.0603449580085,197.0603449580085,197.0603449580085,197.0603449580085,197.03934308335496,197.0603449580085,197.0603449580085,197.0603449580085,197.03934308335496,197.0603449580085,197.0603449580085,197.0603449580085,199.16839691600762,203.1974429160182,197.0603449580085,197.0603449580085,202.20178537501488,197.5352530000091,198.54127291601617,199.16839691600762,200.1812628750049,197.0603449580085,197.0603449580085,197.05600975002164,197.0603449580085,197.0603449580085,197.0603449580085,197.05600975002164,197.0603449580085,197.0603449580085,202.20178537501488,197.0603449580085,202.20178537501488,202.30198454100173,202.92676787500386,197.0603449580085,2,1,1.4620128749811556,reldom2_s023,001,2025-02-27_15h54.49.713,Where-B-Scan_AC,2022.2.5,None,
0,0.0,None,fixation,stimulus/audwhere_stim/blank_white.png,stimulus/audwhere_stim/blank_white.png,stimulus/viswhere_stim/blank_white.png,stimulus/viswhere_stim/blank_white.png,stimulus/audwhere_stim/blank_white.png,stimulus/audwhere_stim/blank_white.png,stimulus/audwhere_stim/blank_white.png,stimulus/audwhere_stim/blank_white.png,0.0,0.0,0.0,0.0,0,0.0,0,0.0,0,0.0,0,0.0,0,0.0,0.0,0,0.0,0,0.0,0,0.0,0,0.0,0,0.0,0,0.0,0,0.0,0,0.0,10,,,,,0,21,21,21,,,,,,,,,203.1974429160182,203.1974429160182,203.1974429160182,203.1974429160182,203.1974429160182,203.1974429160182,203.1974429160182,203.1974429160182,203.10019408334242,203.1974429160182,203.1974429160182,203.1974429160182,203.10019408334242,203.1974429160182,203.1974429160182,203.1974429160182,203.1974429160182,203.1974429160182,203.1974429160182,203.1974429160182,203.1974429160182,203.1974429160182,203.1974429160182,203.1974429160182,203.1974429160182,203.1974429160182,203.1974429160182,203.15019408334243,203.1974429160182,203.1974429160182,203.1974429160182,203.15019408334243,203.1974429160182,203.1974429160182,203.1974429160182,203.1974429160182,203.1974429160182,208.4276030830224,208.4276030830224,213.29980062501272,None,0,,reldom2_s023,001,2025-02-27_15h54.49.713,Where-B-Scan_AC,2022.2.5,None,
17,Second_Order,3.0,viswhere,stimulus/viswhere_stim/90-deg_dot-left_lightsseagreen.png,stimulus/viswhere_stim/90-deg_dot-right_lightsseagreen.png,stimulus/viswhere_stim/120-deg_dot-right_cyan.png,stimulus/viswhere_stim/60-deg_dot-right_royalblue.png,stimulus/audwhere_stim/match_blank.png,stimulus/audwhere_stim/match_box.png,stimulus/audwhere_stim/match_yes.png,stimulus/audwhere_stim/match_no.png,2.0,Match,Line,Dot,2,5.125,0,5.125,0,5.125,0,5.125,0,0.75,0.75,1,0.5,1,2.125,1,0.5,1,2.125,0,0.0,0,0.0,0,0.0,0,0.0,0,,,,,0,22,22,22,,,,,,,,,213.29980062501272,218.4233630830131,213.7810377080168,214.76819158301805,215.4036978330114,216.4020608330029,213.29980062501272,213.29980062501272,213.31405245835973,213.29980062501272,213.29980062501272,213.29980062501272,213.31405245835973,213.29980062501272,218.4233630830131,219.21813516601105,221.28655554100988,225.18738233300974,219.21813516601105,219.21813516601105,224.3529958750005,219.66189675001078,220.67451558299945,221.28655554100988,222.30570145801175,219.21813516601105,219.21813516601105,219.1916632913422,219.21813516601105,219.21813516601105,219.21813516601105,219.1916632913422,219.21813516601105,219.21813516601105,224.3529958750005,219.21813516601105,224.3529958750005,224.4073388329998,225.18738233300974,219.21813516601105,2,1,0.790549082972575,reldom2_s023,001,2025-02-27_15h54.49.713,Where-B-Scan_AC,2022.2.5,None,
18,Second_Order,3.0,viswhere,stimulus/viswhere_stim/90-deg_dot-left_lightsseagreen.png,stimulus/viswhere_stim/60-deg_dot-left_mediumslateblue.png,stimulus/viswhere_stim/60-deg_dot-right_lightsseagreen.png,stimulus/viswhere_stim/30-deg_dot-right_goldenrod.png,stimulus/audwhere_stim/match_blank.png,stimulus/audwhere_stim/match_box.png,stimulus/audwhere_stim/match_yes.png,stimulus/audwhere_stim/match_no.png,1.0,Match,Dot,Dot,1,5.125,0,5.125,0,5.125,0,5.125,0,0.625,0.625,1,0.5,1,2.125,1,0.5,1,2.125,0,0.0,0,0.0,0,0.0,0,0.0,0,,,,,0,23,23,23,,,,,,,,,225.18738233300974,230.30525637502433,225.67292254100903,226.6636695410125,227.29794933300582,228.2962072500086,225.18738233300974,225.18738233300974,225.20131675000886,225.18738233300974,225.18738233300974,225.18738233300974,225.20131675000886,225.18738233300974,230.30525637502433,230.97795462500653,233.05912150000222,237.08615491600358,230.97795462500653,230.97795462500653,236.10162895801477,231.4378081250179,232.44805766601348,233.05912150000222,234.071621583018,230.97795462500653,230.97795462500653,230.9522584163429,230.97795462500653,230.97795462500653,230.97795462500653,230.9522584163429,230.97795462500653,230.97795462500653,236.10162895801477,230.97795462500653,236.10162895801477,236.17070137502742,236.79191475000698,230.97795462500653,1,1,1.524133457976859,reldom2_s023,001,2025-02-27_15h54.49.713,Where-B-Scan_AC,2022.2.5,None,
0,0.0,None,fixation,stimulus/audwhere_stim/blank_white.png,stimulus/audwhere_stim/blank_white.png,stimulus/viswhere_stim/blank_white.png,stimulus/viswhere_stim/blank_white.png,stimulus/audwhere_stim/blank_white.png,stimulus/audwhere_stim/blank_white.png,stimulus/audwhere_stim/blank_white.png,stimulus/audwhere_stim/blank_white.png,0.0,0.0,0.0,0.0,0,0.0,0,0.0,0,0.0,0,0.0,0,0.0,0.0,0,0.0,0,0.0,0,0.0,0,0.0,0,0.0,0,0.0,0,0.0,0,0.0,9,,,,,0,24,24,24,,,,,,,,,237.08615491600358,237.08615491600358,237.08615491600358,237.08615491600358,237.08615491600358,237.08615491600358,237.08615491600358,237.08615491600358,236.98594095833445,237.08615491600358,237.08615491600358,237.08615491600358,236.98594095833445,237.08615491600358,237.08615491600358,237.08615491600358,237.08615491600358,237.08615491600358,237.08615491600358,237.08615491600358,237.08615491600358,237.08615491600358,237.08615491600358,237.08615491600358,237.08615491600358,237.08615491600358,237.08615491600358,237.03594095833446,237.08615491600358,237.08615491600358,237.08615491600358,237.03594095833446,237.08615491600358,237.08615491600358,237.08615491600358,237.08615491600358,237.08615491600358,242.28738154101302,242.28738154101302,246.3033223330276,None,0,,reldom2_s023,001,2025-02-27_15h54.49.713,Where-B-Scan_AC,2022.2.5,None,
19,First_Order,4.0,viswhere,stimulus/viswhere_stim/blank_white.png,stimulus/viswhere_stim/blank_white.png,stimulus/viswhere_stim/90-deg_dot-left_seagreen.png,stimulus/viswhere_stim/150-deg_dot-left_lightsseagreen.png,stimulus/viswhere_stim/blank_white.png,stimulus/viswhere_stim/dot_box.png,stimulus/viswhere_stim/dot_yes.png,stimulus/viswhere_stim/dot_no.png,None,Dot,None,Dot,1,0.0,0,5.125,0,5.125,0,5.125,0,0.0,0.625,0,0.0,0,0.0,1,0.5,1,2.125,0,0.0,0,0.0,0,0.0,0,0.0,0,,,,,0,25,25,25,,,,,,,,,246.3033223330276,246.3033223330276,246.3033223330276,246.3033223330276,246.3033223330276,246.3033223330276,246.3033223330276,246.3033223330276,246.2835574996813,246.3033223330276,246.3033223330276,246.3033223330276,246.2835574996813,246.3033223330276,246.3033223330276,246.3033223330276,248.40897108300123,252.36194275002345,246.3033223330276,246.3033223330276,251.42434700002195,246.782396583003,247.7982237910037,248.40897108300123,249.42851454101037,246.3033223330276,246.3033223330276,246.2835574996813,246.3033223330276,246.3033223330276,246.3033223330276,246.2835574996813,246.3033223330276,246.3033223330276,251.42434700002195,246.3033223330276,251.42434700002195,251.51998516599997,252.14724845800083,246.3033223330276,1,1,1.315568624966545,reldom2_s023,001,2025-02-27_15h54.49.713,Where-B-Scan_AC,2022.2.5,None,
20,First_Order,4.0,viswhere,stimulus/viswhere_stim/blank_white.png,stimulus/viswhere_stim/blank_white.png,stimulus/viswhere_stim/30-deg_dot-left_peru.png,stimulus/viswhere_stim/30-deg_dot-right_salmon.png,stimulus/viswhere_stim/blank_white.png,stimulus/viswhere_stim/dot_box.png,stimulus/viswhere_stim/dot_yes.png,stimulus/viswhere_stim/dot_no.png,None,Dot,None,Line,2,0.0,0,5.125,0,5.125,0,5.125,0,0.0,0.625,0,0.0,0,0.0,1,0.5,1,2.125,0,0.0,0,0.0,0,0.0,0,0.0,0,,,,,0,26,26,26,,,,,,,,,252.36194275002345,252.36194275002345,252.36194275002345,252.36194275002345,252.36194275002345,252.36194275002345,252.36194275002345,252.36194275002345,252.3411784163521,252.36194275002345,252.36194275002345,252.36194275002345,252.3411784163521,252.36194275002345,252.36194275002345,252.36194275002345,254.47646283300128,258.4355335830187,252.36194275002345,252.36194275002345,257.49640250002267,252.83856070801266,253.84977850000723,254.47646283300128,255.49126020801486,252.36194275002345,252.36194275002345,252.3578450830188,252.36194275002345,252.36194275002345,252.36194275002345,252.3578450830188,252.36194275002345,252.36194275002345,257.49640250002267,252.36194275002345,257.49640250002267,257.5931550000096,258.21868825002457,252.36194275002345,2,1,1.1908632919949014,reldom2_s023,001,2025-02-27_15h54.49.713,Where-B-Scan_AC,2022.2.5,None,
21,First_Order,4.0,viswhere,stimulus/viswhere_stim/blank_white.png,stimulus/viswhere_stim/blank_white.png,stimulus/viswhere_stim/60-deg_dot-left_lightsseagreen.png,stimulus/viswhere_stim/30-deg_dot-left_slateblue.png,stimulus/viswhere_stim/blank_white.png,stimulus/viswhere_stim/line_box.png,stimulus/viswhere_stim/line_yes.png,stimulus/viswhere_stim/line_no.png,None,Line,None,Dot,2,0.0,0,5.125,0,5.125,0,5.125,0,0.0,0.625,0,0.0,0,0.0,1,0.5,1,2.125,0,0.0,0,0.0,0,0.0,0,0.0,0,,,,,0,27,27,27,,,,,,,,,258.4355335830187,258.4355335830187,258.4355335830187,258.4355335830187,258.4355335830187,258.4355335830187,258.4355335830187,258.4355335830187,258.4147371663615,258.4355335830187,258.4355335830187,258.4355335830187,258.4147371663615,258.4355335830187,258.4355335830187,258.4355335830187,260.5370201250189,264.4962004160043,258.4355335830187,258.4355335830187,263.5627084580192,258.91434145800304,259.92813545800163,260.5370201250189,261.55370087502524,258.4355335830187,258.4355335830187,258.4314038330281,258.4355335830187,258.4355335830187,258.4355335830187,258.4314038330281,258.4355335830187,258.4355335830187,263.5627084580192,258.4355335830187,263.5627084580192,263.67709408301744,264.3051395410148,258.4355335830187,2,1,1.6326931249641348,reldom2_s023,001,2025-02-27_15h54.49.713,Where-B-Scan_AC,2022.2.5,None,
22,First_Order,4.0,viswhere,stimulus/viswhere_stim/blank_white.png,stimulus/viswhere_stim/blank_white.png,stimulus/viswhere_stim/120-deg_dot-right_peru.png,stimulus/viswhere_stim/150-deg_dot-right_peru.png,stimulus/viswhere_stim/blank_white.png,stimulus/viswhere_stim/line_box.png,stimulus/viswhere_stim/line_yes.png,stimulus/viswhere_stim/line_no.png,None,Line,None,Dot,2,0.0,0,5.125,0,5.125,0,5.125,0,0.0,0.625,0,0.0,0,0.0,1,0.5,1,2.125,0,0.0,0,0.0,0,0.0,0,0.0,0,,,,,0,28,28,28,,,,,,,,,264.4962004160043,264.4962004160043,264.4962004160043,264.4962004160043,264.4962004160043,264.4962004160043,264.4962004160043,264.4962004160043,264.4754702913536,264.4962004160043,264.4962004160043,264.4962004160043,264.4754702913536,264.4962004160043,264.4962004160043,264.4962004160043,266.60666408302495,270.6434984160005,264.4962004160043,264.4962004160043,269.62678154101013,264.97683595801936,265.99401383302757,266.60666408302495,267.60927941600676,264.4962004160043,264.4962004160043,264.49213695802024,264.4962004160043,264.4962004160043,264.4962004160043,264.49213695802024,264.4962004160043,264.4962004160043,269.62678154101013,264.4962004160043,269.62678154101013,269.7243620000081,270.34994233300677,264.4962004160043,2,1,1.135595415980788,reldom2_s023,001,2025-02-27_15h54.49.713,Where-B-Scan_AC,2022.2.5,None,
0,0.0,None,fixation,stimulus/audwhere_stim/blank_white.png,stimulus/audwhere_stim/blank_white.png,stimulus/viswhere_stim/blank_white.png,stimulus/viswhere_stim/blank_white.png,stimulus/audwhere_stim/blank_white.png,stimulus/audwhere_stim/blank_white.png,stimulus/audwhere_stim/blank_white.png,stimulus/audwhere_stim/blank_white.png,0.0,0.0,0.0,0.0,0,0.0,0,0.0,0,0.0,0,0.0,0,0.0,0.0,0,0.0,0,0.0,0,0.0,0,0.0,0,0.0,0,0.0,0,0.0,0,0.0,10,,,,,0,29,29,29,,,,,,,,,270.6434984160005,270.6434984160005,270.6434984160005,270.6434984160005,270.6434984160005,270.6434984160005,270.6434984160005,270.6434984160005,270.54544870833826,270.6434984160005,270.6434984160005,270.6434984160005,270.54544870833826,270.6434984160005,270.6434984160005,270.6434984160005,270.6434984160005,270.6434984160005,270.6434984160005,270.6434984160005,270.6434984160005,270.6434984160005,270.6434984160005,270.6434984160005,270.6434984160005,270.6434984160005,270.6434984160005,270.59544870833827,270.6434984160005,270.6434984160005,270.6434984160005,270.59544870833827,270.6434984160005,270.6434984160005,270.6434984160005,270.6434984160005,270.6434984160005,275.84467687501456,275.84467687501456,280.7783280000149,None,0,,reldom2_s023,001,2025-02-27_15h54.49.713,Where-B-Scan_AC,2022.2.5,None,
23,Second_Order,4.0,viswhere,stimulus/viswhere_stim/60-deg_dot-right_peru.png,stimulus/viswhere_stim/60-deg_dot-left_royalblue.png,stimulus/viswhere_stim/90-deg_dot-left_slateblue.png,stimulus/viswhere_stim/90-deg_dot-right_royalblue.png,stimulus/audwhere_stim/match_blank.png,stimulus/audwhere_stim/match_box.png,stimulus/audwhere_stim/match_yes.png,stimulus/audwhere_stim/match_no.png,1.0,Match,Line,Line,1,5.125,0,5.125,0,5.125,0,5.125,0,0.75,0.75,1,0.5,1,2.125,1,0.5,1,2.125,0,0.0,0,0.0,0,0.0,0,0.0,0,,,,,0,30,30,30,,,,,,,,,280.7783280000149,285.90143695802544,281.2558224580134,282.25403941600234,282.8771270000143,283.8746101660072,280.7783280000149,280.7783280000149,280.7927265413474,280.7783280000149,280.7783280000149,280.7783280000149,280.7927265413474,280.7783280000149,285.90143695802544,286.69487854102044,288.77387666600407,292.66791933300556,286.69487854102044,286.69487854102044,291.82561695802724,287.1424628330278,288.16060283302795,288.77387666600407,289.78193475000444,286.69487854102044,286.69487854102044,286.66893658333765,286.69487854102044,286.69487854102044,286.69487854102044,286.66893658333765,286.69487854102044,286.69487854102044,291.82561695802724,286.69487854102044,291.82561695802724,291.89490916600334,292.66791933300556,286.69487854102044,1,1,0.6197539169806987,reldom2_s023,001,2025-02-27_15h54.49.713,Where-B-Scan_AC,2022.2.5,None,
24,Second_Order,4.0,viswhere,stimulus/viswhere_stim/120-deg_dot-left_peru.png,stimulus/viswhere_stim/120-deg_dot-right_peru.png,stimulus/viswhere_stim/30-deg_dot-right_peru.png,stimulus/viswhere_stim/30-deg_dot-left_lightsseagreen.png,stimulus/audwhere_stim/match_blank.png,stimulus/audwhere_stim/match_box.png,stimulus/audwhere_stim/match_yes.png,stimulus/audwhere_stim/match_no.png,1.0,Match,Line,Line,1,5.125,0,5.125,0,5.125,0,5.125,0,0.625,0.625,1,0.5,1,2.125,1,0.5,1,2.125,0,0.0,0,0.0,0,0.0,0,0.0,0,,,,,0,31,31,31,,,,,,,,,292.66791933300556,297.79049991600914,293.1508295830281,294.14830566602177,294.76996600002167,295.7684881660098,292.66791933300556,292.66791933300556,292.68179958300317,292.66791933300556,292.66791933300556,292.66791933300556,292.68179958300317,292.66791933300556,297.79049991600914,298.4653884580184,300.5392165000085,304.5819640410191,298.4653884580184,298.4653884580184,303.5920172500191,298.9295871659997,299.94707925000694,300.5392165000085,301.5411604580004,298.4653884580184,298.4653884580184,298.44128745835815,298.4653884580184,298.4653884580184,298.4653884580184,298.44128745835815,298.4653884580184,298.4653884580184,303.5920172500191,298.4653884580184,303.5920172500191,303.6598905000137,304.2875595000223,298.4653884580184,2,0,1.0570248749863822,reldom2_s023,001,2025-02-27_15h54.49.713,Where-B-Scan_AC,2022.2.5,None,
0,0.0,None,fixation,stimulus/audwhere_stim/blank_white.png,stimulus/audwhere_stim/blank_white.png,stimulus/viswhere_stim/blank_white.png,stimulus/viswhere_stim/blank_white.png,stimulus/audwhere_stim/blank_white.png,stimulus/audwhere_stim/blank_white.png,stimulus/audwhere_stim/blank_white.png,stimulus/audwhere_stim/blank_white.png,0.0,0.0,0.0,0.0,0,0.0,0,0.0,0,0.0,0,0.0,0,0.0,0.0,0,0.0,0,0.0,0,0.0,0,0.0,0,0.0,0,0.0,0,0.0,0,0.0,9,,,,,0,32,32,32,,,,,,,,,304.5819640410191,304.5819640410191,304.5819640410191,304.5819640410191,304.5819640410191,304.5819640410191,304.5819640410191,304.5819640410191,304.4814678743326,304.5819640410191,304.5819640410191,304.5819640410191,304.4814678743326,304.5819640410191,304.5819640410191,304.5819640410191,304.5819640410191,304.5819640410191,304.5819640410191,304.5819640410191,304.5819640410191,304.5819640410191,304.5819640410191,304.5819640410191,304.5819640410191,304.5819640410191,304.5819640410191,304.53146787433263,304.5819640410191,304.5819640410191,304.5819640410191,304.53146787433263,304.5819640410191,304.5819640410191,304.5819640410191,304.5819640410191,304.5819640410191,309.80484095800784,309.80484095800784,313.82715245801955,None,0,,reldom2_s023,001,2025-02-27_15h54.49.713,Where-B-Scan_AC,2022.2.5,None,
25,First_Order,5.0,audwhere,stimulus/audwhere_stim/dummy.wav,stimulus/audwhere_stim/dummy.wav,stimulus/audwhere_stim/right_toward_280h.wav,stimulus/audwhere_stim/right_away_290h.wav,stimulus/audwhere_stim/blank_white.png,stimulus/audwhere_stim/side_box.png,stimulus/audwhere_stim/side_yes.png,stimulus/audwhere_stim/side_no.png,None,Side,None,Side,1,0.0,0,5.125,0,5.125,0,5.125,0,0.0,0.625,0,0.0,0,0.0,0,0.0,0,0.0,0,0.0,0,0.0,1,0.5,1,2.125,0,,,,,0,33,33,33,,,,,,,,,313.82715245801955,313.82715245801955,313.82715245801955,313.82715245801955,313.82715245801955,313.82715245801955,313.82715245801955,313.82715245801955,313.75566958267393,313.82715245801955,313.82715245801955,313.82715245801955,313.75566958267393,313.82715245801955,313.82715245801955,313.82715245801955,315.9100817910221,319.94321254102397,313.82715245801955,313.82715245801955,318.99666416601394,313.82715245801955,313.82715245801955,313.82715245801955,313.82715245801955,314.2903282500047,315.35620579100214,314.26075649969084,,315.9100817910221,316.9721576250158,315.8806091666668,,313.82715245801955,318.99666416601394,313.82715245801955,318.99666416601394,319.03823458301486,319.6905908330227,313.82715245801955,1,1,1.0311276249703951,reldom2_s023,001,2025-02-27_15h54.49.713,Where-B-Scan_AC,2022.2.5,None,
26,First_Order,5.0,audwhere,stimulus/audwhere_stim/dummy.wav,stimulus/audwhere_stim/dummy.wav,stimulus/audwhere_stim/right_toward_300h.wav,stimulus/audwhere_stim/left_toward_270h.wav,stimulus/audwhere_stim/blank_white.png,stimulus/audwhere_stim/direction_box.png,stimulus/audwhere_stim/direction_yes.png,stimulus/audwhere_stim/direction_no.png,None,Direction,None,Direction,1,0.0,0,5.125,0,5.125,0,5.125,0,0.0,0.625,0,0.0,0,0.0,0,0.0,0,0.0,0,0.0,0,0.0,1,0.5,1,2.125,0,,,,,0,34,34,34,,,,,,,,,319.94321254102397,319.94321254102397,319.94321254102397,319.94321254102397,319.94321254102397,319.94321254102397,319.94321254102397,319.94321254102397,319.8642835413358,319.94321254102397,319.94321254102397,319.94321254102397,319.8642835413358,319.94321254102397,319.94321254102397,319.94321254102397,322.0420074160211,326.06928654102376,319.94321254102397,319.94321254102397,325.11872650001897,319.94321254102397,319.94321254102397,319.94321254102397,319.94321254102397,320.4099906660267,321.48369387502316,320.3795845826719,,322.0420074160211,323.1166985830059,322.01153691669265,,319.94321254102397,325.11872650001897,319.94321254102397,325.11872650001897,325.1600319580175,325.8156732500065,319.94321254102397,1,1,2.105340207956033,reldom2_s023,001,2025-02-27_15h54.49.713,Where-B-Scan_AC,2022.2.5,None,
27,First_Order,5.0,audwhere,stimulus/audwhere_stim/dummy.wav,stimulus/audwhere_stim/dummy.wav,stimulus/audwhere_stim/left_toward_290h.wav,stimulus/audwhere_stim/left_away_300h.wav,stimulus/audwhere_stim/blank_white.png,stimulus/audwhere_stim/direction_box.png,stimulus/audwhere_stim/direction_yes.png,stimulus/audwhere_stim/direction_no.png,None,Direction,None,Side,2,0.0,0,5.125,0,5.125,0,5.125,0,0.0,0.625,0,0.0,0,0.0,0,0.0,0,0.0,0,0.0,0,0.0,1,0.5,1,2.125,0,,,,,0,35,35,35,,,,,,,,,326.06928654102376,326.06928654102376,326.06928654102376,326.06928654102376,326.06928654102376,326.06928654102376,326.06928654102376,326.06928654102376,325.9901127913346,326.06928654102376,326.06928654102376,326.06928654102376,325.9901127913346,326.06928654102376,326.06928654102376,326.06928654102376,328.1690287910169,332.1967567910033,326.06928654102376,326.06928654102376,331.2470691250055,326.06928654102376,326.06928654102376,326.06928654102376,326.06928654102376,326.53578083301545,327.6111820000224,326.5056781666683,,328.1690287910169,329.24238350000815,328.1388567916913,,326.06928654102376,331.2470691250055,326.06928654102376,331.2470691250055,331.288464000012,331.9431572080066,326.06928654102376,2,1,1.4992208749754354,reldom2_s023,001,2025-02-27_15h54.49.713,Where-B-Scan_AC,2022.2.5,None,
28,First_Order,5.0,audwhere,stimulus/audwhere_stim/dummy.wav,stimulus/audwhere_stim/dummy.wav,stimulus/audwhere_stim/right_away_300h.wav,stimulus/audwhere_stim/right_toward_290h.wav,stimulus/audwhere_stim/blank_white.png,stimulus/audwhere_stim/direction_box.png,stimulus/audwhere_stim/direction_yes.png,stimulus/audwhere_stim/direction_no.png,None,Direction,None,Side,2,0.0,0,5.125,0,5.125,0,5.125,0,0.0,0.625,0,0.0,0,0.0,0,0.0,0,0.0,0,0.0,0,0.0,1,0.5,1,2.125,0,,,,,0,36,36,36,,,,,,,,,332.1967567910033,332.1967567910033,332.1967567910033,332.1967567910033,332.1967567910033,332.1967567910033,332.1967567910033,332.1967567910033,332.11718645834674,332.1967567910033,332.1967567910033,332.1967567910033,332.11718645834674,332.1967567910033,332.1967567910033,332.1967567910033,334.2935025000188,338.34288137502153,332.1967567910033,332.1967567910033,337.3730463750253,332.1967567910033,332.1967567910033,332.1967567910033,332.1967567910033,332.66213612499996,333.73576425001374,332.63215374967353,,334.2935025000188,335.36861358300666,334.2632568326701,,332.1967567910033,337.3730463750253,332.1967567910033,337.3730463750253,337.41418795802747,338.06894183301483,332.1967567910033,2,1,1.056750290968921,reldom2_s023,001,2025-02-27_15h54.49.713,Where-B-Scan_AC,2022.2.5,None,
0,0.0,None,fixation,stimulus/audwhere_stim/blank_white.png,stimulus/audwhere_stim/blank_white.png,stimulus/viswhere_stim/blank_white.png,stimulus/viswhere_stim/blank_white.png,stimulus/audwhere_stim/blank_white.png,stimulus/audwhere_stim/blank_white.png,stimulus/audwhere_stim/blank_white.png,stimulus/audwhere_stim/blank_white.png,0.0,0.0,0.0,0.0,0,0.0,0,0.0,0,0.0,0,0.0,0,0.0,0.0,0,0.0,0,0.0,0,0.0,0,0.0,0,0.0,0,0.0,0,0.0,0,0.0,10,,,,,0,37,37,37,,,,,,,,,338.34288137502153,338.34288137502153,338.34288137502153,338.34288137502153,338.34288137502153,338.34288137502153,338.34288137502153,338.34288137502153,338.2428141663569,338.34288137502153,338.34288137502153,338.34288137502153,338.2428141663569,338.34288137502153,338.34288137502153,338.34288137502153,338.34288137502153,338.34288137502153,338.34288137502153,338.34288137502153,338.34288137502153,338.34288137502153,338.34288137502153,338.34288137502153,338.34288137502153,338.34288137502153,338.34288137502153,338.2928141663569,338.34288137502153,338.34288137502153,338.34288137502153,338.2928141663569,338.34288137502153,338.34288137502153,338.34288137502153,338.34288137502153,338.34288137502153,343.545688083017,343.545688083017,348.51600779101136,None,0,,reldom2_s023,001,2025-02-27_15h54.49.713,Where-B-Scan_AC,2022.2.5,None,
29,Second_Order,5.0,audwhere,stimulus/audwhere_stim/right_toward_270h.wav,stimulus/audwhere_stim/right_away_280h.wav,stimulus/audwhere_stim/left_away_270h.wav,stimulus/audwhere_stim/right_away_300h.wav,stimulus/audwhere_stim/match_blank.png,stimulus/audwhere_stim/match_box.png,stimulus/audwhere_stim/match_yes.png,stimulus/audwhere_stim/match_no.png,2.0,Match,Side,Direction,2,5.125,0,5.125,0,5.125,0,5.125,0,0.75,0.75,0,0.0,0,0.0,0,0.0,0,0.0,1,0.5,1,2.125,1,0.5,1,2.125,0,,,,,0,38,38,38,,,,,,,,,348.51600779101136,353.64057658301317,348.51600779101136,348.51600779101136,348.51600779101136,348.51600779101136,348.9747149160248,349.96432416600874,348.97727745768884,349.96432416600874,350.5999869580264,351.59753862500656,350.6121097076723,351.60185525001725,353.64057658301317,354.48976129101356,356.56902550000814,360.47793679102324,354.48976129101356,354.48976129101356,359.6706791250035,354.48976129101356,354.48976129101356,354.48976129101356,354.48976129101356,354.90491108302376,355.9692511660105,354.8750374996782,,356.56902550000814,357.6380653330125,356.5399244576731,,354.48976129101356,359.6706791250035,354.48976129101356,359.6706791250035,359.6706791250035,,354.48976129101356,2,1,0.6187680419534445,reldom2_s023,001,2025-02-27_15h54.49.713,Where-B-Scan_AC,2022.2.5,None,
30,Second_Order,5.0,audwhere,stimulus/audwhere_stim/right_away_300h.wav,stimulus/audwhere_stim/right_toward_300h.wav,stimulus/audwhere_stim/left_toward_290h.wav,stimulus/audwhere_stim/left_away_270h.wav,stimulus/audwhere_stim/match_blank.png,stimulus/audwhere_stim/match_box.png,stimulus/audwhere_stim/match_yes.png,stimulus/audwhere_stim/match_no.png,1.0,Match,Side,Side,1,5.125,0,5.125,0,5.125,0,5.125,0,0.625,0.625,0,0.0,0,0.0,0,0.0,0,0.0,1,0.5,1,2.125,1,0.5,1,2.125,0,,,,,0,39,39,39,,,,,,,,,360.47793679102324,365.6009879160265,360.47793679102324,360.47793679102324,360.47793679102324,360.47793679102324,360.93931612500455,361.9382710410282,360.9530905826871,,362.5606549580116,363.5591787500016,362.57300433266596,,365.6009879160265,366.3315504580096,368.3922734160151,372.4467621250078,366.3315504580096,366.3315504580096,371.48339254100574,366.3315504580096,366.3315504580096,366.3315504580096,366.3315504580096,366.785769833019,367.8407431660162,366.75685124966935,,368.3922734160151,369.4553117080068,368.3625707076901,,366.3315504580096,371.48339254100574,366.3315504580096,371.48339254100574,371.52344229101436,372.17334333300823,366.3315504580096,1,1,2.775501540978439,reldom2_s023,001,2025-02-27_15h54.49.713,Where-B-Scan_AC,2022.2.5,None,
0,0.0,None,fixation,stimulus/audwhere_stim/blank_white.png,stimulus/audwhere_stim/blank_white.png,stimulus/viswhere_stim/blank_white.png,stimulus/viswhere_stim/blank_white.png,stimulus/audwhere_stim/blank_white.png,stimulus/audwhere_stim/blank_white.png,stimulus/audwhere_stim/blank_white.png,stimulus/audwhere_stim/blank_white.png,0.0,0.0,0.0,0.0,0,0.0,0,0.0,0,0.0,0,0.0,0,0.0,0.0,0,0.0,0,0.0,0,0.0,0,0.0,0,0.0,0,0.0,0,0.0,0,0.0,8,,,,,0,40,40,40,,,,,,,,,372.4467621250078,372.4467621250078,372.4467621250078,372.4467621250078,372.4467621250078,372.4467621250078,372.4467621250078,372.4467621250078,372.3468707913436,372.4467621250078,372.4467621250078,372.4467621250078,372.3468707913436,372.4467621250078,372.4467621250078,372.4467621250078,372.4467621250078,372.4467621250078,372.4467621250078,372.4467621250078,372.4467621250078,372.4467621250078,372.4467621250078,372.4467621250078,372.4467621250078,372.4467621250078,372.4467621250078,372.3968707913436,372.4467621250078,372.4467621250078,372.4467621250078,372.3968707913436,372.4467621250078,372.4467621250078,372.4467621250078,372.4467621250078,372.4467621250078,377.6556746660208,377.6556746660208,380.7142414160189,None,0,,reldom2_s023,001,2025-02-27_15h54.49.713,Where-B-Scan_AC,2022.2.5,None,
31,First_Order,6.0,audwhere,stimulus/audwhere_stim/dummy.wav,stimulus/audwhere_stim/dummy.wav,stimulus/audwhere_stim/left_toward_270h.wav,stimulus/audwhere_stim/right_toward_280h.wav,stimulus/audwhere_stim/blank_white.png,stimulus/audwhere_stim/side_box.png,stimulus/audwhere_stim/side_yes.png,stimulus/audwhere_stim/side_no.png,None,Side,None,Direction,2,0.0,0,5.125,0,5.125,0,5.125,0,0.0,0.625,0,0.0,0,0.0,0,0.0,0,0.0,0,0.0,0,0.0,1,0.5,1,2.125,0,,,,,0,41,41,41,,,,,,,,,380.7142414160189,380.7142414160189,380.7142414160189,380.7142414160189,380.7142414160189,380.7142414160189,380.7142414160189,380.7142414160189,380.6441894996775,380.7142414160189,380.7142414160189,380.7142414160189,380.6441894996775,380.7142414160189,380.7142414160189,380.7142414160189,382.7951601250097,386.83972562500276,380.7142414160189,380.7142414160189,385.8942292910069,380.7142414160189,380.7142414160189,380.7142414160189,380.7142414160189,381.17916037500254,382.2430105000094,381.1493559996927,,382.7951601250097,383.8627791660256,382.76557791667096,,380.7142414160189,385.8942292910069,380.7142414160189,385.8942292910069,385.9350458330009,386.5865339160082,380.7142414160189,2,1,1.013104666984873,reldom2_s023,001,2025-02-27_15h54.49.713,Where-B-Scan_AC,2022.2.5,None,
32,First_Order,6.0,audwhere,stimulus/audwhere_stim/dummy.wav,stimulus/audwhere_stim/dummy.wav,stimulus/audwhere_stim/right_toward_280h.wav,stimulus/audwhere_stim/left_toward_290h.wav,stimulus/audwhere_stim/blank_white.png,stimulus/audwhere_stim/direction_box.png,stimulus/audwhere_stim/direction_yes.png,stimulus/audwhere_stim/direction_no.png,None,Direction,None,Direction,1,0.0,0,5.125,0,5.125,0,5.125,0,0.0,0.625,0,0.0,0,0.0,0,0.0,0,0.0,0,0.0,0,0.0,1,0.5,1,2.125,0,,,,,0,42,42,42,,,,,,,,,386.83972562500276,386.83972562500276,386.83972562500276,386.83972562500276,386.83972562500276,386.83972562500276,386.83972562500276,386.83972562500276,386.76061591634254,386.83972562500276,386.83972562500276,386.83972562500276,386.76061591634254,386.83972562500276,386.83972562500276,386.83972562500276,388.93474725002307,392.96402137502446,386.83972562500276,386.83972562500276,392.0132005830237,386.83972562500276,386.83972562500276,386.83972562500276,386.83972562500276,387.30811141600134,388.37874895802815,387.2778868746866,,388.93474725002307,390.01092033300665,388.90469699967457,,386.83972562500276,392.0132005830237,386.83972562500276,392.0132005830237,392.054465291003,392.7092612910201,386.83972562500276,1,1,1.8280164579628035,reldom2_s023,001,2025-02-27_15h54.49.713,Where-B-Scan_AC,2022.2.5,None,
33,First_Order,6.0,audwhere,stimulus/audwhere_stim/dummy.wav,stimulus/audwhere_stim/dummy.wav,stimulus/audwhere_stim/left_toward_270h.wav,stimulus/audwhere_stim/left_away_300h.wav,stimulus/audwhere_stim/blank_white.png,stimulus/audwhere_stim/side_box.png,stimulus/audwhere_stim/side_yes.png,stimulus/audwhere_stim/side_no.png,None,Side,None,Side,1,0.0,0,5.125,0,5.125,0,5.125,0,0.0,0.625,0,0.0,0,0.0,0,0.0,0,0.0,0,0.0,0,0.0,1,0.5,1,2.125,0,,,,,0,43,43,43,,,,,,,,,392.96402137502446,392.96402137502446,392.96402137502446,392.96402137502446,392.96402137502446,392.96402137502446,392.96402137502446,392.96402137502446,392.883562291334,392.96402137502446,392.96402137502446,392.96402137502446,392.883562291334,392.96402137502446,392.96402137502446,392.96402137502446,395.0563565000193,,392.96402137502446,392.96402137502446,398.11869625002146,392.96402137502446,392.96402137502446,392.96402137502446,392.96402137502446,393.4267300830106,394.49147229100345,393.39677324967147,,395.0563565000193,396.12711695799953,395.026055916682,,392.96402137502446,398.11869625002146,392.96402137502446,398.11869625002146,398.15945704100886,398.81105541600846,392.96402137502446,1,1,1.0465642089839093,reldom2_s023,001,2025-02-27_15h54.49.713,Where-B-Scan_AC,2022.2.5,None,
34,First_Order,6.0,audwhere,stimulus/audwhere_stim/dummy.wav,stimulus/audwhere_stim/dummy.wav,stimulus/audwhere_stim/right_toward_300h.wav,stimulus/audwhere_stim/left_toward_290h.wav,stimulus/audwhere_stim/blank_white.png,stimulus/audwhere_stim/side_box.png,stimulus/audwhere_stim/side_yes.png,stimulus/audwhere_stim/side_no.png,None,Side,None,Direction,2,0.0,0,5.125,0,5.125,0,5.125,0,0.0,0.625,0,0.0,0,0.0,0,0.0,0,0.0,0,0.0,0,0.0,1,0.5,1,2.125,0,,,,,0,44,44,44,,,,,,,,,399.0662676250213,399.0662676250213,399.0662676250213,399.0662676250213,399.0662676250213,399.0662676250213,399.0662676250213,399.0662676250213,398.98517354135595,399.0662676250213,399.0662676250213,399.0662676250213,398.98517354135595,399.0662676250213,399.0662676250213,399.0662676250213,401.15727195801446,,399.0662676250213,399.0662676250213,404.2178387910244,399.0662676250213,399.0662676250213,399.0662676250213,399.0662676250213,399.53165833302774,400.5980055410182,399.5017192076814,,401.15727195801446,402.2258962080232,401.1271770826754,,399.0662676250213,404.2178387910244,399.0662676250213,404.2178387910244,404.25944100000197,404.9121275409998,399.0662676250213,1,0,2.8860380839614663,reldom2_s023,001,2025-02-27_15h54.49.713,Where-B-Scan_AC,2022.2.5,None,
0,0.0,None,fixation,stimulus/audwhere_stim/blank_white.png,stimulus/audwhere_stim/blank_white.png,stimulus/viswhere_stim/blank_white.png,stimulus/viswhere_stim/blank_white.png,stimulus/audwhere_stim/blank_white.png,stimulus/audwhere_stim/blank_white.png,stimulus/audwhere_stim/blank_white.png,stimulus/audwhere_stim/blank_white.png,0.0,0.0,0.0,0.0,0,0.0,0,0.0,0,0.0,0,0.0,0,0.0,0.0,0,0.0,0,0.0,0,0.0,0,0.0,0,0.0,0,0.0,0,0.0,0,0.0,8,,,,,0,45,45,45,,,,,,,,,405.1883024160052,405.1883024160052,405.1883024160052,405.1883024160052,405.1883024160052,405.1883024160052,405.1883024160052,405.1883024160052,405.086646166341,405.1883024160052,405.1883024160052,405.1883024160052,405.086646166341,405.1883024160052,405.1883024160052,405.1883024160052,405.1883024160052,405.1883024160052,405.1883024160052,405.1883024160052,405.1883024160052,405.1883024160052,405.1883024160052,405.1883024160052,405.1883024160052,405.1883024160052,405.1883024160052,405.136646166341,405.1883024160052,405.1883024160052,405.1883024160052,405.136646166341,405.1883024160052,405.1883024160052,405.1883024160052,405.1883024160052,405.1883024160052,410.375875000027,410.375875000027,413.35275445799925,None,0,,reldom2_s023,001,2025-02-27_15h54.49.713,Where-B-Scan_AC,2022.2.5,None,
35,Second_Order,6.0,audwhere,stimulus/audwhere_stim/left_toward_280h.wav,stimulus/audwhere_stim/right_toward_270h.wav,stimulus/audwhere_stim/left_away_300h.wav,stimulus/audwhere_stim/right_away_280h.wav,stimulus/audwhere_stim/match_blank.png,stimulus/audwhere_stim/match_box.png,stimulus/audwhere_stim/match_yes.png,stimulus/audwhere_stim/match_no.png,1.0,Match,Direction,Direction,1,5.125,0,5.125,0,5.125,0,5.125,0,0.75,0.75,0,0.0,0,0.0,0,0.0,0,0.0,1,0.5,1,2.125,1,0.5,1,2.125,0,,,,,0,46,46,46,,,,,,,,,413.35275445799925,418.4737794160028,413.35275445799925,413.35275445799925,413.35275445799925,413.35275445799925,413.81025245800265,414.79702720802743,413.8243265416861,,415.43252612501965,416.4306926660065,415.44494162468277,,418.4737794160028,419.3213818750228,421.3990457080072,425.3137537080038,419.3213818750228,419.3213818750228,424.5016375830164,419.3213818750228,419.3213818750228,419.3213818750228,419.3213818750228,419.78178179101087,420.8423268330225,419.7520219576875,,421.3990457080072,422.46566612500465,421.36915595768755,,419.3213818750228,424.5016375830164,419.3213818750228,424.5016375830164,424.5016375830164,,419.3213818750228,1,1,1.2273086659552064,reldom2_s023,001,2025-02-27_15h54.49.713,Where-B-Scan_AC,2022.2.5,None,
36,Second_Order,6.0,audwhere,stimulus/audwhere_stim/left_toward_300h.wav,stimulus/audwhere_stim/right_toward_280h.wav,stimulus/audwhere_stim/left_away_300h.wav,stimulus/audwhere_stim/right_away_300h.wav,stimulus/audwhere_stim/match_blank.png,stimulus/audwhere_stim/match_box.png,stimulus/audwhere_stim/match_yes.png,stimulus/audwhere_stim/match_no.png,1.0,Match,Direction,Direction,1,5.125,0,5.125,0,5.125,0,5.125,0,0.625,0.625,0,0.0,0,0.0,0,0.0,0,0.0,1,0.5,1,2.125,1,0.5,1,2.125,0,,,,,0,47,47,47,,,,,,,,,425.3137537080038,430.434934000019,425.3137537080038,425.3137537080038,425.3137537080038,425.3137537080038,425.7722946660069,426.7714841250272,425.7853997496752,,427.3934333330253,428.391609791026,427.40582104167356,,430.434934000019,431.1653188330238,433.22784850001335,437.2795781660243,431.1653188330238,431.1653188330238,436.3136608330242,431.1653188330238,431.1653188330238,431.1653188330238,431.1653188330238,431.6213900410221,432.6766379160108,431.592258666675,,433.22784850001335,434.28784275002545,433.19837812468563,,431.1653188330238,436.3136608330242,431.1653188330238,436.3136608330242,436.35384637501556,437.00608154101064,431.1653188330238,2,0,1.8597109159745742,reldom2_s023,001,2025-02-27_15h54.49.713,Where-B-Scan_AC,2022.2.5,None,
0,0.0,None,fixation,stimulus/audwhere_stim/blank_white.png,stimulus/audwhere_stim/blank_white.png,stimulus/viswhere_stim/blank_white.png,stimulus/viswhere_stim/blank_white.png,stimulus/audwhere_stim/blank_white.png,stimulus/audwhere_stim/blank_white.png,stimulus/audwhere_stim/blank_white.png,stimulus/audwhere_stim/blank_white.png,0.0,0.0,0.0,0.0,0,0.0,0,0.0,0,0.0,0,0.0,0,0.0,0.0,0,0.0,0,0.0,0,0.0,0,0.0,0,0.0,0,0.0,0,0.0,0,0.0,10,,,,,0,48,48,48,,,,,,,,,437.2795781660243,437.2795781660243,437.2795781660243,437.2795781660243,437.2795781660243,437.2795781660243,437.2795781660243,437.2795781660243,437.1801509163362,437.2795781660243,437.2795781660243,437.2795781660243,437.1801509163362,437.2795781660243,437.2795781660243,437.2795781660243,437.2795781660243,437.2795781660243,437.2795781660243,437.2795781660243,437.2795781660243,437.2795781660243,437.2795781660243,437.2795781660243,437.2795781660243,437.2795781660243,437.2795781660243,437.2301509163362,437.2795781660243,437.2795781660243,437.2795781660243,437.2301509163362,437.2795781660243,437.2795781660243,437.2795781660243,437.2795781660243,437.2795781660243,442.48939387500286,442.48939387500286,447.46240345801925,None,0,,reldom2_s023,001,2025-02-27_15h54.49.713,Where-B-Scan_AC,2022.2.5,None,
37,First_Order,7.0,viswhere,stimulus/viswhere_stim/blank_white.png,stimulus/viswhere_stim/blank_white.png,stimulus/viswhere_stim/150-deg_dot-left_turquoise.png,stimulus/viswhere_stim/120-deg_dot-left_mediumslateblue.png,stimulus/viswhere_stim/blank_white.png,stimulus/viswhere_stim/line_box.png,stimulus/viswhere_stim/line_yes.png,stimulus/viswhere_stim/line_no.png,None,Line,None,Dot,2,0.0,0,5.125,0,5.125,0,5.125,0,0.0,0.625,0,0.0,0,0.0,1,0.5,1,2.125,0,0.0,0,0.0,0,0.0,0,0.0,0,,,,,0,49,49,49,,,,,,,,,447.46240345801925,447.46240345801925,447.46240345801925,447.46240345801925,447.46240345801925,447.46240345801925,447.46240345801925,447.46240345801925,447.44174779166735,447.46240345801925,447.46240345801925,447.46240345801925,447.44174779166735,447.46240345801925,447.46240345801925,447.46240345801925,449.57340804100386,453.52763937501004,447.46240345801925,447.46240345801925,452.58847000001697,447.9422549160081,448.9595104580221,449.57340804100386,450.59330879102345,447.46240345801925,447.46240345801925,447.45841445833406,447.46240345801925,447.46240345801925,447.46240345801925,447.45841445833406,447.46240345801925,447.46240345801925,452.58847000001697,447.46240345801925,452.58847000001697,452.68578091601375,453.3121626250213,447.46240345801925,2,1,1.976761624973733,reldom2_s023,001,2025-02-27_15h54.49.713,Where-B-Scan_AC,2022.2.5,None,
38,First_Order,7.0,viswhere,stimulus/viswhere_stim/blank_white.png,stimulus/viswhere_stim/blank_white.png,stimulus/viswhere_stim/120-deg_dot-left_mediumslateblue.png,stimulus/viswhere_stim/120-deg_dot-right_seagreen.png,stimulus/viswhere_stim/blank_white.png,stimulus/viswhere_stim/dot_box.png,stimulus/viswhere_stim/dot_yes.png,stimulus/viswhere_stim/dot_no.png,None,Dot,None,Line,2,0.0,0,5.125,0,5.125,0,5.125,0,0.0,0.625,0,0.0,0,0.0,1,0.5,1,2.125,0,0.0,0,0.0,0,0.0,0,0.0,0,,,,,0,50,50,50,,,,,,,,,453.52763937501004,453.52763937501004,453.52763937501004,453.52763937501004,453.52763937501004,453.52763937501004,453.52763937501004,453.52763937501004,453.5059292493582,453.52763937501004,453.52763937501004,453.52763937501004,453.5059292493582,453.52763937501004,453.52763937501004,453.52763937501004,455.63836204100517,459.5875863750116,453.52763937501004,453.52763937501004,458.65062608302105,454.00305370800197,455.01191704100347,455.63836204100517,456.65190229102154,453.52763937501004,453.52763937501004,453.52259591602484,453.52763937501004,453.52763937501004,453.52763937501004,453.52259591602484,453.52763937501004,453.52763937501004,458.65062608302105,453.52763937501004,458.65062608302105,458.75215229101013,459.3827828330104,453.52763937501004,2,1,0.9533710829855409,reldom2_s023,001,2025-02-27_15h54.49.713,Where-B-Scan_AC,2022.2.5,None,
39,First_Order,7.0,viswhere,stimulus/viswhere_stim/blank_white.png,stimulus/viswhere_stim/blank_white.png,stimulus/viswhere_stim/60-deg_dot-right_salmon.png,stimulus/viswhere_stim/60-deg_dot-left_peru.png,stimulus/viswhere_stim/blank_white.png,stimulus/viswhere_stim/line_box.png,stimulus/viswhere_stim/line_yes.png,stimulus/viswhere_stim/line_no.png,None,Line,None,Line,1,0.0,0,5.125,0,5.125,0,5.125,0,0.0,0.625,0,0.0,0,0.0,1,0.5,1,2.125,0,0.0,0,0.0,0,0.0,0,0.0,0,,,,,0,51,51,51,,,,,,,,,459.5875863750116,459.5875863750116,459.5875863750116,459.5875863750116,459.5875863750116,459.5875863750116,459.5875863750116,459.5875863750116,459.5665298333527,459.5875863750116,459.5875863750116,459.5875863750116,459.5665298333527,459.5875863750116,459.5875863750116,459.5875863750116,461.6865527500049,465.6544250000152,459.5875863750116,459.5875863750116,464.7416764580121,460.06427479101694,461.0771276660089,461.6865527500049,462.70307650000905,459.5875863750116,459.5875863750116,459.58319650001937,459.5875863750116,459.5875863750116,459.5875863750116,459.58319650001937,459.5875863750116,459.5875863750116,464.7416764580121,459.5875863750116,464.7416764580121,464.8123520410154,465.4336107080162,459.5875863750116,1,1,0.8205106669920497,reldom2_s023,001,2025-02-27_15h54.49.713,Where-B-Scan_AC,2022.2.5,None,
40,First_Order,7.0,viswhere,stimulus/viswhere_stim/blank_white.png,stimulus/viswhere_stim/blank_white.png,stimulus/viswhere_stim/60-deg_dot-right_slateblue.png,stimulus/viswhere_stim/90-deg_dot-right_royalblue.png,stimulus/viswhere_stim/blank_white.png,stimulus/viswhere_stim/dot_box.png,stimulus/viswhere_stim/dot_yes.png,stimulus/viswhere_stim/dot_no.png,None,Dot,None,Dot,1,0.0,0,5.125,0,5.125,0,5.125,0,0.0,0.625,0,0.0,0,0.0,1,0.5,1,2.125,0,0.0,0,0.0,0,0.0,0,0.0,0,,,,,0,52,52,52,,,,,,,,,465.6544250000152,465.6544250000152,465.6544250000152,465.6544250000152,465.6544250000152,465.6544250000152,465.6544250000152,465.6544250000152,465.63394758334226,465.6544250000152,465.6544250000152,465.6544250000152,465.63394758334226,465.6544250000152,465.6544250000152,465.6544250000152,467.7568272500066,471.8002542910108,465.6544250000152,465.6544250000152,470.7833199160232,466.132257958001,467.1475884579995,467.7568272500066,468.7741154160176,465.6544250000152,465.6544250000152,465.6506142500089,465.6544250000152,465.6544250000152,465.6544250000152,465.6506142500089,465.6544250000152,465.6544250000152,470.7833199160232,465.6544250000152,470.7833199160232,470.88005708300625,471.50709679099964,465.6544250000152,1,1,1.1110316249541938,reldom2_s023,001,2025-02-27_15h54.49.713,Where-B-Scan_AC,2022.2.5,None,
0,0.0,None,fixation,stimulus/audwhere_stim/blank_white.png,stimulus/audwhere_stim/blank_white.png,stimulus/viswhere_stim/blank_white.png,stimulus/viswhere_stim/blank_white.png,stimulus/audwhere_stim/blank_white.png,stimulus/audwhere_stim/blank_white.png,stimulus/audwhere_stim/blank_white.png,stimulus/audwhere_stim/blank_white.png,0.0,0.0,0.0,0.0,0,0.0,0,0.0,0,0.0,0,0.0,0,0.0,0.0,0,0.0,0,0.0,0,0.0,0,0.0,0,0.0,0,0.0,0,0.0,0,0.0,8,,,,,0,53,53,53,,,,,,,,,471.8002542910108,471.8002542910108,471.8002542910108,471.8002542910108,471.8002542910108,471.8002542910108,471.8002542910108,471.8002542910108,471.70072483334417,471.8002542910108,471.8002542910108,471.8002542910108,471.70072483334417,471.8002542910108,471.8002542910108,471.8002542910108,471.8002542910108,471.8002542910108,471.8002542910108,471.8002542910108,471.8002542910108,471.8002542910108,471.8002542910108,471.8002542910108,471.8002542910108,471.8002542910108,471.8002542910108,471.7507248333442,471.8002542910108,471.8002542910108,471.8002542910108,471.7507248333442,471.8002542910108,471.8002542910108,471.8002542910108,471.8002542910108,471.8002542910108,476.99537395802327,476.99537395802327,479.95407895802055,None,0,,reldom2_s023,001,2025-02-27_15h54.49.713,Where-B-Scan_AC,2022.2.5,None,
41,Second_Order,7.0,viswhere,stimulus/viswhere_stim/60-deg_dot-right_seagreen.png,stimulus/viswhere_stim/30-deg_dot-right_mediumslateblue.png,stimulus/viswhere_stim/60-deg_dot-left_mediumslateblue.png,stimulus/viswhere_stim/150-deg_dot-left_salmon.png,stimulus/audwhere_stim/match_blank.png,stimulus/audwhere_stim/match_box.png,stimulus/audwhere_stim/match_yes.png,stimulus/audwhere_stim/match_no.png,1.0,Match,Dot,Dot,1,5.125,0,5.125,0,5.125,0,5.125,0,0.75,0.75,1,0.5,1,2.125,1,0.5,1,2.125,0,0.0,0,0.0,0,0.0,0,0.0,0,,,,,0,54,54,54,,,,,,,,,479.95407895802055,485.0771266660013,480.44562704101554,481.43453412500094,482.05375020802603,483.0510642500012,479.95407895802055,479.95407895802055,479.9684306243454,479.95407895802055,479.95407895802055,479.95407895802055,479.9684306243454,479.95407895802055,485.0771266660013,485.87091104101273,487.95467000000644,491.8399647080223,485.87091104101273,485.87091104101273,491.00948500001687,486.31670308302273,487.320060500002,487.95467000000644,488.96274570800597,485.87091104101273,485.87091104101273,485.8451129163518,485.87091104101273,485.87091104101273,485.87091104101273,485.8451129163518,485.87091104101273,485.87091104101273,491.00948500001687,485.87091104101273,491.00948500001687,491.06644145800965,491.8399647080223,485.87091104101273,2,0,1.6984696669969708,reldom2_s023,001,2025-02-27_15h54.49.713,Where-B-Scan_AC,2022.2.5,None,
42,Second_Order,7.0,viswhere,stimulus/viswhere_stim/90-deg_dot-right_goldenrod.png,stimulus/viswhere_stim/120-deg_dot-right_mediumslateblue.png,stimulus/viswhere_stim/60-deg_dot-right_peru.png,stimulus/viswhere_stim/60-deg_dot-left_mediumslateblue.png,stimulus/audwhere_stim/match_blank.png,stimulus/audwhere_stim/match_box.png,stimulus/audwhere_stim/match_yes.png,stimulus/audwhere_stim/match_no.png,2.0,Match,Dot,Line,2,5.125,0,5.125,0,5.125,0,5.125,0,0.625,0.625,1,0.5,1,2.125,1,0.5,1,2.125,0,0.0,0,0.0,0,0.0,0,0.0,0,,,,,0,55,55,55,,,,,,,,,491.8399647080223,496.9597324160277,492.3264318750007,493.32484400001704,493.94741137500387,494.9457420410181,491.8399647080223,491.8399647080223,491.8538891660108,491.8399647080223,491.8399647080223,491.8399647080223,491.8538891660108,491.8399647080223,496.9597324160277,497.6242974580091,499.7071297080256,503.7387434160046,497.6242974580091,497.6242974580091,502.75354270800017,498.08510812500026,499.0989312500169,499.7071297080256,500.72327837502235,497.6242974580091,497.6242974580091,497.6014386243555,497.6242974580091,497.6242974580091,497.6242974580091,497.6014386243555,497.6242974580091,497.6242974580091,502.75354270800017,497.6242974580091,502.75354270800017,502.82337970801746,503.4543723750103,497.6242974580091,2,1,2.5736760829749983,reldom2_s023,001,2025-02-27_15h54.49.713,Where-B-Scan_AC,2022.2.5,None,
0,0.0,None,fixation,stimulus/audwhere_stim/blank_white.png,stimulus/audwhere_stim/blank_white.png,stimulus/viswhere_stim/blank_white.png,stimulus/viswhere_stim/blank_white.png,stimulus/audwhere_stim/blank_white.png,stimulus/audwhere_stim/blank_white.png,stimulus/audwhere_stim/blank_white.png,stimulus/audwhere_stim/blank_white.png,0.0,0.0,0.0,0.0,0,0.0,0,0.0,0,0.0,0,0.0,0,0.0,0.0,0,0.0,0,0.0,0,0.0,0,0.0,0,0.0,0,0.0,0,0.0,0,0.0,8,,,,,0,56,56,56,,,,,,,,,503.7387434160046,503.7387434160046,503.7387434160046,503.7387434160046,503.7387434160046,503.7387434160046,503.7387434160046,503.7387434160046,503.6382805833612,503.7387434160046,503.7387434160046,503.7387434160046,503.6382805833612,503.7387434160046,503.7387434160046,503.7387434160046,503.7387434160046,503.7387434160046,503.7387434160046,503.7387434160046,503.7387434160046,503.7387434160046,503.7387434160046,503.7387434160046,503.7387434160046,503.7387434160046,503.7387434160046,503.68828058336123,503.7387434160046,503.7387434160046,503.7387434160046,503.68828058336123,503.7387434160046,503.7387434160046,503.7387434160046,503.7387434160046,503.7387434160046,508.96573212501244,508.96573212501244,511.925597916008,None,0,,reldom2_s023,001,2025-02-27_15h54.49.713,Where-B-Scan_AC,2022.2.5,None,
43,First_Order,8.0,viswhere,stimulus/viswhere_stim/blank_white.png,stimulus/viswhere_stim/blank_white.png,stimulus/viswhere_stim/120-deg_dot-left_lightsseagreen.png,stimulus/viswhere_stim/120-deg_dot-right_royalblue.png,stimulus/viswhere_stim/blank_white.png,stimulus/viswhere_stim/line_box.png,stimulus/viswhere_stim/line_yes.png,stimulus/viswhere_stim/line_no.png,None,Line,None,Line,1,0.0,0,5.125,0,5.125,0,5.125,0,0.0,0.625,0,0.0,0,0.0,1,0.5,1,2.125,0,0.0,0,0.0,0,0.0,0,0.0,0,,,,,0,57,57,57,,,,,,,,,511.925597916008,511.925597916008,511.925597916008,511.925597916008,511.925597916008,511.925597916008,511.925597916008,511.925597916008,511.90559708266903,511.925597916008,511.925597916008,511.925597916008,511.90559708266903,511.925597916008,511.925597916008,511.925597916008,514.024104333017,517.9820388750231,511.925597916008,511.925597916008,517.0481520410103,512.4028773750179,513.4154274160101,514.024104333017,515.0421947500145,511.925597916008,511.925597916008,511.92226374933574,511.925597916008,511.925597916008,511.925597916008,511.92226374933574,511.925597916008,511.925597916008,517.0481520410103,511.925597916008,517.0481520410103,517.1626206250221,517.7941214160237,511.925597916008,2,0,1.3036429999629036,reldom2_s023,001,2025-02-27_15h54.49.713,Where-B-Scan_AC,2022.2.5,None,
44,First_Order,8.0,viswhere,stimulus/viswhere_stim/blank_white.png,stimulus/viswhere_stim/blank_white.png,stimulus/viswhere_stim/60-deg_dot-right_peru.png,stimulus/viswhere_stim/90-deg_dot-right_turquoise.png,stimulus/viswhere_stim/blank_white.png,stimulus/viswhere_stim/dot_box.png,stimulus/viswhere_stim/dot_yes.png,stimulus/viswhere_stim/dot_no.png,None,Dot,None,Dot,1,0.0,0,5.125,0,5.125,0,5.125,0,0.0,0.625,0,0.0,0,0.0,1,0.5,1,2.125,0,0.0,0,0.0,0,0.0,0,0.0,0,,,,,0,58,58,58,,,,,,,,,517.9820388750231,517.9820388750231,517.9820388750231,517.9820388750231,517.9820388750231,517.9820388750231,517.9820388750231,517.9820388750231,517.9610077083538,517.9820388750231,517.9820388750231,517.9820388750231,517.9610077083538,517.9820388750231,517.9820388750231,517.9820388750231,520.0818832500081,524.049853708013,517.9820388750231,517.9820388750231,523.105301750009,518.4594349160034,519.4733212499996,520.0818832500081,521.099554666027,517.9820388750231,517.9820388750231,517.9776743750205,517.9820388750231,517.9820388750231,517.9820388750231,517.9776743750205,517.9820388750231,517.9820388750231,523.105301750009,517.9820388750231,523.105301750009,523.2009909160261,523.8320694160066,517.9820388750231,1,1,0.6179390829638578,reldom2_s023,001,2025-02-27_15h54.49.713,Where-B-Scan_AC,2022.2.5,None,
45,First_Order,8.0,viswhere,stimulus/viswhere_stim/blank_white.png,stimulus/viswhere_stim/blank_white.png,stimulus/viswhere_stim/150-deg_dot-right_lightsseagreen.png,stimulus/viswhere_stim/150-deg_dot-left_royalblue.png,stimulus/viswhere_stim/blank_white.png,stimulus/viswhere_stim/dot_box.png,stimulus/viswhere_stim/dot_yes.png,stimulus/viswhere_stim/dot_no.png,None,Dot,None,Line,2,0.0,0,5.125,0,5.125,0,5.125,0,0.0,0.625,0,0.0,0,0.0,1,0.5,1,2.125,0,0.0,0,0.0,0,0.0,0,0.0,0,,,,,0,59,59,59,,,,,,,,,524.049853708013,524.049853708013,524.049853708013,524.049853708013,524.049853708013,524.049853708013,524.049853708013,524.049853708013,524.0288193743521,524.049853708013,524.049853708013,524.049853708013,524.0288193743521,524.049853708013,524.049853708013,524.049853708013,526.1523636660131,530.1180960410275,524.049853708013,524.049853708013,529.1868255410227,524.5321190410177,525.5357099579996,526.1523636660131,527.1607534160139,524.049853708013,524.049853708013,524.0454860410188,524.049853708013,524.049853708013,524.049853708013,524.0454860410188,524.049853708013,524.049853708013,529.1868255410227,524.049853708013,529.1868255410227,529.2907879580162,529.9165539580281,524.049853708013,2,1,1.2359685829724185,reldom2_s023,001,2025-02-27_15h54.49.713,Where-B-Scan_AC,2022.2.5,None,
46,First_Order,8.0,viswhere,stimulus/viswhere_stim/blank_white.png,stimulus/viswhere_stim/blank_white.png,stimulus/viswhere_stim/30-deg_dot-left_salmon.png,stimulus/viswhere_stim/150-deg_dot-left_turquoise.png,stimulus/viswhere_stim/blank_white.png,stimulus/viswhere_stim/line_box.png,stimulus/viswhere_stim/line_yes.png,stimulus/viswhere_stim/line_no.png,None,Line,None,Dot,2,0.0,0,5.125,0,5.125,0,5.125,0,0.0,0.625,0,0.0,0,0.0,1,0.5,1,2.125,0,0.0,0,0.0,0,0.0,0,0.0,0,,,,,0,60,60,60,,,,,,,,,530.1180960410275,530.1180960410275,530.1180960410275,530.1180960410275,530.1180960410275,530.1180960410275,530.1180960410275,530.1180960410275,530.0968706243342,530.1180960410275,530.1180960410275,530.1180960410275,530.0968706243342,530.1180960410275,530.1180960410275,530.1180960410275,532.2353077080043,536.2634143330215,530.1180960410275,530.1180960410275,535.2459735000157,530.6003212500073,531.6020986660151,532.2353077080043,533.2425875410263,530.1180960410275,530.1180960410275,530.1135372910009,530.1180960410275,530.1180960410275,530.1180960410275,530.1135372910009,530.1180960410275,530.1180960410275,535.2459735000157,530.1180960410275,535.2459735000157,535.343195250025,535.9696795830096,530.1180960410275,2,1,1.384095916961087,reldom2_s023,001,2025-02-27_15h54.49.713,Where-B-Scan_AC,2022.2.5,None,
0,0.0,None,fixation,stimulus/audwhere_stim/blank_white.png,stimulus/audwhere_stim/blank_white.png,stimulus/viswhere_stim/blank_white.png,stimulus/viswhere_stim/blank_white.png,stimulus/audwhere_stim/blank_white.png,stimulus/audwhere_stim/blank_white.png,stimulus/audwhere_stim/blank_white.png,stimulus/audwhere_stim/blank_white.png,0.0,0.0,0.0,0.0,0,0.0,0,0.0,0,0.0,0,0.0,0,0.0,0.0,0,0.0,0,0.0,0,0.0,0,0.0,0,0.0,0,0.0,0,0.0,0,0.0,9,,,,,0,61,61,61,,,,,,,,,536.2634143330215,536.2634143330215,536.2634143330215,536.2634143330215,536.2634143330215,536.2634143330215,536.2634143330215,536.2634143330215,536.1641829583581,536.2634143330215,536.2634143330215,536.2634143330215,536.1641829583581,536.2634143330215,536.2634143330215,536.2634143330215,536.2634143330215,536.2634143330215,536.2634143330215,536.2634143330215,536.2634143330215,536.2634143330215,536.2634143330215,536.2634143330215,536.2634143330215,536.2634143330215,536.2634143330215,536.214182958358,536.2634143330215,536.2634143330215,536.2634143330215,536.214182958358,536.2634143330215,536.2634143330215,536.2634143330215,536.2634143330215,536.2634143330215,541.4667172910122,541.4667172910122,545.3915923750028,None,0,,reldom2_s023,001,2025-02-27_15h54.49.713,Where-B-Scan_AC,2022.2.5,None,
47,Second_Order,8.0,viswhere,stimulus/viswhere_stim/90-deg_dot-left_lightsseagreen.png,stimulus/viswhere_stim/120-deg_dot-left_royalblue.png,stimulus/viswhere_stim/30-deg_dot-right_mediumslateblue.png,stimulus/viswhere_stim/60-deg_dot-right_lightsseagreen.png,stimulus/audwhere_stim/match_blank.png,stimulus/audwhere_stim/match_box.png,stimulus/audwhere_stim/match_yes.png,stimulus/audwhere_stim/match_no.png,1.0,Match,Dot,Dot,1,5.125,0,5.125,0,5.125,0,5.125,0,0.75,0.75,1,0.5,1,2.125,1,0.5,1,2.125,0,0.0,0,0.0,0,0.0,0,0.0,0,,,,,0,62,62,62,,,,,,,,,545.3915923750028,550.512303416006,545.8653237080143,546.8525108330068,547.500443958008,548.5024352080072,545.3915923750028,545.3915923750028,545.4062918333531,545.3915923750028,545.3915923750028,545.3915923750028,545.4062918333531,545.3915923750028,550.512303416006,551.3055295000086,553.381202041026,557.2425862080127,551.3055295000086,551.3055295000086,556.4368116660044,551.7503505000204,552.7676011250005,553.381202041026,554.4006305000221,551.3055295000086,551.3055295000086,551.278992374348,551.3055295000086,551.3055295000086,551.3055295000086,551.278992374348,551.3055295000086,551.3055295000086,556.4368116660044,551.3055295000086,556.4368116660044,556.5062020830228,557.2791861250007,551.3055295000086,1,1,2.0063049999589566,reldom2_s023,001,2025-02-27_15h54.49.713,Where-B-Scan_AC,2022.2.5,None,
48,Second_Order,8.0,viswhere,stimulus/viswhere_stim/60-deg_dot-left_seagreen.png,stimulus/viswhere_stim/90-deg_dot-left_peru.png,stimulus/viswhere_stim/30-deg_dot-right_turquoise.png,stimulus/viswhere_stim/30-deg_dot-left_lightsseagreen.png,stimulus/audwhere_stim/match_blank.png,stimulus/audwhere_stim/match_box.png,stimulus/audwhere_stim/match_yes.png,stimulus/audwhere_stim/match_no.png,2.0,Match,Dot,Line,2,5.125,0,5.125,0,5.125,0,5.125,0,0.625,0.625,1,0.5,1,2.125,1,0.5,1,2.125,0,0.0,0,0.0,0,0.0,0,0.0,0,,,,,0,63,63,63,,,,,,,,,557.2791861250007,562.4013691250002,557.7609540000267,558.759501833003,559.3825531660113,560.3798556250113,557.2791861250007,557.2791861250007,557.2925862080126,557.2791861250007,557.2791861250007,557.2791861250007,557.2925862080126,557.2791861250007,562.4013691250002,563.0734665830096,565.1633911250101,569.1894310830103,563.0734665830096,563.0734665830096,568.1974079580104,563.5369798750035,564.549720916024,565.1633911250101,566.16601825002,563.0734665830096,563.0734665830096,563.0526784583421,563.0734665830096,563.0734665830096,563.0734665830096,563.0526784583421,563.0734665830096,563.0734665830096,568.1974079580104,563.0734665830096,568.1974079580104,568.280683000019,568.908930250007,563.0734665830096,2,1,0.6498404579760972,reldom2_s023,001,2025-02-27_15h54.49.713,Where-B-Scan_AC,2022.2.5,None,
0,0.0,None,fixation,stimulus/audwhere_stim/blank_white.png,stimulus/audwhere_stim/blank_white.png,stimulus/viswhere_stim/blank_white.png,stimulus/viswhere_stim/blank_white.png,stimulus/audwhere_stim/blank_white.png,stimulus/audwhere_stim/blank_white.png,stimulus/audwhere_stim/blank_white.png,stimulus/audwhere_stim/blank_white.png,0.0,0.0,0.0,0.0,0,0.0,0,0.0,0,0.0,0,0.0,0,0.0,0.0,0,0.0,0,0.0,0,0.0,0,0.0,0,0.0,0,0.0,0,0.0,0,0.0,16,,,,,0,64,64,64,,,,,,,,,569.1894310830103,569.1894310830103,569.1894310830103,569.1894310830103,569.1894310830103,569.1894310830103,569.1894310830103,569.1894310830103,569.0898383743382,569.1894310830103,569.1894310830103,569.1894310830103,569.0898383743382,569.1894310830103,569.1894310830103,569.1894310830103,569.1894310830103,569.1894310830103,569.1894310830103,569.1894310830103,569.1894310830103,569.1894310830103,569.1894310830103,569.1894310830103,569.1894310830103,569.1894310830103,569.1894310830103,569.1398383743382,569.1894310830103,569.1894310830103,569.1894310830103,569.1398383743382,569.1894310830103,569.1894310830103,569.1894310830103,569.1894310830103,569.1894310830103,574.3712713330169,574.3712713330169,585.3574167910265,None,0,,reldom2_s023,001,2025-02-27_15h54.49.713,Where-B-Scan_AC,2022.2.5,None,
