Trial,Order,Block,Type,Stimuli_File1,Stimuli_File2,Stimuli_File3,Stimuli_File4,Cue_File1,Cue_File2,Response_File_Yes,Response_File_No,Match,Cue_Dimension,Pair1_Dimension,Pair2_Dimension,Key,Cue1_Duration,Cue1_Onset,Cue2_Duration,Cue2_Onset,ResponseYes_Duration,ResponseYes_Onset,ResponseNo_Duration,ResponseNo_Onset,ITI_Within,ITI_Between,Image1_Duration,Image1_Onset,Image2_Duration,Image2_Onset,Image3_Duration,Image3_Onset,Image4_Duration,Image4_Onset,Sound1_Duration,Sound1_Onset,Sound2_Duration,Sound2_Onset,Sound3_Duration,Sound3_Onset,Sound4_Duration,Sound4_Onset,Fixation_Duration,trials_2.thisRepN,trials_2.thisTrialN,trials_2.thisN,trials_2.thisIndex,trials.thisRepN,trials.thisTrialN,trials.thisN,trials.thisIndex,text_start.started,key_resp_start.started,key_resp_start.keys,key_resp_start.rt,cue_file1.started,cue_file1.stopped,image_1.started,image_1.stopped,image_2.started,image_2.stopped,sound_icon1.started,sound_icon1.stopped,sound_1.started,sound_1.stopped,sound_icon2.started,sound_icon2.stopped,sound_2.started,sound_2.stopped,image_blank_1.started,image_blank_1.stopped,key_press.started,key_press.stopped,fixation_text.started,cue_file2.started,cue_file2.stopped,image_3.started,image_3.stopped,image_4.started,image_4.stopped,sound_icon3.started,sound_icon3.stopped,sound_3.started,sound_3.stopped,sound_icon4.started,sound_icon4.stopped,sound_4.started,sound_4.stopped,response_yes.started,response_yes.stopped,response_no.started,response_no.stopped,iti_blank.started,iti_blank.stopped,fixation_text.stopped,key_press.keys,key_press.corr,key_press.rt,text_score.started,participant,session,date,expName,psychopyVersion,frameRate,
,,,,,,,,,,,,,,,,,,,,,,,,,,,,,,,,,,,,,,,,,,,,,,,,,,,,18.595853750011884,18.595853750011884,2,3.978319000976626,,,,,,,,,,,,,,,,,,,,,,,,,,,,,,,,,,,,,,,,,,,,,reldom2_s023,001,2025-02-27_14h58.27.382,practice_test1_AC,2022.2.5,None,
,,,,,,,,,,,,,,,,,,,,,,,,,,,,,,,,,,,,,,,,,,,,0,0,0,0,,,,,,,,,,,,,,,,,,,,,,,,,,,,,,,,,,,,,,,,,,,,,,,,,,,,,reldom2_s023,001,2025-02-27_14h58.27.382,practice_test1_AC,2022.2.5,None,
,,,,,,,,,,,,,,,,,,,,,,,,,,,,,,,,,,,,,,,,,,,,1,0,1,0,,,,,,,,,,,,,,,,,,,,,,,,,,,,,,,,,,,,,,,,,,,,,,,,,,,,,reldom2_s023,001,2025-02-27_14h58.27.382,practice_test1_AC,2022.2.5,None,
,,,,,,,,,,,,,,,,,,,,,,,,,,,,,,,,,,,,,,,,,,,,2,0,2,0,,,,,,,,,,,,,,,,,,,,,,,,,,,,,,,,,,,,,,,,,,,,,,,,,,,,,reldom2_s023,001,2025-02-27_14h58.27.382,practice_test1_AC,2022.2.5,None,
,,,,,,,,,,,,,,,,,,,,,,,,,,,,,,,,,,,,,,,,,,,,3,0,3,0,,,,,,,,,,,,,,,,,,,,,,,,,,,,,,,,,,,,,,,,,,,,,,,,,,,,,reldom2_s023,001,2025-02-27_14h58.27.382,practice_test1_AC,2022.2.5,None,
0,0.0,None,fixation,stimulus/viswhere_stim/blank_white.png,stimulus/viswhere_stim/blank_white.png,stimulus/audwhere_stim/blank_white.png,stimulus/audwhere_stim/blank_white.png,stimulus/viswhere_stim/blank_white.png,stimulus/viswhere_stim/blank_white.png,stimulus/viswhere_stim/blank_white.png,stimulus/viswhere_stim/blank_white.png,0.0,0.0,0.0,0.0,0,0.0,0,0.0,0,0.0,0,0.0,0,0.0,0.0,0,0.0,0,0.0,0,0.0,0,0.0,0,0.0,0,0.0,0,0.0,0,0.0,6,,,,,0,0,0,0,,,,,22.817549291008618,22.817549291008618,22.817549291008618,22.817549291008618,22.817549291008618,22.817549291008618,22.817549291008618,22.817549291008618,22.71538566632274,22.817549291008618,22.817549291008618,22.817549291008618,22.71538566632274,22.817549291008618,22.817549291008618,22.817549291008618,22.817549291008618,22.817549291008618,22.817549291008618,22.817549291008618,22.817549291008618,22.817549291008618,22.817549291008618,22.817549291008618,22.817549291008618,22.817549291008618,22.817549291008618,22.76538566632274,22.817549291008618,22.817549291008618,22.817549291008618,22.76538566632274,22.817549291008618,22.817549291008618,22.817549291008618,22.817549291008618,22.817549291008618,28.03367029101355,28.03367029101355,29.026153125043493,None,0,,,reldom2_s023,001,2025-02-27_14h58.27.382,practice_test1_AC,2022.2.5,None,
1,First_Order,1.0,viswhere,stimulus/viswhere_stim/blank_white.png,stimulus/viswhere_stim/blank_white.png,stimulus/viswhere_stim/90-deg_dot-right_peru.png,stimulus/viswhere_stim/120-deg_dot-right_slateblue.png,stimulus/viswhere_stim/blank_white.png,stimulus/viswhere_stim/dot_box.png,stimulus/viswhere_stim/dot_yes.png,stimulus/viswhere_stim/dot_no.png,None,Dot,None,Dot,1,0.0,0,5.25,0,5.25,0,5.25,0,0.0,0.75,0,0.0,0,0.0,1,0.5,1,2.125,0,0.0,0,0.0,0,0.0,0,0.0,0,,,,,0,1,1,1,,,,,29.026153125043493,29.026153125043493,29.026153125043493,29.026153125043493,29.026153125043493,29.026153125043493,29.026153125043493,29.026153125043493,28.99450954099884,29.026153125043493,29.026153125043493,29.026153125043493,28.99450954099884,29.026153125043493,29.026153125043493,29.026153125043493,31.123681458004285,35.00017262500478,29.026153125043493,29.026153125043493,34.27811870799633,29.50167304102797,30.520652291015722,31.123681458004285,32.144358541001566,29.026153125043493,29.026153125043493,29.011176207665507,29.026153125043493,29.026153125043493,29.026153125043493,29.011176207665507,29.026153125043493,29.026153125043493,34.27811870799633,29.026153125043493,34.27811870799633,34.26119633304188,35.10893233300885,29.026153125043493,1,1,1.073654167004861,,reldom2_s023,001,2025-02-27_14h58.27.382,practice_test1_AC,2022.2.5,None,
2,First_Order,1.0,viswhere,stimulus/viswhere_stim/blank_white.png,stimulus/viswhere_stim/blank_white.png,stimulus/viswhere_stim/30-deg_dot-right_turquoise.png,stimulus/viswhere_stim/60-deg_dot-right_seagreen.png,stimulus/viswhere_stim/blank_white.png,stimulus/viswhere_stim/line_box.png,stimulus/viswhere_stim/line_yes.png,stimulus/viswhere_stim/line_no.png,None,Line,None,Dot,2,0.0,0,5.25,0,5.25,0,5.25,0,0.0,0.75,0,0.0,0,0.0,1,0.5,1,2.125,0,0.0,0,0.0,0,0.0,0,0.0,0,,,,,0,2,2,2,,,,,35.10893233300885,35.10893233300885,35.10893233300885,35.10893233300885,35.10893233300885,35.10893233300885,35.10893233300885,35.10893233300885,35.083505958338115,35.10893233300885,35.10893233300885,35.10893233300885,35.083505958338115,35.10893233300885,35.10893233300885,35.10893233300885,37.21600637503434,41.08369420800591,35.10893233300885,35.10893233300885,40.36160208302317,35.58382579102181,36.60713216604199,37.21600637503434,38.2435423330171,35.10893233300885,35.10893233300885,35.10017262500478,35.10893233300885,35.10893233300885,35.10893233300885,35.10017262500478,35.10893233300885,35.10893233300885,40.36160208302317,35.10893233300885,40.36160208302317,40.34535895800218,41.1925702909939,35.10893233300885,2,1,0.9709267089492641,,reldom2_s023,001,2025-02-27_14h58.27.382,practice_test1_AC,2022.2.5,None,
3,First_Order,1.0,viswhere,stimulus/viswhere_stim/blank_white.png,stimulus/viswhere_stim/blank_white.png,stimulus/viswhere_stim/120-deg_dot-left_goldenrod.png,stimulus/viswhere_stim/90-deg_dot-left_seagreen.png,stimulus/viswhere_stim/blank_white.png,stimulus/viswhere_stim/line_box.png,stimulus/viswhere_stim/line_yes.png,stimulus/viswhere_stim/line_no.png,None,Line,None,Dot,2,0.0,0,5.25,0,5.25,0,5.25,0,0.0,0.75,0,0.0,0,0.0,1,0.5,1,2.125,0,0.0,0,0.0,0,0.0,0,0.0,0,,,,,0,3,3,3,,,,,41.1925702909939,41.1925702909939,41.1925702909939,41.1925702909939,41.1925702909939,41.1925702909939,41.1925702909939,41.1925702909939,41.167027541339245,41.1925702909939,41.1925702909939,41.1925702909939,41.167027541339245,41.1925702909939,41.1925702909939,41.1925702909939,43.296343708003405,47.16667045804206,41.1925702909939,41.1925702909939,46.45274325000355,41.666506250039674,42.68776008300483,43.296343708003405,44.30442512501031,41.1925702909939,41.1925702909939,41.18369420800591,41.1925702909939,41.1925702909939,41.1925702909939,41.18369420800591,41.1925702909939,41.1925702909939,46.45274325000355,41.1925702909939,46.45274325000355,46.436403000028804,47.292615958023816,41.1925702909939,2,1,0.9575819169986062,,reldom2_s023,001,2025-02-27_14h58.27.382,practice_test1_AC,2022.2.5,None,
4,First_Order,1.0,viswhere,stimulus/viswhere_stim/blank_white.png,stimulus/viswhere_stim/blank_white.png,stimulus/viswhere_stim/150-deg_dot-right_royalblue.png,stimulus/viswhere_stim/150-deg_dot-left_slateblue.png,stimulus/viswhere_stim/blank_white.png,stimulus/viswhere_stim/dot_box.png,stimulus/viswhere_stim/dot_yes.png,stimulus/viswhere_stim/dot_no.png,None,Dot,None,Line,2,0.0,0,5.25,0,5.25,0,5.25,0,0.0,0.75,0,0.0,0,0.0,1,0.5,1,2.125,0,0.0,0,0.0,0,0.0,0,0.0,0,,,,,0,4,4,4,,,,,47.292615958023816,47.292615958023816,47.292615958023816,47.292615958023816,47.292615958023816,47.292615958023816,47.292615958023816,47.292615958023816,47.266744791374855,47.292615958023816,47.292615958023816,47.292615958023816,47.266744791374855,47.292615958023816,47.292615958023816,47.292615958023816,49.40392629103735,53.442379874992184,47.292615958023816,47.292615958023816,52.56025949999457,47.7744135830435,48.7871388749918,49.40392629103735,50.41732091602171,47.292615958023816,47.292615958023816,47.28341145804152,47.292615958023816,47.292615958023816,47.292615958023816,47.28341145804152,47.292615958023816,47.292615958023816,52.56025949999457,47.292615958023816,52.56025949999457,52.52092729101423,53.442379874992184,47.292615958023816,2,1,1.4516387920011766,,reldom2_s023,001,2025-02-27_14h58.27.382,practice_test1_AC,2022.2.5,None,
0,0.0,None,fixation,stimulus/viswhere_stim/blank_white.png,stimulus/viswhere_stim/blank_white.png,stimulus/audwhere_stim/blank_white.png,stimulus/audwhere_stim/blank_white.png,stimulus/viswhere_stim/blank_white.png,stimulus/viswhere_stim/blank_white.png,stimulus/viswhere_stim/blank_white.png,stimulus/viswhere_stim/blank_white.png,0.0,0.0,0.0,0.0,0,0.0,0,0.0,0,0.0,0,0.0,0,0.0,0.0,0,0.0,0,0.0,0,0.0,0,0.0,0,0.0,0,0.0,0,0.0,0,0.0,5,,,,,0,5,5,5,,,,,53.442379874992184,53.442379874992184,53.442379874992184,53.442379874992184,53.442379874992184,53.442379874992184,53.442379874992184,53.442379874992184,53.338240666334364,53.442379874992184,53.442379874992184,53.442379874992184,53.338240666334364,53.442379874992184,53.442379874992184,53.442379874992184,53.442379874992184,53.442379874992184,53.442379874992184,53.442379874992184,53.442379874992184,53.442379874992184,53.442379874992184,53.442379874992184,53.442379874992184,53.442379874992184,53.442379874992184,53.38824066633436,53.442379874992184,53.442379874992184,53.442379874992184,53.38824066633436,53.442379874992184,53.442379874992184,53.442379874992184,53.442379874992184,53.442379874992184,58.710600916005205,58.710600916005205,58.53151000000071,None,0,,,reldom2_s023,001,2025-02-27_14h58.27.382,practice_test1_AC,2022.2.5,None,
5,Second_Order,1.0,viswhere,stimulus/viswhere_stim/150-deg_dot-right_slateblue.png,stimulus/viswhere_stim/150-deg_dot-left_turquoise.png,stimulus/viswhere_stim/90-deg_dot-left_mediumslateblue.png,stimulus/viswhere_stim/90-deg_dot-right_peru.png,stimulus/viswhere_stim/match_blank.png,stimulus/viswhere_stim/match_box.png,stimulus/viswhere_stim/match_yes.png,stimulus/viswhere_stim/match_no.png,1.0,Match,Line,Line,1,5.25,0,5.25,0,5.25,0,5.25,0,0.75,0.75,1,0.5,1,2.125,1,0.5,1,2.125,0,0.0,0,0.0,0,0.0,0,0.0,0,,,,,0,6,6,6,,,,,58.710600916005205,63.955624583002646,59.18977145804092,60.181570833025035,60.814787333016284,61.80595212499611,58.710600916005205,58.710600916005205,58.720849916369964,58.710600916005205,58.710600916005205,58.710600916005205,58.720849916369964,58.710600916005205,63.955624583002646,64.75364075001562,66.83318833302474,70.7007939160103,64.75364075001562,64.75364075001562,70.00529158301651,65.21534070803318,66.22155658301199,66.83318833302474,67.85627041599946,64.75364075001562,64.75364075001562,64.73868437502533,64.75364075001562,64.75364075001562,64.75364075001562,64.73868437502533,64.75364075001562,64.75364075001562,70.00529158301651,64.75364075001562,70.00529158301651,69.96619258302962,70.74100362503668,64.75364075001562,1,1,2.106188250007108,,reldom2_s023,001,2025-02-27_14h58.27.382,practice_test1_AC,2022.2.5,None,
6,Second_Order,1.0,viswhere,stimulus/viswhere_stim/150-deg_dot-right_mediumslateblue.png,stimulus/viswhere_stim/30-deg_dot-right_salmon.png,stimulus/viswhere_stim/120-deg_dot-right_royalblue.png,stimulus/viswhere_stim/120-deg_dot-left_salmon.png,stimulus/viswhere_stim/match_blank.png,stimulus/viswhere_stim/match_box.png,stimulus/viswhere_stim/match_yes.png,stimulus/viswhere_stim/match_no.png,2.0,Match,Dot,Line,2,5.25,0,5.25,0,5.25,0,5.25,0,0.75,0.75,1,0.5,1,2.125,1,0.5,1,2.125,0,0.0,0,0.0,0,0.0,0,0.0,0,,,,,0,7,7,7,,,,,70.74100362503668,75.99054750002688,71.22244533302728,72.2147356250207,72.84883704100503,73.8398713330389,70.74100362503668,70.74100362503668,70.7507939160103,70.74100362503668,70.74100362503668,70.74100362503668,70.7507939160103,70.74100362503668,75.99054750002688,76.79514241602737,78.86638620804297,82.74570637498982,76.79514241602737,76.79514241602737,82.06504541600589,77.25529762502993,78.27925345802214,78.86638620804297,79.88898141600657,76.79514241602737,76.79514241602737,76.76539445832216,76.79514241602737,76.79514241602737,76.79514241602737,76.76539445832216,76.79514241602737,76.79514241602737,82.06504541600589,76.79514241602737,82.06504541600589,81.99768095801119,82.94735349999974,76.79514241602737,2,1,1.0971837500110269,,reldom2_s023,001,2025-02-27_14h58.27.382,practice_test1_AC,2022.2.5,None,
0,0.0,None,fixation,stimulus/viswhere_stim/blank_white.png,stimulus/viswhere_stim/blank_white.png,stimulus/audwhere_stim/blank_white.png,stimulus/audwhere_stim/blank_white.png,stimulus/viswhere_stim/blank_white.png,stimulus/viswhere_stim/blank_white.png,stimulus/viswhere_stim/blank_white.png,stimulus/viswhere_stim/blank_white.png,0.0,0.0,0.0,0.0,0,0.0,0,0.0,0,0.0,0,0.0,0,0.0,0.0,0,0.0,0,0.0,0,0.0,0,0.0,0,0.0,0,0.0,0,0.0,0,0.0,7,,,,,0,8,8,8,,,,,82.94735349999974,82.94735349999974,82.94735349999974,82.94735349999974,82.94735349999974,82.94735349999974,82.94735349999974,82.94735349999974,82.84570637498982,82.94735349999974,82.94735349999974,82.94735349999974,82.84570637498982,82.94735349999974,82.94735349999974,82.94735349999974,82.94735349999974,82.94735349999974,82.94735349999974,82.94735349999974,82.94735349999974,82.94735349999974,82.94735349999974,82.94735349999974,82.94735349999974,82.94735349999974,82.94735349999974,82.89570637498983,82.94735349999974,82.94735349999974,82.94735349999974,82.89570637498983,82.94735349999974,82.94735349999974,82.94735349999974,82.94735349999974,82.94735349999974,88.16014700004598,88.16014700004598,90.22486054099863,None,0,,,reldom2_s023,001,2025-02-27_14h58.27.382,practice_test1_AC,2022.2.5,None,
7,First_Order,2.0,audwhere,stimulus/audwhere_stim/dummy.wav,stimulus/audwhere_stim/dummy.wav,stimulus/audwhere_stim/left_toward_270h.wav,stimulus/audwhere_stim/right_toward_270h.wav,stimulus/audwhere_stim/blank_white.png,stimulus/audwhere_stim/direction_box.png,stimulus/audwhere_stim/direction_yes.png,stimulus/audwhere_stim/direction_no.png,None,Direction,None,Direction,1,0.0,0,5.25,0,5.25,0,5.25,0,0.0,0.75,0,0.0,0,0.0,0,0.0,0,0.0,0,0.0,0,0.0,1,0.5,1,2.125,0,,,,,0,9,9,9,,,,,90.22486054099863,90.22486054099863,90.22486054099863,90.22486054099863,90.22486054099863,90.22486054099863,90.22486054099863,90.22486054099863,90.14232679169315,90.22486054099863,90.22486054099863,90.22486054099863,90.14232679169315,90.22486054099863,90.22486054099863,90.22486054099863,92.33506212499924,96.17349304101663,90.22486054099863,90.22486054099863,95.52548216603464,90.22486054099863,90.22486054099863,90.22486054099863,90.22486054099863,90.6793317500269,91.73502925003413,90.64538541669414,,92.33506212499924,93.39479670801666,92.30153454171183,,90.22486054099863,95.52548216603464,90.22486054099863,95.52548216603464,95.42405108304229,96.39778275002027,90.22486054099863,1,1,2.163959541998338,,reldom2_s023,001,2025-02-27_14h58.27.382,practice_test1_AC,2022.2.5,None,
8,First_Order,2.0,audwhere,stimulus/audwhere_stim/dummy.wav,stimulus/audwhere_stim/dummy.wav,stimulus/audwhere_stim/right_away_280h.wav,stimulus/audwhere_stim/right_toward_290h.wav,stimulus/audwhere_stim/blank_white.png,stimulus/audwhere_stim/side_box.png,stimulus/audwhere_stim/side_yes.png,stimulus/audwhere_stim/side_no.png,None,Side,None,Side,1,0.0,0,5.25,0,5.25,0,5.25,0,0.0,0.75,0,0.0,0,0.0,0,0.0,0,0.0,0,0.0,0,0.0,1,0.5,1,2.125,0,,,,,0,10,10,10,,,,,96.39778275002027,96.39778275002027,96.39778275002027,96.39778275002027,96.39778275002027,96.39778275002027,96.39778275002027,96.39778275002027,96.30682637434995,96.39778275002027,96.39778275002027,96.39778275002027,96.30682637434995,96.39778275002027,96.39778275002027,96.39778275002027,98.5000002910383,102.36581658304203,96.39778275002027,96.39778275002027,101.70352258300409,96.39778275002027,96.39778275002027,96.39778275002027,96.39778275002027,96.8502246250282,97.8997795410105,96.81655866670577,97.8498563329922,98.5000002910383,99.54978137504077,98.46600529167723,,96.39778275002027,101.70352258300409,96.39778275002027,101.70352258300409,101.60943833302008,102.58646916603902,96.39778275002027,1,1,1.6559737920179032,,reldom2_s023,001,2025-02-27_14h58.27.382,practice_test1_AC,2022.2.5,None,
9,First_Order,2.0,audwhere,stimulus/audwhere_stim/dummy.wav,stimulus/audwhere_stim/dummy.wav,stimulus/audwhere_stim/right_away_270h.wav,stimulus/audwhere_stim/right_toward_300h.wav,stimulus/audwhere_stim/blank_white.png,stimulus/audwhere_stim/side_box.png,stimulus/audwhere_stim/side_yes.png,stimulus/audwhere_stim/side_no.png,None,Side,None,Side,1,0.0,0,5.25,0,5.25,0,5.25,0,0.0,0.75,0,0.0,0,0.0,0,0.0,0,0.0,0,0.0,0,0.0,1,0.5,1,2.125,0,,,,,0,11,11,11,,,,,102.58646916603902,102.58646916603902,102.58646916603902,102.58646916603902,102.58646916603902,102.58646916603902,102.58646916603902,102.58646916603902,102.49914991637536,102.58646916603902,102.58646916603902,102.58646916603902,102.49914991637536,102.58646916603902,102.58646916603902,102.58646916603902,104.6890062080347,108.5571115410421,102.58646916603902,102.58646916603902,107.89479400002165,102.58646916603902,102.58646916603902,102.58646916603902,102.58646916603902,103.03670245799003,104.08875666599488,103.00318570767219,,104.6890062080347,105.74860995804192,104.65533291671115,,102.58646916603902,107.89479400002165,102.58646916603902,107.89479400002165,107.80083170800935,108.77737424999941,102.58646916603902,1,1,1.1842533329618163,,reldom2_s023,001,2025-02-27_14h58.27.382,practice_test1_AC,2022.2.5,None,
10,First_Order,2.0,audwhere,stimulus/audwhere_stim/dummy.wav,stimulus/audwhere_stim/dummy.wav,stimulus/audwhere_stim/right_toward_300h.wav,stimulus/audwhere_stim/right_away_290h.wav,stimulus/audwhere_stim/blank_white.png,stimulus/audwhere_stim/direction_box.png,stimulus/audwhere_stim/direction_yes.png,stimulus/audwhere_stim/direction_no.png,None,Direction,None,Side,2,0.0,0,5.25,0,5.25,0,5.25,0,0.0,0.75,0,0.0,0,0.0,0,0.0,0,0.0,0,0.0,0,0.0,1,0.5,1,2.125,0,,,,,0,12,12,12,,,,,108.77737424999941,108.77737424999941,108.77737424999941,108.77737424999941,108.77737424999941,108.77737424999941,108.77737424999941,108.77737424999941,108.69044487437543,108.77737424999941,108.77737424999941,108.77737424999941,108.69044487437543,108.77737424999941,108.77737424999941,108.77737424999941,110.89534195803571,114.73127824999392,108.77737424999941,108.77737424999941,114.07132862502476,108.77737424999941,108.77737424999941,108.77737424999941,108.77737424999941,109.23325325001497,110.2922918330296,109.19972208270725,,110.89534195803571,111.95749500003876,110.86138854170373,,108.77737424999941,114.07132862502476,108.77737424999941,114.07132862502476,113.97697420802433,114.9708980830037,108.77737424999941,2,1,1.964444666984491,,reldom2_s023,001,2025-02-27_14h58.27.382,practice_test1_AC,2022.2.5,None,
0,0.0,None,fixation,stimulus/viswhere_stim/blank_white.png,stimulus/viswhere_stim/blank_white.png,stimulus/audwhere_stim/blank_white.png,stimulus/audwhere_stim/blank_white.png,stimulus/viswhere_stim/blank_white.png,stimulus/viswhere_stim/blank_white.png,stimulus/viswhere_stim/blank_white.png,stimulus/viswhere_stim/blank_white.png,0.0,0.0,0.0,0.0,0,0.0,0,0.0,0,0.0,0,0.0,0,0.0,0.0,0,0.0,0,0.0,0,0.0,0,0.0,0,0.0,0,0.0,0,0.0,0,0.0,5,,,,,0,13,13,13,,,,,114.9708980830037,114.9708980830037,114.9708980830037,114.9708980830037,114.9708980830037,114.9708980830037,114.9708980830037,114.9708980830037,114.86461158332725,114.9708980830037,114.9708980830037,114.9708980830037,114.86461158332725,114.9708980830037,114.9708980830037,114.9708980830037,114.9708980830037,114.9708980830037,114.9708980830037,114.9708980830037,114.9708980830037,114.9708980830037,114.9708980830037,114.9708980830037,114.9708980830037,114.9708980830037,114.9708980830037,114.91461158332726,114.9708980830037,114.9708980830037,114.9708980830037,114.91461158332726,114.9708980830037,114.9708980830037,114.9708980830037,114.9708980830037,114.9708980830037,120.26149362500291,120.26149362500291,120.0550040830276,None,0,,,reldom2_s023,001,2025-02-27_14h58.27.382,practice_test1_AC,2022.2.5,None,
11,Second_Order,2.0,audwhere,stimulus/audwhere_stim/right_toward_270h.wav,stimulus/audwhere_stim/left_toward_290h.wav,stimulus/audwhere_stim/left_away_270h.wav,stimulus/audwhere_stim/left_toward_290h.wav,stimulus/viswhere_stim/match_blank.png,stimulus/viswhere_stim/match_box.png,stimulus/viswhere_stim/match_yes.png,stimulus/viswhere_stim/match_no.png,2.0,Match,Direction,Side,2,5.25,0,5.25,0,5.25,0,5.25,0,0.75,0.75,0,0.0,0,0.0,0,0.0,0,0.0,1,0.5,1,2.125,1,0.5,1,2.125,0,,,,,0,14,14,14,,,,,120.26149362500291,125.50734441599343,120.26149362500291,120.26149362500291,120.26149362500291,120.26149362500291,120.70658258302137,121.69670387502993,120.71514762466929,,122.33142920804676,123.33200112503255,122.33937470766638,,125.50734441599343,126.375378250028,128.42601120803738,132.27599254099187,126.375378250028,126.375378250028,131.66053637501318,126.375378250028,126.375378250028,126.375378250028,126.375378250028,126.82664716604631,127.87601920799352,126.79305070767101,127.82629695802461,128.42601120803738,129.50825470802374,128.39254954166634,,126.375378250028,131.66053637501318,126.375378250028,131.66053637501318,131.56661316601094,132.442550458014,126.375378250028,2,1,1.5886160419904627,,reldom2_s023,001,2025-02-27_14h58.27.382,practice_test1_AC,2022.2.5,None,
12,Second_Order,2.0,audwhere,stimulus/audwhere_stim/left_toward_270h.wav,stimulus/audwhere_stim/right_toward_300h.wav,stimulus/audwhere_stim/right_toward_300h.wav,stimulus/audwhere_stim/right_away_270h.wav,stimulus/viswhere_stim/match_blank.png,stimulus/viswhere_stim/match_box.png,stimulus/viswhere_stim/match_yes.png,stimulus/viswhere_stim/match_no.png,2.0,Match,Direction,Side,2,5.25,0,5.25,0,5.25,0,5.25,0,0.75,0.75,0,0.0,0,0.0,0,0.0,0,0.0,1,0.5,1,2.125,1,0.5,1,2.125,0,,,,,0,15,15,15,,,,,132.442550458014,137.69046641601017,132.442550458014,132.442550458014,132.442550458014,132.442550458014,132.88950204104185,133.880469500029,132.8984620416925,,134.52380279102363,135.5209177910001,134.53187899967114,,137.69046641601017,138.5534754160326,140.60015779099194,144.46449012501398,138.5534754160326,138.5534754160326,143.8502517080051,138.5534754160326,138.5534754160326,138.5534754160326,138.5534754160326,138.99927916598972,140.04951099999016,138.96622916666482,,140.60015779099194,141.64938712504227,140.56619712466298,141.5995012500207,138.5534754160326,143.8502517080051,138.5534754160326,143.8502517080051,143.75619562499924,144.74719495803583,138.5534754160326,2,1,1.5842162920162082,,reldom2_s023,001,2025-02-27_14h58.27.382,practice_test1_AC,2022.2.5,None,
0,0.0,None,fixation,stimulus/viswhere_stim/blank_white.png,stimulus/viswhere_stim/blank_white.png,stimulus/audwhere_stim/blank_white.png,stimulus/audwhere_stim/blank_white.png,stimulus/viswhere_stim/blank_white.png,stimulus/viswhere_stim/blank_white.png,stimulus/viswhere_stim/blank_white.png,stimulus/viswhere_stim/blank_white.png,0.0,0.0,0.0,0.0,0,0.0,0,0.0,0,0.0,0,0.0,0,0.0,0.0,0,0.0,0,0.0,0,0.0,0,0.0,0,0.0,0,0.0,0,0.0,0,0.0,5,,,,,0,16,16,16,,,,,144.74719495803583,144.74719495803583,144.74719495803583,144.74719495803583,144.74719495803583,144.74719495803583,144.74719495803583,144.74719495803583,144.64131774936882,144.74719495803583,144.74719495803583,144.74719495803583,144.64131774936882,144.74719495803583,144.74719495803583,144.74719495803583,144.74719495803583,144.74719495803583,144.74719495803583,144.74719495803583,144.74719495803583,144.74719495803583,144.74719495803583,144.74719495803583,144.74719495803583,144.74719495803583,144.74719495803583,144.6913177493688,144.74719495803583,144.74719495803583,144.74719495803583,144.6913177493688,144.74719495803583,144.74719495803583,144.74719495803583,144.74719495803583,144.74719495803583,150.07964845799142,150.07964845799142,149.82054529100424,None,0,,,reldom2_s023,001,2025-02-27_14h58.27.382,practice_test1_AC,2022.2.5,None,
13,First_Order,3.0,viswhat,stimulus/viswhat_stim/blank_white.png,stimulus/viswhat_stim/blank_white.png,stimulus/viswhat_stim/land_animal-ostrich.png,stimulus/viswhat_stim/land_vehicle-trolley.png,stimulus/viswhat_stim/blank_white.png,stimulus/viswhat_stim/location_box.png,stimulus/viswhat_stim/location_yes.png,stimulus/viswhat_stim/location_no.png,None,Location,None,Location,1,0.0,0,5.25,0,5.25,0,5.25,0,0.0,0.75,0,0.0,0,0.0,1,0.5,1,2.125,0,0.0,0,0.0,0,0.0,0,0.0,0,,,,,0,17,17,17,,,,,150.07964845799142,150.07964845799142,150.07964845799142,150.07964845799142,150.07964845799142,150.07964845799142,150.07964845799142,150.07964845799142,150.04325824968208,150.07964845799142,150.07964845799142,150.07964845799142,150.04325824968208,150.07964845799142,150.07964845799142,150.07964845799142,152.171550708008,156.2460311659961,150.07964845799142,150.07964845799142,155.34395875001792,150.55466925003566,151.58951166603947,152.171550708008,153.2098917500116,150.07964845799142,150.07964845799142,150.05992491634873,150.07964845799142,150.07964845799142,150.07964845799142,150.05992491634873,150.07964845799142,150.07964845799142,155.34395875001792,150.07964845799142,155.34395875001792,155.29431316599948,156.2460311659961,150.07964845799142,1,1,1.6701859169988893,,reldom2_s023,001,2025-02-27_14h58.27.382,practice_test1_AC,2022.2.5,None,
14,First_Order,3.0,viswhat,stimulus/viswhat_stim/blank_white.png,stimulus/viswhat_stim/blank_white.png,stimulus/viswhat_stim/water_vehicle-cruiser.png,stimulus/viswhat_stim/water_animal-stingray.png,stimulus/viswhat_stim/blank_white.png,stimulus/viswhat_stim/location_box.png,stimulus/viswhat_stim/location_yes.png,stimulus/viswhat_stim/location_no.png,None,Location,None,Location,1,0.0,0,5.25,0,5.25,0,5.25,0,0.0,0.75,0,0.0,0,0.0,1,0.5,1,2.125,0,0.0,0,0.0,0,0.0,0,0.0,0,,,,,0,18,18,18,,,,,156.2460311659961,156.2460311659961,156.2460311659961,156.2460311659961,156.2460311659961,156.2460311659961,156.2460311659961,156.2460311659961,156.12753241604662,156.2460311659961,156.2460311659961,156.2460311659961,156.12753241604662,156.2460311659961,156.2460311659961,156.2460311659961,158.3436126250308,162.20979975000955,156.2460311659961,156.2460311659961,161.59596591599984,156.72001537500182,157.8046921250061,158.3436126250308,159.43035079102265,156.2460311659961,156.2460311659961,156.1775324160466,156.2460311659961,156.2460311659961,156.2460311659961,156.1775324160466,156.2460311659961,156.2460311659961,161.59596591599984,156.2460311659961,161.59596591599984,161.4629573750426,162.43865370802814,156.2460311659961,1,1,0.91310283401981,,reldom2_s023,001,2025-02-27_14h58.27.382,practice_test1_AC,2022.2.5,None,
15,First_Order,3.0,viswhat,stimulus/viswhat_stim/blank_white.png,stimulus/viswhat_stim/blank_white.png,stimulus/viswhat_stim/water_vehicle-cargoboat.png,stimulus/viswhat_stim/water_animal-squid.png,stimulus/viswhat_stim/blank_white.png,stimulus/viswhat_stim/type_box.png,stimulus/viswhat_stim/type_yes.png,stimulus/viswhat_stim/type_no.png,None,Type,None,Location,2,0.0,0,5.25,0,5.25,0,5.25,0,0.0,0.75,0,0.0,0,0.0,1,0.5,1,2.125,0,0.0,0,0.0,0,0.0,0,0.0,0,,,,,0,19,19,19,,,,,162.43865370802814,162.43865370802814,162.43865370802814,162.43865370802814,162.43865370802814,162.43865370802814,162.43865370802814,162.43865370802814,162.37646641667624,162.43865370802814,162.43865370802814,162.43865370802814,162.37646641667624,162.43865370802814,162.43865370802814,162.43865370802814,164.55014458304504,168.41142395802308,162.43865370802814,162.43865370802814,167.72333037503995,162.92144254100276,163.96431987499818,164.55014458304504,165.59082195803057,162.43865370802814,162.43865370802814,162.40979975000957,162.43865370802814,162.43865370802814,162.43865370802814,162.40979975000957,162.43865370802814,162.43865370802814,167.72333037503995,162.43865370802814,167.72333037503995,167.6590077910223,168.57792650000192,162.43865370802814,2,1,1.1668408330297098,,reldom2_s023,001,2025-02-27_14h58.27.382,practice_test1_AC,2022.2.5,None,
16,First_Order,3.0,viswhat,stimulus/viswhat_stim/blank_white.png,stimulus/viswhat_stim/blank_white.png,stimulus/viswhat_stim/water_vehicle-ferryboat.png,stimulus/viswhat_stim/water_animal-seaturtle.png,stimulus/viswhat_stim/blank_white.png,stimulus/viswhat_stim/type_box.png,stimulus/viswhat_stim/type_yes.png,stimulus/viswhat_stim/type_no.png,None,Type,None,Location,2,0.0,0,5.25,0,5.25,0,5.25,0,0.0,0.75,0,0.0,0,0.0,1,0.5,1,2.125,0,0.0,0,0.0,0,0.0,0,0.0,0,,,,,0,20,20,20,,,,,168.57792650000192,168.57792650000192,168.57792650000192,168.57792650000192,168.57792650000192,168.57792650000192,168.57792650000192,168.57792650000192,168.52809062468975,168.57792650000192,168.57792650000192,168.57792650000192,168.52809062468975,168.57792650000192,168.57792650000192,168.57792650000192,170.69401316600852,174.52686070802156,168.57792650000192,168.57792650000192,173.8695692080073,169.0365360410069,170.075270750036,170.69401316600852,171.72413916600635,168.57792650000192,168.57792650000192,168.54475729135643,168.57792650000192,168.57792650000192,168.57792650000192,168.54475729135643,168.57792650000192,168.57792650000192,173.8695692080073,168.57792650000192,173.8695692080073,173.79950637504226,174.7751490410301,168.57792650000192,2,1,1.548992875032127,,reldom2_s023,001,2025-02-27_14h58.27.382,practice_test1_AC,2022.2.5,None,
0,0.0,None,fixation,stimulus/viswhat_stim/blank_white.png,stimulus/viswhat_stim/blank_white.png,stimulus/audwhat_stim/blank_white.png,stimulus/audwhat_stim/blank_white.png,stimulus/viswhat_stim/blank_white.png,stimulus/viswhat_stim/blank_white.png,stimulus/viswhere_stim/blank_white.png,stimulus/viswhere_stim/blank_white.png,0.0,0.0,0.0,0.0,0,0.0,0,0.0,0,0.0,0,0.0,0,0.0,0.0,0,0.0,0,0.0,0,0.0,0,0.0,0,0.0,0,0.0,0,0.0,0,0.0,5,,,,,0,21,21,21,,,,,174.7751490410301,174.7751490410301,174.7751490410301,174.7751490410301,174.7751490410301,174.7751490410301,174.7751490410301,174.7751490410301,174.6746360826927,174.7751490410301,174.7751490410301,174.7751490410301,174.6746360826927,174.7751490410301,174.7751490410301,174.7751490410301,174.7751490410301,174.7751490410301,174.7751490410301,174.7751490410301,174.7751490410301,174.7751490410301,174.7751490410301,174.7751490410301,174.7751490410301,174.7751490410301,174.7751490410301,174.7246360826927,174.7751490410301,174.7751490410301,174.7751490410301,174.7246360826927,174.7751490410301,174.7751490410301,174.7751490410301,174.7751490410301,174.7751490410301,180.0540270410129,180.0540270410129,179.86133712501032,None,0,,,reldom2_s023,001,2025-02-27_14h58.27.382,practice_test1_AC,2022.2.5,None,
17,Second_Order,3.0,viswhat,stimulus/viswhat_stim/land_vehicle-motorcycle.png,stimulus/viswhat_stim/land_animal-dog.png,stimulus/viswhat_stim/water_animal-seahorse.png,stimulus/viswhat_stim/water_vehicle-cargoboat.png,stimulus/viswhere_stim/match_blank.png,stimulus/viswhere_stim/match_box.png,stimulus/viswhere_stim/match_yes.png,stimulus/viswhere_stim/match_no.png,1.0,Match,Location,Location,1,5.25,0,5.25,0,5.25,0,5.25,0,0.75,0.75,1,0.5,1,2.125,1,0.5,1,2.125,0,0.0,0,0.0,0,0.0,0,0.0,0,,,,,0,22,22,22,,,,,180.0540270410129,185.29767004103633,180.51521266601048,181.51394025003538,182.13874895800836,183.13152283302043,180.0540270410129,180.0540270410129,180.05074799937043,180.0540270410129,180.0540270410129,180.0540270410129,180.05074799937043,180.0540270410129,185.29767004103633,186.10802616603905,188.18352087499807,192.03810304100625,186.10802616603905,186.10802616603905,191.373049582995,186.56388454104308,187.57535825000377,188.18352087499807,189.20201070804615,186.10802616603905,186.10802616603905,186.08174366604072,186.10802616603905,186.10802616603905,186.10802616603905,186.08174366604072,186.10802616603905,186.10802616603905,191.373049582995,186.10802616603905,191.373049582995,191.29905758303357,192.0983631660347,186.10802616603905,1,1,0.7789242090075277,,reldom2_s023,001,2025-02-27_14h58.27.382,practice_test1_AC,2022.2.5,None,
18,Second_Order,3.0,viswhat,stimulus/viswhat_stim/water_animal-squid.png,stimulus/viswhat_stim/land_animal-snake.png,stimulus/viswhat_stim/land_animal-fox.png,stimulus/viswhat_stim/land_vehicle-oldcar.png,stimulus/viswhere_stim/match_blank.png,stimulus/viswhere_stim/match_box.png,stimulus/viswhere_stim/match_yes.png,stimulus/viswhere_stim/match_no.png,2.0,Match,Type,Location,2,5.25,0,5.25,0,5.25,0,5.25,0,0.75,0.75,1,0.5,1,2.125,1,0.5,1,2.125,0,0.0,0,0.0,0,0.0,0,0.0,0,,,,,0,23,23,23,,,,,192.0983631660347,197.33887754101306,192.56432674999814,193.5548012080253,194.19078025000636,195.18793512502452,192.0983631660347,192.0983631660347,192.10476970767294,192.0983631660347,192.0983631660347,192.0983631660347,192.10476970767294,192.0983631660347,197.33887754101306,198.18498087499756,200.25043175002793,204.10382720798953,198.18498087499756,198.18498087499756,203.48654900002293,198.63299579103477,199.66741333302343,200.25043175002793,201.29156770801637,198.18498087499756,198.18498087499756,198.13833312470624,198.18498087499756,198.18498087499756,198.18498087499756,198.13833312470624,198.18498087499756,198.18498087499756,203.48654900002293,198.18498087499756,203.48654900002293,203.35696866601938,204.33694758301135,198.18498087499756,2,1,0.8289525419822894,,reldom2_s023,001,2025-02-27_14h58.27.382,practice_test1_AC,2022.2.5,None,
0,0.0,None,fixation,stimulus/viswhat_stim/blank_white.png,stimulus/viswhat_stim/blank_white.png,stimulus/audwhat_stim/blank_white.png,stimulus/audwhat_stim/blank_white.png,stimulus/viswhat_stim/blank_white.png,stimulus/viswhat_stim/blank_white.png,stimulus/viswhere_stim/blank_white.png,stimulus/viswhere_stim/blank_white.png,0.0,0.0,0.0,0.0,0,0.0,0,0.0,0,0.0,0,0.0,0,0.0,0.0,0,0.0,0,0.0,0,0.0,0,0.0,0,0.0,0,0.0,0,0.0,0,0.0,6,,,,,0,24,24,24,,,,,204.33694758301135,204.33694758301135,204.33694758301135,204.33694758301135,204.33694758301135,204.33694758301135,204.33694758301135,204.33694758301135,204.23716054132288,204.33694758301135,204.33694758301135,204.33694758301135,204.23716054132288,204.33694758301135,204.33694758301135,204.33694758301135,204.33694758301135,204.33694758301135,204.33694758301135,204.33694758301135,204.33694758301135,204.33694758301135,204.33694758301135,204.33694758301135,204.33694758301135,204.33694758301135,204.33694758301135,204.28716054132286,204.33694758301135,204.33694758301135,204.33694758301135,204.28716054132286,204.33694758301135,204.33694758301135,204.33694758301135,204.33694758301135,204.33694758301135,209.52115008299006,209.52115008299006,210.61609374999534,None,0,,,reldom2_s023,001,2025-02-27_14h58.27.382,practice_test1_AC,2022.2.5,None,
19,First_Order,4.0,audwhat,stimulus/audwhat_stim/dummy.wav,stimulus/audwhat_stim/dummy.wav,stimulus/audwhat_stim/percussion xylophone_high-pitch_D_loud.wav,stimulus/audwhat_stim/string viola_high-pitch_D_loud.wav,stimulus/audwhat_stim/blank_white.png,stimulus/audwhat_stim/pitch_box.png,stimulus/audwhat_stim/pitch_yes.png,stimulus/audwhat_stim/pitch_no.png,None,Pitch,None,Pitch,1,0.0,0,5.25,0,5.25,0,5.25,0,0.0,0.75,0,0.0,0,0.0,0,0.0,0,0.0,0,0.0,0,0.0,1,0.5,1,2.125,0,,,,,0,25,25,25,,,,,210.61609374999534,210.61609374999534,210.61609374999534,210.61609374999534,210.61609374999534,210.61609374999534,210.61609374999534,210.61609374999534,210.53569379167556,210.61609374999534,210.61609374999534,210.61609374999534,210.53569379167556,210.61609374999534,210.61609374999534,210.61609374999534,212.71614312502788,216.58641304099,210.61609374999534,210.61609374999534,215.92774495802587,210.61609374999534,210.61609374999534,210.61609374999534,210.61609374999534,211.0662197500351,212.11590033303946,211.03281587467453,212.06588425004156,212.71614312502788,213.7666071249987,212.68264724966528,,210.61609374999534,215.92774495802587,210.61609374999534,215.92774495802587,215.833478207991,216.80772250000155,210.61609374999534,1,1,2.078427374945022,,reldom2_s023,001,2025-02-27_14h58.27.382,practice_test1_AC,2022.2.5,None,
20,First_Order,4.0,audwhat,stimulus/audwhat_stim/dummy.wav,stimulus/audwhat_stim/dummy.wav,stimulus/audwhat_stim/string cello_high-pitch_Ftri_loud.wav,stimulus/audwhat_stim/string viola_low-pitch_F_loud.wav,stimulus/audwhat_stim/blank_white.png,stimulus/audwhat_stim/pitch_box.png,stimulus/audwhat_stim/pitch_yes.png,stimulus/audwhat_stim/pitch_no.png,None,Pitch,None,Category,2,0.0,0,5.25,0,5.25,0,5.25,0,0.0,0.75,0,0.0,0,0.0,0,0.0,0,0.0,0,0.0,0,0.0,1,0.5,1,2.125,0,,,,,0,26,26,26,,,,,216.80772250000155,216.80772250000155,216.80772250000155,216.80772250000155,216.80772250000155,216.80772250000155,216.80772250000155,216.80772250000155,216.71974637432336,216.80772250000155,216.80772250000155,216.80772250000155,216.71974637432336,216.80772250000155,216.80772250000155,216.80772250000155,218.90958404104458,222.75171404099092,216.80772250000155,216.80772250000155,222.09018512500916,216.80772250000155,216.80772250000155,216.80772250000155,216.80772250000155,217.25834749999922,218.30911433300935,217.22488820768584,,218.90958404104458,219.97454091603868,218.87580004166037,,216.80772250000155,222.09018512500916,216.80772250000155,222.09018512500916,222.0463736660313,223.0152917910018,216.80772250000155,1,0,1.3542867499636486,,reldom2_s023,001,2025-02-27_14h58.27.382,practice_test1_AC,2022.2.5,None,
21,First_Order,4.0,audwhat,stimulus/audwhat_stim/dummy.wav,stimulus/audwhat_stim/dummy.wav,stimulus/audwhat_stim/string viola_high-pitch_D_loud.wav,stimulus/audwhat_stim/percussion xylophone_high-pitch_D_loud.wav,stimulus/audwhat_stim/blank_white.png,stimulus/audwhat_stim/pitch_box.png,stimulus/audwhat_stim/pitch_yes.png,stimulus/audwhat_stim/pitch_no.png,None,Pitch,None,Pitch,1,0.0,0,5.25,0,5.25,0,5.25,0,0.0,0.75,0,0.0,0,0.0,0,0.0,0,0.0,0,0.0,0,0.0,1,0.5,1,2.125,0,,,,,0,27,27,27,,,,,223.0152917910018,223.0152917910018,223.0152917910018,223.0152917910018,223.0152917910018,223.0152917910018,223.0152917910018,223.0152917910018,222.9290284583423,223.0152917910018,223.0152917910018,223.0152917910018,222.9290284583423,223.0152917910018,223.0152917910018,223.0152917910018,225.11635208304506,228.99004312499892,223.0152917910018,223.0152917910018,228.32704991602805,223.0152917910018,223.0152917910018,223.0152917910018,223.0152917910018,223.46623041603016,224.51620137499413,223.43256437470362,,225.11635208304506,226.1736392500461,225.0829960826707,226.1232986249961,223.0152917910018,228.32704991602805,223.0152917910018,228.32704991602805,228.23305537499255,229.21113250002963,223.0152917910018,2,0,2.2221681669470854,,reldom2_s023,001,2025-02-27_14h58.27.382,practice_test1_AC,2022.2.5,None,
22,First_Order,4.0,audwhat,stimulus/audwhat_stim/dummy.wav,stimulus/audwhat_stim/dummy.wav,stimulus/audwhat_stim/string cello_low-pitch_F_loud.wav,stimulus/audwhat_stim/string viola_high-pitch_Ftri_loud.wav,stimulus/audwhat_stim/blank_white.png,stimulus/audwhat_stim/category_box.png,stimulus/audwhat_stim/category_yes.png,stimulus/audwhat_stim/category_no.png,None,Category,None,Category,1,0.0,0,5.25,0,5.25,0,5.25,0,0.0,0.75,0,0.0,0,0.0,0,0.0,0,0.0,0,0.0,0,0.0,1,0.5,1,2.125,0,,,,,0,28,28,28,,,,,229.21113250002963,229.21113250002963,229.21113250002963,229.21113250002963,229.21113250002963,229.21113250002963,229.21113250002963,229.21113250002963,229.12337645833227,229.21113250002963,229.21113250002963,229.21113250002963,229.12337645833227,229.21113250002963,229.21113250002963,229.21113250002963,231.32714116602438,235.16328008304117,229.21113250002963,229.21113250002963,234.4988863330218,229.21113250002963,229.21113250002963,229.21113250002963,229.21113250002963,229.66632095800014,230.7251924580196,229.63278645766357,,231.32714116602438,232.38655766600277,231.2938267077009,,229.21113250002963,234.4988863330218,229.21113250002963,234.4988863330218,234.40427358302986,235.40094720799243,229.21113250002963,1,1,1.3168486249633133,,reldom2_s023,001,2025-02-27_14h58.27.382,practice_test1_AC,2022.2.5,None,
0,0.0,None,fixation,stimulus/viswhat_stim/blank_white.png,stimulus/viswhat_stim/blank_white.png,stimulus/audwhat_stim/blank_white.png,stimulus/audwhat_stim/blank_white.png,stimulus/viswhat_stim/blank_white.png,stimulus/viswhat_stim/blank_white.png,stimulus/viswhere_stim/blank_white.png,stimulus/viswhere_stim/blank_white.png,0.0,0.0,0.0,0.0,0,0.0,0,0.0,0,0.0,0,0.0,0,0.0,0.0,0,0.0,0,0.0,0,0.0,0,0.0,0,0.0,0,0.0,0,0.0,0,0.0,5,,,,,0,29,29,29,,,,,235.40094720799243,235.40094720799243,235.40094720799243,235.40094720799243,235.40094720799243,235.40094720799243,235.40094720799243,235.40094720799243,235.29661341637453,235.40094720799243,235.40094720799243,235.40094720799243,235.29661341637453,235.40094720799243,235.40094720799243,235.40094720799243,235.40094720799243,235.40094720799243,235.40094720799243,235.40094720799243,235.40094720799243,235.40094720799243,235.40094720799243,235.40094720799243,235.40094720799243,235.40094720799243,235.40094720799243,235.3466134163745,235.40094720799243,235.40094720799243,235.40094720799243,235.3466134163745,235.40094720799243,235.40094720799243,235.40094720799243,235.40094720799243,235.40094720799243,240.68778500001645,240.68778500001645,240.48144275002414,None,0,,,reldom2_s023,001,2025-02-27_14h58.27.382,practice_test1_AC,2022.2.5,None,
23,Second_Order,4.0,audwhat,stimulus/audwhat_stim/percussion mallet_high-pitch_D_loud.wav,stimulus/audwhat_stim/string cello_high-pitch_D_loud.wav,stimulus/audwhat_stim/percussion mallet_low-pitch_F_loud.wav,stimulus/audwhat_stim/percussion xylophone_high-pitch_Ftri_loud.wav,stimulus/viswhere_stim/match_blank.png,stimulus/viswhere_stim/match_box.png,stimulus/viswhere_stim/match_yes.png,stimulus/viswhere_stim/match_no.png,2.0,Match,Pitch,Category,2,5.25,0,5.25,0,5.25,0,5.25,0,0.75,0.75,0,0.0,0,0.0,0,0.0,0,0.0,1,0.5,1,2.125,1,0.5,1,2.125,0,,,,,0,30,30,30,,,,,240.68778500001645,245.9314287500456,240.68778500001645,240.68778500001645,240.68778500001645,240.68778500001645,241.13880829099799,242.13819341600174,241.14778129168943,242.13819341600174,242.76345433300594,243.75406458304496,242.7715006666879,,245.9314287500456,246.7906896659988,248.8536750409985,252.7266225410276,246.7906896659988,246.7906896659988,252.1106872500386,246.7906896659988,246.7906896659988,246.7906896659988,246.7906896659988,247.23949933302356,248.2916130410158,247.20592337468796,,248.8536750409985,249.9109352910309,248.81966608268365,249.85997099999804,246.7906896659988,252.1106872500386,246.7906896659988,252.1106872500386,251.96656320802867,252.8515229159966,246.7906896659988,1,0,1.0807387919630855,,reldom2_s023,001,2025-02-27_14h58.27.382,practice_test1_AC,2022.2.5,None,
24,Second_Order,4.0,audwhat,stimulus/audwhat_stim/percussion mallet_low-pitch_Ftri_loud.wav,stimulus/audwhat_stim/percussion xylophone_high-pitch_F_loud.wav,stimulus/audwhat_stim/string cello_low-pitch_F_loud.wav,stimulus/audwhat_stim/string cello_high-pitch_Ftri_loud.wav,stimulus/viswhere_stim/match_blank.png,stimulus/viswhere_stim/match_box.png,stimulus/viswhere_stim/match_yes.png,stimulus/viswhere_stim/match_no.png,1.0,Match,Category,Category,1,5.25,0,5.25,0,5.25,0,5.25,0,0.75,0.75,0,0.0,0,0.0,0,0.0,0,0.0,1,0.5,1,2.125,1,0.5,1,2.125,0,,,,,0,31,31,31,,,,,252.8515229159966,258.09675500000594,252.8515229159966,252.8515229159966,252.8515229159966,252.8515229159966,253.30594266601838,254.30460854101693,253.31453587470267,254.30460854101693,254.92163816600805,255.913953958021,254.9301747076718,255.9218814999913,258.09675500000594,258.9553785000462,261.0074824580224,264.88049479102483,258.9553785000462,258.9553785000462,264.26334195799427,258.9553785000462,258.9553785000462,258.9553785000462,258.9553785000462,259.404689625022,260.4561552910018,259.3716489996916,,261.0074824580224,262.06587020802544,260.97348249965967,,258.9553785000462,264.26334195799427,258.9553785000462,264.26334195799427,264.11853224999504,265.1200877910014,258.9553785000462,1,1,0.7200123750371858,,reldom2_s023,001,2025-02-27_14h58.27.382,practice_test1_AC,2022.2.5,None,
0,0.0,None,fixation,stimulus/viswhat_stim/blank_white.png,stimulus/viswhat_stim/blank_white.png,stimulus/audwhat_stim/blank_white.png,stimulus/audwhat_stim/blank_white.png,stimulus/viswhat_stim/blank_white.png,stimulus/viswhat_stim/blank_white.png,stimulus/viswhere_stim/blank_white.png,stimulus/viswhere_stim/blank_white.png,0.0,0.0,0.0,0.0,0,0.0,0,0.0,0,0.0,0,0.0,0,0.0,0.0,0,0.0,0,0.0,0,0.0,0,0.0,0,0.0,0,0.0,0,0.0,0,0.0,5,,,,,0,32,32,32,,,,,265.1200877910014,265.1200877910014,265.1200877910014,265.1200877910014,265.1200877910014,265.1200877910014,265.1200877910014,265.1200877910014,265.01382812435816,265.1200877910014,265.1200877910014,265.1200877910014,265.01382812435816,265.1200877910014,265.1200877910014,265.1200877910014,265.1200877910014,265.1200877910014,265.1200877910014,265.1200877910014,265.1200877910014,265.1200877910014,265.1200877910014,265.1200877910014,265.1200877910014,265.1200877910014,265.1200877910014,265.06382812435817,265.1200877910014,265.1200877910014,265.1200877910014,265.06382812435817,265.1200877910014,265.1200877910014,265.1200877910014,265.1200877910014,265.1200877910014,270.39492749999044,270.39492749999044,270.1915074160206,None,0,,,reldom2_s023,001,2025-02-27_14h58.27.382,practice_test1_AC,2022.2.5,None,
,,,,,,,,,,,,,,,,,,,,,,,,,,,,,,,,,,,,,,,,,,,,,,,,,,,,,,,,,,,,,,,,,,,,,,,,,,,,,,,,,,,,,,,,,,,,,,,,,,,270.39492749999044,,,,,,,
