Trial,Order,Block,Type,Stimuli_File1,Stimuli_File2,Stimuli_File3,Stimuli_File4,Cue_File1,Cue_File2,Response_File_Yes,Response_File_No,Match,Cue_Dimension,Pair1_Dimension,Pair2_Dimension,Key,Cue1_Duration,Cue1_Onset,Cue2_Duration,Cue2_Onset,ResponseYes_Duration,ResponseYes_Onset,ResponseNo_Duration,ResponseNo_Onset,ITI_Within,ITI_Between,Image1_Duration,Image1_Onset,Image2_Duration,Image2_Onset,Image3_Duration,Image3_Onset,Image4_Duration,Image4_Onset,Sound1_Duration,Sound1_Onset,Sound2_Duration,Sound2_Onset,Sound3_Duration,Sound3_Onset,Sound4_Duration,Sound4_Onset,Fixation_Duration,trials_2.thisRepN,trials_2.thisTrialN,trials_2.thisN,trials_2.thisIndex,trials.thisRepN,trials.thisTrialN,trials.thisN,trials.thisIndex,text_start.started,key_resp_start.started,key_resp_start.keys,key_resp_start.rt,text2.started,key_resp_2.started,key_resp_2.keys,key_resp_2.rt,cue_file1.started,cue_file1.stopped,image_1.started,image_1.stopped,image_2.started,image_2.stopped,sound_icon1.started,sound_icon1.stopped,sound_1.started,sound_1.stopped,sound_icon2.started,sound_icon2.stopped,sound_2.started,sound_2.stopped,image_blank_1.started,image_blank_1.stopped,key_press.started,key_press.stopped,fixation_text.started,cue_file2.started,cue_file2.stopped,image_3.started,image_3.stopped,image_4.started,image_4.stopped,sound_icon3.started,sound_icon3.stopped,sound_3.started,sound_3.stopped,sound_icon4.started,sound_icon4.stopped,sound_4.started,sound_4.stopped,response_yes.started,response_yes.stopped,response_no.started,response_no.stopped,iti_blank.started,iti_blank.stopped,fixation_text.stopped,key_press.keys,key_press.corr,key_press.rt,participant,session,date,expName,psychopyVersion,frameRate,
,,,,,,,,,,,,,,,,,,,,,,,,,,,,,,,,,,,,,,,,,,,,,,,,,,,,7.989498583017848,7.989498583017848,2,1.228131374984514,,,,,,,,,,,,,,,,,,,,,,,,,,,,,,,,,,,,,,,,,,,,,,,,reldom2_s023,001,2025-02-27_16h08.10.195,Aud-B-Scan_AC,2022.2.5,None,
,,,,,,,,,,,,,,,,,,,,,,,,,,,,,,,,,,,,,,,,,,,,0,0,0,0,,,,,,,,,9.250927165994653,9.250927165994653,5,17.926994541980093,,,,,,,,,,,,,,,,,,,,,,,,,,,,,,,,,,,,,,,,,,,,reldom2_s023,001,2025-02-27_16h08.10.195,Aud-B-Scan_AC,2022.2.5,None,
,,,,,,,,,,,,,,,,,,,,,,,,,,,,,,,,,,,,,,,,,,,,1,0,1,0,,,,,,,,,27.195186750002904,27.195186750002904,5,1.9838212500035297,,,,,,,,,,,,,,,,,,,,,,,,,,,,,,,,,,,,,,,,,,,,reldom2_s023,001,2025-02-27_16h08.10.195,Aud-B-Scan_AC,2022.2.5,None,
,,,,,,,,,,,,,,,,,,,,,,,,,,,,,,,,,,,,,,,,,,,,2,0,2,0,,,,,,,,,29.191846625006292,29.191846625006292,5,1.9872355420084205,,,,,,,,,,,,,,,,,,,,,,,,,,,,,,,,,,,,,,,,,,,,reldom2_s023,001,2025-02-27_16h08.10.195,Aud-B-Scan_AC,2022.2.5,None,
,,,,,,,,,,,,,,,,,,,,,,,,,,,,,,,,,,,,,,,,,,,,3,0,3,0,,,,,,,,,31.182113290997222,31.182113290997222,5,1.9964171660249121,,,,,,,,,,,,,,,,,,,,,,,,,,,,,,,,,,,,,,,,,,,,reldom2_s023,001,2025-02-27_16h08.10.195,Aud-B-Scan_AC,2022.2.5,None,
0,0.0,None,fixation,stimulus/audwhat_stim/blank_white.png,stimulus/audwhat_stim/blank_white.png,stimulus/audwhere_stim/blank_white.png,stimulus/audwhere_stim/blank_white.png,stimulus/audwhat_stim/blank_white.png,stimulus/audwhat_stim/blank_white.png,stimulus/audwhat_stim/blank_white.png,stimulus/audwhat_stim/blank_white.png,0.0,0.0,0.0,0.0,0,0.0,0,0.0,0,0.0,0,0.0,0,0.0,0.0,0,0,0,0,0,0,0,0,0,0.0,0,0.0,0,0.0,0,0.0,16,,,,,0,0,0,0,,,,,,,,,33.39456012501614,33.39456012501614,33.39456012501614,33.39456012501614,33.39456012501614,33.39456012501614,33.39456012501614,33.39456012501614,33.30130533268481,33.39456012501614,33.39456012501614,33.39456012501614,33.30130533268481,33.39456012501614,33.39456012501614,33.39456012501614,33.39456012501614,33.39456012501614,33.39456012501614,33.39456012501614,33.39456012501614,33.39456012501614,33.39456012501614,33.39456012501614,33.39456012501614,33.39456012501614,33.39456012501614,33.35130533268481,33.39456012501614,33.39456012501614,33.39456012501614,33.35130533268481,33.39456012501614,33.39456012501614,33.39456012501614,33.39456012501614,33.39456012501614,38.581997208006214,38.581997208006214,49.60372750001261,None,0,,reldom2_s023,001,2025-02-27_16h08.10.195,Aud-B-Scan_AC,2022.2.5,None,
1,First_Order,1.0,audwhat,stimulus/audwhat_stim/dummy.wav,stimulus/audwhat_stim/dummy.wav,stimulus/audwhat_stim/string viola_low-pitch_F_loud.wav,stimulus/audwhat_stim/string cello_high-pitch_Dtri_loud.wav,stimulus/audwhat_stim/blank_white.png,stimulus/audwhat_stim/pitch_box.png,stimulus/audwhat_stim/pitch_yes.png,stimulus/audwhat_stim/pitch_no.png,None,Pitch,None,Category,2,0.0,0,5.125,0,5.125,0,5.125,0,0.0,0.625,0,0,0,0,0,0,0,0,0,0.0,0,0.0,1,0.5,1,2.125,0,,,,,0,1,1,1,,,,,,,,,49.60372750001261,49.60372750001261,49.60372750001261,49.60372750001261,49.60372750001261,49.60372750001261,49.60372750001261,49.60372750001261,49.53553995802067,49.60372750001261,49.60372750001261,49.60372750001261,49.53553995802067,49.60372750001261,49.60372750001261,49.60372750001261,51.707314916013274,,49.60372750001261,49.60372750001261,54.79255566600477,49.60372750001261,49.60372750001261,49.60372750001261,49.60372750001261,50.05253575000097,51.08049141601077,50.024270332684196,,51.707314916013274,52.738838833000045,51.67885720768051,,49.60372750001261,54.79255566600477,49.60372750001261,54.79255566600477,54.83246337500168,55.50497800001176,49.60372750001261,1,0,1.3494128749880474,reldom2_s023,001,2025-02-27_16h08.10.195,Aud-B-Scan_AC,2022.2.5,None,
2,First_Order,1.0,audwhat,stimulus/audwhat_stim/dummy.wav,stimulus/audwhat_stim/dummy.wav,stimulus/audwhat_stim/percussion xylophone_high-pitch_Ftri_loud.wav,stimulus/audwhat_stim/string viola_high-pitch_Ftri_loud.wav,stimulus/audwhat_stim/blank_white.png,stimulus/audwhat_stim/pitch_box.png,stimulus/audwhat_stim/pitch_yes.png,stimulus/audwhat_stim/pitch_no.png,None,Pitch,None,Pitch,1,0.0,0,5.125,0,5.125,0,5.125,0,0.0,0.625,0,0,0,0,0,0,0,0,0,0.0,0,0.0,1,0.5,1,2.125,0,,,,,0,2,2,2,,,,,,,,,55.7112008749973,55.7112008749973,55.7112008749973,55.7112008749973,55.7112008749973,55.7112008749973,55.7112008749973,55.7112008749973,55.638311333345094,55.7112008749973,55.7112008749973,55.7112008749973,55.638311333345094,55.7112008749973,55.7112008749973,55.7112008749973,57.82530525000766,,55.7112008749973,55.7112008749973,60.88497587500024,55.7112008749973,55.7112008749973,55.7112008749973,55.7112008749973,56.16084983301698,57.1947901660169,56.13261358268598,57.1947901660169,57.82530525000766,58.859208208014024,57.79662154167114,,55.7112008749973,60.88497587500024,55.7112008749973,60.88497587500024,60.92465858301148,61.601239166018786,55.7112008749973,2,0,1.5333241249900311,reldom2_s023,001,2025-02-27_16h08.10.195,Aud-B-Scan_AC,2022.2.5,None,
3,First_Order,1.0,audwhat,stimulus/audwhat_stim/dummy.wav,stimulus/audwhat_stim/dummy.wav,stimulus/audwhat_stim/string viola_low-pitch_Dtri_loud.wav,stimulus/audwhat_stim/percussion mallet_low-pitch_Dtri_loud.wav,stimulus/audwhat_stim/blank_white.png,stimulus/audwhat_stim/category_box.png,stimulus/audwhat_stim/category_yes.png,stimulus/audwhat_stim/category_no.png,None,Category,None,Pitch,2,0.0,0,5.125,0,5.125,0,5.125,0,0.0,0.625,0,0,0,0,0,0,0,0,0,0.0,0,0.0,1,0.5,1,2.125,0,,,,,0,3,3,3,,,,,,,,,61.807954207994044,61.807954207994044,61.807954207994044,61.807954207994044,61.807954207994044,61.807954207994044,61.807954207994044,61.807954207994044,61.73457249935212,61.807954207994044,61.807954207994044,61.807954207994044,61.73457249935212,61.807954207994044,61.807954207994044,61.807954207994044,63.90053616600926,67.92658237501746,61.807954207994044,61.807954207994044,66.99780258300598,61.807954207994044,61.807954207994044,61.807954207994044,61.807954207994044,62.263222083012806,63.3103432909993,62.23451899967428,,63.90053616600926,64.94855241599726,63.87148862466371,,61.807954207994044,66.99780258300598,61.807954207994044,66.99780258300598,67.03821354100364,67.71923695801524,61.807954207994044,2,1,1.4289444579917472,reldom2_s023,001,2025-02-27_16h08.10.195,Aud-B-Scan_AC,2022.2.5,None,
4,First_Order,1.0,audwhat,stimulus/audwhat_stim/dummy.wav,stimulus/audwhat_stim/dummy.wav,stimulus/audwhat_stim/percussion mallet_low-pitch_D_loud.wav,stimulus/audwhat_stim/percussion xylophone_high-pitch_Dtri_loud.wav,stimulus/audwhat_stim/blank_white.png,stimulus/audwhat_stim/pitch_box.png,stimulus/audwhat_stim/pitch_yes.png,stimulus/audwhat_stim/pitch_no.png,None,Pitch,None,Category,2,0.0,0,5.125,0,5.125,0,5.125,0,0.0,0.625,0,0,0,0,0,0,0,0,0,0.0,0,0.0,1,0.5,1,2.125,0,,,,,0,4,4,4,,,,,,,,,67.92658237501746,67.92658237501746,67.92658237501746,67.92658237501746,67.92658237501746,67.92658237501746,67.92658237501746,67.92658237501746,67.85257029134857,67.92658237501746,67.92658237501746,67.92658237501746,67.85257029134857,67.92658237501746,67.92658237501746,67.92658237501746,70.02089320801315,74.06969587501953,67.92658237501746,67.92658237501746,73.11747708299663,67.92658237501746,67.92658237501746,67.92658237501746,67.92658237501746,68.38100883300649,69.42808737501036,68.35133666667777,,70.02089320801315,71.07034779101377,69.9917755826648,71.02498504100367,67.92658237501746,73.11747708299663,67.92658237501746,73.11747708299663,73.11747708299663,73.80212145799305,67.92658237501746,1,0,1.5513622500002384,reldom2_s023,001,2025-02-27_16h08.10.195,Aud-B-Scan_AC,2022.2.5,None,
0,0.0,None,fixation,stimulus/audwhat_stim/blank_white.png,stimulus/audwhat_stim/blank_white.png,stimulus/audwhere_stim/blank_white.png,stimulus/audwhere_stim/blank_white.png,stimulus/audwhat_stim/blank_white.png,stimulus/audwhat_stim/blank_white.png,stimulus/audwhat_stim/blank_white.png,stimulus/audwhat_stim/blank_white.png,0.0,0.0,0.0,0.0,0,0.0,0,0.0,0,0.0,0,0.0,0,0.0,0.0,0,0,0,0,0,0,0,0,0,0.0,0,0.0,0,0.0,0,0.0,8,,,,,0,5,5,5,,,,,,,,,74.06969587501953,74.06969587501953,74.06969587501953,74.06969587501953,74.06969587501953,74.06969587501953,74.06969587501953,74.06969587501953,73.97548483332696,74.06969587501953,74.06969587501953,74.06969587501953,73.97548483332696,74.06969587501953,74.06969587501953,74.06969587501953,74.06969587501953,74.06969587501953,74.06969587501953,74.06969587501953,74.06969587501953,74.06969587501953,74.06969587501953,74.06969587501953,74.06969587501953,74.06969587501953,74.06969587501953,74.02548483332697,74.06969587501953,74.06969587501953,74.06969587501953,74.02548483332697,74.06969587501953,74.06969587501953,74.06969587501953,74.06969587501953,74.06969587501953,79.2606805000105,79.2606805000105,82.24293100001523,None,0,,reldom2_s023,001,2025-02-27_16h08.10.195,Aud-B-Scan_AC,2022.2.5,None,
5,Second_Order,1.0,audwhat,stimulus/audwhat_stim/percussion mallet_high-pitch_Dtri_loud.wav,stimulus/audwhat_stim/string cello_high-pitch_Dtri_loud.wav,stimulus/audwhat_stim/string viola_low-pitch_F_loud.wav,stimulus/audwhat_stim/percussion mallet_low-pitch_F_loud.wav,stimulus/audwhat_stim/match_blank.png,stimulus/audwhat_stim/match_box.png,stimulus/audwhat_stim/match_yes.png,stimulus/audwhat_stim/match_no.png,1.0,Match,Pitch,Pitch,1,5.125,0,5.125,0,5.125,0,5.125,0,0.75,0.75,0,0,0,0,0,0,0,0,1,0.5,1,2.125,1,0.5,1,2.125,0,,,,,0,6,6,6,,,,,,,,,82.24293100001523,87.369807125011,82.24293100001523,82.24293100001523,82.24293100001523,82.24293100001523,82.70143587500206,83.6884729580197,82.71617112466289,,84.32346933300141,85.32171295801527,84.3362251666879,,87.369807125011,88.22558937501162,90.3083144580014,,88.22558937501162,88.22558937501162,93.40446020799573,88.22558937501162,88.22558937501162,88.22558937501162,88.22558937501162,88.67561741601094,89.71846362500219,88.6468173326614,,90.3083144580014,91.35626687499462,90.27960229167753,,88.22558937501162,93.40446020799573,88.22558937501162,93.40446020799573,93.40446020799573,,88.22558937501162,1,1,1.6491592079983093,reldom2_s023,001,2025-02-27_16h08.10.195,Aud-B-Scan_AC,2022.2.5,None,
6,Second_Order,1.0,audwhat,stimulus/audwhat_stim/percussion mallet_low-pitch_F_loud.wav,stimulus/audwhat_stim/percussion mallet_high-pitch_Dtri_loud.wav,stimulus/audwhat_stim/string viola_low-pitch_Ftri_loud.wav,stimulus/audwhat_stim/percussion mallet_low-pitch_Ftri_loud.wav,stimulus/audwhat_stim/match_blank.png,stimulus/audwhat_stim/match_box.png,stimulus/audwhat_stim/match_yes.png,stimulus/audwhat_stim/match_no.png,2.0,Match,Category,Pitch,2,5.125,0,5.125,0,5.125,0,5.125,0,0.625,0.625,0,0,0,0,0,0,0,0,1,0.5,1,2.125,1,0.5,1,2.125,0,,,,,0,7,7,7,,,,,,,,,94.20156216601026,99.32498550001765,94.20156216601026,94.20156216601026,94.20156216601026,94.20156216601026,94.6598742500064,95.64924608301953,94.66327116667914,95.64924608301953,96.28450154099846,97.28250979099539,96.29699666667535,,99.32498550001765,100.05671945799259,102.12896337499842,106.15545116600697,100.05671945799259,100.05671945799259,105.21282929100562,100.05671945799259,100.05671945799259,100.05671945799259,100.05671945799259,100.50473204100854,101.5428877910017,100.4760777496597,,102.12896337499842,103.17175170799601,102.10067504167479,,100.05671945799259,105.21282929100562,100.05671945799259,105.21282929100562,105.25285000001895,105.92830408300506,100.05671945799259,2,1,0.6912445000198204,reldom2_s023,001,2025-02-27_16h08.10.195,Aud-B-Scan_AC,2022.2.5,None,
0,0.0,None,fixation,stimulus/audwhat_stim/blank_white.png,stimulus/audwhat_stim/blank_white.png,stimulus/audwhere_stim/blank_white.png,stimulus/audwhere_stim/blank_white.png,stimulus/audwhat_stim/blank_white.png,stimulus/audwhat_stim/blank_white.png,stimulus/audwhat_stim/blank_white.png,stimulus/audwhat_stim/blank_white.png,0.0,0.0,0.0,0.0,0,0.0,0,0.0,0,0.0,0,0.0,0,0.0,0.0,0,0,0,0,0,0,0,0,0,0.0,0,0.0,0,0.0,0,0.0,10,,,,,0,8,8,8,,,,,,,,,106.15545116600697,106.15545116600697,106.15545116600697,106.15545116600697,106.15545116600697,106.15545116600697,106.15545116600697,106.15545116600697,106.06163741633839,106.15545116600697,106.15545116600697,106.15545116600697,106.06163741633839,106.15545116600697,106.15545116600697,106.15545116600697,106.15545116600697,106.15545116600697,106.15545116600697,106.15545116600697,106.15545116600697,106.15545116600697,106.15545116600697,106.15545116600697,106.15545116600697,106.15545116600697,106.15545116600697,106.1116374163384,106.15545116600697,106.15545116600697,106.15545116600697,106.1116374163384,106.15545116600697,106.15545116600697,106.15545116600697,106.15545116600697,106.15545116600697,111.37260870801401,111.37260870801401,116.42226279102033,None,0,,reldom2_s023,001,2025-02-27_16h08.10.195,Aud-B-Scan_AC,2022.2.5,None,
7,First_Order,2.0,audwhat,stimulus/audwhat_stim/dummy.wav,stimulus/audwhat_stim/dummy.wav,stimulus/audwhat_stim/percussion xylophone_high-pitch_F_loud.wav,stimulus/audwhat_stim/percussion mallet_low-pitch_D_loud.wav,stimulus/audwhat_stim/blank_white.png,stimulus/audwhat_stim/category_box.png,stimulus/audwhat_stim/category_yes.png,stimulus/audwhat_stim/category_no.png,None,Category,None,Category,1,0.0,0,5.125,0,5.125,0,5.125,0,0.0,0.625,0,0,0,0,0,0,0,0,0,0.0,0,0.0,1,0.5,1,2.125,0,,,,,0,9,9,9,,,,,,,,,116.42226279102033,116.42226279102033,116.42226279102033,116.42226279102033,116.42226279102033,116.42226279102033,116.42226279102033,116.42226279102033,116.35407387466209,116.42226279102033,116.42226279102033,116.42226279102033,116.35407387466209,116.42226279102033,116.42226279102033,116.42226279102033,118.49311095802113,,116.42226279102033,116.42226279102033,121.58549654099625,116.42226279102033,116.42226279102033,116.42226279102033,116.42226279102033,116.87999391599442,117.9419119580125,116.8505022076754,117.89592675000313,118.49311095802113,119.55665725001018,118.46371520767958,,116.42226279102033,121.58549654099625,116.42226279102033,121.58549654099625,121.62522754099336,122.31208800000604,116.42226279102033,2,0,0.6734895000117831,reldom2_s023,001,2025-02-27_16h08.10.195,Aud-B-Scan_AC,2022.2.5,None,
8,First_Order,2.0,audwhat,stimulus/audwhat_stim/dummy.wav,stimulus/audwhat_stim/dummy.wav,stimulus/audwhat_stim/percussion mallet_low-pitch_D_loud.wav,stimulus/audwhat_stim/string viola_low-pitch_D_loud.wav,stimulus/audwhat_stim/blank_white.png,stimulus/audwhat_stim/pitch_box.png,stimulus/audwhat_stim/pitch_yes.png,stimulus/audwhat_stim/pitch_no.png,None,Pitch,None,Pitch,1,0.0,0,5.125,0,5.125,0,5.125,0,0.0,0.625,0,0,0,0,0,0,0,0,0,0.0,0,0.0,1,0.5,1,2.125,0,,,,,0,10,10,10,,,,,,,,,122.52276933300891,122.52276933300891,122.52276933300891,122.52276933300891,122.52276933300891,122.52276933300891,122.52276933300891,122.52276933300891,122.44542133333937,122.52276933300891,122.52276933300891,122.52276933300891,122.44542133333937,122.52276933300891,122.52276933300891,122.52276933300891,124.63529304100666,,122.52276933300891,122.52276933300891,127.7133820830204,122.52276933300891,122.52276933300891,122.52276933300891,122.52276933300891,122.98272066601203,124.03946629099664,122.95329137467003,,124.63529304100666,125.6946646659926,124.60608916666048,,122.52276933300891,127.7133820830204,122.52276933300891,127.7133820830204,127.7133820830204,128.401246791007,122.52276933300891,1,1,0.9168745419883635,reldom2_s023,001,2025-02-27_16h08.10.195,Aud-B-Scan_AC,2022.2.5,None,
9,First_Order,2.0,audwhat,stimulus/audwhat_stim/dummy.wav,stimulus/audwhat_stim/dummy.wav,stimulus/audwhat_stim/percussion mallet_low-pitch_D_loud.wav,stimulus/audwhat_stim/percussion mallet_high-pitch_Ftri_loud.wav,stimulus/audwhat_stim/blank_white.png,stimulus/audwhat_stim/category_box.png,stimulus/audwhat_stim/category_yes.png,stimulus/audwhat_stim/category_no.png,None,Category,None,Category,1,0.0,0,5.125,0,5.125,0,5.125,0,0.0,0.625,0,0,0,0,0,0,0,0,0,0.0,0,0.0,1,0.5,1,2.125,0,,,,,0,11,11,11,,,,,,,,,128.6124317079957,128.6124317079957,128.6124317079957,128.6124317079957,128.6124317079957,128.6124317079957,128.6124317079957,128.6124317079957,128.53458012434035,128.6124317079957,128.6124317079957,128.6124317079957,128.53458012434035,128.6124317079957,128.6124317079957,128.6124317079957,130.69424145799712,,128.6124317079957,128.6124317079957,133.80038762500044,128.6124317079957,128.6124317079957,128.6124317079957,128.6124317079957,129.0749302910117,130.1410610830062,129.0455171666729,,130.69424145799712,131.7626779160055,130.6644977076833,,128.6124317079957,133.80038762500044,128.6124317079957,133.80038762500044,133.8414520410006,134.4912755000114,128.6124317079957,1,1,2.1970128749962896,reldom2_s023,001,2025-02-27_16h08.10.195,Aud-B-Scan_AC,2022.2.5,None,
10,First_Order,2.0,audwhat,stimulus/audwhat_stim/dummy.wav,stimulus/audwhat_stim/dummy.wav,stimulus/audwhat_stim/string cello_high-pitch_F_loud.wav,stimulus/audwhat_stim/percussion mallet_high-pitch_F_loud.wav,stimulus/audwhat_stim/blank_white.png,stimulus/audwhat_stim/category_box.png,stimulus/audwhat_stim/category_yes.png,stimulus/audwhat_stim/category_no.png,None,Category,None,Pitch,2,0.0,0,5.125,0,5.125,0,5.125,0,0.0,0.625,0,0,0,0,0,0,0,0,0,0.0,0,0.0,1,0.5,1,2.125,0,,,,,0,12,12,12,,,,,,,,,134.70360204100143,134.70360204100143,134.70360204100143,134.70360204100143,134.70360204100143,134.70360204100143,134.70360204100143,134.70360204100143,134.62460883334475,134.70360204100143,134.70360204100143,134.70360204100143,134.62460883334475,134.70360204100143,134.70360204100143,134.70360204100143,136.79095270801918,,134.70360204100143,134.70360204100143,139.8569505409978,134.70360204100143,134.70360204100143,134.70360204100143,134.70360204100143,135.16693333300645,136.23445108300075,135.13701483267167,,136.79095270801918,137.86302812499343,136.7610209576708,,134.70360204100143,139.8569505409978,134.70360204100143,139.8569505409978,139.89741641600267,140.55124479101505,134.70360204100143,2,1,1.2949220419977792,reldom2_s023,001,2025-02-27_16h08.10.195,Aud-B-Scan_AC,2022.2.5,None,
0,0.0,None,fixation,stimulus/audwhat_stim/blank_white.png,stimulus/audwhat_stim/blank_white.png,stimulus/audwhere_stim/blank_white.png,stimulus/audwhere_stim/blank_white.png,stimulus/audwhat_stim/blank_white.png,stimulus/audwhat_stim/blank_white.png,stimulus/audwhat_stim/blank_white.png,stimulus/audwhat_stim/blank_white.png,0.0,0.0,0.0,0.0,0,0.0,0,0.0,0,0.0,0,0.0,0,0.0,0.0,0,0,0,0,0,0,0,0,0,0.0,0,0.0,0,0.0,0,0.0,8,,,,,0,13,13,13,,,,,,,,,140.8233634160133,140.8233634160133,140.8233634160133,140.8233634160133,140.8233634160133,140.8233634160133,140.8233634160133,140.8233634160133,140.7253620413268,140.8233634160133,140.8233634160133,140.8233634160133,140.7253620413268,140.8233634160133,140.8233634160133,140.8233634160133,140.8233634160133,140.8233634160133,140.8233634160133,140.8233634160133,140.8233634160133,140.8233634160133,140.8233634160133,140.8233634160133,140.8233634160133,140.8233634160133,140.8233634160133,140.7753620413268,140.8233634160133,140.8233634160133,140.8233634160133,140.7753620413268,140.8233634160133,140.8233634160133,140.8233634160133,140.8233634160133,140.8233634160133,146.04946583299898,146.04946583299898,148.96494450001046,None,0,,reldom2_s023,001,2025-02-27_16h08.10.195,Aud-B-Scan_AC,2022.2.5,None,
11,Second_Order,2.0,audwhat,stimulus/audwhat_stim/string viola_high-pitch_Dtri_loud.wav,stimulus/audwhat_stim/string cello_low-pitch_D_loud.wav,stimulus/audwhat_stim/percussion mallet_high-pitch_Dtri_loud.wav,stimulus/audwhat_stim/percussion mallet_low-pitch_Ftri_loud.wav,stimulus/audwhat_stim/match_blank.png,stimulus/audwhat_stim/match_box.png,stimulus/audwhat_stim/match_yes.png,stimulus/audwhat_stim/match_no.png,1.0,Match,Category,Category,1,5.125,0,5.125,0,5.125,0,5.125,0,0.75,0.75,0,0,0,0,0,0,0,0,1,0.5,1,2.125,1,0.5,1,2.125,0,,,,,0,14,14,14,,,,,,,,,148.96494450001046,154.08609904101468,148.96494450001046,148.96494450001046,148.96494450001046,148.96494450001046,149.42400374999852,150.42246458301088,149.43689462467253,,151.0457311659993,152.04266179099795,151.05714995766564,,154.08609904101468,154.93398708300083,156.994626041007,160.92508225000347,154.93398708300083,154.93398708300083,160.12253449999844,154.93398708300083,154.93398708300083,154.93398708300083,154.93398708300083,155.39187991601648,156.4455519579933,155.36261812466935,,156.994626041007,158.0535566250037,156.9655969166818,,154.93398708300083,160.12253449999844,154.93398708300083,160.12253449999844,160.12253449999844,,154.93398708300083,2,0,2.5155269999813754,reldom2_s023,001,2025-02-27_16h08.10.195,Aud-B-Scan_AC,2022.2.5,None,
12,Second_Order,2.0,audwhat,stimulus/audwhat_stim/string viola_low-pitch_F_loud.wav,stimulus/audwhat_stim/string viola_high-pitch_Ftri_loud.wav,stimulus/audwhat_stim/percussion mallet_low-pitch_Ftri_loud.wav,stimulus/audwhat_stim/percussion xylophone_high-pitch_Dtri_loud.wav,stimulus/audwhat_stim/match_blank.png,stimulus/audwhat_stim/match_box.png,stimulus/audwhat_stim/match_yes.png,stimulus/audwhat_stim/match_no.png,1.0,Match,Category,Category,1,5.125,0,5.125,0,5.125,0,5.125,0,0.625,0.625,0,0,0,0,0,0,0,0,1,0.5,1,2.125,1,0.5,1,2.125,0,,,,,0,15,15,15,,,,,,,,,160.92508225000347,166.0462230000121,160.92508225000347,160.92508225000347,160.92508225000347,160.92508225000347,161.38468091600225,162.38316283299355,161.3976194166792,,163.00531758301076,164.00373637501616,163.0177610416761,,166.0462230000121,166.77650612499565,168.8205394160177,172.88115191599354,166.77650612499565,166.77650612499565,171.928091083013,166.77650612499565,166.77650612499565,166.77650612499565,166.77650612499565,167.2311517909984,168.2743742080056,167.20160408266045,,168.8205394160177,169.87328475000686,168.79128091666306,169.82755279101548,166.77650612499565,171.928091083013,166.77650612499565,171.928091083013,171.96868654101854,172.65108408301603,166.77650612499565,1,1,1.151804583001649,reldom2_s023,001,2025-02-27_16h08.10.195,Aud-B-Scan_AC,2022.2.5,None,
0,0.0,None,fixation,stimulus/audwhat_stim/blank_white.png,stimulus/audwhat_stim/blank_white.png,stimulus/audwhere_stim/blank_white.png,stimulus/audwhere_stim/blank_white.png,stimulus/audwhat_stim/blank_white.png,stimulus/audwhat_stim/blank_white.png,stimulus/audwhat_stim/blank_white.png,stimulus/audwhat_stim/blank_white.png,0.0,0.0,0.0,0.0,0,0.0,0,0.0,0,0.0,0,0.0,0,0.0,0.0,0,0,0,0,0,0,0,0,0,0.0,0,0.0,0,0.0,0,0.0,9,,,,,0,16,16,16,,,,,,,,,172.88115191599354,172.88115191599354,172.88115191599354,172.88115191599354,172.88115191599354,172.88115191599354,172.88115191599354,172.88115191599354,172.78441741634938,172.88115191599354,172.88115191599354,172.88115191599354,172.78441741634938,172.88115191599354,172.88115191599354,172.88115191599354,172.88115191599354,172.88115191599354,172.88115191599354,172.88115191599354,172.88115191599354,172.88115191599354,172.88115191599354,172.88115191599354,172.88115191599354,172.88115191599354,172.88115191599354,172.83441741634937,172.88115191599354,172.88115191599354,172.88115191599354,172.83441741634937,172.88115191599354,172.88115191599354,172.88115191599354,172.88115191599354,172.88115191599354,178.09124025001074,178.09124025001074,182.13090379099594,None,0,,reldom2_s023,001,2025-02-27_16h08.10.195,Aud-B-Scan_AC,2022.2.5,None,
13,First_Order,3.0,audwhere,stimulus/audwhere_stim/dummy.wav,stimulus/audwhere_stim/dummy.wav,stimulus/audwhere_stim/left_toward_290h.wav,stimulus/audwhere_stim/right_toward_280h.wav,stimulus/audwhere_stim/blank_white.png,stimulus/audwhere_stim/direction_box.png,stimulus/audwhere_stim/direction_yes.png,stimulus/audwhere_stim/direction_no.png,None,Direction,None,Direction,1,0.0,0,5.125,0,5.125,0,5.125,0,0.0,0.625,0,0,0,0,0,0,0,0,0,0.0,0,0.0,1,0.5,1,2.125,0,,,,,0,17,17,17,,,,,,,,,182.13090379099594,182.13090379099594,182.13090379099594,182.13090379099594,182.13090379099594,182.13090379099594,182.13090379099594,182.13090379099594,182.06072187468334,182.13090379099594,182.13090379099594,182.13090379099594,182.06072187468334,182.13090379099594,182.13090379099594,182.13090379099594,184.22138162501506,,182.13090379099594,182.13090379099594,187.28305037500104,182.13090379099594,182.13090379099594,182.13090379099594,182.13090379099594,182.59563095800695,183.66481183300493,182.56572229168185,,184.22138162501506,185.29062874999363,184.19124587468494,,182.13090379099594,187.28305037500104,182.13090379099594,187.28305037500104,187.32429779099766,187.97760974999983,182.13090379099594,1,1,1.276962874981109,reldom2_s023,001,2025-02-27_16h08.10.195,Aud-B-Scan_AC,2022.2.5,None,
14,First_Order,3.0,audwhere,stimulus/audwhere_stim/dummy.wav,stimulus/audwhere_stim/dummy.wav,stimulus/audwhere_stim/left_toward_270h.wav,stimulus/audwhere_stim/right_toward_290h.wav,stimulus/audwhere_stim/blank_white.png,stimulus/audwhere_stim/direction_box.png,stimulus/audwhere_stim/direction_yes.png,stimulus/audwhere_stim/direction_no.png,None,Direction,None,Direction,1,0.0,0,5.125,0,5.125,0,5.125,0,0.0,0.625,0,0,0,0,0,0,0,0,0,0.0,0,0.0,1,0.5,1,2.125,0,,,,,0,18,18,18,,,,,,,,,188.22960833300021,188.22960833300021,188.22960833300021,188.22960833300021,188.22960833300021,188.22960833300021,188.22960833300021,188.22960833300021,188.15144658333352,188.22960833300021,188.22960833300021,188.22960833300021,188.15144658333352,188.22960833300021,188.22960833300021,188.22960833300021,190.31559166600346,,188.22960833300021,188.22960833300021,193.385539541021,188.22960833300021,188.22960833300021,188.22960833300021,188.22960833300021,188.69131125000422,189.7595881250163,188.66173433268366,,190.31559166600346,191.38617254100973,190.28574145766132,,188.22960833300021,193.385539541021,188.22960833300021,193.385539541021,193.42642370800604,194.08079204100068,188.22960833300021,1,1,1.2576367919973563,reldom2_s023,001,2025-02-27_16h08.10.195,Aud-B-Scan_AC,2022.2.5,None,
15,First_Order,3.0,audwhere,stimulus/audwhere_stim/dummy.wav,stimulus/audwhere_stim/dummy.wav,stimulus/audwhere_stim/left_away_290h.wav,stimulus/audwhere_stim/left_toward_280h.wav,stimulus/audwhere_stim/blank_white.png,stimulus/audwhere_stim/direction_box.png,stimulus/audwhere_stim/direction_yes.png,stimulus/audwhere_stim/direction_no.png,None,Direction,None,Side,2,0.0,0,5.125,0,5.125,0,5.125,0,0.0,0.625,0,0,0,0,0,0,0,0,0,0.0,0,0.0,1,0.5,1,2.125,0,,,,,0,19,19,19,,,,,,,,,194.33361645799596,194.33361645799596,194.33361645799596,194.33361645799596,194.33361645799596,194.33361645799596,194.33361645799596,194.33361645799596,194.25494979132978,194.33361645799596,194.33361645799596,194.33361645799596,194.25494979132978,194.33361645799596,194.33361645799596,194.33361645799596,196.428713375004,200.44742133299587,194.33361645799596,194.33361645799596,199.49850141600473,194.33361645799596,194.33361645799596,194.33361645799596,194.33361645799596,194.79861545801396,195.8699181660195,194.7683630826689,,196.428713375004,197.50264683301793,196.39860866667394,,194.33361645799596,199.49850141600473,194.33361645799596,199.49850141600473,199.53961208299734,200.19460354099283,194.33361645799596,1,0,1.5261147079872899,reldom2_s023,001,2025-02-27_16h08.10.195,Aud-B-Scan_AC,2022.2.5,None,
16,First_Order,3.0,audwhere,stimulus/audwhere_stim/dummy.wav,stimulus/audwhere_stim/dummy.wav,stimulus/audwhere_stim/left_toward_300h.wav,stimulus/audwhere_stim/left_away_290h.wav,stimulus/audwhere_stim/blank_white.png,stimulus/audwhere_stim/direction_box.png,stimulus/audwhere_stim/direction_yes.png,stimulus/audwhere_stim/direction_no.png,None,Direction,None,Side,2,0.0,0,5.125,0,5.125,0,5.125,0,0.0,0.625,0,0,0,0,0,0,0,0,0,0.0,0,0.0,1,0.5,1,2.125,0,,,,,0,20,20,20,,,,,,,,,200.44742133299587,200.44742133299587,200.44742133299587,200.44742133299587,200.44742133299587,200.44742133299587,200.44742133299587,200.44742133299587,200.36822004133333,200.44742133299587,200.44742133299587,200.44742133299587,200.36822004133333,200.44742133299587,200.44742133299587,200.44742133299587,202.54064937500516,,200.44742133299587,200.44742133299587,205.6117545409943,200.44742133299587,200.44742133299587,200.44742133299587,200.44742133299587,200.91055595802027,201.9809164580074,200.88113316666957,,202.54064937500516,203.61382845800836,202.51108566666178,,200.44742133299587,205.6117545409943,200.44742133299587,205.6117545409943,205.65229837500374,206.30549608301953,200.44742133299587,1,0,1.4436396669771057,reldom2_s023,001,2025-02-27_16h08.10.195,Aud-B-Scan_AC,2022.2.5,None,
0,0.0,None,fixation,stimulus/audwhat_stim/blank_white.png,stimulus/audwhat_stim/blank_white.png,stimulus/audwhere_stim/blank_white.png,stimulus/audwhere_stim/blank_white.png,stimulus/audwhat_stim/blank_white.png,stimulus/audwhat_stim/blank_white.png,stimulus/audwhat_stim/blank_white.png,stimulus/audwhat_stim/blank_white.png,0.0,0.0,0.0,0.0,0,0.0,0,0.0,0,0.0,0,0.0,0,0.0,0.0,0,0,0,0,0,0,0,0,0,0.0,0,0.0,0,0.0,0,0.0,10,,,,,0,21,21,21,,,,,,,,,206.57881300000008,206.57881300000008,206.57881300000008,206.57881300000008,206.57881300000008,206.57881300000008,206.57881300000008,206.57881300000008,206.47959941634522,206.57881300000008,206.57881300000008,206.57881300000008,206.47959941634522,206.57881300000008,206.57881300000008,206.57881300000008,206.57881300000008,206.57881300000008,206.57881300000008,206.57881300000008,206.57881300000008,206.57881300000008,206.57881300000008,206.57881300000008,206.57881300000008,206.57881300000008,206.57881300000008,206.5295994163452,206.57881300000008,206.57881300000008,206.57881300000008,206.5295994163452,206.57881300000008,206.57881300000008,206.57881300000008,206.57881300000008,206.57881300000008,211.8145218330028,211.8145218330028,216.71394395802054,None,0,,reldom2_s023,001,2025-02-27_16h08.10.195,Aud-B-Scan_AC,2022.2.5,None,
17,Second_Order,3.0,audwhere,stimulus/audwhere_stim/right_toward_290h.wav,stimulus/audwhere_stim/right_away_290h.wav,stimulus/audwhere_stim/right_away_280h.wav,stimulus/audwhere_stim/left_away_300h.wav,stimulus/audwhat_stim/match_blank.png,stimulus/audwhat_stim/match_box.png,stimulus/audwhat_stim/match_yes.png,stimulus/audwhat_stim/match_no.png,2.0,Match,Side,Direction,2,5.125,0,5.125,0,5.125,0,5.125,0,0.75,0.75,0,0,0,0,0,0,0,0,1,0.5,1,2.125,1,0.5,1,2.125,0,,,,,0,22,22,22,,,,,,,,,216.71394395802054,221.83706220801105,216.71394395802054,216.71394395802054,216.71394395802054,216.71394395802054,217.1618126660178,218.14876033301698,217.17598262467462,,218.79670008301036,219.7867282910156,218.79994670767726,,221.83706220801105,222.68735062499763,224.75618437500088,,222.68735062499763,222.68735062499763,227.8479987080209,222.68735062499763,222.68735062499763,222.68735062499763,222.68735062499763,223.1459589159931,224.20516245800536,223.11635508266434,,224.75618437500088,225.8188561660063,224.72665783268556,,222.68735062499763,227.8479987080209,222.68735062499763,227.8479987080209,227.8479987080209,,222.68735062499763,1,0,2.204111250001006,reldom2_s023,001,2025-02-27_16h08.10.195,Aud-B-Scan_AC,2022.2.5,None,
18,Second_Order,3.0,audwhere,stimulus/audwhere_stim/right_toward_270h.wav,stimulus/audwhere_stim/left_toward_270h.wav,stimulus/audwhere_stim/right_away_300h.wav,stimulus/audwhere_stim/left_away_280h.wav,stimulus/audwhat_stim/match_blank.png,stimulus/audwhat_stim/match_box.png,stimulus/audwhat_stim/match_yes.png,stimulus/audwhat_stim/match_no.png,1.0,Match,Direction,Direction,1,5.125,0,5.125,0,5.125,0,5.125,0,0.625,0.625,0,0,0,0,0,0,0,0,1,0.5,1,2.125,1,0.5,1,2.125,0,,,,,0,23,23,23,,,,,,,,,228.65601608299767,233.7697668329929,228.65601608299767,228.65601608299767,228.65601608299767,228.65601608299767,229.10766837501433,230.10649316600757,229.1207424166826,,230.7410455000063,231.73015329102054,230.7442875416639,,233.7697668329929,234.49983908300055,236.5486030000029,,234.49983908300055,234.49983908300055,239.66100625001127,234.49983908300055,234.49983908300055,234.49983908300055,234.49983908300055,234.95428375000483,236.00025500002084,234.92529966668033,,236.5486030000029,237.6020403750008,236.51957195767707,,234.49983908300055,239.66100625001127,234.49983908300055,239.66100625001127,239.66100625001127,240.3455614580016,234.49983908300055,1,1,3.0744999169837683,reldom2_s023,001,2025-02-27_16h08.10.195,Aud-B-Scan_AC,2022.2.5,None,
0,0.0,None,fixation,stimulus/audwhat_stim/blank_white.png,stimulus/audwhat_stim/blank_white.png,stimulus/audwhere_stim/blank_white.png,stimulus/audwhere_stim/blank_white.png,stimulus/audwhat_stim/blank_white.png,stimulus/audwhat_stim/blank_white.png,stimulus/audwhat_stim/blank_white.png,stimulus/audwhat_stim/blank_white.png,0.0,0.0,0.0,0.0,0,0.0,0,0.0,0,0.0,0,0.0,0,0.0,0.0,0,0,0,0,0,0,0,0,0,0.0,0,0.0,0,0.0,0,0.0,8,,,,,0,24,24,24,,,,,,,,,240.57624558301177,240.57624558301177,240.57624558301177,240.57624558301177,240.57624558301177,240.57624558301177,240.57624558301177,240.57624558301177,240.47889479133497,240.57624558301177,240.57624558301177,240.57624558301177,240.47889479133497,240.57624558301177,240.57624558301177,240.57624558301177,240.57624558301177,240.57624558301177,240.57624558301177,240.57624558301177,240.57624558301177,240.57624558301177,240.57624558301177,240.57624558301177,240.57624558301177,240.57624558301177,240.57624558301177,240.52889479133495,240.57624558301177,240.57624558301177,240.57624558301177,240.52889479133495,240.57624558301177,240.57624558301177,240.57624558301177,240.57624558301177,240.57624558301177,245.76062458299566,245.76062458299566,248.80955304100644,None,0,,reldom2_s023,001,2025-02-27_16h08.10.195,Aud-B-Scan_AC,2022.2.5,None,
19,First_Order,4.0,audwhere,stimulus/audwhere_stim/dummy.wav,stimulus/audwhere_stim/dummy.wav,stimulus/audwhere_stim/right_toward_280h.wav,stimulus/audwhere_stim/left_toward_280h.wav,stimulus/audwhere_stim/blank_white.png,stimulus/audwhere_stim/side_box.png,stimulus/audwhere_stim/side_yes.png,stimulus/audwhere_stim/side_no.png,None,Side,None,Direction,2,0.0,0,5.125,0,5.125,0,5.125,0,0.0,0.625,0,0,0,0,0,0,0,0,0,0.0,0,0.0,1,0.5,1,2.125,0,,,,,0,25,25,25,,,,,,,,,248.80955304100644,248.80955304100644,248.80955304100644,248.80955304100644,248.80955304100644,248.80955304100644,248.80955304100644,248.80955304100644,248.7384177076844,248.80955304100644,248.80955304100644,248.80955304100644,248.7384177076844,248.80955304100644,248.80955304100644,248.80955304100644,250.8893735409947,254.9298169160029,248.80955304100644,248.80955304100644,253.98291262501152,248.80955304100644,248.80955304100644,248.80955304100644,248.80955304100644,249.27420083299512,250.33579666601145,249.24421708268736,,250.8893735409947,251.95389691600576,250.86002404167473,,248.80955304100644,253.98291262501152,248.80955304100644,253.98291262501152,254.02404404099798,254.67588687501848,248.80955304100644,2,1,1.5649692919978406,reldom2_s023,001,2025-02-27_16h08.10.195,Aud-B-Scan_AC,2022.2.5,None,
20,First_Order,4.0,audwhere,stimulus/audwhere_stim/dummy.wav,stimulus/audwhere_stim/dummy.wav,stimulus/audwhere_stim/left_toward_290h.wav,stimulus/audwhere_stim/right_toward_270h.wav,stimulus/audwhere_stim/blank_white.png,stimulus/audwhere_stim/side_box.png,stimulus/audwhere_stim/side_yes.png,stimulus/audwhere_stim/side_no.png,None,Side,None,Direction,2,0.0,0,5.125,0,5.125,0,5.125,0,0.0,0.625,0,0,0,0,0,0,0,0,0,0.0,0,0.0,1,0.5,1,2.125,0,,,,,0,26,26,26,,,,,,,,,254.9298169160029,254.9298169160029,254.9298169160029,254.9298169160029,254.9298169160029,254.9298169160029,254.9298169160029,254.9298169160029,254.85062795833997,254.9298169160029,254.9298169160029,254.9298169160029,254.85062795833997,254.9298169160029,254.9298169160029,254.9298169160029,257.0101107080118,,254.9298169160029,254.9298169160029,260.11544512500404,254.9298169160029,254.9298169160029,254.9298169160029,254.9298169160029,255.39480733301025,256.45458804100053,255.3648090826794,,257.0101107080118,258.0768381250091,256.9801544996774,,254.9298169160029,260.11544512500404,254.9298169160029,260.11544512500404,260.156572833017,260.8079746660078,254.9298169160029,2,1,1.981736165995244,reldom2_s023,001,2025-02-27_16h08.10.195,Aud-B-Scan_AC,2022.2.5,None,
21,First_Order,4.0,audwhere,stimulus/audwhere_stim/dummy.wav,stimulus/audwhere_stim/dummy.wav,stimulus/audwhere_stim/left_toward_270h.wav,stimulus/audwhere_stim/left_away_300h.wav,stimulus/audwhere_stim/blank_white.png,stimulus/audwhere_stim/side_box.png,stimulus/audwhere_stim/side_yes.png,stimulus/audwhere_stim/side_no.png,None,Side,None,Side,1,0.0,0,5.125,0,5.125,0,5.125,0,0.0,0.625,0,0,0,0,0,0,0,0,0,0.0,0,0.0,1,0.5,1,2.125,0,,,,,0,27,27,27,,,,,,,,,261.0201705410145,261.0201705410145,261.0201705410145,261.0201705410145,261.0201705410145,261.0201705410145,261.0201705410145,261.0201705410145,260.9413079993411,261.0201705410145,261.0201705410145,261.0201705410145,260.9413079993411,261.0201705410145,261.0201705410145,261.0201705410145,263.10177841602126,267.14941974999965,261.0201705410145,261.0201705410145,266.20299187500495,261.0201705410145,261.0201705410145,261.0201705410145,261.0201705410145,261.4856440000003,262.54848533301265,261.4557210416863,,263.10177841602126,264.1693813750171,263.07210891668024,,261.0201705410145,266.20299187500495,261.0201705410145,266.20299187500495,266.24416929102154,266.8968860830064,261.0201705410145,2,0,2.4620766660082154,reldom2_s023,001,2025-02-27_16h08.10.195,Aud-B-Scan_AC,2022.2.5,None,
22,First_Order,4.0,audwhere,stimulus/audwhere_stim/dummy.wav,stimulus/audwhere_stim/dummy.wav,stimulus/audwhere_stim/left_away_290h.wav,stimulus/audwhere_stim/left_toward_270h.wav,stimulus/audwhere_stim/blank_white.png,stimulus/audwhere_stim/side_box.png,stimulus/audwhere_stim/side_yes.png,stimulus/audwhere_stim/side_no.png,None,Side,None,Side,1,0.0,0,5.125,0,5.125,0,5.125,0,0.0,0.625,0,0,0,0,0,0,0,0,0,0.0,0,0.0,1,0.5,1,2.125,0,,,,,0,28,28,28,,,,,,,,,267.14941974999965,267.14941974999965,267.14941974999965,267.14941974999965,267.14941974999965,267.14941974999965,267.14941974999965,267.14941974999965,267.0709764583463,267.14941974999965,267.14941974999965,267.14941974999965,267.0709764583463,267.14941974999965,267.14941974999965,267.14941974999965,269.2339614579978,,267.14941974999965,267.14941974999965,272.33617225001217,267.14941974999965,267.14941974999965,267.14941974999965,267.14941974999965,267.6149066250073,268.67723987501813,267.58492591666095,,269.2339614579978,270.2995179160207,269.2035663326717,,267.14941974999965,272.33617225001217,267.14941974999965,272.33617225001217,272.37725129100727,273.02960387500934,267.14941974999965,1,1,1.8146125829953235,reldom2_s023,001,2025-02-27_16h08.10.195,Aud-B-Scan_AC,2022.2.5,None,
0,0.0,None,fixation,stimulus/audwhat_stim/blank_white.png,stimulus/audwhat_stim/blank_white.png,stimulus/audwhere_stim/blank_white.png,stimulus/audwhere_stim/blank_white.png,stimulus/audwhat_stim/blank_white.png,stimulus/audwhat_stim/blank_white.png,stimulus/audwhat_stim/blank_white.png,stimulus/audwhat_stim/blank_white.png,0.0,0.0,0.0,0.0,0,0.0,0,0.0,0,0.0,0,0.0,0,0.0,0.0,0,0,0,0,0,0,0,0,0,0.0,0,0.0,0,0.0,0,0.0,10,,,,,0,29,29,29,,,,,,,,,273.26368912501493,273.26368912501493,273.26368912501493,273.26368912501493,273.26368912501493,273.26368912501493,273.26368912501493,273.26368912501493,273.16293720834267,273.26368912501493,273.26368912501493,273.26368912501493,273.16293720834267,273.26368912501493,273.26368912501493,273.26368912501493,273.26368912501493,273.26368912501493,273.26368912501493,273.26368912501493,273.26368912501493,273.26368912501493,273.26368912501493,273.26368912501493,273.26368912501493,273.26368912501493,273.26368912501493,273.2129372083427,273.26368912501493,273.26368912501493,273.26368912501493,273.2129372083427,273.26368912501493,273.26368912501493,273.26368912501493,273.26368912501493,273.26368912501493,278.4481866660062,278.4481866660062,283.4087370829948,None,0,,reldom2_s023,001,2025-02-27_16h08.10.195,Aud-B-Scan_AC,2022.2.5,None,
23,Second_Order,4.0,audwhere,stimulus/audwhere_stim/right_toward_300h.wav,stimulus/audwhere_stim/left_toward_270h.wav,stimulus/audwhere_stim/left_away_300h.wav,stimulus/audwhere_stim/right_away_300h.wav,stimulus/audwhat_stim/match_blank.png,stimulus/audwhat_stim/match_box.png,stimulus/audwhat_stim/match_yes.png,stimulus/audwhat_stim/match_no.png,1.0,Match,Direction,Direction,1,5.125,0,5.125,0,5.125,0,5.125,0,0.75,0.75,0,0,0,0,0,0,0,0,1,0.5,1,2.125,1,0.5,1,2.125,0,,,,,0,30,30,30,,,,,,,,,283.4087370829948,288.52992558301776,283.4087370829948,283.4087370829948,283.4087370829948,283.4087370829948,283.86672545800684,284.85267287501483,283.8804304996777,,285.48890416600625,286.4865597500175,285.50094141666,,288.52992558301776,289.3732381660084,291.45046845800243,,289.3732381660084,289.3732381660084,294.5488856250013,289.3732381660084,289.3732381660084,289.3732381660084,289.3732381660084,289.8320977910189,290.894464291021,289.80281354167187,,291.45046845800243,292.51550150002004,291.4214798326759,,289.3732381660084,294.5488856250013,289.3732381660084,294.5488856250013,294.5488856250013,,289.3732381660084,2,0,1.5627691249828786,reldom2_s023,001,2025-02-27_16h08.10.195,Aud-B-Scan_AC,2022.2.5,None,
24,Second_Order,4.0,audwhere,stimulus/audwhere_stim/right_toward_300h.wav,stimulus/audwhere_stim/left_toward_300h.wav,stimulus/audwhere_stim/left_away_290h.wav,stimulus/audwhere_stim/right_away_280h.wav,stimulus/audwhat_stim/match_blank.png,stimulus/audwhat_stim/match_box.png,stimulus/audwhat_stim/match_yes.png,stimulus/audwhat_stim/match_no.png,1.0,Match,Direction,Direction,1,5.125,0,5.125,0,5.125,0,5.125,0,0.625,0.625,0,0,0,0,0,0,0,0,1,0.5,1,2.125,1,0.5,1,2.125,0,,,,,0,31,31,31,,,,,,,,,295.36127120800666,300.4740432910039,295.36127120800666,295.36127120800666,295.36127120800666,295.36127120800666,295.8101722910069,296.79763158300193,295.8241824576728,,297.4449993750022,298.43391362502007,297.4483947076699,,300.4740432910039,301.2051576249942,303.26616491601453,307.31609491599374,301.2051576249942,301.2051576249942,306.3977439580194,301.2051576249942,301.2051576249942,301.2051576249942,301.2051576249942,301.6167965000204,302.66835733299376,301.58806774966456,,303.26616491601453,304.3267274160171,303.23664429167206,,301.2051576249942,306.3977439580194,301.2051576249942,306.3977439580194,306.3977439580194,307.08392762500443,301.2051576249942,1,1,0.8019049169961363,reldom2_s023,001,2025-02-27_16h08.10.195,Aud-B-Scan_AC,2022.2.5,None,
0,0.0,None,fixation,stimulus/audwhat_stim/blank_white.png,stimulus/audwhat_stim/blank_white.png,stimulus/audwhere_stim/blank_white.png,stimulus/audwhere_stim/blank_white.png,stimulus/audwhat_stim/blank_white.png,stimulus/audwhat_stim/blank_white.png,stimulus/audwhat_stim/blank_white.png,stimulus/audwhat_stim/blank_white.png,0.0,0.0,0.0,0.0,0,0.0,0,0.0,0,0.0,0,0.0,0,0.0,0.0,0,0,0,0,0,0,0,0,0,0.0,0,0.0,0,0.0,0,0.0,9,,,,,0,32,32,32,,,,,,,,,307.31609491599374,307.31609491599374,307.31609491599374,307.31609491599374,307.31609491599374,307.31609491599374,307.31609491599374,307.31609491599374,307.21726095833776,307.31609491599374,307.31609491599374,307.31609491599374,307.21726095833776,307.31609491599374,307.31609491599374,307.31609491599374,307.31609491599374,307.31609491599374,307.31609491599374,307.31609491599374,307.31609491599374,307.31609491599374,307.31609491599374,307.31609491599374,307.31609491599374,307.31609491599374,307.31609491599374,307.2672609583378,307.31609491599374,307.31609491599374,307.31609491599374,307.2672609583378,307.31609491599374,307.31609491599374,307.31609491599374,307.31609491599374,307.31609491599374,312.51982812501956,312.51982812501956,316.5444295410125,None,0,,reldom2_s023,001,2025-02-27_16h08.10.195,Aud-B-Scan_AC,2022.2.5,None,
25,First_Order,5.0,audwhat,stimulus/audwhat_stim/dummy.wav,stimulus/audwhat_stim/dummy.wav,stimulus/audwhat_stim/percussion xylophone_high-pitch_Ftri_loud.wav,stimulus/audwhat_stim/percussion mallet_low-pitch_F_loud.wav,stimulus/audwhat_stim/blank_white.png,stimulus/audwhat_stim/pitch_box.png,stimulus/audwhat_stim/pitch_yes.png,stimulus/audwhat_stim/pitch_no.png,None,Pitch,None,Category,2,0.0,0,5.125,0,5.125,0,5.125,0,0.0,0.625,0,0,0,0,0,0,0,0,0,0.0,0,0.0,1,0.5,1,2.125,0,,,,,0,33,33,33,,,,,,,,,316.5444295410125,316.5444295410125,316.5444295410125,316.5444295410125,316.5444295410125,316.5444295410125,316.5444295410125,316.5444295410125,316.47293687467265,316.5444295410125,316.5444295410125,316.5444295410125,316.47293687467265,316.5444295410125,316.5444295410125,316.5444295410125,318.62524658301845,,316.5444295410125,316.5444295410125,321.7278498329979,316.5444295410125,316.5444295410125,316.5444295410125,316.5444295410125,317.0068372079986,318.0708346659958,316.97717516665966,318.0244614580006,318.62524658301845,319.6915410000074,318.5954397076605,,316.5444295410125,321.7278498329979,316.5444295410125,321.7278498329979,321.7688882910006,322.4220561250113,316.5444295410125,1,0,1.777155749994563,reldom2_s023,001,2025-02-27_16h08.10.195,Aud-B-Scan_AC,2022.2.5,None,
26,First_Order,5.0,audwhat,stimulus/audwhat_stim/dummy.wav,stimulus/audwhat_stim/dummy.wav,stimulus/audwhat_stim/percussion mallet_low-pitch_Dtri_loud.wav,stimulus/audwhat_stim/percussion xylophone_high-pitch_Ftri_loud.wav,stimulus/audwhat_stim/blank_white.png,stimulus/audwhat_stim/category_box.png,stimulus/audwhat_stim/category_yes.png,stimulus/audwhat_stim/category_no.png,None,Category,None,Category,1,0.0,0,5.125,0,5.125,0,5.125,0,0.0,0.625,0,0,0,0,0,0,0,0,0,0.0,0,0.0,1,0.5,1,2.125,0,,,,,0,34,34,34,,,,,,,,,322.6348831249925,322.6348831249925,322.6348831249925,322.6348831249925,322.6348831249925,322.6348831249925,322.6348831249925,322.6348831249925,322.5553894583446,322.6348831249925,322.6348831249925,322.6348831249925,322.5553894583446,322.6348831249925,322.6348831249925,322.6348831249925,324.73212720800075,328.75519300001906,322.6348831249925,322.6348831249925,327.8060929159983,322.6348831249925,322.6348831249925,322.6348831249925,322.6348831249925,323.10086299999966,324.1734192080039,323.07059837467773,,324.73212720800075,325.8067076250154,324.7020673326663,325.76033341599395,322.6348831249925,327.8060929159983,322.6348831249925,327.8060929159983,327.8470717500022,328.5012875829998,322.6348831249925,1,1,2.510888042015722,reldom2_s023,001,2025-02-27_16h08.10.195,Aud-B-Scan_AC,2022.2.5,None,
27,First_Order,5.0,audwhat,stimulus/audwhat_stim/dummy.wav,stimulus/audwhat_stim/dummy.wav,stimulus/audwhat_stim/string cello_low-pitch_Dtri_loud.wav,stimulus/audwhat_stim/percussion mallet_low-pitch_Dtri_loud.wav,stimulus/audwhat_stim/blank_white.png,stimulus/audwhat_stim/pitch_box.png,stimulus/audwhat_stim/pitch_yes.png,stimulus/audwhat_stim/pitch_no.png,None,Pitch,None,Pitch,1,0.0,0,5.125,0,5.125,0,5.125,0,0.0,0.625,0,0,0,0,0,0,0,0,0,0.0,0,0.0,1,0.5,1,2.125,0,,,,,0,35,35,35,,,,,,,,,328.75519300001906,328.75519300001906,328.75519300001906,328.75519300001906,328.75519300001906,328.75519300001906,328.75519300001906,328.75519300001906,328.67535487434554,328.75519300001906,328.75519300001906,328.75519300001906,328.67535487434554,328.75519300001906,328.75519300001906,328.75519300001906,330.8416525000066,,328.75519300001906,328.75519300001906,333.90506170800654,328.75519300001906,328.75519300001906,328.75519300001906,328.75519300001906,329.2207471659931,330.28647666602046,329.1899652916802,,330.8416525000066,331.91205237500253,330.8119343326873,,328.75519300001906,333.90506170800654,328.75519300001906,333.90506170800654,333.9458044159983,334.5986725410039,328.75519300001906,1,1,1.7951217079826165,reldom2_s023,001,2025-02-27_16h08.10.195,Aud-B-Scan_AC,2022.2.5,None,
28,First_Order,5.0,audwhat,stimulus/audwhat_stim/dummy.wav,stimulus/audwhat_stim/dummy.wav,stimulus/audwhat_stim/percussion xylophone_high-pitch_Ftri_loud.wav,stimulus/audwhat_stim/percussion mallet_low-pitch_F_loud.wav,stimulus/audwhat_stim/blank_white.png,stimulus/audwhat_stim/category_box.png,stimulus/audwhat_stim/category_yes.png,stimulus/audwhat_stim/category_no.png,None,Category,None,Category,1,0.0,0,5.125,0,5.125,0,5.125,0,0.0,0.625,0,0,0,0,0,0,0,0,0,0.0,0,0.0,1,0.5,1,2.125,0,,,,,0,36,36,36,,,,,,,,,334.85269158301526,334.85269158301526,334.85269158301526,334.85269158301526,334.85269158301526,334.85269158301526,334.85269158301526,334.85269158301526,334.7726216663451,334.85269158301526,334.85269158301526,334.85269158301526,334.7726216663451,334.85269158301526,334.85269158301526,334.85269158301526,336.95325962500647,,334.85269158301526,334.85269158301526,340.0317226659972,334.85269158301526,334.85269158301526,334.85269158301526,334.85269158301526,335.32030975000816,336.390566749993,335.2902090416794,336.3444063750212,336.95325962500647,337.98496579099447,336.9230264576656,,334.85269158301526,340.0317226659972,334.85269158301526,340.0317226659972,340.07298550000996,340.73078616600833,334.85269158301526,2,0,2.548563166987151,reldom2_s023,001,2025-02-27_16h08.10.195,Aud-B-Scan_AC,2022.2.5,None,
0,0.0,None,fixation,stimulus/audwhat_stim/blank_white.png,stimulus/audwhat_stim/blank_white.png,stimulus/audwhere_stim/blank_white.png,stimulus/audwhere_stim/blank_white.png,stimulus/audwhat_stim/blank_white.png,stimulus/audwhat_stim/blank_white.png,stimulus/audwhat_stim/blank_white.png,stimulus/audwhat_stim/blank_white.png,0.0,0.0,0.0,0.0,0,0.0,0,0.0,0,0.0,0,0.0,0,0.0,0.0,0,0,0,0,0,0,0,0,0,0.0,0,0.0,0,0.0,0,0.0,8,,,,,0,37,37,37,,,,,,,,,340.9634616250114,340.9634616250114,340.9634616250114,340.9634616250114,340.9634616250114,340.9634616250114,340.9634616250114,340.9634616250114,340.86411949934165,340.9634616250114,340.9634616250114,340.9634616250114,340.86411949934165,340.9634616250114,340.9634616250114,340.9634616250114,340.9634616250114,340.9634616250114,340.9634616250114,340.9634616250114,340.9634616250114,340.9634616250114,340.9634616250114,340.9634616250114,340.9634616250114,340.9634616250114,340.9634616250114,340.91411949934167,340.9634616250114,340.9634616250114,340.9634616250114,340.91411949934167,340.9634616250114,340.9634616250114,340.9634616250114,340.9634616250114,340.9634616250114,346.16572416599956,346.16572416599956,349.0938870829996,None,0,,reldom2_s023,001,2025-02-27_16h08.10.195,Aud-B-Scan_AC,2022.2.5,None,
29,Second_Order,5.0,audwhat,stimulus/audwhat_stim/string viola_low-pitch_Dtri_loud.wav,stimulus/audwhat_stim/percussion mallet_low-pitch_Dtri_loud.wav,stimulus/audwhat_stim/string viola_low-pitch_Dtri_loud.wav,stimulus/audwhat_stim/string cello_high-pitch_Ftri_loud.wav,stimulus/audwhat_stim/match_blank.png,stimulus/audwhat_stim/match_box.png,stimulus/audwhat_stim/match_yes.png,stimulus/audwhat_stim/match_no.png,2.0,Match,Pitch,Category,2,5.125,0,5.125,0,5.125,0,5.125,0,0.75,0.75,0,0,0,0,0,0,0,0,1,0.5,1,2.125,1,0.5,1,2.125,0,,,,,0,38,38,38,,,,,,,,,349.0938870829996,354.21452000000863,349.0938870829996,349.0938870829996,349.0938870829996,349.0938870829996,349.55299862500397,350.55106962501304,349.5658524576613,,351.1742808750132,352.17157116599265,351.1862194576863,352.1750177080103,354.21452000000863,355.06228979100706,357.13900233301683,361.05091395799536,355.06228979100706,355.06228979100706,360.2416784160014,355.06228979100706,355.06228979100706,355.06228979100706,355.06228979100706,355.4776020410063,356.53859295800794,355.44825849967697,,357.13900233301683,358.20656054100255,357.1100242496798,,355.06228979100706,360.2416784160014,355.06228979100706,360.2416784160014,360.2416784160014,,355.06228979100706,2,1,2.44059237500187,reldom2_s023,001,2025-02-27_16h08.10.195,Aud-B-Scan_AC,2022.2.5,None,
30,Second_Order,5.0,audwhat,stimulus/audwhat_stim/string viola_high-pitch_Ftri_loud.wav,stimulus/audwhat_stim/percussion xylophone_high-pitch_Ftri_loud.wav,stimulus/audwhat_stim/string viola_low-pitch_D_loud.wav,stimulus/audwhat_stim/percussion mallet_low-pitch_D_loud.wav,stimulus/audwhat_stim/match_blank.png,stimulus/audwhat_stim/match_box.png,stimulus/audwhat_stim/match_yes.png,stimulus/audwhat_stim/match_no.png,1.0,Match,Pitch,Pitch,1,5.125,0,5.125,0,5.125,0,5.125,0,0.625,0.625,0,0,0,0,0,0,0,0,1,0.5,1,2.125,1,0.5,1,2.125,0,,,,,0,39,39,39,,,,,,,,,361.05091395799536,366.1755685410171,361.05091395799536,361.05091395799536,361.05091395799536,361.05091395799536,361.5094283329963,362.4992698749993,361.51372470768206,,363.13534037501086,364.13262520800345,363.1470131666613,364.13593941600993,366.1755685410171,366.9048511250003,368.96326954101096,373.0220251250139,366.9048511250003,366.9048511250003,372.0985812910076,366.9048511250003,366.9048511250003,366.9048511250003,366.9048511250003,367.3617151660146,368.4144688330125,367.33237620766545,,368.96326954101096,370.025938708015,368.93393358268463,,366.9048511250003,372.0985812910076,366.9048511250003,372.0985812910076,372.0985812910076,372.7486815410084,366.9048511250003,1,1,0.6254640829865821,reldom2_s023,001,2025-02-27_16h08.10.195,Aud-B-Scan_AC,2022.2.5,None,
0,0.0,None,fixation,stimulus/audwhat_stim/blank_white.png,stimulus/audwhat_stim/blank_white.png,stimulus/audwhere_stim/blank_white.png,stimulus/audwhere_stim/blank_white.png,stimulus/audwhat_stim/blank_white.png,stimulus/audwhat_stim/blank_white.png,stimulus/audwhat_stim/blank_white.png,stimulus/audwhat_stim/blank_white.png,0.0,0.0,0.0,0.0,0,0.0,0,0.0,0,0.0,0,0.0,0,0.0,0.0,0,0,0,0,0,0,0,0,0,0.0,0,0.0,0,0.0,0,0.0,9,,,,,0,40,40,40,,,,,,,,,373.0220251250139,373.0220251250139,373.0220251250139,373.0220251250139,373.0220251250139,373.0220251250139,373.0220251250139,373.0220251250139,372.92273374935223,373.0220251250139,373.0220251250139,373.0220251250139,372.92273374935223,373.0220251250139,373.0220251250139,373.0220251250139,373.0220251250139,373.0220251250139,373.0220251250139,373.0220251250139,373.0220251250139,373.0220251250139,373.0220251250139,373.0220251250139,373.0220251250139,373.0220251250139,373.0220251250139,372.97273374935224,373.0220251250139,373.0220251250139,373.0220251250139,372.97273374935224,373.0220251250139,373.0220251250139,373.0220251250139,373.0220251250139,373.0220251250139,378.228716875019,378.228716875019,382.24609625001904,None,0,,reldom2_s023,001,2025-02-27_16h08.10.195,Aud-B-Scan_AC,2022.2.5,None,
31,First_Order,6.0,audwhat,stimulus/audwhat_stim/dummy.wav,stimulus/audwhat_stim/dummy.wav,stimulus/audwhat_stim/string viola_low-pitch_D_loud.wav,stimulus/audwhat_stim/percussion mallet_low-pitch_D_loud.wav,stimulus/audwhat_stim/blank_white.png,stimulus/audwhat_stim/category_box.png,stimulus/audwhat_stim/category_yes.png,stimulus/audwhat_stim/category_no.png,None,Category,None,Pitch,2,0.0,0,5.125,0,5.125,0,5.125,0,0.0,0.625,0,0,0,0,0,0,0,0,0,0.0,0,0.0,1,0.5,1,2.125,0,,,,,0,41,41,41,,,,,,,,,382.24609625001904,382.24609625001904,382.24609625001904,382.24609625001904,382.24609625001904,382.24609625001904,382.24609625001904,382.24609625001904,382.17426612467773,382.24609625001904,382.24609625001904,382.24609625001904,382.17426612467773,382.24609625001904,382.24609625001904,382.24609625001904,384.3381871659949,,382.24609625001904,382.24609625001904,387.4049626250053,382.24609625001904,382.24609625001904,382.24609625001904,382.24609625001904,382.7107940830174,383.780046083004,382.68057512466135,,384.3381871659949,385.40886033300194,384.307989624682,,382.24609625001904,387.4049626250053,382.24609625001904,387.4049626250053,387.4463295410096,388.10126975001185,382.24609625001904,2,1,2.3435132499726024,reldom2_s023,001,2025-02-27_16h08.10.195,Aud-B-Scan_AC,2022.2.5,None,
32,First_Order,6.0,audwhat,stimulus/audwhat_stim/dummy.wav,stimulus/audwhat_stim/dummy.wav,stimulus/audwhat_stim/percussion mallet_high-pitch_Dtri_loud.wav,stimulus/audwhat_stim/string viola_high-pitch_Dtri_loud.wav,stimulus/audwhat_stim/blank_white.png,stimulus/audwhat_stim/pitch_box.png,stimulus/audwhat_stim/pitch_yes.png,stimulus/audwhat_stim/pitch_no.png,None,Pitch,None,Pitch,1,0.0,0,5.125,0,5.125,0,5.125,0,0.0,0.625,0,0,0,0,0,0,0,0,0,0.0,0,0.0,1,0.5,1,2.125,0,,,,,0,42,42,42,,,,,,,,,388.35458587500034,388.35458587500034,388.35458587500034,388.35458587500034,388.35458587500034,388.35458587500034,388.35458587500034,388.35458587500034,388.2749767083461,388.35458587500034,388.35458587500034,388.35458587500034,388.2749767083461,388.35458587500034,388.35458587500034,388.35458587500034,390.4390311659954,,388.35458587500034,388.35458587500034,393.54703604101087,388.35458587500034,388.35458587500034,388.35458587500034,388.35458587500034,388.81795054100803,389.88290475000395,388.78792033266313,,390.4390311659954,391.50931983301416,390.4092488326753,,388.35458587500034,393.54703604101087,388.35458587500034,393.54703604101087,393.54703604101087,394.2004088330141,388.35458587500034,1,1,1.2516478750039823,reldom2_s023,001,2025-02-27_16h08.10.195,Aud-B-Scan_AC,2022.2.5,None,
33,First_Order,6.0,audwhat,stimulus/audwhat_stim/dummy.wav,stimulus/audwhat_stim/dummy.wav,stimulus/audwhat_stim/string cello_high-pitch_D_loud.wav,stimulus/audwhat_stim/string viola_low-pitch_F_loud.wav,stimulus/audwhat_stim/blank_white.png,stimulus/audwhat_stim/pitch_box.png,stimulus/audwhat_stim/pitch_yes.png,stimulus/audwhat_stim/pitch_no.png,None,Pitch,None,Category,2,0.0,0,5.125,0,5.125,0,5.125,0,0.0,0.625,0,0,0,0,0,0,0,0,0,0.0,0,0.0,1,0.5,1,2.125,0,,,,,0,43,43,43,,,,,,,,,394.4538614159974,394.4538614159974,394.4538614159974,394.4538614159974,394.4538614159974,394.4538614159974,394.4538614159974,394.4538614159974,394.37450179134805,394.4538614159974,394.4538614159974,394.4538614159974,394.37450179134805,394.4538614159974,394.4538614159974,394.4538614159974,396.53706520801643,,394.4538614159974,394.4538614159974,399.64752900000894,394.4538614159974,394.4538614159974,394.4538614159974,394.4538614159974,394.91711008301354,395.98298408300616,394.8875864576878,,396.53706520801643,397.6066736660141,396.50717433265913,,394.4538614159974,399.64752900000894,394.4538614159974,399.64752900000894,399.64752900000894,400.3005279999925,394.4538614159974,1,0,2.921885249990737,reldom2_s023,001,2025-02-27_16h08.10.195,Aud-B-Scan_AC,2022.2.5,None,
34,First_Order,6.0,audwhat,stimulus/audwhat_stim/dummy.wav,stimulus/audwhat_stim/dummy.wav,stimulus/audwhat_stim/percussion mallet_low-pitch_F_loud.wav,stimulus/audwhat_stim/string viola_low-pitch_F_loud.wav,stimulus/audwhat_stim/blank_white.png,stimulus/audwhat_stim/category_box.png,stimulus/audwhat_stim/category_yes.png,stimulus/audwhat_stim/category_no.png,None,Category,None,Pitch,2,0.0,0,5.125,0,5.125,0,5.125,0,0.0,0.625,0,0,0,0,0,0,0,0,0,0.0,0,0.0,1,0.5,1,2.125,0,,,,,0,44,44,44,,,,,,,,,400.5536776249937,400.5536776249937,400.5536776249937,400.5536776249937,400.5536776249937,400.5536776249937,400.5536776249937,400.5536776249937,400.4739618743498,400.5536776249937,400.5536776249937,400.5536776249937,400.4739618743498,400.5536776249937,400.5536776249937,400.5536776249937,402.65336975001264,406.703236500005,400.5536776249937,400.5536776249937,405.7292849580117,400.5536776249937,400.5536776249937,400.5536776249937,400.5536776249937,401.0188289160142,402.04811970799346,400.98850541667,,402.65336975001264,403.72827929101186,402.62306724966425,,400.5536776249937,405.7292849580117,400.5536776249937,405.7292849580117,405.77088349999394,406.42845083301654,400.5536776249937,1,0,1.890615832991898,reldom2_s023,001,2025-02-27_16h08.10.195,Aud-B-Scan_AC,2022.2.5,None,
0,0.0,None,fixation,stimulus/audwhat_stim/blank_white.png,stimulus/audwhat_stim/blank_white.png,stimulus/audwhere_stim/blank_white.png,stimulus/audwhere_stim/blank_white.png,stimulus/audwhat_stim/blank_white.png,stimulus/audwhat_stim/blank_white.png,stimulus/audwhat_stim/blank_white.png,stimulus/audwhat_stim/blank_white.png,0.0,0.0,0.0,0.0,0,0.0,0,0.0,0,0.0,0,0.0,0,0.0,0.0,0,0,0,0,0,0,0,0,0,0.0,0,0.0,0,0.0,0,0.0,9,,,,,0,45,45,45,,,,,,,,,406.703236500005,406.703236500005,406.703236500005,406.703236500005,406.703236500005,406.703236500005,406.703236500005,406.703236500005,406.60264979134274,406.703236500005,406.703236500005,406.703236500005,406.60264979134274,406.703236500005,406.703236500005,406.703236500005,406.703236500005,406.703236500005,406.703236500005,406.703236500005,406.703236500005,406.703236500005,406.703236500005,406.703236500005,406.703236500005,406.703236500005,406.703236500005,406.65264979134275,406.703236500005,406.703236500005,406.703236500005,406.65264979134275,406.703236500005,406.703236500005,406.703236500005,406.703236500005,406.703236500005,411.90121354101575,411.90121354101575,415.8527852499974,None,0,,reldom2_s023,001,2025-02-27_16h08.10.195,Aud-B-Scan_AC,2022.2.5,None,
35,Second_Order,6.0,audwhat,stimulus/audwhat_stim/string cello_low-pitch_D_loud.wav,stimulus/audwhat_stim/percussion mallet_low-pitch_D_loud.wav,stimulus/audwhat_stim/percussion mallet_low-pitch_D_loud.wav,stimulus/audwhat_stim/percussion xylophone_high-pitch_Ftri_loud.wav,stimulus/audwhat_stim/match_blank.png,stimulus/audwhat_stim/match_box.png,stimulus/audwhat_stim/match_yes.png,stimulus/audwhat_stim/match_no.png,2.0,Match,Pitch,Category,2,5.125,0,5.125,0,5.125,0,5.125,0,0.75,0.75,0,0,0,0,0,0,0,0,1,0.5,1,2.125,1,0.5,1,2.125,0,,,,,0,46,46,46,,,,,,,,,415.8527852499974,420.9683652500098,415.8527852499974,415.8527852499974,415.8527852499974,415.8527852499974,416.3047922910191,417.2918555409997,416.3195114576704,,417.92761795801925,418.9260113330092,417.94019579166,,420.9683652500098,421.82009133300744,423.89582695800345,427.8072355829936,421.82009133300744,421.82009133300744,426.99776987501536,421.82009133300744,421.82009133300744,421.82009133300744,421.82009133300744,422.27862254099455,423.34075058301096,422.2488687916814,,423.89582695800345,424.9624937910121,423.86629737468706,424.9163389580208,421.82009133300744,426.99776987501536,421.82009133300744,426.99776987501536,426.99776987501536,,421.82009133300744,1,0,1.39865912499954,reldom2_s023,001,2025-02-27_16h08.10.195,Aud-B-Scan_AC,2022.2.5,None,
36,Second_Order,6.0,audwhat,stimulus/audwhat_stim/string cello_low-pitch_Dtri_loud.wav,stimulus/audwhat_stim/percussion mallet_low-pitch_Dtri_loud.wav,stimulus/audwhat_stim/string viola_high-pitch_F_loud.wav,stimulus/audwhat_stim/percussion xylophone_high-pitch_F_loud.wav,stimulus/audwhat_stim/match_blank.png,stimulus/audwhat_stim/match_box.png,stimulus/audwhat_stim/match_yes.png,stimulus/audwhat_stim/match_no.png,1.0,Match,Pitch,Pitch,1,5.125,0,5.125,0,5.125,0,5.125,0,0.625,0.625,0,0,0,0,0,0,0,0,1,0.5,1,2.125,1,0.5,1,2.125,0,,,,,0,47,47,47,,,,,,,,,427.8072355829936,432.9291664159973,427.8072355829936,427.8072355829936,427.8072355829936,427.8072355829936,428.2664494579949,429.2528032910195,428.28041662468263,,429.88874308299273,430.8865448750148,429.9010851666719,,432.9291664159973,433.66053583301255,435.7180600830179,439.76878245800617,433.66053583301255,433.66053583301255,438.8460119579977,433.66053583301255,433.66053583301255,433.66053583301255,433.66053583301255,434.1156363330083,435.16759037500015,434.0871921666878,,435.7180600830179,436.7773792910157,435.68863045768035,436.7315267499944,433.66053583301255,438.8460119579977,433.66053583301255,438.8460119579977,438.8460119579977,439.4959027910081,433.66053583301255,2,0,2.1496015419834293,reldom2_s023,001,2025-02-27_16h08.10.195,Aud-B-Scan_AC,2022.2.5,None,
0,0.0,None,fixation,stimulus/audwhat_stim/blank_white.png,stimulus/audwhat_stim/blank_white.png,stimulus/audwhere_stim/blank_white.png,stimulus/audwhere_stim/blank_white.png,stimulus/audwhat_stim/blank_white.png,stimulus/audwhat_stim/blank_white.png,stimulus/audwhat_stim/blank_white.png,stimulus/audwhat_stim/blank_white.png,0.0,0.0,0.0,0.0,0,0.0,0,0.0,0,0.0,0,0.0,0,0.0,0.0,0,0,0,0,0,0,0,0,0,0.0,0,0.0,0,0.0,0,0.0,10,,,,,0,48,48,48,,,,,,,,,439.76878245800617,439.76878245800617,439.76878245800617,439.76878245800617,439.76878245800617,439.76878245800617,439.76878245800617,439.76878245800617,439.6698629163458,439.76878245800617,439.76878245800617,439.76878245800617,439.6698629163458,439.76878245800617,439.76878245800617,439.76878245800617,439.76878245800617,439.76878245800617,439.76878245800617,439.76878245800617,439.76878245800617,439.76878245800617,439.76878245800617,439.76878245800617,439.76878245800617,439.76878245800617,439.76878245800617,439.7198629163458,439.76878245800617,439.76878245800617,439.76878245800617,439.7198629163458,439.76878245800617,439.76878245800617,439.76878245800617,439.76878245800617,439.76878245800617,444.97619620800833,444.97619620800833,449.99840766601847,None,0,,reldom2_s023,001,2025-02-27_16h08.10.195,Aud-B-Scan_AC,2022.2.5,None,
37,First_Order,7.0,audwhere,stimulus/audwhere_stim/dummy.wav,stimulus/audwhere_stim/dummy.wav,stimulus/audwhere_stim/right_toward_300h.wav,stimulus/audwhere_stim/left_toward_290h.wav,stimulus/audwhere_stim/blank_white.png,stimulus/audwhere_stim/direction_box.png,stimulus/audwhere_stim/direction_yes.png,stimulus/audwhere_stim/direction_no.png,None,Direction,None,Direction,1,0.0,0,5.125,0,5.125,0,5.125,0,0.0,0.625,0,0,0,0,0,0,0,0,0,0.0,0,0.0,1,0.5,1,2.125,0,,,,,0,49,49,49,,,,,,,,,449.99840766601847,449.99840766601847,449.99840766601847,449.99840766601847,449.99840766601847,449.99840766601847,449.99840766601847,449.99840766601847,449.9271364576804,449.99840766601847,449.99840766601847,449.99840766601847,449.9271364576804,449.99840766601847,449.99840766601847,449.99840766601847,452.09419725000043,456.11672695801826,449.99840766601847,449.99840766601847,455.16662066601566,449.99840766601847,449.99840766601847,449.99840766601847,449.99840766601847,450.4645276660158,451.5357357500179,450.4343822916601,,452.09419725000043,453.16699091601186,452.0640217076618,,449.99840766601847,455.16662066601566,449.99840766601847,455.16662066601566,455.20906433300115,455.86355150002055,449.99840766601847,1,1,1.1684015840000939,reldom2_s023,001,2025-02-27_16h08.10.195,Aud-B-Scan_AC,2022.2.5,None,
38,First_Order,7.0,audwhere,stimulus/audwhere_stim/dummy.wav,stimulus/audwhere_stim/dummy.wav,stimulus/audwhere_stim/right_toward_290h.wav,stimulus/audwhere_stim/right_away_270h.wav,stimulus/audwhere_stim/blank_white.png,stimulus/audwhere_stim/side_box.png,stimulus/audwhere_stim/side_yes.png,stimulus/audwhere_stim/side_no.png,None,Side,None,Side,1,0.0,0,5.125,0,5.125,0,5.125,0,0.0,0.625,0,0,0,0,0,0,0,0,0,0.0,0,0.0,1,0.5,1,2.125,0,,,,,0,50,50,50,,,,,,,,,456.11672695801826,456.11672695801826,456.11672695801826,456.11672695801826,456.11672695801826,456.11672695801826,456.11672695801826,456.11672695801826,456.03770287434065,456.11672695801826,456.11672695801826,456.11672695801826,456.03770287434065,456.11672695801826,456.11672695801826,456.11672695801826,458.2074129160028,,456.11672695801826,456.11672695801826,461.26928816601867,456.11672695801826,456.11672695801826,456.11672695801826,456.11672695801826,456.581191166013,457.6507079580042,456.55122395768217,,458.2074129160028,459.27907433299697,458.1775512076604,,456.11672695801826,461.26928816601867,456.11672695801826,461.26928816601867,461.3104919579928,461.9635711660085,456.11672695801826,1,1,1.0915992090012878,reldom2_s023,001,2025-02-27_16h08.10.195,Aud-B-Scan_AC,2022.2.5,None,
39,First_Order,7.0,audwhere,stimulus/audwhere_stim/dummy.wav,stimulus/audwhere_stim/dummy.wav,stimulus/audwhere_stim/left_away_290h.wav,stimulus/audwhere_stim/left_toward_290h.wav,stimulus/audwhere_stim/blank_white.png,stimulus/audwhere_stim/direction_box.png,stimulus/audwhere_stim/direction_yes.png,stimulus/audwhere_stim/direction_no.png,None,Direction,None,Side,2,0.0,0,5.125,0,5.125,0,5.125,0,0.0,0.625,0,0,0,0,0,0,0,0,0,0.0,0,0.0,1,0.5,1,2.125,0,,,,,0,51,51,51,,,,,,,,,462.21688333302154,462.21688333302154,462.21688333302154,462.21688333302154,462.21688333302154,462.21688333302154,462.21688333302154,462.21688333302154,462.1379322083395,462.21688333302154,462.21688333302154,462.21688333302154,462.1379322083395,462.21688333302154,462.21688333302154,462.21688333302154,464.3170274159929,468.34614850001526,462.21688333302154,462.21688333302154,467.3941055829928,462.21688333302154,462.21688333302154,462.21688333302154,462.21688333302154,462.68333391600754,463.75761887500994,462.65308583266255,,464.3170274159929,465.3470067080052,464.286793499665,,462.21688333302154,467.3941055829928,462.21688333302154,467.3941055829928,467.43552233302034,468.0923231659981,462.21688333302154,1,0,2.82137629200588,reldom2_s023,001,2025-02-27_16h08.10.195,Aud-B-Scan_AC,2022.2.5,None,
40,First_Order,7.0,audwhere,stimulus/audwhere_stim/dummy.wav,stimulus/audwhere_stim/dummy.wav,stimulus/audwhere_stim/right_away_280h.wav,stimulus/audwhere_stim/right_toward_290h.wav,stimulus/audwhere_stim/blank_white.png,stimulus/audwhere_stim/direction_box.png,stimulus/audwhere_stim/direction_yes.png,stimulus/audwhere_stim/direction_no.png,None,Direction,None,Side,2,0.0,0,5.125,0,5.125,0,5.125,0,0.0,0.625,0,0,0,0,0,0,0,0,0,0.0,0,0.0,1,0.5,1,2.125,0,,,,,0,52,52,52,,,,,,,,,468.34614850001526,468.34614850001526,468.34614850001526,468.34614850001526,468.34614850001526,468.34614850001526,468.34614850001526,468.34614850001526,468.2666604163261,468.34614850001526,468.34614850001526,468.34614850001526,468.2666604163261,468.34614850001526,468.34614850001526,468.34614850001526,470.4292456250114,,468.34614850001526,468.34614850001526,473.5355891250074,468.34614850001526,468.34614850001526,468.34614850001526,468.34614850001526,468.81901083301636,469.8702630000189,468.7858050416728,,470.4292456250114,471.4602860000159,470.3990434996706,,468.34614850001526,473.5355891250074,468.34614850001526,473.5355891250074,473.5769252910104,474.23531279101735,468.34614850001526,2,1,0.7673477500211447,reldom2_s023,001,2025-02-27_16h08.10.195,Aud-B-Scan_AC,2022.2.5,None,
0,0.0,None,fixation,stimulus/audwhat_stim/blank_white.png,stimulus/audwhat_stim/blank_white.png,stimulus/audwhere_stim/blank_white.png,stimulus/audwhere_stim/blank_white.png,stimulus/audwhat_stim/blank_white.png,stimulus/audwhat_stim/blank_white.png,stimulus/audwhat_stim/blank_white.png,stimulus/audwhat_stim/blank_white.png,0.0,0.0,0.0,0.0,0,0.0,0,0.0,0,0.0,0,0.0,0,0.0,0.0,0,0,0,0,0,0,0,0,0,0.0,0,0.0,0,0.0,0,0.0,8,,,,,0,53,53,53,,,,,,,,,474.46925195801305,474.46925195801305,474.46925195801305,474.46925195801305,474.46925195801305,474.46925195801305,474.46925195801305,474.46925195801305,474.3686461243507,474.46925195801305,474.46925195801305,474.46925195801305,474.3686461243507,474.46925195801305,474.46925195801305,474.46925195801305,474.46925195801305,474.46925195801305,474.46925195801305,474.46925195801305,474.46925195801305,474.46925195801305,474.46925195801305,474.46925195801305,474.46925195801305,474.46925195801305,474.46925195801305,474.4186461243507,474.46925195801305,474.46925195801305,474.46925195801305,474.4186461243507,474.46925195801305,474.46925195801305,474.46925195801305,474.46925195801305,474.46925195801305,479.6742467909935,479.6742467909935,482.6246648330125,None,0,,reldom2_s023,001,2025-02-27_16h08.10.195,Aud-B-Scan_AC,2022.2.5,None,
41,Second_Order,7.0,audwhere,stimulus/audwhere_stim/left_toward_300h.wav,stimulus/audwhere_stim/right_toward_280h.wav,stimulus/audwhere_stim/right_toward_270h.wav,stimulus/audwhere_stim/right_away_290h.wav,stimulus/audwhat_stim/match_blank.png,stimulus/audwhat_stim/match_box.png,stimulus/audwhat_stim/match_yes.png,stimulus/audwhat_stim/match_no.png,2.0,Match,Direction,Side,2,5.125,0,5.125,0,5.125,0,5.125,0,0.75,0.75,0,0,0,0,0,0,0,0,1,0.5,1,2.125,1,0.5,1,2.125,0,,,,,0,54,54,54,,,,,,,,,482.6246648330125,487.73934041601024,482.6246648330125,482.6246648330125,482.6246648330125,482.6246648330125,483.07813304101,484.0764625830052,483.0909675826881,,484.6992654160131,485.6968196250091,484.7112162496817,,487.73934041601024,488.5858536660089,490.671189916,494.5922738329973,488.5858536660089,488.5858536660089,493.78028229100164,488.5858536660089,488.5858536660089,488.5858536660089,488.5858536660089,489.04701304101036,490.1159990830056,489.01717116666646,,490.671189916,491.7435930829961,490.6415122496876,,488.5858536660089,493.78028229100164,488.5858536660089,493.78028229100164,493.78028229100164,,488.5858536660089,2,1,0.9578098750207573,reldom2_s023,001,2025-02-27_16h08.10.195,Aud-B-Scan_AC,2022.2.5,None,
42,Second_Order,7.0,audwhere,stimulus/audwhere_stim/right_toward_290h.wav,stimulus/audwhere_stim/left_toward_270h.wav,stimulus/audwhere_stim/left_toward_290h.wav,stimulus/audwhere_stim/left_away_280h.wav,stimulus/audwhat_stim/match_blank.png,stimulus/audwhat_stim/match_box.png,stimulus/audwhat_stim/match_yes.png,stimulus/audwhat_stim/match_no.png,2.0,Match,Direction,Side,2,5.125,0,5.125,0,5.125,0,5.125,0,0.625,0.625,0,0,0,0,0,0,0,0,1,0.5,1,2.125,1,0.5,1,2.125,0,,,,,0,55,55,55,,,,,,,,,494.5922738329973,499.71677354100393,494.5922738329973,494.5922738329973,494.5922738329973,494.5922738329973,495.05216950000613,496.040335083002,495.0537205826879,,496.6767808330187,497.674368958018,496.68894404167463,,499.71677354100393,500.4471247080073,502.52056012500543,,500.4471247080073,500.4471247080073,505.61554937501205,500.4471247080073,500.4471247080073,500.4471247080073,500.4471247080073,500.86059470800683,501.92240866599604,500.83107674966254,,502.52056012500543,503.5848966250196,502.49060829167524,,500.4471247080073,505.61554937501205,500.4471247080073,505.61554937501205,505.61554937501205,506.2640850000025,500.4471247080073,2,1,2.7170775000122376,reldom2_s023,001,2025-02-27_16h08.10.195,Aud-B-Scan_AC,2022.2.5,None,
0,0.0,None,fixation,stimulus/audwhat_stim/blank_white.png,stimulus/audwhat_stim/blank_white.png,stimulus/audwhere_stim/blank_white.png,stimulus/audwhere_stim/blank_white.png,stimulus/audwhat_stim/blank_white.png,stimulus/audwhat_stim/blank_white.png,stimulus/audwhat_stim/blank_white.png,stimulus/audwhat_stim/blank_white.png,0.0,0.0,0.0,0.0,0,0.0,0,0.0,0,0.0,0,0.0,0,0.0,0.0,0,0,0,0,0,0,0,0,0,0.0,0,0.0,0,0.0,0,0.0,10,,,,,0,56,56,56,,,,,,,,,506.5385382910026,506.5385382910026,506.5385382910026,506.5385382910026,506.5385382910026,506.5385382910026,506.5385382910026,506.5385382910026,506.43826591634036,506.5385382910026,506.5385382910026,506.5385382910026,506.43826591634036,506.5385382910026,506.5385382910026,506.5385382910026,506.5385382910026,506.5385382910026,506.5385382910026,506.5385382910026,506.5385382910026,506.5385382910026,506.5385382910026,506.5385382910026,506.5385382910026,506.5385382910026,506.5385382910026,506.48826591634037,506.5385382910026,506.5385382910026,506.5385382910026,506.48826591634037,506.5385382910026,506.5385382910026,506.5385382910026,506.5385382910026,506.5385382910026,511.7575965830183,511.7575965830183,516.797160999995,None,0,,reldom2_s023,001,2025-02-27_16h08.10.195,Aud-B-Scan_AC,2022.2.5,None,
43,First_Order,8.0,audwhere,stimulus/audwhere_stim/dummy.wav,stimulus/audwhere_stim/dummy.wav,stimulus/audwhere_stim/right_toward_270h.wav,stimulus/audwhere_stim/left_toward_300h.wav,stimulus/audwhere_stim/blank_white.png,stimulus/audwhere_stim/side_box.png,stimulus/audwhere_stim/side_yes.png,stimulus/audwhere_stim/side_no.png,None,Side,None,Direction,2,0.0,0,5.125,0,5.125,0,5.125,0,0.0,0.625,0,0,0,0,0,0,0,0,0,0.0,0,0.0,1,0.5,1,2.125,0,,,,,0,57,57,57,,,,,,,,,516.797160999995,516.797160999995,516.797160999995,516.797160999995,516.797160999995,516.797160999995,516.797160999995,516.797160999995,516.7250612076701,516.797160999995,516.797160999995,516.797160999995,516.7250612076701,516.797160999995,516.797160999995,516.797160999995,518.8806185410067,,516.797160999995,516.797160999995,521.9847175829927,516.797160999995,516.797160999995,516.797160999995,516.797160999995,517.2607996659935,518.3250077500124,517.231078957677,,518.8806185410067,519.9493049159937,518.8509768746774,,516.797160999995,521.9847175829927,516.797160999995,521.9847175829927,522.0260086659982,522.6779823329998,516.797160999995,2,1,1.2801281249849126,reldom2_s023,001,2025-02-27_16h08.10.195,Aud-B-Scan_AC,2022.2.5,None,
44,First_Order,8.0,audwhere,stimulus/audwhere_stim/dummy.wav,stimulus/audwhere_stim/dummy.wav,stimulus/audwhere_stim/right_toward_270h.wav,stimulus/audwhere_stim/left_toward_280h.wav,stimulus/audwhere_stim/blank_white.png,stimulus/audwhere_stim/side_box.png,stimulus/audwhere_stim/side_yes.png,stimulus/audwhere_stim/side_no.png,None,Side,None,Direction,2,0.0,0,5.125,0,5.125,0,5.125,0,0.0,0.625,0,0,0,0,0,0,0,0,0,0.0,0,0.0,1,0.5,1,2.125,0,,,,,0,58,58,58,,,,,,,,,522.8900013329985,522.8900013329985,522.8900013329985,522.8900013329985,522.8900013329985,522.8900013329985,522.8900013329985,522.8900013329985,522.8113156663331,522.8900013329985,522.8900013329985,522.8900013329985,522.8113156663331,522.8900013329985,522.8900013329985,522.8900013329985,524.9753210410126,,522.8900013329985,522.8900013329985,528.0843067910173,522.8900013329985,522.8900013329985,522.8900013329985,522.8900013329985,523.3550005830184,524.4207202499965,523.3250698746745,,524.9753210410126,526.0453810830077,524.9458373326672,,522.8900013329985,528.0843067910173,522.8900013329985,528.0843067910173,528.0843067910173,528.7382903330144,522.8900013329985,2,1,0.9304651670099702,reldom2_s023,001,2025-02-27_16h08.10.195,Aud-B-Scan_AC,2022.2.5,None,
45,First_Order,8.0,audwhere,stimulus/audwhere_stim/dummy.wav,stimulus/audwhere_stim/dummy.wav,stimulus/audwhere_stim/right_toward_270h.wav,stimulus/audwhere_stim/left_toward_290h.wav,stimulus/audwhere_stim/blank_white.png,stimulus/audwhere_stim/direction_box.png,stimulus/audwhere_stim/direction_yes.png,stimulus/audwhere_stim/direction_no.png,None,Direction,None,Direction,1,0.0,0,5.125,0,5.125,0,5.125,0,0.0,0.625,0,0,0,0,0,0,0,0,0,0.0,0,0.0,1,0.5,1,2.125,0,,,,,0,59,59,59,,,,,,,,,528.9917094160046,528.9917094160046,528.9917094160046,528.9917094160046,528.9917094160046,528.9917094160046,528.9917094160046,528.9917094160046,528.9123349163293,528.9917094160046,528.9917094160046,528.9917094160046,528.9123349163293,528.9917094160046,528.9917094160046,528.9917094160046,531.0906081660069,,528.9917094160046,528.9917094160046,534.1726373750134,528.9917094160046,528.9917094160046,528.9917094160046,528.9917094160046,529.4613272499992,530.530940333003,529.4305608746693,,531.0906081660069,532.1206614999974,531.060666791662,,528.9917094160046,534.1726373750134,528.9917094160046,534.1726373750134,534.2136243330024,534.8711928749981,528.9917094160046,2,0,1.6717552919872105,reldom2_s023,001,2025-02-27_16h08.10.195,Aud-B-Scan_AC,2022.2.5,None,
46,First_Order,8.0,audwhere,stimulus/audwhere_stim/dummy.wav,stimulus/audwhere_stim/dummy.wav,stimulus/audwhere_stim/left_away_300h.wav,stimulus/audwhere_stim/left_toward_300h.wav,stimulus/audwhere_stim/blank_white.png,stimulus/audwhere_stim/side_box.png,stimulus/audwhere_stim/side_yes.png,stimulus/audwhere_stim/side_no.png,None,Side,None,Side,1,0.0,0,5.125,0,5.125,0,5.125,0,0.0,0.625,0,0,0,0,0,0,0,0,0,0.0,0,0.0,1,0.5,1,2.125,0,,,,,0,60,60,60,,,,,,,,,535.0840309160121,535.0840309160121,535.0840309160121,535.0840309160121,535.0840309160121,535.0840309160121,535.0840309160121,535.0840309160121,535.0045262083314,535.0840309160121,535.0840309160121,535.0840309160121,535.0045262083314,535.0840309160121,535.0840309160121,535.0840309160121,537.1723162910203,,535.0840309160121,535.0840309160121,540.2416146660107,535.0840309160121,535.0840309160121,535.0840309160121,535.0840309160121,535.549107208004,536.6156870410196,535.5191498326642,,537.1723162910203,538.2444165410125,537.1421062916672,,535.0840309160121,540.2416146660107,535.0840309160121,540.2416146660107,540.2826902079978,540.9352913750045,535.0840309160121,1,1,1.1696200409787707,reldom2_s023,001,2025-02-27_16h08.10.195,Aud-B-Scan_AC,2022.2.5,None,
0,0.0,None,fixation,stimulus/audwhat_stim/blank_white.png,stimulus/audwhat_stim/blank_white.png,stimulus/audwhere_stim/blank_white.png,stimulus/audwhere_stim/blank_white.png,stimulus/audwhat_stim/blank_white.png,stimulus/audwhat_stim/blank_white.png,stimulus/audwhat_stim/blank_white.png,stimulus/audwhat_stim/blank_white.png,0.0,0.0,0.0,0.0,0,0.0,0,0.0,0,0.0,0,0.0,0,0.0,0.0,0,0,0,0,0,0,0,0,0,0.0,0,0.0,0,0.0,0,0.0,9,,,,,0,61,61,61,,,,,,,,,541.2108476250141,541.2108476250141,541.2108476250141,541.2108476250141,541.2108476250141,541.2108476250141,541.2108476250141,541.2108476250141,541.109584208347,541.2108476250141,541.2108476250141,541.2108476250141,541.109584208347,541.2108476250141,541.2108476250141,541.2108476250141,541.2108476250141,541.2108476250141,541.2108476250141,541.2108476250141,541.2108476250141,541.2108476250141,541.2108476250141,541.2108476250141,541.2108476250141,541.2108476250141,541.2108476250141,541.1595842083469,541.2108476250141,541.2108476250141,541.2108476250141,541.1595842083469,541.2108476250141,541.2108476250141,541.2108476250141,541.2108476250141,541.2108476250141,546.4035691659956,546.4035691659956,550.3502505000215,None,0,,reldom2_s023,001,2025-02-27_16h08.10.195,Aud-B-Scan_AC,2022.2.5,None,
47,Second_Order,8.0,audwhere,stimulus/audwhere_stim/right_away_300h.wav,stimulus/audwhere_stim/right_toward_270h.wav,stimulus/audwhere_stim/left_away_280h.wav,stimulus/audwhere_stim/left_toward_270h.wav,stimulus/audwhat_stim/match_blank.png,stimulus/audwhat_stim/match_box.png,stimulus/audwhat_stim/match_yes.png,stimulus/audwhat_stim/match_no.png,1.0,Match,Side,Side,1,5.125,0,5.125,0,5.125,0,5.125,0,0.75,0.75,0,0,0,0,0,0,0,0,1,0.5,1,2.125,1,0.5,1,2.125,0,,,,,0,62,62,62,,,,,,,,,550.3502505000215,555.4640108330059,550.3502505000215,550.3502505000215,550.3502505000215,550.3502505000215,550.7993927079951,551.7860035409976,550.8135897916839,,552.4343492500193,553.4237916250131,552.4374856666875,,555.4640108330059,556.3113282500126,558.3517290409945,562.3140382910206,556.3113282500126,556.3113282500126,561.502530541009,556.3113282500126,556.3113282500126,556.3113282500126,556.3113282500126,556.7286908329988,557.7961334580032,556.6986826666728,,558.3517290409945,559.4212978750002,558.3215551246869,,556.3113282500126,561.502530541009,556.3113282500126,561.502530541009,561.502530541009,,556.3113282500126,1,1,2.3707085409841966,reldom2_s023,001,2025-02-27_16h08.10.195,Aud-B-Scan_AC,2022.2.5,None,
48,Second_Order,8.0,audwhere,stimulus/audwhere_stim/right_toward_270h.wav,stimulus/audwhere_stim/right_away_270h.wav,stimulus/audwhere_stim/left_away_280h.wav,stimulus/audwhere_stim/left_toward_290h.wav,stimulus/audwhat_stim/match_blank.png,stimulus/audwhat_stim/match_box.png,stimulus/audwhat_stim/match_yes.png,stimulus/audwhat_stim/match_no.png,1.0,Match,Side,Side,1,5.125,0,5.125,0,5.125,0,5.125,0,0.625,0.625,0,0,0,0,0,0,0,0,1,0.5,1,2.125,1,0.5,1,2.125,0,,,,,0,63,63,63,,,,,,,,,562.3140382910206,567.4356449579936,562.3140382910206,562.3140382910206,562.3140382910206,562.3140382910206,562.7617187910073,563.7605944160023,562.7746904166745,,564.399121666007,565.3976341249945,564.411727916686,,567.4356449579936,568.1694661660003,570.237687957997,,568.1694661660003,568.1694661660003,573.3292630829965,568.1694661660003,568.1694661660003,568.1694661660003,568.1694661660003,568.6263950410066,569.6856902909931,568.596734291674,,570.237687957997,571.3005307910207,570.2082252076691,,568.1694661660003,573.3292630829965,568.1694661660003,573.3292630829965,573.3292630829965,573.9792752909998,568.1694661660003,1,1,2.4891778329911176,reldom2_s023,001,2025-02-27_16h08.10.195,Aud-B-Scan_AC,2022.2.5,None,
0,0.0,None,fixation,stimulus/audwhat_stim/blank_white.png,stimulus/audwhat_stim/blank_white.png,stimulus/audwhere_stim/blank_white.png,stimulus/audwhere_stim/blank_white.png,stimulus/audwhat_stim/blank_white.png,stimulus/audwhat_stim/blank_white.png,stimulus/audwhat_stim/blank_white.png,stimulus/audwhat_stim/blank_white.png,0.0,0.0,0.0,0.0,0,0.0,0,0.0,0,0.0,0,0.0,0,0.0,0.0,0,0,0,0,0,0,0,0,0,0.0,0,0.0,0,0.0,0,0.0,16,,,,,0,64,64,64,,,,,,,,,574.2535150409967,574.2535150409967,574.2535150409967,574.2535150409967,574.2535150409967,574.2535150409967,574.2535150409967,574.2535150409967,574.15332616633,574.2535150409967,574.2535150409967,574.2535150409967,574.15332616633,574.2535150409967,574.2535150409967,574.2535150409967,574.2535150409967,574.2535150409967,574.2535150409967,574.2535150409967,574.2535150409967,574.2535150409967,574.2535150409967,574.2535150409967,574.2535150409967,574.2535150409967,574.2535150409967,574.2033261663299,574.2535150409967,574.2535150409967,574.2535150409967,574.2033261663299,574.2535150409967,574.2535150409967,574.2535150409967,574.2535150409967,574.2535150409967,579.4805777080182,579.4805777080182,590.3983424580074,None,0,,reldom2_s023,001,2025-02-27_16h08.10.195,Aud-B-Scan_AC,2022.2.5,None,
