Trial,Order,Block,Type,Stimuli_File1,Stimuli_File2,Stimuli_File3,Stimuli_File4,Cue_File1,Cue_File2,Response_File_Yes,Response_File_No,Match,Cue_Dimension,Pair1_Dimension,Pair2_Dimension,Key,Cue1_Duration,Cue1_Onset,Cue2_Duration,Cue2_Onset,ResponseYes_Duration,ResponseYes_Onset,ResponseNo_Duration,ResponseNo_Onset,ITI_Within,ITI_Between,Image1_Duration,Image1_Onset,Image2_Duration,Image2_Onset,Image3_Duration,Image3_Onset,Image4_Duration,Image4_Onset,Sound1_Duration,Sound1_Onset,Sound2_Duration,Sound2_Onset,Sound3_Duration,Sound3_Onset,Sound4_Duration,Sound4_Onset,Fixation_Duration,trials_2.thisRepN,trials_2.thisTrialN,trials_2.thisN,trials_2.thisIndex,trials.thisRepN,trials.thisTrialN,trials.thisN,trials.thisIndex,text_start.started,key_resp_start.started,key_resp_start.keys,key_resp_start.rt,text2.started,key_resp_2.started,key_resp_2.keys,key_resp_2.rt,cue_file1.started,cue_file1.stopped,image_1.started,image_1.stopped,image_2.started,image_2.stopped,sound_icon1.started,sound_icon1.stopped,sound_1.started,sound_1.stopped,sound_icon2.started,sound_icon2.stopped,sound_2.started,sound_2.stopped,image_blank_1.started,image_blank_1.stopped,key_press.started,key_press.stopped,fixation_text.started,cue_file2.started,cue_file2.stopped,image_3.started,image_3.stopped,image_4.started,image_4.stopped,sound_icon3.started,sound_icon3.stopped,sound_3.started,sound_3.stopped,sound_icon4.started,sound_icon4.stopped,sound_4.started,sound_4.stopped,response_yes.started,response_yes.stopped,response_no.started,response_no.stopped,iti_blank.started,iti_blank.stopped,fixation_text.stopped,key_press.keys,key_press.corr,key_press.rt,participant,session,date,expName,psychopyVersion,frameRate,
,,,,,,,,,,,,,,,,,,,,,,,,,,,,,,,,,,,,,,,,,,,,,,,,,,,,8.290481666000005,8.290481666000005,2,1.6207662090000667,,,,,,,,,,,,,,,,,,,,,,,,,,,,,,,,,,,,,,,,,,,,,,,,reldom2_s015,001,2025-02-14_14h33.07.946,What-B-Scan_AC,2022.2.5,None,
,,,,,,,,,,,,,,,,,,,,,,,,,,,,,,,,,,,,,,,,,,,,0,0,0,0,,,,,,,,,9.95103195799993,9.95103195799993,5,17.651075415999912,,,,,,,,,,,,,,,,,,,,,,,,,,,,,,,,,,,,,,,,,,,,reldom2_s015,001,2025-02-14_14h33.07.946,What-B-Scan_AC,2022.2.5,None,
,,,,,,,,,,,,,,,,,,,,,,,,,,,,,,,,,,,,,,,,,,,,1,0,1,0,,,,,,,,,27.62267387499992,27.62267387499992,5,1.980549500000052,,,,,,,,,,,,,,,,,,,,,,,,,,,,,,,,,,,,,,,,,,,,reldom2_s015,001,2025-02-14_14h33.07.946,What-B-Scan_AC,2022.2.5,None,
,,,,,,,,,,,,,,,,,,,,,,,,,,,,,,,,,,,,,,,,,,,,2,0,2,0,,,,,,,,,29.620917457999894,29.620917457999894,5,1.981383833999871,,,,,,,,,,,,,,,,,,,,,,,,,,,,,,,,,,,,,,,,,,,,reldom2_s015,001,2025-02-14_14h33.07.946,What-B-Scan_AC,2022.2.5,None,
,,,,,,,,,,,,,,,,,,,,,,,,,,,,,,,,,,,,,,,,,,,,3,0,3,0,,,,,,,,,31.614769290999902,31.614769290999902,5,1.987909166999998,,,,,,,,,,,,,,,,,,,,,,,,,,,,,,,,,,,,,,,,,,,,reldom2_s015,001,2025-02-14_14h33.07.946,What-B-Scan_AC,2022.2.5,None,
0,0.0,None,fixation,stimulus/viswhat_stim/blank_white.png,stimulus/viswhat_stim/blank_white.png,stimulus/audwhat_stim/blank_white.png,stimulus/audwhat_stim/blank_white.png,stimulus/viswhat_stim/blank_white.png,stimulus/viswhat_stim/blank_white.png,stimulus/viswhat_stim/blank_white.png,stimulus/viswhat_stim/blank_white.png,0.0,0.0,0.0,0.0,0,0.0,0,0.0,0,0.0,0,0.0,0,0.0,0.0,0,0.0,0,0.0,0,0.0,0,0.0,0,0.0,0,0.0,0,0.0,0,0.0,16,,,,,0,0,0,0,,,,,,,,,33.82244104100005,33.82244104100005,33.82244104100005,33.82244104100005,33.82244104100005,33.82244104100005,33.82244104100005,33.82244104100005,33.726959332666745,33.82244104100005,33.82244104100005,33.82244104100005,33.726959332666745,33.82244104100005,33.82244104100005,33.82244104100005,33.82244104100005,33.82244104100005,33.82244104100005,33.82244104100005,33.82244104100005,33.82244104100005,33.82244104100005,33.82244104100005,33.82244104100005,33.82244104100005,33.82244104100005,33.77695933266674,33.82244104100005,33.82244104100005,33.82244104100005,33.77695933266674,33.82244104100005,33.82244104100005,33.82244104100005,33.82244104100005,33.82244104100005,38.99915325000006,38.99915325000006,50.2629233749999,None,0,,reldom2_s015,001,2025-02-14_14h33.07.946,What-B-Scan_AC,2022.2.5,None,
1,First_Order,1.0,viswhat,stimulus/viswhat_stim/blank_white.png,stimulus/viswhat_stim/blank_white.png,stimulus/viswhat_stim/water_vehicle-pirateship.png,stimulus/viswhat_stim/water_animal-lobster.png,stimulus/viswhat_stim/blank_white.png,stimulus/viswhat_stim/location_box.png,stimulus/viswhat_stim/location_yes.png,stimulus/viswhat_stim/location_no.png,None,Location,None,Location,1,0.0,0,5.125,0,5.125,0,5.125,0,0.0,0.625,0,0.0,0,0.0,1,0.5,1,2.125,0,0.0,0,0.0,0,0.0,0,0.0,0,,,,,0,1,1,1,,,,,,,,,50.2629233749999,50.2629233749999,50.2629233749999,50.2629233749999,50.2629233749999,50.2629233749999,50.2629233749999,50.2629233749999,49.98383770799992,50.2629233749999,50.2629233749999,50.2629233749999,49.98383770799992,50.2629233749999,50.2629233749999,50.2629233749999,52.25292158299999,,50.2629233749999,50.2629233749999,55.53760383300005,50.68886858299993,51.82656975000009,52.25292158299999,53.40014958300003,50.2629233749999,50.2629233749999,50.133837707999916,50.2629233749999,50.2629233749999,50.2629233749999,50.133837707999916,50.2629233749999,50.2629233749999,55.53760383300005,50.2629233749999,55.53760383300005,55.40045154099994,,50.2629233749999,1,1,1.289006499999914,reldom2_s015,001,2025-02-14_14h33.07.946,What-B-Scan_AC,2022.2.5,None,
2,First_Order,1.0,viswhat,stimulus/viswhat_stim/blank_white.png,stimulus/viswhat_stim/blank_white.png,stimulus/viswhat_stim/land_vehicle-firetruck.png,stimulus/viswhat_stim/water_vehicle-jetski.png,stimulus/viswhat_stim/blank_white.png,stimulus/viswhat_stim/location_box.png,stimulus/viswhat_stim/location_yes.png,stimulus/viswhat_stim/location_no.png,None,Location,None,Type,2,0.0,0,5.125,0,5.125,0,5.125,0,0.0,0.625,0,0.0,0,0.0,1,0.5,1,2.125,0,0.0,0,0.0,0,0.0,0,0.0,0,,,,,0,2,2,2,,,,,,,,,56.315355916000044,56.315355916000044,56.315355916000044,56.315355916000044,56.315355916000044,56.315355916000044,56.315355916000044,56.315355916000044,56.28635012433332,56.315355916000044,56.315355916000044,56.315355916000044,56.28635012433332,56.315355916000044,56.315355916000044,56.315355916000044,58.42078850000007,62.44942045800008,56.315355916000044,56.315355916000044,61.453233040999976,56.80010345799997,57.81646816600005,58.42078850000007,59.44045945800008,56.315355916000044,56.315355916000044,56.30301679099998,56.315355916000044,56.315355916000044,56.315355916000044,56.30301679099998,56.315355916000044,56.315355916000044,61.453233040999976,56.315355916000044,61.453233040999976,61.52782712499993,62.16335875000004,56.315355916000044,2,1,1.7689464169998246,reldom2_s015,001,2025-02-14_14h33.07.946,What-B-Scan_AC,2022.2.5,None,
3,First_Order,1.0,viswhat,stimulus/viswhat_stim/blank_white.png,stimulus/viswhat_stim/blank_white.png,stimulus/viswhat_stim/land_animal-moose.png,stimulus/viswhat_stim/water_animal-jellyfish.png,stimulus/viswhat_stim/blank_white.png,stimulus/viswhat_stim/type_box.png,stimulus/viswhat_stim/type_yes.png,stimulus/viswhat_stim/type_no.png,None,Type,None,Type,1,0.0,0,5.125,0,5.125,0,5.125,0,0.0,0.625,0,0.0,0,0.0,1,0.5,1,2.125,0,0.0,0,0.0,0,0.0,0,0.0,0,,,,,0,3,3,3,,,,,,,,,62.44942045800008,62.44942045800008,62.44942045800008,62.44942045800008,62.44942045800008,62.44942045800008,62.44942045800008,62.44942045800008,62.339581208333435,62.44942045800008,62.44942045800008,62.44942045800008,62.339581208333435,62.44942045800008,62.44942045800008,62.44942045800008,64.51607612499993,,62.44942045800008,62.44942045800008,67.64923283300004,62.9197811250001,63.986117624999906,64.51607612499993,65.58064012499995,62.44942045800008,62.44942045800008,62.4062478750001,62.44942045800008,62.44942045800008,62.44942045800008,62.4062478750001,62.44942045800008,62.44942045800008,67.64923283300004,62.44942045800008,67.64923283300004,67.64923283300004,68.50582408299988,62.44942045800008,1,1,1.4443946670000969,reldom2_s015,001,2025-02-14_14h33.07.946,What-B-Scan_AC,2022.2.5,None,
4,First_Order,1.0,viswhat,stimulus/viswhat_stim/blank_white.png,stimulus/viswhat_stim/blank_white.png,stimulus/viswhat_stim/land_animal-tiger.png,stimulus/viswhat_stim/land_vehicle-rv.png,stimulus/viswhat_stim/blank_white.png,stimulus/viswhat_stim/type_box.png,stimulus/viswhat_stim/type_yes.png,stimulus/viswhat_stim/type_no.png,None,Type,None,Location,2,0.0,0,5.125,0,5.125,0,5.125,0,0.0,0.625,0,0.0,0,0.0,1,0.5,1,2.125,0,0.0,0,0.0,0,0.0,0,0.0,0,,,,,0,4,4,4,,,,,,,,,68.50582408299988,68.50582408299988,68.50582408299988,68.50582408299988,68.50582408299988,68.50582408299988,68.50582408299988,68.50582408299988,68.45927862466662,68.50582408299988,68.50582408299988,68.50582408299988,68.45927862466662,68.50582408299988,68.50582408299988,68.50582408299988,70.59741258300005,74.636773791,68.50582408299988,68.50582408299988,73.65470862500001,68.98496412500003,70.01492720800002,70.59741258300005,71.63112383299995,68.50582408299988,68.50582408299988,68.47594529133329,68.50582408299988,68.50582408299988,68.50582408299988,68.47594529133329,68.50582408299988,68.50582408299988,73.65470862500001,68.50582408299988,73.65470862500001,73.71229437500006,74.3722392499999,68.50582408299988,2,1,1.6515299580000828,reldom2_s015,001,2025-02-14_14h33.07.946,What-B-Scan_AC,2022.2.5,None,
0,0.0,None,fixation,stimulus/viswhat_stim/blank_white.png,stimulus/viswhat_stim/blank_white.png,stimulus/audwhat_stim/blank_white.png,stimulus/audwhat_stim/blank_white.png,stimulus/viswhat_stim/blank_white.png,stimulus/viswhat_stim/blank_white.png,stimulus/viswhat_stim/blank_white.png,stimulus/viswhat_stim/blank_white.png,0.0,0.0,0.0,0.0,0,0.0,0,0.0,0,0.0,0,0.0,0,0.0,0.0,0,0.0,0,0.0,0,0.0,0,0.0,0,0.0,0,0.0,0,0.0,0,0.0,9,,,,,0,5,5,5,,,,,,,,,74.636773791,74.636773791,74.636773791,74.636773791,74.636773791,74.636773791,74.636773791,74.636773791,74.5459724576666,74.636773791,74.636773791,74.636773791,74.5459724576666,74.636773791,74.636773791,74.636773791,74.636773791,74.636773791,74.636773791,74.636773791,74.636773791,74.636773791,74.636773791,74.636773791,74.636773791,74.636773791,74.636773791,74.5959724576666,74.636773791,74.636773791,74.636773791,74.5959724576666,74.636773791,74.636773791,74.636773791,74.636773791,74.636773791,79.85725862499999,79.85725862499999,83.77830654099989,None,0,,reldom2_s015,001,2025-02-14_14h33.07.946,What-B-Scan_AC,2022.2.5,None,
5,Second_Order,1.0,viswhat,stimulus/viswhat_stim/land_animal-bunny.png,stimulus/viswhat_stim/land_vehicle-motorcycle.png,stimulus/viswhat_stim/water_animal-octopus.png,stimulus/viswhat_stim/land_animal-fox.png,stimulus/viswhat_stim/match_blank.png,stimulus/viswhat_stim/match_box.png,stimulus/viswhat_stim/match_yes.png,stimulus/viswhat_stim/match_no.png,2.0,Match,Location,Type,2,5.125,0,5.125,0,5.125,0,5.125,0,0.75,0.75,1,0.5,1,2.125,1,0.5,1,2.125,0,0.0,0,0.0,0,0.0,0,0.0,0,,,,,0,6,6,6,,,,,,,,,83.77830654099989,88.89349695800001,84.21297866600003,85.19983533300001,85.84764579099988,86.8373127079999,83.77830654099989,83.77830654099989,83.7905222496667,83.77830654099989,83.77830654099989,83.77830654099989,83.7905222496667,83.77830654099989,88.89349695800001,89.71047466599998,91.786028708,95.67810224999994,89.71047466599998,89.71047466599998,94.85274295799991,90.14097283299998,91.16629308300003,91.786028708,92.80944799999997,89.71047466599998,89.71047466599998,89.676683791,89.71047466599998,89.71047466599998,89.71047466599998,89.676683791,89.71047466599998,89.71047466599998,94.85274295799991,89.71047466599998,94.85274295799991,94.90310341600002,,89.71047466599998,2,1,0.9837152919999426,reldom2_s015,001,2025-02-14_14h33.07.946,What-B-Scan_AC,2022.2.5,None,
6,Second_Order,1.0,viswhat,stimulus/viswhat_stim/land_vehicle-tank.png,stimulus/viswhat_stim/land_animal-wolf.png,stimulus/viswhat_stim/water_vehicle-motorboatraft.png,stimulus/viswhat_stim/water_animal-squid.png,stimulus/viswhat_stim/match_blank.png,stimulus/viswhat_stim/match_box.png,stimulus/viswhat_stim/match_yes.png,stimulus/viswhat_stim/match_no.png,1.0,Match,Location,Location,1,5.125,0,5.125,0,5.125,0,5.125,0,0.625,0.625,1,0.5,1,2.125,1,0.5,1,2.125,0,0.0,0,0.0,0,0.0,0,0.0,0,,,,,0,7,7,7,,,,,,,,,95.67810224999994,100.79911199999992,96.158832458,97.1572165,97.77977687499992,98.77795233300003,95.67810224999994,95.67810224999994,95.68180299966667,95.67810224999994,95.67810224999994,95.67810224999994,95.68180299966667,95.67810224999994,100.79911199999992,101.49755249999998,103.56460308300007,107.604541875,101.49755249999998,101.49755249999998,106.64575549999995,101.93585899999994,102.95458595800005,103.56460308300007,104.59422020800002,101.49755249999998,101.49755249999998,101.46686420799988,101.49755249999998,101.49755249999998,101.49755249999998,101.46686420799988,101.49755249999998,101.49755249999998,106.64575549999995,101.49755249999998,106.64575549999995,106.69340112500004,107.33151066599999,101.49755249999998,1,1,1.1356048329998885,reldom2_s015,001,2025-02-14_14h33.07.946,What-B-Scan_AC,2022.2.5,None,
0,0.0,None,fixation,stimulus/viswhat_stim/blank_white.png,stimulus/viswhat_stim/blank_white.png,stimulus/audwhat_stim/blank_white.png,stimulus/audwhat_stim/blank_white.png,stimulus/viswhat_stim/blank_white.png,stimulus/viswhat_stim/blank_white.png,stimulus/viswhat_stim/blank_white.png,stimulus/viswhat_stim/blank_white.png,0.0,0.0,0.0,0.0,0,0.0,0,0.0,0,0.0,0,0.0,0,0.0,0.0,0,0.0,0,0.0,0,0.0,0,0.0,0,0.0,0,0.0,0,0.0,0,0.0,9,,,,,0,8,8,8,,,,,,,,,107.604541875,107.604541875,107.604541875,107.604541875,107.604541875,107.604541875,107.604541875,107.604541875,107.50244491599992,107.604541875,107.604541875,107.604541875,107.50244491599992,107.604541875,107.604541875,107.604541875,107.604541875,107.604541875,107.604541875,107.604541875,107.604541875,107.604541875,107.604541875,107.604541875,107.604541875,107.604541875,107.604541875,107.55244491599993,107.604541875,107.604541875,107.604541875,107.55244491599993,107.604541875,107.604541875,107.604541875,107.604541875,107.604541875,112.8199332910001,112.8199332910001,117.0385295000001,None,0,,reldom2_s015,001,2025-02-14_14h33.07.946,What-B-Scan_AC,2022.2.5,None,
7,First_Order,2.0,viswhat,stimulus/viswhat_stim/blank_white.png,stimulus/viswhat_stim/blank_white.png,stimulus/viswhat_stim/water_animal-lobster.png,stimulus/viswhat_stim/water_vehicle-canoe.png,stimulus/viswhat_stim/blank_white.png,stimulus/viswhat_stim/location_box.png,stimulus/viswhat_stim/location_yes.png,stimulus/viswhat_stim/location_no.png,None,Location,None,Location,1,0.0,0,5.125,0,5.125,0,5.125,0,0.0,0.625,0,0.0,0,0.0,1,0.5,1,2.125,0,0.0,0,0.0,0,0.0,0,0.0,0,,,,,0,9,9,9,,,,,,,,,117.0385295000001,117.0385295000001,117.0385295000001,117.0385295000001,117.0385295000001,117.0385295000001,117.0385295000001,117.0385295000001,116.75736366666676,117.0385295000001,117.0385295000001,117.0385295000001,116.75736366666676,117.0385295000001,117.0385295000001,117.0385295000001,119.12810787500007,,117.0385295000001,117.0385295000001,122.41020012500007,117.48584133300005,118.67985291600007,119.12810787500007,120.32442929099989,117.0385295000001,117.0385295000001,116.89069700000009,117.0385295000001,117.0385295000001,117.0385295000001,116.89069700000009,117.0385295000001,117.0385295000001,122.41020012500007,117.0385295000001,122.41020012500007,122.26660324999989,,117.0385295000001,1,1,1.9113352499998655,reldom2_s015,001,2025-02-14_14h33.07.946,What-B-Scan_AC,2022.2.5,None,
8,First_Order,2.0,viswhat,stimulus/viswhat_stim/blank_white.png,stimulus/viswhat_stim/blank_white.png,stimulus/viswhat_stim/water_animal-jellyfish.png,stimulus/viswhat_stim/land_animal-bunny.png,stimulus/viswhat_stim/blank_white.png,stimulus/viswhat_stim/type_box.png,stimulus/viswhat_stim/type_yes.png,stimulus/viswhat_stim/type_no.png,None,Type,None,Type,1,0.0,0,5.125,0,5.125,0,5.125,0,0.0,0.625,0,0.0,0,0.0,1,0.5,1,2.125,0,0.0,0,0.0,0,0.0,0,0.0,0,,,,,0,10,10,10,,,,,,,,,123.12878070800002,123.12878070800002,123.12878070800002,123.12878070800002,123.12878070800002,123.12878070800002,123.12878070800002,123.12878070800002,123.04739470800004,123.12878070800002,123.12878070800002,123.12878070800002,123.04739470800004,123.12878070800002,123.12878070800002,123.12878070800002,125.20869341599996,129.2292050000001,123.12878070800002,123.12878070800002,128.2870559999999,123.59592120799994,124.63696770799993,125.20869341599996,126.25329829099996,123.12878070800002,123.12878070800002,123.08072804133337,123.12878070800002,123.12878070800002,123.12878070800002,123.08072804133337,123.12878070800002,123.12878070800002,128.2870559999999,123.12878070800002,128.2870559999999,128.33382529100004,129.03170458299996,123.12878070800002,1,1,1.1796799169999304,reldom2_s015,001,2025-02-14_14h33.07.946,What-B-Scan_AC,2022.2.5,None,
9,First_Order,2.0,viswhat,stimulus/viswhat_stim/blank_white.png,stimulus/viswhat_stim/blank_white.png,stimulus/viswhat_stim/land_animal-cat.png,stimulus/viswhat_stim/water_animal-whale (1).png,stimulus/viswhat_stim/blank_white.png,stimulus/viswhat_stim/location_box.png,stimulus/viswhat_stim/location_yes.png,stimulus/viswhat_stim/location_no.png,None,Location,None,Type,2,0.0,0,5.125,0,5.125,0,5.125,0,0.0,0.625,0,0.0,0,0.0,1,0.5,1,2.125,0,0.0,0,0.0,0,0.0,0,0.0,0,,,,,0,11,11,11,,,,,,,,,129.2292050000001,129.2292050000001,129.2292050000001,129.2292050000001,129.2292050000001,129.2292050000001,129.2292050000001,129.2292050000001,129.18170458299997,129.2292050000001,129.2292050000001,129.2292050000001,129.18170458299997,129.2292050000001,129.2292050000001,129.2292050000001,131.3381207079999,135.34764829100004,129.2292050000001,129.2292050000001,134.37914724999996,129.71100079100006,130.73271879100002,131.3381207079999,132.36626283300006,129.2292050000001,129.2292050000001,129.19837124966665,129.2292050000001,129.2292050000001,129.2292050000001,129.19837124966665,129.2292050000001,129.2292050000001,134.37914724999996,129.2292050000001,134.37914724999996,134.43209120799997,135.08842637499993,129.2292050000001,2,1,1.1745767499999147,reldom2_s015,001,2025-02-14_14h33.07.946,What-B-Scan_AC,2022.2.5,None,
10,First_Order,2.0,viswhat,stimulus/viswhat_stim/blank_white.png,stimulus/viswhat_stim/blank_white.png,stimulus/viswhat_stim/water_animal-shark.png,stimulus/viswhat_stim/water_vehicle-yacht.png,stimulus/viswhat_stim/blank_white.png,stimulus/viswhat_stim/type_box.png,stimulus/viswhat_stim/type_yes.png,stimulus/viswhat_stim/type_no.png,None,Type,None,Location,2,0.0,0,5.125,0,5.125,0,5.125,0,0.0,0.625,0,0.0,0,0.0,1,0.5,1,2.125,0,0.0,0,0.0,0,0.0,0,0.0,0,,,,,0,12,12,12,,,,,,,,,135.34764829100004,135.34764829100004,135.34764829100004,135.34764829100004,135.34764829100004,135.34764829100004,135.34764829100004,135.34764829100004,135.2672309159999,135.34764829100004,135.34764829100004,135.34764829100004,135.2672309159999,135.34764829100004,135.34764829100004,135.34764829100004,137.44131287499977,141.49391445799984,135.34764829100004,135.34764829100004,140.52386720799996,135.81698658300002,136.84381587500002,137.44131287499977,138.47187866600007,135.34764829100004,135.34764829100004,135.3172309159999,135.34764829100004,135.34764829100004,135.34764829100004,135.3172309159999,135.34764829100004,135.34764829100004,140.52386720799996,135.34764829100004,140.52386720799996,140.5609249160002,141.2289787079999,135.34764829100004,2,1,1.439622624999629,reldom2_s015,001,2025-02-14_14h33.07.946,What-B-Scan_AC,2022.2.5,None,
0,0.0,None,fixation,stimulus/viswhat_stim/blank_white.png,stimulus/viswhat_stim/blank_white.png,stimulus/audwhat_stim/blank_white.png,stimulus/audwhat_stim/blank_white.png,stimulus/viswhat_stim/blank_white.png,stimulus/viswhat_stim/blank_white.png,stimulus/viswhat_stim/blank_white.png,stimulus/viswhat_stim/blank_white.png,0.0,0.0,0.0,0.0,0,0.0,0,0.0,0,0.0,0,0.0,0,0.0,0.0,0,0.0,0,0.0,0,0.0,0,0.0,0,0.0,0,0.0,0,0.0,0,0.0,10,,,,,0,13,13,13,,,,,,,,,141.49391445799984,141.49391445799984,141.49391445799984,141.49391445799984,141.49391445799984,141.49391445799984,141.49391445799984,141.49391445799984,141.39937791633352,141.49391445799984,141.49391445799984,141.49391445799984,141.39937791633352,141.49391445799984,141.49391445799984,141.49391445799984,141.49391445799984,141.49391445799984,141.49391445799984,141.49391445799984,141.49391445799984,141.49391445799984,141.49391445799984,141.49391445799984,141.49391445799984,141.49391445799984,141.49391445799984,141.4493779163335,141.49391445799984,141.49391445799984,141.49391445799984,141.4493779163335,141.49391445799984,141.49391445799984,141.49391445799984,141.49391445799984,141.49391445799984,146.71040941599995,146.71040941599995,151.61599904100012,None,0,,reldom2_s015,001,2025-02-14_14h33.07.946,What-B-Scan_AC,2022.2.5,None,
11,Second_Order,2.0,viswhat,stimulus/viswhat_stim/land_animal-ostrich.png,stimulus/viswhat_stim/water_animal-stingray.png,stimulus/viswhat_stim/water_vehicle-cruiseship.png,stimulus/viswhat_stim/water_animal-seaturtle.png,stimulus/viswhat_stim/match_blank.png,stimulus/viswhat_stim/match_box.png,stimulus/viswhat_stim/match_yes.png,stimulus/viswhat_stim/match_no.png,2.0,Match,Type,Location,2,5.125,0,5.125,0,5.125,0,5.125,0,0.75,0.75,1,0.5,1,2.125,1,0.5,1,2.125,0,0.0,0,0.0,0,0.0,0,0.0,0,,,,,0,14,14,14,,,,,,,,,151.61599904100012,156.73300766600005,152.08819737500016,153.0862859580002,153.72088320800003,154.71029279100003,151.61599904100012,151.61599904100012,151.62724683333332,151.61599904100012,151.61599904100012,151.61599904100012,151.62724683333332,151.61599904100012,156.73300766600005,157.7054424580001,159.71401583299985,,157.7054424580001,157.7054424580001,162.92475762499998,158.10698758299986,159.21097700000018,159.71401583299985,160.81798174999994,157.7054424580001,157.7054424580001,157.61699708300003,157.7054424580001,157.7054424580001,157.7054424580001,157.61699708300003,157.7054424580001,157.7054424580001,162.92475762499998,157.7054424580001,162.92475762499998,162.8297782909999,,157.7054424580001,2,1,1.7226684160000332,reldom2_s015,001,2025-02-14_14h33.07.946,What-B-Scan_AC,2022.2.5,None,
12,Second_Order,2.0,viswhat,stimulus/viswhat_stim/land_animal-ostrich.png,stimulus/viswhat_stim/land_vehicle-oldcar.png,stimulus/viswhat_stim/water_vehicle-ship.png,stimulus/viswhat_stim/land_vehicle-vespa.png,stimulus/viswhat_stim/match_blank.png,stimulus/viswhat_stim/match_box.png,stimulus/viswhat_stim/match_yes.png,stimulus/viswhat_stim/match_no.png,2.0,Match,Location,Type,2,5.125,0,5.125,0,5.125,0,5.125,0,0.625,0.625,1,0.5,1,2.125,1,0.5,1,2.125,0,0.0,0,0.0,0,0.0,0,0.0,0,,,,,0,15,15,15,,,,,,,,,163.6224158330001,168.743442125,164.08212474999982,165.08059108299994,165.70937529100001,166.7053725830001,163.6224158330001,163.6224158330001,163.63197966633356,163.6224158330001,163.6224158330001,163.6224158330001,163.63197966633356,163.6224158330001,168.743442125,169.52047816599998,171.55603925000014,,169.52047816599998,169.52047816599998,174.69143033299997,169.9279634999998,171.01305308300016,171.55603925000014,172.648868666,169.52047816599998,169.52047816599998,169.45727520799994,169.52047816599998,169.52047816599998,169.52047816599998,169.45727520799994,169.52047816599998,169.52047816599998,174.69143033299997,169.52047816599998,174.69143033299997,174.69143033299997,175.59426629100017,169.52047816599998,2,1,1.38722824999968,reldom2_s015,001,2025-02-14_14h33.07.946,What-B-Scan_AC,2022.2.5,None,
0,0.0,None,fixation,stimulus/viswhat_stim/blank_white.png,stimulus/viswhat_stim/blank_white.png,stimulus/audwhat_stim/blank_white.png,stimulus/audwhat_stim/blank_white.png,stimulus/viswhat_stim/blank_white.png,stimulus/viswhat_stim/blank_white.png,stimulus/viswhat_stim/blank_white.png,stimulus/viswhat_stim/blank_white.png,0.0,0.0,0.0,0.0,0,0.0,0,0.0,0,0.0,0,0.0,0,0.0,0.0,0,0.0,0,0.0,0,0.0,0,0.0,0,0.0,0,0.0,0,0.0,0,0.0,9,,,,,0,16,16,16,,,,,,,,,175.59426629100017,175.59426629100017,175.59426629100017,175.59426629100017,175.59426629100017,175.59426629100017,175.59426629100017,175.59426629100017,175.49770216633345,175.59426629100017,175.59426629100017,175.59426629100017,175.49770216633345,175.59426629100017,175.59426629100017,175.59426629100017,175.59426629100017,175.59426629100017,175.59426629100017,175.59426629100017,175.59426629100017,175.59426629100017,175.59426629100017,175.59426629100017,175.59426629100017,175.59426629100017,175.59426629100017,175.54770216633347,175.59426629100017,175.59426629100017,175.59426629100017,175.54770216633347,175.59426629100017,175.59426629100017,175.59426629100017,175.59426629100017,175.59426629100017,180.808020166,180.808020166,184.8517072909999,None,0,,reldom2_s015,001,2025-02-14_14h33.07.946,What-B-Scan_AC,2022.2.5,None,
13,First_Order,3.0,audwhat,stimulus/audwhat_stim/dummy.wav,stimulus/audwhat_stim/dummy.wav,stimulus/audwhat_stim/percussion mallet_low-pitch_Ftri_loud.wav,stimulus/audwhat_stim/percussion xylophone_high-pitch_Dtri_loud.wav,stimulus/audwhat_stim/blank_white.png,stimulus/audwhat_stim/pitch_box.png,stimulus/audwhat_stim/pitch_yes.png,stimulus/audwhat_stim/pitch_no.png,None,Pitch,None,Category,2,0.0,0,5.125,0,5.125,0,5.125,0,0.0,0.625,0,0.0,0,0.0,0,0.0,0,0.0,0,0.0,0,0.0,1,0.5,1,2.125,0,,,,,0,17,17,17,,,,,,,,,184.8517072909999,184.8517072909999,184.8517072909999,184.8517072909999,184.8517072909999,184.8517072909999,184.8517072909999,184.8517072909999,184.7806259996666,184.8517072909999,184.8517072909999,184.8517072909999,184.7806259996666,184.8517072909999,184.8517072909999,184.8517072909999,186.92671608299997,190.9642368750001,184.8517072909999,184.8517072909999,190.02428929100006,184.8517072909999,184.8517072909999,184.8517072909999,184.8517072909999,185.31072158300003,186.372783541,185.28181545766645,,186.92671608299997,187.99631579100014,186.89682741666664,187.95022849999987,184.8517072909999,190.02428929100006,184.8517072909999,190.02428929100006,190.06528954099986,190.7535497079998,184.8517072909999,2,1,0.8161914579995937,reldom2_s015,001,2025-02-14_14h33.07.946,What-B-Scan_AC,2022.2.5,None,
14,First_Order,3.0,audwhat,stimulus/audwhat_stim/dummy.wav,stimulus/audwhat_stim/dummy.wav,stimulus/audwhat_stim/string cello_low-pitch_D_loud.wav,stimulus/audwhat_stim/percussion mallet_low-pitch_D_loud.wav,stimulus/audwhat_stim/blank_white.png,stimulus/audwhat_stim/pitch_box.png,stimulus/audwhat_stim/pitch_yes.png,stimulus/audwhat_stim/pitch_no.png,None,Pitch,None,Pitch,1,0.0,0,5.125,0,5.125,0,5.125,0,0.0,0.625,0,0.0,0,0.0,0,0.0,0,0.0,0,0.0,0,0.0,1,0.5,1,2.125,0,,,,,0,18,18,18,,,,,,,,,190.9642368750001,190.9642368750001,190.9642368750001,190.9642368750001,190.9642368750001,190.9642368750001,190.9642368750001,190.9642368750001,190.88688304133316,190.9642368750001,190.9642368750001,190.9642368750001,190.88688304133316,190.9642368750001,190.9642368750001,190.9642368750001,193.04277537500002,197.08260770800007,190.9642368750001,190.9642368750001,196.13821849999977,190.9642368750001,190.9642368750001,190.9642368750001,190.9642368750001,191.4247687500001,192.48866275,191.39572899966677,,193.04277537500002,194.10789016599983,193.01329433266645,,190.9642368750001,196.13821849999977,190.9642368750001,196.13821849999977,196.17946937499983,196.82957420799994,190.9642368750001,1,1,1.0691100419999202,reldom2_s015,001,2025-02-14_14h33.07.946,What-B-Scan_AC,2022.2.5,None,
15,First_Order,3.0,audwhat,stimulus/audwhat_stim/dummy.wav,stimulus/audwhat_stim/dummy.wav,stimulus/audwhat_stim/string cello_high-pitch_D_loud.wav,stimulus/audwhat_stim/string cello_low-pitch_Ftri_loud.wav,stimulus/audwhat_stim/blank_white.png,stimulus/audwhat_stim/category_box.png,stimulus/audwhat_stim/category_yes.png,stimulus/audwhat_stim/category_no.png,None,Category,None,Category,1,0.0,0,5.125,0,5.125,0,5.125,0,0.0,0.625,0,0.0,0,0.0,0,0.0,0,0.0,0,0.0,0,0.0,1,0.5,1,2.125,0,,,,,0,19,19,19,,,,,,,,,197.08260770800007,197.08260770800007,197.08260770800007,197.08260770800007,197.08260770800007,197.08260770800007,197.08260770800007,197.08260770800007,197.00376970833318,197.08260770800007,197.08260770800007,197.08260770800007,197.00376970833318,197.08260770800007,197.08260770800007,197.08260770800007,199.1713433330001,,197.08260770800007,197.08260770800007,202.23575641600019,197.08260770800007,197.08260770800007,197.08260770800007,197.08260770800007,197.54762849999997,198.6161145000001,197.51753462466675,,199.1713433330001,200.2440780830002,199.1413101246665,,197.08260770800007,202.23575641600019,197.08260770800007,202.23575641600019,202.27701875000002,202.92959433299984,197.08260770800007,1,1,1.4886886249996678,reldom2_s015,001,2025-02-14_14h33.07.946,What-B-Scan_AC,2022.2.5,None,
16,First_Order,3.0,audwhat,stimulus/audwhat_stim/dummy.wav,stimulus/audwhat_stim/dummy.wav,stimulus/audwhat_stim/string viola_low-pitch_F_loud.wav,stimulus/audwhat_stim/percussion mallet_low-pitch_F_loud.wav,stimulus/audwhat_stim/blank_white.png,stimulus/audwhat_stim/category_box.png,stimulus/audwhat_stim/category_yes.png,stimulus/audwhat_stim/category_no.png,None,Category,None,Pitch,2,0.0,0,5.125,0,5.125,0,5.125,0,0.0,0.625,0,0.0,0,0.0,0,0.0,0,0.0,0,0.0,0,0.0,1,0.5,1,2.125,0,,,,,0,20,20,20,,,,,,,,,203.1832585000002,203.1832585000002,203.1832585000002,203.1832585000002,203.1832585000002,203.1832585000002,203.1832585000002,203.1832585000002,203.1038820833334,203.1832585000002,203.1832585000002,203.1832585000002,203.1038820833334,203.1832585000002,203.1832585000002,203.1832585000002,205.2756638750002,,203.1832585000002,203.1832585000002,208.34652633299993,203.1832585000002,203.1832585000002,203.1832585000002,203.1832585000002,203.64923416600004,204.71954945800007,203.6180862076665,,205.2756638750002,206.34741929099982,205.2456662496668,,203.1832585000002,208.34652633299993,203.1832585000002,208.34652633299993,208.3874054160001,209.04018700000006,203.1832585000002,1,0,1.8031392909997521,reldom2_s015,001,2025-02-14_14h33.07.946,What-B-Scan_AC,2022.2.5,None,
0,0.0,None,fixation,stimulus/viswhat_stim/blank_white.png,stimulus/viswhat_stim/blank_white.png,stimulus/audwhat_stim/blank_white.png,stimulus/audwhat_stim/blank_white.png,stimulus/viswhat_stim/blank_white.png,stimulus/viswhat_stim/blank_white.png,stimulus/viswhat_stim/blank_white.png,stimulus/viswhat_stim/blank_white.png,0.0,0.0,0.0,0.0,0,0.0,0,0.0,0,0.0,0,0.0,0,0.0,0.0,0,0.0,0,0.0,0,0.0,0,0.0,0,0.0,0,0.0,0,0.0,0,0.0,9,,,,,0,21,21,21,,,,,,,,,209.31327191599985,209.31327191599985,209.31327191599985,209.31327191599985,209.31327191599985,209.31327191599985,209.31327191599985,209.31327191599985,209.2145352913332,209.31327191599985,209.31327191599985,209.31327191599985,209.2145352913332,209.31327191599985,209.31327191599985,209.31327191599985,209.31327191599985,209.31327191599985,209.31327191599985,209.31327191599985,209.31327191599985,209.31327191599985,209.31327191599985,209.31327191599985,209.31327191599985,209.31327191599985,209.31327191599985,209.26453529133317,209.31327191599985,209.31327191599985,209.31327191599985,209.26453529133317,209.31327191599985,209.31327191599985,209.31327191599985,209.31327191599985,209.31327191599985,214.53982287500003,214.53982287500003,218.47742587499988,None,0,,reldom2_s015,001,2025-02-14_14h33.07.946,What-B-Scan_AC,2022.2.5,None,
17,Second_Order,3.0,audwhat,stimulus/audwhat_stim/percussion mallet_high-pitch_Ftri_loud.wav,stimulus/audwhat_stim/string cello_high-pitch_Ftri_loud.wav,stimulus/audwhat_stim/percussion mallet_low-pitch_D_loud.wav,stimulus/audwhat_stim/string viola_low-pitch_D_loud.wav,stimulus/viswhat_stim/match_blank.png,stimulus/viswhat_stim/match_box.png,stimulus/viswhat_stim/match_yes.png,stimulus/viswhat_stim/match_no.png,1.0,Match,Pitch,Pitch,1,5.125,0,5.125,0,5.125,0,5.125,0,0.75,0.75,0,0.0,0,0.0,0,0.0,0,0.0,1,0.5,1,2.125,1,0.5,1,2.125,0,,,,,0,22,22,22,,,,,,,,,218.47742587499988,223.5989075829998,218.47742587499988,218.47742587499988,218.47742587499988,218.47742587499988,218.92506712500017,219.92383491600003,218.93829233266686,,220.55874374999985,221.54781579100018,220.56260799966665,,223.5989075829998,224.45081270799983,226.5166330410002,,224.45081270799983,224.45081270799983,229.60764416599977,224.45081270799983,224.45081270799983,224.45081270799983,224.45081270799983,224.86383879100003,225.9193794580001,224.83476241666656,,226.5166330410002,227.57881929099995,226.48723166666676,,224.45081270799983,229.60764416599977,224.45081270799983,229.60764416599977,229.64933291599982,,224.45081270799983,2,0,2.6484792920000473,reldom2_s015,001,2025-02-14_14h33.07.946,What-B-Scan_AC,2022.2.5,None,
18,Second_Order,3.0,audwhat,stimulus/audwhat_stim/percussion mallet_high-pitch_Dtri_loud.wav,stimulus/audwhat_stim/string cello_high-pitch_Dtri_loud.wav,stimulus/audwhat_stim/string viola_low-pitch_Ftri_loud.wav,stimulus/audwhat_stim/percussion mallet_low-pitch_Ftri_loud.wav,stimulus/viswhat_stim/match_blank.png,stimulus/viswhat_stim/match_box.png,stimulus/viswhat_stim/match_yes.png,stimulus/viswhat_stim/match_no.png,1.0,Match,Pitch,Pitch,1,5.125,0,5.125,0,5.125,0,5.125,0,0.625,0.625,0,0.0,0,0.0,0,0.0,0,0.0,1,0.5,1,2.125,1,0.5,1,2.125,0,,,,,0,23,23,23,,,,,,,,,230.41783075000012,235.53266666599984,230.41783075000012,230.41783075000012,230.41783075000012,230.41783075000012,230.86897237499988,231.85529558300004,230.88222862466662,,232.49069658300004,233.48870908299978,232.50299058266663,,235.53266666599984,236.2597994580001,238.30982262499992,,236.2597994580001,236.2597994580001,241.43576079100012,236.2597994580001,236.2597994580001,236.2597994580001,236.2597994580001,236.71304112500002,237.7616330830001,236.6837664166667,,238.30982262499992,239.3687946250002,238.2804635416667,,236.2597994580001,241.43576079100012,236.2597994580001,241.43576079100012,241.43576079100012,242.12153687499995,236.2597994580001,1,1,1.519553999999971,reldom2_s015,001,2025-02-14_14h33.07.946,What-B-Scan_AC,2022.2.5,None,
0,0.0,None,fixation,stimulus/viswhat_stim/blank_white.png,stimulus/viswhat_stim/blank_white.png,stimulus/audwhat_stim/blank_white.png,stimulus/audwhat_stim/blank_white.png,stimulus/viswhat_stim/blank_white.png,stimulus/viswhat_stim/blank_white.png,stimulus/viswhat_stim/blank_white.png,stimulus/viswhat_stim/blank_white.png,0.0,0.0,0.0,0.0,0,0.0,0,0.0,0,0.0,0,0.0,0,0.0,0.0,0,0.0,0,0.0,0,0.0,0,0.0,0,0.0,0,0.0,0,0.0,0,0.0,8,,,,,0,24,24,24,,,,,,,,,242.35219700000016,242.35219700000016,242.35219700000016,242.35219700000016,242.35219700000016,242.35219700000016,242.35219700000016,242.35219700000016,242.2548702083333,242.35219700000016,242.35219700000016,242.35219700000016,242.2548702083333,242.35219700000016,242.35219700000016,242.35219700000016,242.35219700000016,242.35219700000016,242.35219700000016,242.35219700000016,242.35219700000016,242.35219700000016,242.35219700000016,242.35219700000016,242.35219700000016,242.35219700000016,242.35219700000016,242.30487020833328,242.35219700000016,242.35219700000016,242.35219700000016,242.30487020833328,242.35219700000016,242.35219700000016,242.35219700000016,242.35219700000016,242.35219700000016,247.53713529100014,247.53713529100014,250.59123287500006,None,0,,reldom2_s015,001,2025-02-14_14h33.07.946,What-B-Scan_AC,2022.2.5,None,
19,First_Order,4.0,audwhat,stimulus/audwhat_stim/dummy.wav,stimulus/audwhat_stim/dummy.wav,stimulus/audwhat_stim/percussion mallet_low-pitch_Ftri_loud.wav,stimulus/audwhat_stim/string viola_low-pitch_Ftri_loud.wav,stimulus/audwhat_stim/blank_white.png,stimulus/audwhat_stim/pitch_box.png,stimulus/audwhat_stim/pitch_yes.png,stimulus/audwhat_stim/pitch_no.png,None,Pitch,None,Pitch,1,0.0,0,5.125,0,5.125,0,5.125,0,0.0,0.625,0,0.0,0,0.0,0,0.0,0,0.0,0,0.0,0,0.0,1,0.5,1,2.125,0,,,,,0,25,25,25,,,,,,,,,250.59123287500006,250.59123287500006,250.59123287500006,250.59123287500006,250.59123287500006,250.59123287500006,250.59123287500006,250.59123287500006,250.51997345766648,250.59123287500006,250.59123287500006,250.59123287500006,250.51997345766648,250.59123287500006,250.59123287500006,250.59123287500006,252.67442329100004,256.7177401250001,250.59123287500006,250.59123287500006,255.7724413330002,250.59123287500006,250.59123287500006,250.59123287500006,250.59123287500006,251.055678833,252.1197534160001,251.0259568326667,,252.67442329100004,253.74032295799998,252.6447412076666,,250.59123287500006,255.7724413330002,250.59123287500006,255.7724413330002,255.8135023330001,256.4653363749999,250.59123287500006,1,1,1.7892389579997143,reldom2_s015,001,2025-02-14_14h33.07.946,What-B-Scan_AC,2022.2.5,None,
20,First_Order,4.0,audwhat,stimulus/audwhat_stim/dummy.wav,stimulus/audwhat_stim/dummy.wav,stimulus/audwhat_stim/string viola_low-pitch_F_loud.wav,stimulus/audwhat_stim/string cello_high-pitch_Ftri_loud.wav,stimulus/audwhat_stim/blank_white.png,stimulus/audwhat_stim/category_box.png,stimulus/audwhat_stim/category_yes.png,stimulus/audwhat_stim/category_no.png,None,Category,None,Category,1,0.0,0,5.125,0,5.125,0,5.125,0,0.0,0.625,0,0.0,0,0.0,0,0.0,0,0.0,0,0.0,0,0.0,1,0.5,1,2.125,0,,,,,0,26,26,26,,,,,,,,,256.7177401250001,256.7177401250001,256.7177401250001,256.7177401250001,256.7177401250001,256.7177401250001,256.7177401250001,256.7177401250001,256.63894154133334,256.7177401250001,256.7177401250001,256.7177401250001,256.63894154133334,256.7177401250001,256.7177401250001,256.7177401250001,258.80589329099985,,256.7177401250001,256.7177401250001,261.87292683299984,256.7177401250001,256.7177401250001,256.7177401250001,256.7177401250001,257.1823074160002,258.2499950000001,257.1522080416664,,258.80589329099985,259.8743732910002,258.7763548326668,,256.7177401250001,261.87292683299984,256.7177401250001,261.87292683299984,261.9137300409998,262.565733166,256.7177401250001,2,0,1.7330607079998117,reldom2_s015,001,2025-02-14_14h33.07.946,What-B-Scan_AC,2022.2.5,None,
21,First_Order,4.0,audwhat,stimulus/audwhat_stim/dummy.wav,stimulus/audwhat_stim/dummy.wav,stimulus/audwhat_stim/string viola_high-pitch_F_loud.wav,stimulus/audwhat_stim/percussion mallet_high-pitch_F_loud.wav,stimulus/audwhat_stim/blank_white.png,stimulus/audwhat_stim/category_box.png,stimulus/audwhat_stim/category_yes.png,stimulus/audwhat_stim/category_no.png,None,Category,None,Pitch,2,0.0,0,5.125,0,5.125,0,5.125,0,0.0,0.625,0,0.0,0,0.0,0,0.0,0,0.0,0,0.0,0,0.0,1,0.5,1,2.125,0,,,,,0,27,27,27,,,,,,,,,262.82264212500013,262.82264212500013,262.82264212500013,262.82264212500013,262.82264212500013,262.82264212500013,262.82264212500013,262.82264212500013,262.7399273743332,262.82264212500013,262.82264212500013,262.82264212500013,262.7399273743332,262.82264212500013,262.82264212500013,262.82264212500013,264.9167017079999,268.93243379099977,262.82264212500013,262.82264212500013,267.985755875,262.82264212500013,262.82264212500013,262.82264212500013,262.82264212500013,263.2892991660001,264.3590380410001,263.2591734576665,,264.9167017079999,265.98939800000016,264.88660254166666,,262.82264212500013,267.985755875,262.82264212500013,267.985755875,268.0269007500001,268.67880312499983,262.82264212500013,2,1,0.8600925410000855,reldom2_s015,001,2025-02-14_14h33.07.946,What-B-Scan_AC,2022.2.5,None,
22,First_Order,4.0,audwhat,stimulus/audwhat_stim/dummy.wav,stimulus/audwhat_stim/dummy.wav,stimulus/audwhat_stim/percussion xylophone_high-pitch_D_loud.wav,stimulus/audwhat_stim/percussion mallet_low-pitch_F_loud.wav,stimulus/audwhat_stim/blank_white.png,stimulus/audwhat_stim/pitch_box.png,stimulus/audwhat_stim/pitch_yes.png,stimulus/audwhat_stim/pitch_no.png,None,Pitch,None,Category,2,0.0,0,5.125,0,5.125,0,5.125,0,0.0,0.625,0,0.0,0,0.0,0,0.0,0,0.0,0,0.0,0,0.0,1,0.5,1,2.125,0,,,,,0,28,28,28,,,,,,,,,268.93243379099977,268.93243379099977,268.93243379099977,268.93243379099977,268.93243379099977,268.93243379099977,268.93243379099977,268.93243379099977,268.8529474993335,268.93243379099977,268.93243379099977,268.93243379099977,268.8529474993335,268.93243379099977,268.93243379099977,268.93243379099977,271.02072579100013,,268.93243379099977,268.93243379099977,274.0834368330002,268.93243379099977,268.93243379099977,268.93243379099977,268.93243379099977,269.39639612500014,270.46561974999986,269.3664081666668,270.4191864579998,271.02072579100013,272.09100124999986,270.99080108266685,,268.93243379099977,274.0834368330002,268.93243379099977,274.0834368330002,274.124610458,274.7746662909999,268.93243379099977,2,1,1.3207962090000365,reldom2_s015,001,2025-02-14_14h33.07.946,What-B-Scan_AC,2022.2.5,None,
0,0.0,None,fixation,stimulus/viswhat_stim/blank_white.png,stimulus/viswhat_stim/blank_white.png,stimulus/audwhat_stim/blank_white.png,stimulus/audwhat_stim/blank_white.png,stimulus/viswhat_stim/blank_white.png,stimulus/viswhat_stim/blank_white.png,stimulus/viswhat_stim/blank_white.png,stimulus/viswhat_stim/blank_white.png,0.0,0.0,0.0,0.0,0,0.0,0,0.0,0,0.0,0,0.0,0,0.0,0.0,0,0.0,0,0.0,0,0.0,0,0.0,0,0.0,0,0.0,0,0.0,0,0.0,10,,,,,0,29,29,29,,,,,,,,,275.04695837500003,275.04695837500003,275.04695837500003,275.04695837500003,275.04695837500003,275.04695837500003,275.04695837500003,275.04695837500003,274.94858362433354,275.04695837500003,275.04695837500003,275.04695837500003,274.94858362433354,275.04695837500003,275.04695837500003,275.04695837500003,275.04695837500003,275.04695837500003,275.04695837500003,275.04695837500003,275.04695837500003,275.04695837500003,275.04695837500003,275.04695837500003,275.04695837500003,275.04695837500003,275.04695837500003,274.99858362433355,275.04695837500003,275.04695837500003,275.04695837500003,274.99858362433355,275.04695837500003,275.04695837500003,275.04695837500003,275.04695837500003,275.04695837500003,280.2732000410001,280.2732000410001,285.2219822500001,None,0,,reldom2_s015,001,2025-02-14_14h33.07.946,What-B-Scan_AC,2022.2.5,None,
23,Second_Order,4.0,audwhat,stimulus/audwhat_stim/percussion mallet_high-pitch_Ftri_loud.wav,stimulus/audwhat_stim/percussion mallet_low-pitch_Dtri_loud.wav,stimulus/audwhat_stim/percussion mallet_high-pitch_D_loud.wav,stimulus/audwhat_stim/string viola_high-pitch_D_loud.wav,stimulus/viswhat_stim/match_blank.png,stimulus/viswhat_stim/match_box.png,stimulus/viswhat_stim/match_yes.png,stimulus/viswhat_stim/match_no.png,2.0,Match,Category,Pitch,2,5.125,0,5.125,0,5.125,0,5.125,0,0.75,0.75,0,0.0,0,0.0,0,0.0,0,0.0,1,0.5,1,2.125,1,0.5,1,2.125,0,,,,,0,30,30,30,,,,,,,,,285.2219822500001,290.3409710410001,285.2219822500001,285.2219822500001,285.2219822500001,285.2219822500001,285.6799102499999,286.67829516599977,285.69256079166666,,287.3012188329999,288.2986000000001,287.3131364996668,,290.3409710410001,291.192094041,293.2640622079998,,291.192094041,291.192094041,296.36217666599987,291.192094041,291.192094041,291.192094041,291.192094041,291.65165858299997,292.71117804100004,291.62125754166686,,293.2640622079998,294.3290991250001,293.23465333266654,,291.192094041,296.36217666599987,291.192094041,296.36217666599987,296.36217666599987,,291.192094041,2,1,1.5537168329997257,reldom2_s015,001,2025-02-14_14h33.07.946,What-B-Scan_AC,2022.2.5,None,
24,Second_Order,4.0,audwhat,stimulus/audwhat_stim/string viola_high-pitch_Dtri_loud.wav,stimulus/audwhat_stim/percussion mallet_high-pitch_Dtri_loud.wav,stimulus/audwhat_stim/string cello_low-pitch_Dtri_loud.wav,stimulus/audwhat_stim/string viola_high-pitch_Ftri_loud.wav,stimulus/viswhat_stim/match_blank.png,stimulus/viswhat_stim/match_box.png,stimulus/viswhat_stim/match_yes.png,stimulus/viswhat_stim/match_no.png,2.0,Match,Pitch,Category,2,5.125,0,5.125,0,5.125,0,5.125,0,0.625,0.625,0,0.0,0,0.0,0,0.0,0,0.0,1,0.5,1,2.125,1,0.5,1,2.125,0,,,,,0,31,31,31,,,,,,,,,297.1716150829998,302.2854595409999,297.1716150829998,297.1716150829998,297.1716150829998,297.1716150829998,297.62251812500017,298.6093827499999,297.6363755826667,,299.25728066600004,300.2469272909998,299.2600573326665,,302.2854595409999,303.0157925829999,305.07218624999996,,303.0157925829999,303.0157925829999,308.19702262500005,303.0157925829999,303.0157925829999,303.0157925829999,303.0157925829999,303.4696242079999,304.52272025,303.4406572076666,,305.07218624999996,306.1296766659998,305.0429842076667,,303.0157925829999,308.19702262500005,303.0157925829999,308.19702262500005,308.19702262500005,308.88013495799987,303.0157925829999,2,1,1.7883777500001088,reldom2_s015,001,2025-02-14_14h33.07.946,What-B-Scan_AC,2022.2.5,None,
0,0.0,None,fixation,stimulus/viswhat_stim/blank_white.png,stimulus/viswhat_stim/blank_white.png,stimulus/audwhat_stim/blank_white.png,stimulus/audwhat_stim/blank_white.png,stimulus/viswhat_stim/blank_white.png,stimulus/viswhat_stim/blank_white.png,stimulus/viswhat_stim/blank_white.png,stimulus/viswhat_stim/blank_white.png,0.0,0.0,0.0,0.0,0,0.0,0,0.0,0,0.0,0,0.0,0,0.0,0.0,0,0.0,0,0.0,0,0.0,0,0.0,0,0.0,0,0.0,0,0.0,0,0.0,9,,,,,0,32,32,32,,,,,,,,,309.111693458,309.111693458,309.111693458,309.111693458,309.111693458,309.111693458,309.111693458,309.111693458,309.0134682913332,309.111693458,309.111693458,309.111693458,309.0134682913332,309.111693458,309.111693458,309.111693458,309.111693458,309.111693458,309.111693458,309.111693458,309.111693458,309.111693458,309.111693458,309.111693458,309.111693458,309.111693458,309.111693458,309.0634682913332,309.111693458,309.111693458,309.111693458,309.0634682913332,309.111693458,309.111693458,309.111693458,309.111693458,309.111693458,314.311847083,314.311847083,318.4046482499998,None,0,,reldom2_s015,001,2025-02-14_14h33.07.946,What-B-Scan_AC,2022.2.5,None,
25,First_Order,5.0,viswhat,stimulus/viswhat_stim/blank_white.png,stimulus/viswhat_stim/blank_white.png,stimulus/viswhat_stim/land_animal-elephant.png,stimulus/viswhat_stim/land_vehicle-firetruck.png,stimulus/viswhat_stim/blank_white.png,stimulus/viswhat_stim/location_box.png,stimulus/viswhat_stim/location_yes.png,stimulus/viswhat_stim/location_no.png,None,Location,None,Location,1,0.0,0,5.125,0,5.125,0,5.125,0,0.0,0.625,0,0.0,0,0.0,1,0.5,1,2.125,0,0.0,0,0.0,0,0.0,0,0.0,0,,,,,0,33,33,33,,,,,,,,,318.4046482499998,318.4046482499998,318.4046482499998,318.4046482499998,318.4046482499998,318.4046482499998,318.4046482499998,318.4046482499998,318.3063737916665,318.4046482499998,318.4046482499998,318.4046482499998,318.3063737916665,318.4046482499998,318.4046482499998,318.4046482499998,320.4737620830001,,318.4046482499998,318.4046482499998,323.60769370800017,318.87844858300014,319.94424254099977,320.4737620830001,321.5397613750001,318.4046482499998,318.4046482499998,318.3563737916665,318.4046482499998,318.4046482499998,318.4046482499998,318.3563737916665,318.4046482499998,318.4046482499998,323.60769370800017,318.4046482499998,323.60769370800017,323.60769370800017,324.4384011249999,318.4046482499998,1,1,1.4631737919999068,reldom2_s015,001,2025-02-14_14h33.07.946,What-B-Scan_AC,2022.2.5,None,
26,First_Order,5.0,viswhat,stimulus/viswhat_stim/blank_white.png,stimulus/viswhat_stim/blank_white.png,stimulus/viswhat_stim/land_vehicle-tank.png,stimulus/viswhat_stim/land_animal-pig.png,stimulus/viswhat_stim/blank_white.png,stimulus/viswhat_stim/type_box.png,stimulus/viswhat_stim/type_yes.png,stimulus/viswhat_stim/type_no.png,None,Type,None,Location,2,0.0,0,5.125,0,5.125,0,5.125,0,0.0,0.625,0,0.0,0,0.0,1,0.5,1,2.125,0,0.0,0,0.0,0,0.0,0,0.0,0,,,,,0,34,34,34,,,,,,,,,324.4384011249999,324.4384011249999,324.4384011249999,324.4384011249999,324.4384011249999,324.4384011249999,324.4384011249999,324.4384011249999,324.41470983266674,324.4384011249999,324.4384011249999,324.4384011249999,324.41470983266674,324.4384011249999,324.4384011249999,324.4384011249999,326.5532431659999,330.6022035000001,324.4384011249999,324.4384011249999,329.5834218330001,324.9179797500001,325.9229411659999,326.5532431659999,327.55833974999996,324.4384011249999,324.4384011249999,324.43137649933345,324.4384011249999,324.4384011249999,324.4384011249999,324.43137649933345,324.4384011249999,324.4384011249999,329.5834218330001,324.4384011249999,329.5834218330001,329.66631470799985,330.29726095800015,324.4384011249999,2,1,0.8930168749998302,reldom2_s015,001,2025-02-14_14h33.07.946,What-B-Scan_AC,2022.2.5,None,
27,First_Order,5.0,viswhat,stimulus/viswhat_stim/blank_white.png,stimulus/viswhat_stim/blank_white.png,stimulus/viswhat_stim/land_animal-moose.png,stimulus/viswhat_stim/land_vehicle-vespa.png,stimulus/viswhat_stim/blank_white.png,stimulus/viswhat_stim/location_box.png,stimulus/viswhat_stim/location_yes.png,stimulus/viswhat_stim/location_no.png,None,Location,None,Location,1,0.0,0,5.125,0,5.125,0,5.125,0,0.0,0.625,0,0.0,0,0.0,1,0.5,1,2.125,0,0.0,0,0.0,0,0.0,0,0.0,0,,,,,0,35,35,35,,,,,,,,,330.6022035000001,330.6022035000001,330.6022035000001,330.6022035000001,330.6022035000001,330.6022035000001,330.6022035000001,330.6022035000001,330.48058912433345,330.6022035000001,330.6022035000001,330.6022035000001,330.48058912433345,330.6022035000001,330.6022035000001,330.6022035000001,332.67331854099984,,330.6022035000001,330.6022035000001,335.8119847080002,331.0696122909999,332.139390458,332.67331854099984,333.74467912499995,330.6022035000001,330.6022035000001,330.5472557910001,330.6022035000001,330.6022035000001,330.6022035000001,330.5472557910001,330.6022035000001,330.6022035000001,335.8119847080002,330.6022035000001,335.8119847080002,335.8119847080002,336.69367062499987,330.6022035000001,1,1,0.7413765829996919,reldom2_s015,001,2025-02-14_14h33.07.946,What-B-Scan_AC,2022.2.5,None,
28,First_Order,5.0,viswhat,stimulus/viswhat_stim/blank_white.png,stimulus/viswhat_stim/blank_white.png,stimulus/viswhat_stim/land_animal-giraffe.png,stimulus/viswhat_stim/water_animal-squid.png,stimulus/viswhat_stim/blank_white.png,stimulus/viswhat_stim/location_box.png,stimulus/viswhat_stim/location_yes.png,stimulus/viswhat_stim/location_no.png,None,Location,None,Type,2,0.0,0,5.125,0,5.125,0,5.125,0,0.0,0.625,0,0.0,0,0.0,1,0.5,1,2.125,0,0.0,0,0.0,0,0.0,0,0.0,0,,,,,0,36,36,36,,,,,,,,,336.69367062499987,336.69367062499987,336.69367062499987,336.69367062499987,336.69367062499987,336.69367062499987,336.69367062499987,336.69367062499987,336.60502054133343,336.69367062499987,336.69367062499987,336.69367062499987,336.60502054133343,336.69367062499987,336.69367062499987,336.69367062499987,338.79247966599996,342.8317346250001,336.69367062499987,336.69367062499987,341.8864076250002,337.1359238750001,338.1870617499999,338.79247966599996,339.8450817910002,336.69367062499987,336.69367062499987,336.63835387466673,336.69367062499987,336.69367062499987,336.69367062499987,336.63835387466673,336.69367062499987,336.69367062499987,341.8864076250002,336.69367062499987,341.8864076250002,341.8864076250002,342.578998083,336.69367062499987,2,1,1.8291285419995802,reldom2_s015,001,2025-02-14_14h33.07.946,What-B-Scan_AC,2022.2.5,None,
0,0.0,None,fixation,stimulus/viswhat_stim/blank_white.png,stimulus/viswhat_stim/blank_white.png,stimulus/audwhat_stim/blank_white.png,stimulus/audwhat_stim/blank_white.png,stimulus/viswhat_stim/blank_white.png,stimulus/viswhat_stim/blank_white.png,stimulus/viswhat_stim/blank_white.png,stimulus/viswhat_stim/blank_white.png,0.0,0.0,0.0,0.0,0,0.0,0,0.0,0,0.0,0,0.0,0,0.0,0.0,0,0.0,0,0.0,0,0.0,0,0.0,0,0.0,0,0.0,0,0.0,0,0.0,9,,,,,0,37,37,37,,,,,,,,,342.8317346250001,342.8317346250001,342.8317346250001,342.8317346250001,342.8317346250001,342.8317346250001,342.8317346250001,342.8317346250001,342.72899808299996,342.8317346250001,342.8317346250001,342.8317346250001,342.72899808299996,342.8317346250001,342.8317346250001,342.8317346250001,342.8317346250001,342.8317346250001,342.8317346250001,342.8317346250001,342.8317346250001,342.8317346250001,342.8317346250001,342.8317346250001,342.8317346250001,342.8317346250001,342.8317346250001,342.778998083,342.8317346250001,342.8317346250001,342.8317346250001,342.778998083,342.8317346250001,342.8317346250001,342.8317346250001,342.8317346250001,342.8317346250001,348.0271275,348.0271275,351.9625123750002,None,0,,reldom2_s015,001,2025-02-14_14h33.07.946,What-B-Scan_AC,2022.2.5,None,
29,Second_Order,5.0,viswhat,stimulus/viswhat_stim/water_vehicle-pirateship.png,stimulus/viswhat_stim/land_vehicle-schoolbus.png,stimulus/viswhat_stim/water_animal-dolphin.png,stimulus/viswhat_stim/land_animal-cat.png,stimulus/viswhat_stim/match_blank.png,stimulus/viswhat_stim/match_box.png,stimulus/viswhat_stim/match_yes.png,stimulus/viswhat_stim/match_no.png,1.0,Match,Type,Type,1,5.125,0,5.125,0,5.125,0,5.125,0,0.75,0.75,1,0.5,1,2.125,1,0.5,1,2.125,0,0.0,0,0.0,0,0.0,0,0.0,0,,,,,0,38,38,38,,,,,,,,,351.9625123750002,357.0783446249998,352.4341343330002,353.4324378749998,354.05567800000017,355.05286341600004,351.9625123750002,351.9625123750002,351.96887704133326,351.9625123750002,351.9625123750002,351.9625123750002,351.96887704133326,351.9625123750002,357.0783446249998,357.8978564580002,359.9684009580001,363.9316709999998,357.8978564580002,357.8978564580002,363.06207837500006,358.3428075830002,359.3624518329998,359.9684009580001,360.9916265830002,357.8978564580002,357.8978564580002,357.8626726249998,357.8978564580002,357.8978564580002,357.8978564580002,357.8626726249998,357.8978564580002,357.8978564580002,363.06207837500006,357.8978564580002,363.06207837500006,363.0886261249998,,357.8978564580002,1,1,0.8602829579999707,reldom2_s015,001,2025-02-14_14h33.07.946,What-B-Scan_AC,2022.2.5,None,
30,Second_Order,5.0,viswhat,stimulus/viswhat_stim/water_animal-orka.png,stimulus/viswhat_stim/land_animal-bunny.png,stimulus/viswhat_stim/land_vehicle-motorcycle.png,stimulus/viswhat_stim/water_vehicle-motorboatraft.png,stimulus/viswhat_stim/match_blank.png,stimulus/viswhat_stim/match_box.png,stimulus/viswhat_stim/match_yes.png,stimulus/viswhat_stim/match_no.png,1.0,Match,Type,Type,1,5.125,0,5.125,0,5.125,0,5.125,0,0.625,0.625,1,0.5,1,2.125,1,0.5,1,2.125,0,0.0,0,0.0,0,0.0,0,0.0,0,,,,,0,39,39,39,,,,,,,,,363.9316709999998,369.052151375,364.3430778329998,365.33037179099983,365.96545449999985,366.9639082079998,363.9316709999998,363.9316709999998,363.9301955833331,363.9316709999998,363.9316709999998,363.9316709999998,363.9301955833331,363.9316709999998,369.052151375,369.745889583,371.8240504999999,375.85740537499987,369.745889583,369.745889583,374.88482087500006,370.18946070799984,371.2289881659999,371.8240504999999,372.86427950000007,369.745889583,369.745889583,369.719943291,369.745889583,369.745889583,369.745889583,369.719943291,369.745889583,369.745889583,374.88482087500006,369.745889583,374.88482087500006,374.93312783300007,375.58037454099986,369.745889583,1,1,1.0498856249996606,reldom2_s015,001,2025-02-14_14h33.07.946,What-B-Scan_AC,2022.2.5,None,
0,0.0,None,fixation,stimulus/viswhat_stim/blank_white.png,stimulus/viswhat_stim/blank_white.png,stimulus/audwhat_stim/blank_white.png,stimulus/audwhat_stim/blank_white.png,stimulus/viswhat_stim/blank_white.png,stimulus/viswhat_stim/blank_white.png,stimulus/viswhat_stim/blank_white.png,stimulus/viswhat_stim/blank_white.png,0.0,0.0,0.0,0.0,0,0.0,0,0.0,0,0.0,0,0.0,0,0.0,0.0,0,0.0,0,0.0,0,0.0,0,0.0,0,0.0,0,0.0,0,0.0,0,0.0,9,,,,,0,40,40,40,,,,,,,,,375.85740537499987,375.85740537499987,375.85740537499987,375.85740537499987,375.85740537499987,375.85740537499987,375.85740537499987,375.85740537499987,375.7539863329999,375.85740537499987,375.85740537499987,375.85740537499987,375.7539863329999,375.85740537499987,375.85740537499987,375.85740537499987,375.85740537499987,375.85740537499987,375.85740537499987,375.85740537499987,375.85740537499987,375.85740537499987,375.85740537499987,375.85740537499987,375.85740537499987,375.85740537499987,375.85740537499987,375.82065299966655,375.85740537499987,375.85740537499987,375.85740537499987,375.82065299966655,375.85740537499987,375.85740537499987,375.85740537499987,375.85740537499987,375.85740537499987,381.0616176660001,381.0616176660001,385.15597283299985,None,0,,reldom2_s015,001,2025-02-14_14h33.07.946,What-B-Scan_AC,2022.2.5,None,
31,First_Order,6.0,viswhat,stimulus/viswhat_stim/blank_white.png,stimulus/viswhat_stim/blank_white.png,stimulus/viswhat_stim/water_vehicle-ship.png,stimulus/viswhat_stim/land_vehicle-schoolbus.png,stimulus/viswhat_stim/blank_white.png,stimulus/viswhat_stim/location_box.png,stimulus/viswhat_stim/location_yes.png,stimulus/viswhat_stim/location_no.png,None,Location,None,Type,2,0.0,0,5.125,0,5.125,0,5.125,0,0.0,0.625,0,0.0,0,0.0,1,0.5,1,2.125,0,0.0,0,0.0,0,0.0,0,0.0,0,,,,,0,41,41,41,,,,,,,,,385.15597283299985,385.15597283299985,385.15597283299985,385.15597283299985,385.15597283299985,385.15597283299985,385.15597283299985,385.15597283299985,385.0549469576664,385.15597283299985,385.15597283299985,385.15597283299985,385.0549469576664,385.15597283299985,385.15597283299985,385.15597283299985,387.25678100000005,391.23327979099986,385.15597283299985,385.15597283299985,390.32049970800017,385.63587525,386.7181632500001,387.25678100000005,388.340523458,385.15597283299985,385.15597283299985,385.1049469576664,385.15597283299985,385.15597283299985,385.15597283299985,385.1049469576664,385.15597283299985,385.15597283299985,390.32049970800017,385.15597283299985,390.32049970800017,390.37492487500003,391.23327979099986,385.15597283299985,2,1,1.3775823749997471,reldom2_s015,001,2025-02-14_14h33.07.946,What-B-Scan_AC,2022.2.5,None,
32,First_Order,6.0,viswhat,stimulus/viswhat_stim/blank_white.png,stimulus/viswhat_stim/blank_white.png,stimulus/viswhat_stim/land_vehicle-bus.png,stimulus/viswhat_stim/water_vehicle-jetski.png,stimulus/viswhat_stim/blank_white.png,stimulus/viswhat_stim/type_box.png,stimulus/viswhat_stim/type_yes.png,stimulus/viswhat_stim/type_no.png,None,Type,None,Type,1,0.0,0,5.125,0,5.125,0,5.125,0,0.0,0.625,0,0.0,0,0.0,1,0.5,1,2.125,0,0.0,0,0.0,0,0.0,0,0.0,0,,,,,0,42,42,42,,,,,,,,,391.23327979099986,391.23327979099986,391.23327979099986,391.23327979099986,391.23327979099986,391.23327979099986,391.23327979099986,391.23327979099986,391.19336516666647,391.23327979099986,391.23327979099986,391.23327979099986,391.19336516666647,391.23327979099986,391.23327979099986,391.23327979099986,393.3286817080002,,391.23327979099986,391.23327979099986,396.389776083,391.701217583,392.71854358300016,393.3286817080002,394.3526094160002,391.23327979099986,391.23327979099986,391.2100318333332,391.23327979099986,391.23327979099986,391.23327979099986,391.2100318333332,391.23327979099986,391.23327979099986,396.389776083,391.23327979099986,396.389776083,396.45992754100007,397.091330791,391.23327979099986,1,1,0.7771850839999388,reldom2_s015,001,2025-02-14_14h33.07.946,What-B-Scan_AC,2022.2.5,None,
33,First_Order,6.0,viswhat,stimulus/viswhat_stim/blank_white.png,stimulus/viswhat_stim/blank_white.png,stimulus/viswhat_stim/water_animal-seahorse.png,stimulus/viswhat_stim/water_vehicle-cabincruiser.png,stimulus/viswhat_stim/blank_white.png,stimulus/viswhat_stim/type_box.png,stimulus/viswhat_stim/type_yes.png,stimulus/viswhat_stim/type_no.png,None,Type,None,Location,2,0.0,0,5.125,0,5.125,0,5.125,0,0.0,0.625,0,0.0,0,0.0,1,0.5,1,2.125,0,0.0,0,0.0,0,0.0,0,0.0,0,,,,,0,43,43,43,,,,,,,,,397.31537725,397.31537725,397.31537725,397.31537725,397.31537725,397.31537725,397.31537725,397.31537725,397.26105420799973,397.31537725,397.31537725,397.31537725,397.26105420799973,397.31537725,397.31537725,397.31537725,399.416135125,,397.31537725,397.31537725,402.4580811249998,397.79848741600017,398.8319308750001,399.416135125,400.45635466600015,397.31537725,397.31537725,397.2943875413331,397.31537725,397.31537725,397.31537725,397.2943875413331,397.31537725,397.31537725,402.4580811249998,397.31537725,402.4580811249998,402.5440572910002,403.1804969579998,397.31537725,2,1,1.6604454579996855,reldom2_s015,001,2025-02-14_14h33.07.946,What-B-Scan_AC,2022.2.5,None,
34,First_Order,6.0,viswhat,stimulus/viswhat_stim/blank_white.png,stimulus/viswhat_stim/blank_white.png,stimulus/viswhat_stim/land_animal-tiger.png,stimulus/viswhat_stim/water_animal-octopus.png,stimulus/viswhat_stim/blank_white.png,stimulus/viswhat_stim/type_box.png,stimulus/viswhat_stim/type_yes.png,stimulus/viswhat_stim/type_no.png,None,Type,None,Type,1,0.0,0,5.125,0,5.125,0,5.125,0,0.0,0.625,0,0.0,0,0.0,1,0.5,1,2.125,0,0.0,0,0.0,0,0.0,0,0.0,0,,,,,0,44,44,44,,,,,,,,,403.42045554100014,403.42045554100014,403.42045554100014,403.42045554100014,403.42045554100014,403.42045554100014,403.42045554100014,403.42045554100014,403.3543800826668,403.42045554100014,403.42045554100014,403.42045554100014,403.3543800826668,403.42045554100014,403.42045554100014,403.42045554100014,405.5303345829998,409.559810708,403.42045554100014,403.42045554100014,408.58286474999977,403.8950723329999,404.927502041,405.5303345829998,406.56622574999983,403.42045554100014,403.42045554100014,403.3877134160001,403.42045554100014,403.42045554100014,403.42045554100014,403.3877134160001,403.42045554100014,403.42045554100014,408.58286474999977,403.42045554100014,408.58286474999977,408.62028425000017,409.2948026660001,403.42045554100014,2,0,1.9083243749996655,reldom2_s015,001,2025-02-14_14h33.07.946,What-B-Scan_AC,2022.2.5,None,
0,0.0,None,fixation,stimulus/viswhat_stim/blank_white.png,stimulus/viswhat_stim/blank_white.png,stimulus/audwhat_stim/blank_white.png,stimulus/audwhat_stim/blank_white.png,stimulus/viswhat_stim/blank_white.png,stimulus/viswhat_stim/blank_white.png,stimulus/viswhat_stim/blank_white.png,stimulus/viswhat_stim/blank_white.png,0.0,0.0,0.0,0.0,0,0.0,0,0.0,0,0.0,0,0.0,0,0.0,0.0,0,0.0,0,0.0,0,0.0,0,0.0,0,0.0,0,0.0,0,0.0,0,0.0,8,,,,,0,45,45,45,,,,,,,,,409.559810708,409.559810708,409.559810708,409.559810708,409.559810708,409.559810708,409.559810708,409.559810708,409.46517199933317,409.559810708,409.559810708,409.559810708,409.46517199933317,409.559810708,409.559810708,409.559810708,409.559810708,409.559810708,409.559810708,409.559810708,409.559810708,409.559810708,409.559810708,409.559810708,409.559810708,409.559810708,409.559810708,409.5151719993332,409.559810708,409.559810708,409.559810708,409.5151719993332,409.559810708,409.559810708,409.559810708,409.559810708,409.559810708,414.75378145800005,414.75378145800005,417.7164870830002,None,0,,reldom2_s015,001,2025-02-14_14h33.07.946,What-B-Scan_AC,2022.2.5,None,
35,Second_Order,6.0,viswhat,stimulus/viswhat_stim/land_animal-wolf.png,stimulus/viswhat_stim/land_vehicle-schoolbus.png,stimulus/viswhat_stim/water_animal-shark.png,stimulus/viswhat_stim/water_vehicle-ship.png,stimulus/viswhat_stim/match_blank.png,stimulus/viswhat_stim/match_box.png,stimulus/viswhat_stim/match_yes.png,stimulus/viswhat_stim/match_no.png,1.0,Match,Location,Location,1,5.125,0,5.125,0,5.125,0,5.125,0,0.75,0.75,1,0.5,1,2.125,1,0.5,1,2.125,0,0.0,0,0.0,0,0.0,0,0.0,0,,,,,0,46,46,46,,,,,,,,,417.7164870830002,422.8310563330001,418.18586854099976,419.17296524999983,419.8189359160001,420.8088884160002,417.7164870830002,417.7164870830002,417.7244974993333,417.7164870830002,417.7164870830002,417.7164870830002,417.7244974993333,417.7164870830002,422.8310563330001,423.73040916599984,425.74437204100013,,423.73040916599984,423.73040916599984,428.9432758329999,424.14548483299995,425.2565009159998,425.74437204100013,426.860277708,423.73040916599984,423.73040916599984,423.66413262500015,423.73040916599984,423.73040916599984,423.73040916599984,423.66413262500015,423.73040916599984,423.73040916599984,428.9432758329999,423.73040916599984,428.9432758329999,428.8793532909999,,423.73040916599984,1,1,0.9935568329997295,reldom2_s015,001,2025-02-14_14h33.07.946,What-B-Scan_AC,2022.2.5,None,
36,Second_Order,6.0,viswhat,stimulus/viswhat_stim/land_vehicle-oldcar.png,stimulus/viswhat_stim/land_animal-cat.png,stimulus/viswhat_stim/water_vehicle-cargoboat.png,stimulus/viswhat_stim/water_animal-orka.png,stimulus/viswhat_stim/match_blank.png,stimulus/viswhat_stim/match_box.png,stimulus/viswhat_stim/match_yes.png,stimulus/viswhat_stim/match_no.png,1.0,Match,Location,Location,1,5.125,0,5.125,0,5.125,0,5.125,0,0.625,0.625,1,0.5,1,2.125,1,0.5,1,2.125,0,0.0,0,0.0,0,0.0,0,0.0,0,,,,,0,47,47,47,,,,,,,,,429.684844333,434.80844075000005,430.1306158749999,431.1283985,431.7685621249998,432.76568316600014,429.684844333,429.684844333,429.6842318326668,429.684844333,429.684844333,429.684844333,429.6842318326668,429.684844333,434.80844075000005,435.58222108300015,437.63175279100005,441.68650475000004,435.58222108300015,435.58222108300015,440.8051879159998,435.9793124580001,437.03605095800003,437.63175279100005,438.6950835409998,435.58222108300015,435.58222108300015,435.52235375000015,435.58222108300015,435.58222108300015,435.58222108300015,435.52235375000015,435.58222108300015,435.58222108300015,440.8051879159998,435.58222108300015,440.8051879159998,440.74490020799976,441.68650475000004,435.58222108300015,1,1,1.334410041999945,reldom2_s015,001,2025-02-14_14h33.07.946,What-B-Scan_AC,2022.2.5,None,
0,0.0,None,fixation,stimulus/viswhat_stim/blank_white.png,stimulus/viswhat_stim/blank_white.png,stimulus/audwhat_stim/blank_white.png,stimulus/audwhat_stim/blank_white.png,stimulus/viswhat_stim/blank_white.png,stimulus/viswhat_stim/blank_white.png,stimulus/viswhat_stim/blank_white.png,stimulus/viswhat_stim/blank_white.png,0.0,0.0,0.0,0.0,0,0.0,0,0.0,0,0.0,0,0.0,0,0.0,0.0,0,0.0,0,0.0,0,0.0,0,0.0,0,0.0,0,0.0,0,0.0,0,0.0,10,,,,,0,48,48,48,,,,,,,,,441.68650475000004,441.68650475000004,441.68650475000004,441.68650475000004,441.68650475000004,441.68650475000004,441.68650475000004,441.68650475000004,441.5928882913335,441.68650475000004,441.68650475000004,441.68650475000004,441.5928882913335,441.68650475000004,441.68650475000004,441.68650475000004,441.68650475000004,441.68650475000004,441.68650475000004,441.68650475000004,441.68650475000004,441.68650475000004,441.68650475000004,441.68650475000004,441.68650475000004,441.68650475000004,441.68650475000004,441.64288829133346,441.68650475000004,441.68650475000004,441.68650475000004,441.64288829133346,441.68650475000004,441.68650475000004,441.68650475000004,441.68650475000004,441.68650475000004,446.895608625,446.895608625,451.92186241599984,None,0,,reldom2_s015,001,2025-02-14_14h33.07.946,What-B-Scan_AC,2022.2.5,None,
37,First_Order,7.0,audwhat,stimulus/audwhat_stim/dummy.wav,stimulus/audwhat_stim/dummy.wav,stimulus/audwhat_stim/string viola_low-pitch_Ftri_loud.wav,stimulus/audwhat_stim/string viola_high-pitch_Dtri_loud.wav,stimulus/audwhat_stim/blank_white.png,stimulus/audwhat_stim/category_box.png,stimulus/audwhat_stim/category_yes.png,stimulus/audwhat_stim/category_no.png,None,Category,None,Category,1,0.0,0,5.125,0,5.125,0,5.125,0,0.0,0.625,0,0.0,0,0.0,0,0.0,0,0.0,0,0.0,0,0.0,1,0.5,1,2.125,0,,,,,0,49,49,49,,,,,,,,,451.92186241599984,451.92186241599984,451.92186241599984,451.92186241599984,451.92186241599984,451.92186241599984,451.92186241599984,451.92186241599984,451.8500520826666,451.92186241599984,451.92186241599984,451.92186241599984,451.8500520826666,451.92186241599984,451.92186241599984,451.92186241599984,454.0103478330002,,451.92186241599984,451.92186241599984,457.07760954100013,451.92186241599984,451.92186241599984,451.92186241599984,451.92186241599984,452.3870871250001,453.4523681249998,452.35705683266656,,454.0103478330002,455.07901141599996,453.98030887466643,,451.92186241599984,457.07760954100013,451.92186241599984,457.07760954100013,457.11882237500004,457.77530608300003,451.92186241599984,1,1,1.48065166699962,reldom2_s015,001,2025-02-14_14h33.07.946,What-B-Scan_AC,2022.2.5,None,
38,First_Order,7.0,audwhat,stimulus/audwhat_stim/dummy.wav,stimulus/audwhat_stim/dummy.wav,stimulus/audwhat_stim/percussion mallet_high-pitch_D_loud.wav,stimulus/audwhat_stim/string viola_high-pitch_D_loud.wav,stimulus/audwhat_stim/blank_white.png,stimulus/audwhat_stim/pitch_box.png,stimulus/audwhat_stim/pitch_yes.png,stimulus/audwhat_stim/pitch_no.png,None,Pitch,None,Pitch,1,0.0,0,5.125,0,5.125,0,5.125,0,0.0,0.625,0,0.0,0,0.0,0,0.0,0,0.0,0,0.0,0,0.0,1,0.5,1,2.125,0,,,,,0,50,50,50,,,,,,,,,458.029205458,458.029205458,458.029205458,458.029205458,458.029205458,458.029205458,458.029205458,458.029205458,457.94990154133313,458.029205458,458.029205458,458.029205458,457.94990154133313,458.029205458,458.029205458,458.029205458,460.11464583299994,,458.029205458,458.029205458,463.1770849159998,458.029205458,458.029205458,458.029205458,458.029205458,458.4925552909999,459.558501041,458.46261508266684,,460.11464583299994,461.1843574579998,460.08481208266653,,458.029205458,463.1770849159998,458.029205458,463.1770849159998,463.258755541,463.90949958300007,458.029205458,1,1,1.8629075419999026,reldom2_s015,001,2025-02-14_14h33.07.946,What-B-Scan_AC,2022.2.5,None,
39,First_Order,7.0,audwhat,stimulus/audwhat_stim/dummy.wav,stimulus/audwhat_stim/dummy.wav,stimulus/audwhat_stim/string viola_low-pitch_Dtri_loud.wav,stimulus/audwhat_stim/percussion mallet_low-pitch_Dtri_loud.wav,stimulus/audwhat_stim/blank_white.png,stimulus/audwhat_stim/category_box.png,stimulus/audwhat_stim/category_yes.png,stimulus/audwhat_stim/category_no.png,None,Category,None,Pitch,2,0.0,0,5.125,0,5.125,0,5.125,0,0.0,0.625,0,0.0,0,0.0,0,0.0,0,0.0,0,0.0,0,0.0,1,0.5,1,2.125,0,,,,,0,51,51,51,,,,,,,,,464.1241070000001,464.1241070000001,464.1241070000001,464.1241070000001,464.1241070000001,464.1241070000001,464.1241070000001,464.1241070000001,464.0428329163334,464.1241070000001,464.1241070000001,464.1241070000001,464.0428329163334,464.1241070000001,464.1241070000001,464.1241070000001,466.22016329100006,470.242863166,464.1241070000001,464.1241070000001,469.2915631249998,464.1241070000001,464.1241070000001,464.1241070000001,464.1241070000001,464.58988095799987,465.660934,464.55992554166664,,466.22016329100006,467.2908138329999,466.19016620766683,,464.1241070000001,469.2915631249998,464.1241070000001,469.2915631249998,469.332829166,469.9891468330002,464.1241070000001,2,1,1.1104607080001188,reldom2_s015,001,2025-02-14_14h33.07.946,What-B-Scan_AC,2022.2.5,None,
40,First_Order,7.0,audwhat,stimulus/audwhat_stim/dummy.wav,stimulus/audwhat_stim/dummy.wav,stimulus/audwhat_stim/string viola_high-pitch_F_loud.wav,stimulus/audwhat_stim/string viola_low-pitch_Ftri_loud.wav,stimulus/audwhat_stim/blank_white.png,stimulus/audwhat_stim/pitch_box.png,stimulus/audwhat_stim/pitch_yes.png,stimulus/audwhat_stim/pitch_no.png,None,Pitch,None,Category,2,0.0,0,5.125,0,5.125,0,5.125,0,0.0,0.625,0,0.0,0,0.0,0,0.0,0,0.0,0,0.0,0,0.0,1,0.5,1,2.125,0,,,,,0,52,52,52,,,,,,,,,470.242863166,470.242863166,470.242863166,470.242863166,470.242863166,470.242863166,470.242863166,470.242863166,470.16317266633325,470.242863166,470.242863166,470.242863166,470.16317266633325,470.242863166,470.242863166,470.242863166,472.33151687500003,,470.242863166,470.242863166,475.3935301659999,470.242863166,470.242863166,470.242863166,470.242863166,470.70618987499984,471.7750459160002,470.6765762496668,,472.33151687500003,473.4005252080001,472.3014984996664,,470.242863166,475.3935301659999,470.242863166,475.3935301659999,475.43478025000013,476.09048091600016,470.242863166,1,0,1.391572584000187,reldom2_s015,001,2025-02-14_14h33.07.946,What-B-Scan_AC,2022.2.5,None,
0,0.0,None,fixation,stimulus/viswhat_stim/blank_white.png,stimulus/viswhat_stim/blank_white.png,stimulus/audwhat_stim/blank_white.png,stimulus/audwhat_stim/blank_white.png,stimulus/viswhat_stim/blank_white.png,stimulus/viswhat_stim/blank_white.png,stimulus/viswhat_stim/blank_white.png,stimulus/viswhat_stim/blank_white.png,0.0,0.0,0.0,0.0,0,0.0,0,0.0,0,0.0,0,0.0,0,0.0,0.0,0,0.0,0,0.0,0,0.0,0,0.0,0,0.0,0,0.0,0,0.0,0,0.0,9,,,,,0,53,53,53,,,,,,,,,476.364632583,476.364632583,476.364632583,476.364632583,476.364632583,476.364632583,476.364632583,476.364632583,476.2645948333335,476.364632583,476.364632583,476.364632583,476.2645948333335,476.364632583,476.364632583,476.364632583,476.364632583,476.364632583,476.364632583,476.364632583,476.364632583,476.364632583,476.364632583,476.364632583,476.364632583,476.364632583,476.364632583,476.3145948333335,476.364632583,476.364632583,476.364632583,476.3145948333335,476.364632583,476.364632583,476.364632583,476.364632583,476.364632583,481.55023412499986,481.55023412499986,485.54081320800015,None,0,,reldom2_s015,001,2025-02-14_14h33.07.946,What-B-Scan_AC,2022.2.5,None,
41,Second_Order,7.0,audwhat,stimulus/audwhat_stim/percussion mallet_low-pitch_F_loud.wav,stimulus/audwhat_stim/percussion mallet_high-pitch_D_loud.wav,stimulus/audwhat_stim/string cello_low-pitch_Dtri_loud.wav,stimulus/audwhat_stim/string viola_high-pitch_F_loud.wav,stimulus/viswhat_stim/match_blank.png,stimulus/viswhat_stim/match_box.png,stimulus/viswhat_stim/match_yes.png,stimulus/viswhat_stim/match_no.png,1.0,Match,Category,Category,1,5.125,0,5.125,0,5.125,0,5.125,0,0.75,0.75,0,0.0,0,0.0,0,0.0,0,0.0,1,0.5,1,2.125,1,0.5,1,2.125,0,,,,,0,54,54,54,,,,,,,,,485.54081320800015,490.65379487500013,485.54081320800015,485.54081320800015,485.54081320800015,485.54081320800015,485.9930053329999,486.99117579099993,486.00569574966653,,487.6177994999998,488.61486108300005,487.62637308266653,488.61486108300005,490.65379487500013,491.5020156659998,493.576467291,497.4984774579998,491.5020156659998,491.5020156659998,496.685611333,491.5020156659998,491.5020156659998,491.5020156659998,491.5020156659998,491.96292137499995,493.0218548749999,491.9330457916665,,493.576467291,494.646272208,493.54693683266646,,491.5020156659998,496.685611333,491.5020156659998,496.685611333,496.685611333,,491.5020156659998,1,1,1.4492649580001853,reldom2_s015,001,2025-02-14_14h33.07.946,What-B-Scan_AC,2022.2.5,None,
42,Second_Order,7.0,audwhat,stimulus/audwhat_stim/percussion mallet_high-pitch_Ftri_loud.wav,stimulus/audwhat_stim/percussion mallet_low-pitch_F_loud.wav,stimulus/audwhat_stim/percussion mallet_low-pitch_Dtri_loud.wav,stimulus/audwhat_stim/string viola_low-pitch_Dtri_loud.wav,stimulus/viswhat_stim/match_blank.png,stimulus/viswhat_stim/match_box.png,stimulus/viswhat_stim/match_yes.png,stimulus/viswhat_stim/match_no.png,2.0,Match,Category,Pitch,2,5.125,0,5.125,0,5.125,0,5.125,0,0.625,0.625,0,0.0,0,0.0,0,0.0,0,0.0,1,0.5,1,2.125,1,0.5,1,2.125,0,,,,,0,55,55,55,,,,,,,,,497.4984774579998,502.614741458,497.4984774579998,497.4984774579998,497.4984774579998,497.4984774579998,497.95279358300013,498.93901804100005,497.9659509996666,,499.57441983299987,500.5724991249999,499.5865521246667,,502.614741458,503.3451950829999,505.40861212499976,509.45784441600017,503.3451950829999,503.3451950829999,508.49684612500005,503.3451950829999,503.3451950829999,503.3451950829999,503.3451950829999,503.8028589999999,504.85892408300015,503.7738047496666,,505.40861212499976,506.47280554100007,505.37970933266683,,503.3451950829999,508.49684612500005,503.3451950829999,508.49684612500005,508.537872291,509.2258536250001,503.3451950829999,2,1,1.2712719999999536,reldom2_s015,001,2025-02-14_14h33.07.946,What-B-Scan_AC,2022.2.5,None,
0,0.0,None,fixation,stimulus/viswhat_stim/blank_white.png,stimulus/viswhat_stim/blank_white.png,stimulus/audwhat_stim/blank_white.png,stimulus/audwhat_stim/blank_white.png,stimulus/viswhat_stim/blank_white.png,stimulus/viswhat_stim/blank_white.png,stimulus/viswhat_stim/blank_white.png,stimulus/viswhat_stim/blank_white.png,0.0,0.0,0.0,0.0,0,0.0,0,0.0,0,0.0,0,0.0,0,0.0,0.0,0,0.0,0,0.0,0,0.0,0,0.0,0,0.0,0,0.0,0,0.0,0,0.0,9,,,,,0,56,56,56,,,,,,,,,509.45784441600017,509.45784441600017,509.45784441600017,509.45784441600017,509.45784441600017,509.45784441600017,509.45784441600017,509.45784441600017,509.35918695833345,509.45784441600017,509.45784441600017,509.45784441600017,509.35918695833345,509.45784441600017,509.45784441600017,509.45784441600017,509.45784441600017,509.45784441600017,509.45784441600017,509.45784441600017,509.45784441600017,509.45784441600017,509.45784441600017,509.45784441600017,509.45784441600017,509.45784441600017,509.45784441600017,509.40918695833346,509.45784441600017,509.45784441600017,509.45784441600017,509.40918695833346,509.45784441600017,509.45784441600017,509.45784441600017,509.45784441600017,509.45784441600017,514.6681157909998,514.6681157909998,518.6799018329998,None,0,,reldom2_s015,001,2025-02-14_14h33.07.946,What-B-Scan_AC,2022.2.5,None,
43,First_Order,8.0,audwhat,stimulus/audwhat_stim/dummy.wav,stimulus/audwhat_stim/dummy.wav,stimulus/audwhat_stim/string cello_high-pitch_D_loud.wav,stimulus/audwhat_stim/string cello_low-pitch_F_loud.wav,stimulus/audwhat_stim/blank_white.png,stimulus/audwhat_stim/pitch_box.png,stimulus/audwhat_stim/pitch_yes.png,stimulus/audwhat_stim/pitch_no.png,None,Pitch,None,Category,2,0.0,0,5.125,0,5.125,0,5.125,0,0.0,0.625,0,0.0,0,0.0,0,0.0,0,0.0,0,0.0,0,0.0,1,0.5,1,2.125,0,,,,,0,57,57,57,,,,,,,,,518.6799018329998,518.6799018329998,518.6799018329998,518.6799018329998,518.6799018329998,518.6799018329998,518.6799018329998,518.6799018329998,518.6079513326664,518.6799018329998,518.6799018329998,518.6799018329998,518.6079513326664,518.6799018329998,518.6799018329998,518.6799018329998,520.7617801659999,524.8041599580001,518.6799018329998,518.6799018329998,523.8617557080001,518.6799018329998,518.6799018329998,518.6799018329998,518.6799018329998,519.143209375,520.2071220829998,519.1136171666665,,520.7617801659999,521.827012833,520.7323366666667,,518.6799018329998,523.8617557080001,518.6799018329998,523.8617557080001,523.9028560000002,524.5517379160001,518.6799018329998,2,1,2.1594881249998252,reldom2_s015,001,2025-02-14_14h33.07.946,What-B-Scan_AC,2022.2.5,None,
44,First_Order,8.0,audwhat,stimulus/audwhat_stim/dummy.wav,stimulus/audwhat_stim/dummy.wav,stimulus/audwhat_stim/percussion mallet_low-pitch_F_loud.wav,stimulus/audwhat_stim/string cello_low-pitch_F_loud.wav,stimulus/audwhat_stim/blank_white.png,stimulus/audwhat_stim/pitch_box.png,stimulus/audwhat_stim/pitch_yes.png,stimulus/audwhat_stim/pitch_no.png,None,Pitch,None,Pitch,1,0.0,0,5.125,0,5.125,0,5.125,0,0.0,0.625,0,0.0,0,0.0,0,0.0,0,0.0,0,0.0,0,0.0,1,0.5,1,2.125,0,,,,,0,58,58,58,,,,,,,,,524.8041599580001,524.8041599580001,524.8041599580001,524.8041599580001,524.8041599580001,524.8041599580001,524.8041599580001,524.8041599580001,524.7251421663333,524.8041599580001,524.8041599580001,524.8041599580001,524.7251421663333,524.8041599580001,524.8041599580001,524.8041599580001,526.8883583749998,,524.8041599580001,524.8041599580001,529.9930966659999,524.8041599580001,524.8041599580001,524.8041599580001,524.8041599580001,525.2673325830001,526.3329079579999,525.2374196246667,,526.8883583749998,527.9562015410002,526.8586105826664,,524.8041599580001,529.9930966659999,524.8041599580001,529.9930966659999,530.0337090409998,530.6871998749998,524.8041599580001,2,0,2.541797666999628,reldom2_s015,001,2025-02-14_14h33.07.946,What-B-Scan_AC,2022.2.5,None,
45,First_Order,8.0,audwhat,stimulus/audwhat_stim/dummy.wav,stimulus/audwhat_stim/dummy.wav,stimulus/audwhat_stim/string viola_low-pitch_Dtri_loud.wav,stimulus/audwhat_stim/string cello_high-pitch_Ftri_loud.wav,stimulus/audwhat_stim/blank_white.png,stimulus/audwhat_stim/category_box.png,stimulus/audwhat_stim/category_yes.png,stimulus/audwhat_stim/category_no.png,None,Category,None,Category,1,0.0,0,5.125,0,5.125,0,5.125,0,0.0,0.625,0,0.0,0,0.0,0,0.0,0,0.0,0,0.0,0,0.0,1,0.5,1,2.125,0,,,,,0,59,59,59,,,,,,,,,530.899813125,530.899813125,530.899813125,530.899813125,530.899813125,530.899813125,530.899813125,530.899813125,530.8205332083331,530.899813125,530.899813125,530.899813125,530.8205332083331,530.899813125,530.899813125,530.899813125,532.9912988330002,537.016049541,530.899813125,530.899813125,536.0666636659998,530.899813125,530.899813125,530.899813125,530.899813125,531.364765708,532.4347242909998,531.3350247076667,,532.9912988330002,534.0652319999999,532.9613692916666,,530.899813125,536.0666636659998,530.899813125,536.0666636659998,536.107534666,536.7626602079999,530.899813125,1,1,1.8517463749999479,reldom2_s015,001,2025-02-14_14h33.07.946,What-B-Scan_AC,2022.2.5,None,
46,First_Order,8.0,audwhat,stimulus/audwhat_stim/dummy.wav,stimulus/audwhat_stim/dummy.wav,stimulus/audwhat_stim/string viola_high-pitch_Ftri_loud.wav,stimulus/audwhat_stim/percussion xylophone_high-pitch_Ftri_loud.wav,stimulus/audwhat_stim/blank_white.png,stimulus/audwhat_stim/category_box.png,stimulus/audwhat_stim/category_yes.png,stimulus/audwhat_stim/category_no.png,None,Category,None,Pitch,2,0.0,0,5.125,0,5.125,0,5.125,0,0.0,0.625,0,0.0,0,0.0,0,0.0,0,0.0,0,0.0,0,0.0,1,0.5,1,2.125,0,,,,,0,60,60,60,,,,,,,,,537.016049541,537.016049541,537.016049541,537.016049541,537.016049541,537.016049541,537.016049541,537.016049541,536.9364971243332,537.016049541,537.016049541,537.016049541,536.9364971243332,537.016049541,537.016049541,537.016049541,539.1109919159999,543.1554758329999,537.016049541,537.016049541,542.1857878330002,537.016049541,537.016049541,537.016049541,537.016049541,537.480951083,538.5526170409998,537.4507463326665,,539.1109919159999,540.1852107499999,539.0813379996669,540.1385465829999,537.016049541,542.1857878330002,537.016049541,542.1857878330002,542.226585416,542.8819738749999,537.016049541,2,1,0.9466218749998916,reldom2_s015,001,2025-02-14_14h33.07.946,What-B-Scan_AC,2022.2.5,None,
0,0.0,None,fixation,stimulus/viswhat_stim/blank_white.png,stimulus/viswhat_stim/blank_white.png,stimulus/audwhat_stim/blank_white.png,stimulus/audwhat_stim/blank_white.png,stimulus/viswhat_stim/blank_white.png,stimulus/viswhat_stim/blank_white.png,stimulus/viswhat_stim/blank_white.png,stimulus/viswhat_stim/blank_white.png,0.0,0.0,0.0,0.0,0,0.0,0,0.0,0,0.0,0,0.0,0,0.0,0.0,0,0.0,0,0.0,0,0.0,0,0.0,0,0.0,0,0.0,0,0.0,0,0.0,8,,,,,0,61,61,61,,,,,,,,,543.1554758329999,543.1554758329999,543.1554758329999,543.1554758329999,543.1554758329999,543.1554758329999,543.1554758329999,543.1554758329999,543.0562641663333,543.1554758329999,543.1554758329999,543.1554758329999,543.0562641663333,543.1554758329999,543.1554758329999,543.1554758329999,543.1554758329999,543.1554758329999,543.1554758329999,543.1554758329999,543.1554758329999,543.1554758329999,543.1554758329999,543.1554758329999,543.1554758329999,543.1554758329999,543.1554758329999,543.1062641663333,543.1554758329999,543.1554758329999,543.1554758329999,543.1062641663333,543.1554758329999,543.1554758329999,543.1554758329999,543.1554758329999,543.1554758329999,548.3511149999999,548.3511149999999,551.3312906659999,None,0,,reldom2_s015,001,2025-02-14_14h33.07.946,What-B-Scan_AC,2022.2.5,None,
47,Second_Order,8.0,audwhat,stimulus/audwhat_stim/string cello_low-pitch_Dtri_loud.wav,stimulus/audwhat_stim/string viola_high-pitch_D_loud.wav,stimulus/audwhat_stim/percussion xylophone_high-pitch_F_loud.wav,stimulus/audwhat_stim/percussion mallet_low-pitch_D_loud.wav,stimulus/viswhat_stim/match_blank.png,stimulus/viswhat_stim/match_box.png,stimulus/viswhat_stim/match_yes.png,stimulus/viswhat_stim/match_no.png,1.0,Match,Category,Category,1,5.125,0,5.125,0,5.125,0,5.125,0,0.75,0.75,0,0.0,0,0.0,0,0.0,0,0.0,1,0.5,1,2.125,1,0.5,1,2.125,0,,,,,0,62,62,62,,,,,,,,,551.3312906659999,556.451568166,551.3312906659999,551.3312906659999,551.3312906659999,551.3312906659999,551.7906470409998,552.780325958,551.7931008746666,,553.4154046660001,554.4135214160001,553.4279567076667,,556.451568166,557.304222833,559.3806707499998,563.2971471249998,557.304222833,557.304222833,562.4864550409998,557.304222833,557.304222833,557.304222833,557.304222833,557.7194314580001,558.7801292499998,557.6905684576666,558.7336930410002,559.3806707499998,560.4507900829999,559.3503297496666,,557.304222833,562.4864550409998,557.304222833,562.4864550409998,562.4864550409998,,557.304222833,1,1,1.0659341249997851,reldom2_s015,001,2025-02-14_14h33.07.946,What-B-Scan_AC,2022.2.5,None,
48,Second_Order,8.0,audwhat,stimulus/audwhat_stim/percussion mallet_high-pitch_D_loud.wav,stimulus/audwhat_stim/percussion mallet_low-pitch_Dtri_loud.wav,stimulus/audwhat_stim/string viola_high-pitch_F_loud.wav,stimulus/audwhat_stim/string viola_low-pitch_Dtri_loud.wav,stimulus/viswhat_stim/match_blank.png,stimulus/viswhat_stim/match_box.png,stimulus/viswhat_stim/match_yes.png,stimulus/viswhat_stim/match_no.png,1.0,Match,Category,Category,1,5.125,0,5.125,0,5.125,0,5.125,0,0.625,0.625,0,0.0,0,0.0,0,0.0,0,0.0,1,0.5,1,2.125,1,0.5,1,2.125,0,,,,,0,63,63,63,,,,,,,,,563.2971471249998,568.4177062909998,563.2971471249998,563.2971471249998,563.2971471249998,563.2971471249998,563.7538762499998,564.7402735000001,563.7680982496665,,565.3762737910001,566.3742393329999,565.3888475416668,,568.4177062909998,569.1469039160002,571.217695625,,569.1469039160002,569.1469039160002,574.3130436659999,569.1469039160002,569.1469039160002,569.1469039160002,569.1469039160002,569.606317833,570.664628083,569.5749532076668,,571.217695625,572.284968041,571.1878684576666,,569.1469039160002,574.3130436659999,569.1469039160002,574.3130436659999,574.3130436659999,574.9623315409999,569.1469039160002,1,1,1.1304795000000922,reldom2_s015,001,2025-02-14_14h33.07.946,What-B-Scan_AC,2022.2.5,None,
0,0.0,None,fixation,stimulus/viswhat_stim/blank_white.png,stimulus/viswhat_stim/blank_white.png,stimulus/audwhat_stim/blank_white.png,stimulus/audwhat_stim/blank_white.png,stimulus/viswhat_stim/blank_white.png,stimulus/viswhat_stim/blank_white.png,stimulus/viswhat_stim/blank_white.png,stimulus/viswhat_stim/blank_white.png,0.0,0.0,0.0,0.0,0,0.0,0,0.0,0,0.0,0,0.0,0,0.0,0.0,0,0.0,0,0.0,0,0.0,0,0.0,0,0.0,0,0.0,0,0.0,0,0.0,16,,,,,0,64,64,64,,,,,,,,,575.2360347499998,575.2360347499998,575.2360347499998,575.2360347499998,575.2360347499998,575.2360347499998,575.2360347499998,575.2360347499998,575.1365105413335,575.2360347499998,575.2360347499998,575.2360347499998,575.1365105413335,575.2360347499998,575.2360347499998,575.2360347499998,575.2360347499998,575.2360347499998,575.2360347499998,575.2360347499998,575.2360347499998,575.2360347499998,575.2360347499998,575.2360347499998,575.2360347499998,575.2360347499998,575.2360347499998,575.1865105413334,575.2360347499998,575.2360347499998,575.2360347499998,575.1865105413334,575.2360347499998,575.2360347499998,575.2360347499998,575.2360347499998,575.2360347499998,580.4475014159998,580.4475014159998,591.4082396250001,None,0,,reldom2_s015,001,2025-02-14_14h33.07.946,What-B-Scan_AC,2022.2.5,None,
