Trial,Order,Block,Type,Stimuli_File1,Stimuli_File2,Stimuli_File3,Stimuli_File4,Cue_File1,Cue_File2,Response_File_Yes,Response_File_No,Match,Cue_Dimension,Pair1_Dimension,Pair2_Dimension,Key,Cue1_Duration,Cue1_Onset,Cue2_Duration,Cue2_Onset,ResponseYes_Duration,ResponseYes_Onset,ResponseNo_Duration,ResponseNo_Onset,ITI_Within,ITI_Between,Image1_Duration,Image1_Onset,Image2_Duration,Image2_Onset,Image3_Duration,Image3_Onset,Image4_Duration,Image4_Onset,Sound1_Duration,Sound1_Onset,Sound2_Duration,Sound2_Onset,Sound3_Duration,Sound3_Onset,Sound4_Duration,Sound4_Onset,Fixation_Duration,trials_2.thisRepN,trials_2.thisTrialN,trials_2.thisN,trials_2.thisIndex,trials.thisRepN,trials.thisTrialN,trials.thisN,trials.thisIndex,text_start.started,key_resp_start.started,key_resp_start.keys,key_resp_start.rt,text2.started,key_resp_2.started,key_resp_2.keys,key_resp_2.rt,cue_file1.started,cue_file1.stopped,image_1.started,image_1.stopped,image_2.started,image_2.stopped,sound_icon1.started,sound_icon1.stopped,sound_1.started,sound_1.stopped,sound_icon2.started,sound_icon2.stopped,sound_2.started,sound_2.stopped,image_blank_1.started,image_blank_1.stopped,key_press.started,key_press.stopped,fixation_text.started,cue_file2.started,cue_file2.stopped,image_3.started,image_3.stopped,image_4.started,image_4.stopped,sound_icon3.started,sound_icon3.stopped,sound_3.started,sound_3.stopped,sound_icon4.started,sound_icon4.stopped,sound_4.started,sound_4.stopped,response_yes.started,response_yes.stopped,response_no.started,response_no.stopped,iti_blank.started,iti_blank.stopped,fixation_text.stopped,key_press.keys,key_press.corr,key_press.rt,participant,session,date,expName,psychopyVersion,frameRate,
,,,,,,,,,,,,,,,,,,,,,,,,,,,,,,,,,,,,,,,,,,,,,,,,,,,,8.15832395800021,8.15832395800021,2,0.8787155840000196,,,,,,,,,,,,,,,,,,,,,,,,,,,,,,,,,,,,,,,,,,,,,,,,reldom2_s015,001,2025-02-14_14h21.39.859,Vis-B-Scan_AC,2022.2.5,None,
,,,,,,,,,,,,,,,,,,,,,,,,,,,,,,,,,,,,,,,,,,,,0,0,0,0,,,,,,,,,9.068751791000068,9.068751791000068,5,17.394851707999806,,,,,,,,,,,,,,,,,,,,,,,,,,,,,,,,,,,,,,,,,,,,reldom2_s015,001,2025-02-14_14h21.39.859,Vis-B-Scan_AC,2022.2.5,None,
,,,,,,,,,,,,,,,,,,,,,,,,,,,,,,,,,,,,,,,,,,,,1,0,1,0,,,,,,,,,26.480486750000182,26.480486750000182,5,1.9820496669999557,,,,,,,,,,,,,,,,,,,,,,,,,,,,,,,,,,,,,,,,,,,,reldom2_s015,001,2025-02-14_14h21.39.859,Vis-B-Scan_AC,2022.2.5,None,
,,,,,,,,,,,,,,,,,,,,,,,,,,,,,,,,,,,,,,,,,,,,2,0,2,0,,,,,,,,,28.47837050000021,28.47837050000021,5,1.9855377920000592,,,,,,,,,,,,,,,,,,,,,,,,,,,,,,,,,,,,,,,,,,,,reldom2_s015,001,2025-02-14_14h21.39.859,Vis-B-Scan_AC,2022.2.5,None,
,,,,,,,,,,,,,,,,,,,,,,,,,,,,,,,,,,,,,,,,,,,,3,0,3,0,,,,,,,,,30.472386166000206,30.472386166000206,5,1.9912676659998851,,,,,,,,,,,,,,,,,,,,,,,,,,,,,,,,,,,,,,,,,,,,reldom2_s015,001,2025-02-14_14h21.39.859,Vis-B-Scan_AC,2022.2.5,None,
0,0.0,None,fixation,stimulus/viswhere_stim/blank_white.png,stimulus/viswhere_stim/blank_white.png,stimulus/viswhat_stim/blank_white.png,stimulus/viswhat_stim/blank_white.png,stimulus/viswhere_stim/blank_white.png,stimulus/viswhere_stim/blank_white.png,stimulus/viswhere_stim/blank_white.png,stimulus/viswhere_stim/blank_white.png,0.0,0.0,0.0,0.0,0,0.0,0,0.0,0,0.0,0,0.0,0,0.0,0.0,0,0.0,0,0.0,0,0.0,0,0.0,0,0,0,0,0,0,0,0,16,,,,,0,0,0,0,,,,,,,,,32.678814583000076,32.678814583000076,32.678814583000076,32.678814583000076,32.678814583000076,32.678814583000076,32.678814583000076,32.678814583000076,32.58514104166681,32.678814583000076,32.678814583000076,32.678814583000076,32.58514104166681,32.678814583000076,32.678814583000076,32.678814583000076,32.678814583000076,32.678814583000076,32.678814583000076,32.678814583000076,32.678814583000076,32.678814583000076,32.678814583000076,32.678814583000076,32.678814583000076,32.678814583000076,32.678814583000076,32.635141041666806,32.678814583000076,32.678814583000076,32.678814583000076,32.635141041666806,32.678814583000076,32.678814583000076,32.678814583000076,32.678814583000076,32.678814583000076,37.861003625000194,37.861003625000194,48.858404041000085,None,0,,reldom2_s015,001,2025-02-14_14h21.39.859,Vis-B-Scan_AC,2022.2.5,None,
1,First_Order,1.0,viswhere,stimulus/viswhere_stim/blank_white.png,stimulus/viswhere_stim/blank_white.png,stimulus/viswhere_stim/150-deg_dot-left_royalblue.png,stimulus/viswhere_stim/150-deg_dot-right_peru.png,stimulus/viswhere_stim/blank_white.png,stimulus/viswhere_stim/dot_box.png,stimulus/viswhere_stim/dot_yes.png,stimulus/viswhere_stim/dot_no.png,None,Dot,None,Line,2,0.0,0,5.125,0,5.125,0,5.125,0,0.0,0.625,0,0.0,0,0.0,1,0.5,1,2.125,0,0,0,0,0,0,0,0,0,,,,,0,1,1,1,,,,,,,,,48.858404041000085,48.858404041000085,48.858404041000085,48.858404041000085,48.858404041000085,48.858404041000085,48.858404041000085,48.858404041000085,48.837119875000006,48.858404041000085,48.858404041000085,48.858404041000085,48.837119875000006,48.858404041000085,48.858404041000085,48.858404041000085,50.960175166,54.92472600000019,48.858404041000085,48.858404041000085,53.983934625000074,49.332996416000015,50.33609470800002,50.960175166,51.96800437500019,48.858404041000085,48.858404041000085,48.85378654166667,48.858404041000085,48.858404041000085,48.858404041000085,48.85378654166667,48.858404041000085,48.858404041000085,53.983934625000074,48.858404041000085,53.983934625000074,54.080741708000005,54.71195854100006,48.858404041000085,2,1,1.2225874159998966,reldom2_s015,001,2025-02-14_14h21.39.859,Vis-B-Scan_AC,2022.2.5,None,
2,First_Order,1.0,viswhere,stimulus/viswhere_stim/blank_white.png,stimulus/viswhere_stim/blank_white.png,stimulus/viswhere_stim/30-deg_dot-left_salmon.png,stimulus/viswhere_stim/30-deg_dot-right_seagreen.png,stimulus/viswhere_stim/blank_white.png,stimulus/viswhere_stim/dot_box.png,stimulus/viswhere_stim/dot_yes.png,stimulus/viswhere_stim/dot_no.png,None,Dot,None,Line,2,0.0,0,5.125,0,5.125,0,5.125,0,0.0,0.625,0,0.0,0,0.0,1,0.5,1,2.125,0,0,0,0,0,0,0,0,0,,,,,0,2,2,2,,,,,,,,,54.92472600000019,54.92472600000019,54.92472600000019,54.92472600000019,54.92472600000019,54.92472600000019,54.92472600000019,54.92472600000019,54.90592041633348,54.92472600000019,54.92472600000019,54.92472600000019,54.90592041633348,54.92472600000019,54.92472600000019,54.92472600000019,57.03297112500013,60.98206770800016,54.92472600000019,54.92472600000019,60.052010708000125,55.412850875000004,56.42911629100013,57.03297112500013,58.034304666000025,54.92472600000019,54.92472600000019,54.90592041633348,54.92472600000019,54.92472600000019,54.92472600000019,54.90592041633348,54.92472600000019,54.92472600000019,60.052010708000125,54.92472600000019,60.052010708000125,60.16466429100001,60.79938158300001,54.92472600000019,2,1,1.4185189999998329,reldom2_s015,001,2025-02-14_14h21.39.859,Vis-B-Scan_AC,2022.2.5,None,
3,First_Order,1.0,viswhere,stimulus/viswhere_stim/blank_white.png,stimulus/viswhere_stim/blank_white.png,stimulus/viswhere_stim/120-deg_dot-left_goldenrod.png,stimulus/viswhere_stim/30-deg_dot-left_slateblue.png,stimulus/viswhere_stim/blank_white.png,stimulus/viswhere_stim/dot_box.png,stimulus/viswhere_stim/dot_yes.png,stimulus/viswhere_stim/dot_no.png,None,Dot,None,Dot,1,0.0,0,5.125,0,5.125,0,5.125,0,0.0,0.625,0,0.0,0,0.0,1,0.5,1,2.125,0,0,0,0,0,0,0,0,0,,,,,0,3,3,3,,,,,,,,,60.98206770800016,60.98206770800016,60.98206770800016,60.98206770800016,60.98206770800016,60.98206770800016,60.98206770800016,60.98206770800016,60.96273420833344,60.98206770800016,60.98206770800016,60.98206770800016,60.96273420833344,60.98206770800016,60.98206770800016,60.98206770800016,63.09499695800014,67.0478478330001,60.98206770800016,60.98206770800016,66.1203360410002,61.45483716600006,62.47341887500011,63.09499695800014,64.09969475000003,60.98206770800016,60.98206770800016,60.96273420833344,60.98206770800016,60.98206770800016,60.98206770800016,60.96273420833344,60.98206770800016,60.98206770800016,66.1203360410002,60.98206770800016,66.1203360410002,66.20238029100005,66.82313320800017,60.98206770800016,2,0,1.5762354999999388,reldom2_s015,001,2025-02-14_14h21.39.859,Vis-B-Scan_AC,2022.2.5,None,
4,First_Order,1.0,viswhere,stimulus/viswhere_stim/blank_white.png,stimulus/viswhere_stim/blank_white.png,stimulus/viswhere_stim/150-deg_dot-right_royalblue.png,stimulus/viswhere_stim/30-deg_dot-right_salmon.png,stimulus/viswhere_stim/blank_white.png,stimulus/viswhere_stim/line_box.png,stimulus/viswhere_stim/line_yes.png,stimulus/viswhere_stim/line_no.png,None,Line,None,Dot,2,0.0,0,5.125,0,5.125,0,5.125,0,0.0,0.625,0,0.0,0,0.0,1,0.5,1,2.125,0,0,0,0,0,0,0,0,0,,,,,0,4,4,4,,,,,,,,,67.0478478330001,67.0478478330001,67.0478478330001,67.0478478330001,67.0478478330001,67.0478478330001,67.0478478330001,67.0478478330001,67.02662224933336,67.0478478330001,67.0478478330001,67.0478478330001,67.02662224933336,67.0478478330001,67.0478478330001,67.0478478330001,69.14780533300018,73.18350408300012,67.0478478330001,67.0478478330001,72.18529583300005,67.52444766600001,68.53796875000012,69.14780533300018,70.16277350000018,67.0478478330001,67.0478478330001,67.04328891600002,67.0478478330001,67.0478478330001,67.0478478330001,67.04328891600002,67.0478478330001,67.0478478330001,72.18529583300005,67.0478478330001,72.18529583300005,72.2735049580001,72.90399920800019,67.0478478330001,2,1,2.053302957999904,reldom2_s015,001,2025-02-14_14h21.39.859,Vis-B-Scan_AC,2022.2.5,None,
0,0.0,None,fixation,stimulus/viswhere_stim/blank_white.png,stimulus/viswhere_stim/blank_white.png,stimulus/viswhat_stim/blank_white.png,stimulus/viswhat_stim/blank_white.png,stimulus/viswhere_stim/blank_white.png,stimulus/viswhere_stim/blank_white.png,stimulus/viswhere_stim/blank_white.png,stimulus/viswhere_stim/blank_white.png,0.0,0.0,0.0,0.0,0,0.0,0,0.0,0,0.0,0,0.0,0,0.0,0.0,0,0.0,0,0.0,0,0.0,0,0.0,0,0,0,0,0,0,0,0,9,,,,,0,5,5,5,,,,,,,,,73.18350408300012,73.18350408300012,73.18350408300012,73.18350408300012,73.18350408300012,73.18350408300012,73.18350408300012,73.18350408300012,73.08427666633345,73.18350408300012,73.18350408300012,73.18350408300012,73.08427666633345,73.18350408300012,73.18350408300012,73.18350408300012,73.18350408300012,73.18350408300012,73.18350408300012,73.18350408300012,73.18350408300012,73.18350408300012,73.18350408300012,73.18350408300012,73.18350408300012,73.18350408300012,73.18350408300012,73.13427666633345,73.18350408300012,73.18350408300012,73.18350408300012,73.13427666633345,73.18350408300012,73.18350408300012,73.18350408300012,73.18350408300012,73.18350408300012,78.39677741600008,78.39677741600008,82.30961220800009,None,0,,reldom2_s015,001,2025-02-14_14h21.39.859,Vis-B-Scan_AC,2022.2.5,None,
5,Second_Order,1.0,viswhere,stimulus/viswhere_stim/90-deg_dot-left_mediumslateblue.png,stimulus/viswhere_stim/30-deg_dot-left_slateblue.png,stimulus/viswhere_stim/90-deg_dot-left_royalblue.png,stimulus/viswhere_stim/90-deg_dot-right_goldenrod.png,stimulus/viswhere_stim/match_blank.png,stimulus/viswhere_stim/match_box.png,stimulus/viswhere_stim/match_yes.png,stimulus/viswhere_stim/match_no.png,2.0,Match,Dot,Line,2,5.125,0,5.125,0,5.125,0,5.125,0,0.75,0.75,1,0.5,1,2.125,1,0.5,1,2.125,0,0,0,0,0,0,0,0,0,,,,,0,6,6,6,,,,,,,,,82.30961220800009,87.43372579100014,82.7887534580002,83.78709225000011,84.4097777500001,85.40684141600013,82.30961220800009,82.30961220800009,82.3083406246668,82.30961220800009,82.30961220800009,82.30961220800009,82.3083406246668,82.30961220800009,87.43372579100014,88.22525829100005,90.30752995800003,94.19848366600013,88.22525829100005,88.22525829100005,93.34794850000003,88.66911183300022,89.67994679100002,90.30752995800003,91.32483666600001,88.22525829100005,88.22525829100005,88.20005320833346,88.22525829100005,88.22525829100005,88.22525829100005,88.20005320833346,88.22525829100005,88.22525829100005,93.34794850000003,88.22525829100005,93.34794850000003,93.42199566600016,94.19848366600013,88.22525829100005,2,1,1.0770611669997834,reldom2_s015,001,2025-02-14_14h21.39.859,Vis-B-Scan_AC,2022.2.5,None,
6,Second_Order,1.0,viswhere,stimulus/viswhere_stim/30-deg_dot-right_turquoise.png,stimulus/viswhere_stim/30-deg_dot-left_goldenrod.png,stimulus/viswhere_stim/60-deg_dot-left_salmon.png,stimulus/viswhere_stim/60-deg_dot-right_slateblue.png,stimulus/viswhere_stim/match_blank.png,stimulus/viswhere_stim/match_box.png,stimulus/viswhere_stim/match_yes.png,stimulus/viswhere_stim/match_no.png,1.0,Match,Line,Line,1,5.125,0,5.125,0,5.125,0,5.125,0,0.625,0.625,1,0.5,1,2.125,1,0.5,1,2.125,0,0,0,0,0,0,0,0,0,,,,,0,7,7,7,,,,,,,,,94.19848366600013,99.31145862500011,94.68208645800019,95.68070479100015,96.30270720800013,97.30135654100013,94.19848366600013,94.19848366600013,94.212103333,94.19848366600013,94.19848366600013,94.19848366600013,94.212103333,94.19848366600013,99.31145862500011,99.98141445800002,102.064913875,106.09523408300015,99.98141445800002,99.98141445800002,105.10422441600008,100.4368578330002,101.44040200000018,102.064913875,103.07499691600015,99.98141445800002,99.98141445800002,99.95714387433352,99.98141445800002,99.98141445800002,99.98141445800002,99.95714387433352,99.98141445800002,99.98141445800002,105.10422441600008,99.98141445800002,105.10422441600008,105.17188554100017,105.8204155410001,99.98141445800002,1,1,0.9676353749998725,reldom2_s015,001,2025-02-14_14h21.39.859,Vis-B-Scan_AC,2022.2.5,None,
0,0.0,None,fixation,stimulus/viswhere_stim/blank_white.png,stimulus/viswhere_stim/blank_white.png,stimulus/viswhat_stim/blank_white.png,stimulus/viswhat_stim/blank_white.png,stimulus/viswhere_stim/blank_white.png,stimulus/viswhere_stim/blank_white.png,stimulus/viswhere_stim/blank_white.png,stimulus/viswhere_stim/blank_white.png,0.0,0.0,0.0,0.0,0,0.0,0,0.0,0,0.0,0,0.0,0,0.0,0.0,0,0.0,0,0.0,0,0.0,0,0.0,0,0,0,0,0,0,0,0,9,,,,,0,8,8,8,,,,,,,,,106.09523408300015,106.09523408300015,106.09523408300015,106.09523408300015,106.09523408300015,106.09523408300015,106.09523408300015,106.09523408300015,106.00018408333342,106.09523408300015,106.09523408300015,106.09523408300015,106.00018408333342,106.09523408300015,106.09523408300015,106.09523408300015,106.09523408300015,106.09523408300015,106.09523408300015,106.09523408300015,106.09523408300015,106.09523408300015,106.09523408300015,106.09523408300015,106.09523408300015,106.09523408300015,106.09523408300015,106.05018408333342,106.09523408300015,106.09523408300015,106.09523408300015,106.05018408333342,106.09523408300015,106.09523408300015,106.09523408300015,106.09523408300015,106.09523408300015,111.3294607910002,111.3294607910002,115.29321554100011,None,0,,reldom2_s015,001,2025-02-14_14h21.39.859,Vis-B-Scan_AC,2022.2.5,None,
7,First_Order,2.0,viswhere,stimulus/viswhere_stim/blank_white.png,stimulus/viswhere_stim/blank_white.png,stimulus/viswhere_stim/60-deg_dot-right_peru.png,stimulus/viswhere_stim/120-deg_dot-right_goldenrod.png,stimulus/viswhere_stim/blank_white.png,stimulus/viswhere_stim/line_box.png,stimulus/viswhere_stim/line_yes.png,stimulus/viswhere_stim/line_no.png,None,Line,None,Dot,2,0.0,0,5.125,0,5.125,0,5.125,0,0.0,0.625,0,0.0,0,0.0,1,0.5,1,2.125,0,0,0,0,0,0,0,0,0,,,,,0,9,9,9,,,,,,,,,115.29321554100011,115.29321554100011,115.29321554100011,115.29321554100011,115.29321554100011,115.29321554100011,115.29321554100011,115.29321554100011,115.2760766666667,115.29321554100011,115.29321554100011,115.29321554100011,115.2760766666667,115.29321554100011,115.29321554100011,115.29321554100011,117.39843729100016,121.37559641600001,115.29321554100011,115.29321554100011,120.4205192500001,115.76681079100013,116.77212737500008,117.39843729100016,118.4074078330002,115.29321554100011,115.29321554100011,115.2760766666667,115.29321554100011,115.29321554100011,115.29321554100011,115.2760766666667,115.29321554100011,115.29321554100011,120.4205192500001,115.29321554100011,120.4205192500001,120.51738650000016,121.14235904100019,115.29321554100011,2,1,1.513775332999785,reldom2_s015,001,2025-02-14_14h21.39.859,Vis-B-Scan_AC,2022.2.5,None,
8,First_Order,2.0,viswhere,stimulus/viswhere_stim/blank_white.png,stimulus/viswhere_stim/blank_white.png,stimulus/viswhere_stim/90-deg_dot-left_turquoise.png,stimulus/viswhere_stim/90-deg_dot-right_peru.png,stimulus/viswhere_stim/blank_white.png,stimulus/viswhere_stim/line_box.png,stimulus/viswhere_stim/line_yes.png,stimulus/viswhere_stim/line_no.png,None,Line,None,Line,1,0.0,0,5.125,0,5.125,0,5.125,0,0.0,0.625,0,0.0,0,0.0,1,0.5,1,2.125,0,0,0,0,0,0,0,0,0,,,,,0,10,10,10,,,,,,,,,121.37559641600001,121.37559641600001,121.37559641600001,121.37559641600001,121.37559641600001,121.37559641600001,121.37559641600001,121.37559641600001,121.35594933333353,121.37559641600001,121.37559641600001,121.37559641600001,121.35594933333353,121.37559641600001,121.37559641600001,121.37559641600001,123.48815962500021,127.44045075000008,121.37559641600001,121.37559641600001,126.50562787500007,121.85074983300001,122.86060754100004,123.48815962500021,124.50509983300003,121.37559641600001,121.37559641600001,121.35594933333353,121.37559641600001,121.37559641600001,121.37559641600001,121.35594933333353,121.37559641600001,121.37559641600001,126.50562787500007,121.37559641600001,126.50562787500007,126.60385179100012,127.23620450000021,121.37559641600001,1,1,0.8157835829997566,reldom2_s015,001,2025-02-14_14h21.39.859,Vis-B-Scan_AC,2022.2.5,None,
9,First_Order,2.0,viswhere,stimulus/viswhere_stim/blank_white.png,stimulus/viswhere_stim/blank_white.png,stimulus/viswhere_stim/60-deg_dot-right_seagreen.png,stimulus/viswhere_stim/120-deg_dot-right_salmon.png,stimulus/viswhere_stim/blank_white.png,stimulus/viswhere_stim/dot_box.png,stimulus/viswhere_stim/dot_yes.png,stimulus/viswhere_stim/dot_no.png,None,Dot,None,Dot,1,0.0,0,5.125,0,5.125,0,5.125,0,0.0,0.625,0,0.0,0,0.0,1,0.5,1,2.125,0,0,0,0,0,0,0,0,0,,,,,0,11,11,11,,,,,,,,,127.44045075000008,127.44045075000008,127.44045075000008,127.44045075000008,127.44045075000008,127.44045075000008,127.44045075000008,127.44045075000008,127.41978308333348,127.44045075000008,127.44045075000008,127.44045075000008,127.41978308333348,127.44045075000008,127.44045075000008,127.44045075000008,129.54233479100003,133.50389166600007,127.44045075000008,127.44045075000008,132.56537008300006,127.9147340410002,128.9201149580001,129.54233479100003,130.55190645800008,127.44045075000008,127.44045075000008,127.43644975000015,127.44045075000008,127.44045075000008,127.44045075000008,127.43644975000015,127.44045075000008,127.44045075000008,132.56537008300006,127.44045075000008,132.56537008300006,132.66213800000014,133.2871321250002,127.44045075000008,1,1,1.0161386249999396,reldom2_s015,001,2025-02-14_14h21.39.859,Vis-B-Scan_AC,2022.2.5,None,
10,First_Order,2.0,viswhere,stimulus/viswhere_stim/blank_white.png,stimulus/viswhere_stim/blank_white.png,stimulus/viswhere_stim/120-deg_dot-right_cyan.png,stimulus/viswhere_stim/120-deg_dot-left_turquoise.png,stimulus/viswhere_stim/blank_white.png,stimulus/viswhere_stim/line_box.png,stimulus/viswhere_stim/line_yes.png,stimulus/viswhere_stim/line_no.png,None,Line,None,Line,1,0.0,0,5.125,0,5.125,0,5.125,0,0.0,0.625,0,0.0,0,0.0,1,0.5,1,2.125,0,0,0,0,0,0,0,0,0,,,,,0,12,12,12,,,,,,,,,133.50389166600007,133.50389166600007,133.50389166600007,133.50389166600007,133.50389166600007,133.50389166600007,133.50389166600007,133.50389166600007,133.48358795833346,133.50389166600007,133.50389166600007,133.50389166600007,133.48358795833346,133.50389166600007,133.50389166600007,133.50389166600007,135.61088345800022,139.644134291,133.50389166600007,133.50389166600007,138.63830550000011,133.97892745800004,134.9860224580002,135.61088345800022,136.6254462500001,133.50389166600007,133.50389166600007,133.50025462500014,133.50389166600007,133.50389166600007,133.50389166600007,133.50025462500014,133.50389166600007,133.50389166600007,138.63830550000011,133.50389166600007,138.63830550000011,138.72658237500013,139.36081950000016,133.50389166600007,1,1,0.8159044999999878,reldom2_s015,001,2025-02-14_14h21.39.859,Vis-B-Scan_AC,2022.2.5,None,
0,0.0,None,fixation,stimulus/viswhere_stim/blank_white.png,stimulus/viswhere_stim/blank_white.png,stimulus/viswhat_stim/blank_white.png,stimulus/viswhat_stim/blank_white.png,stimulus/viswhere_stim/blank_white.png,stimulus/viswhere_stim/blank_white.png,stimulus/viswhere_stim/blank_white.png,stimulus/viswhere_stim/blank_white.png,0.0,0.0,0.0,0.0,0,0.0,0,0.0,0,0.0,0,0.0,0,0.0,0.0,0,0.0,0,0.0,0,0.0,0,0.0,0,0,0,0,0,0,0,0,8,,,,,0,13,13,13,,,,,,,,,139.644134291,139.644134291,139.644134291,139.644134291,139.644134291,139.644134291,139.644134291,139.644134291,139.5444768333335,139.644134291,139.644134291,139.644134291,139.5444768333335,139.644134291,139.644134291,139.644134291,139.644134291,139.644134291,139.644134291,139.644134291,139.644134291,139.644134291,139.644134291,139.644134291,139.644134291,139.644134291,139.644134291,139.59447683333352,139.644134291,139.644134291,139.644134291,139.59447683333352,139.644134291,139.644134291,139.644134291,139.644134291,139.644134291,144.86171750000017,144.86171750000017,147.7484087910002,None,0,,reldom2_s015,001,2025-02-14_14h21.39.859,Vis-B-Scan_AC,2022.2.5,None,
11,Second_Order,2.0,viswhere,stimulus/viswhere_stim/120-deg_dot-left_slateblue.png,stimulus/viswhere_stim/60-deg_dot-left_seagreen.png,stimulus/viswhere_stim/90-deg_dot-right_seagreen.png,stimulus/viswhere_stim/30-deg_dot-right_mediumslateblue.png,stimulus/viswhere_stim/match_blank.png,stimulus/viswhere_stim/match_box.png,stimulus/viswhere_stim/match_yes.png,stimulus/viswhere_stim/match_no.png,1.0,Match,Dot,Dot,1,5.125,0,5.125,0,5.125,0,5.125,0,0.75,0.75,1,0.5,1,2.125,1,0.5,1,2.125,0,0,0,0,0,0,0,0,0,,,,,0,14,14,14,,,,,,,,,147.7484087910002,152.868053916,148.22228704100007,149.20843033300002,149.8559197500001,150.8456983330002,147.7484087910002,147.7484087910002,147.76328179133353,147.7484087910002,147.7484087910002,147.7484087910002,147.76328179133353,147.7484087910002,152.868053916,153.66102608300002,155.72930825000003,159.59807683300005,153.66102608300002,153.66102608300002,158.7959016660002,154.12163320800005,155.13755650000007,155.72930825000003,156.74904329100013,153.66102608300002,153.66102608300002,153.6510545830002,153.66102608300002,153.66102608300002,153.66102608300002,153.6510545830002,153.66102608300002,153.66102608300002,158.7959016660002,153.66102608300002,158.7959016660002,158.85631841600002,159.63461395800005,153.66102608300002,1,1,0.8157706669999243,reldom2_s015,001,2025-02-14_14h21.39.859,Vis-B-Scan_AC,2022.2.5,None,
12,Second_Order,2.0,viswhere,stimulus/viswhere_stim/90-deg_dot-right_cyan.png,stimulus/viswhere_stim/90-deg_dot-left_salmon.png,stimulus/viswhere_stim/30-deg_dot-left_goldenrod.png,stimulus/viswhere_stim/60-deg_dot-left_turquoise.png,stimulus/viswhere_stim/match_blank.png,stimulus/viswhere_stim/match_box.png,stimulus/viswhere_stim/match_yes.png,stimulus/viswhere_stim/match_no.png,2.0,Match,Line,Dot,2,5.125,0,5.125,0,5.125,0,5.125,0,0.625,0.625,1,0.5,1,2.125,1,0.5,1,2.125,0,0,0,0,0,0,0,0,0,,,,,0,15,15,15,,,,,,,,,159.63461395800005,164.756585416,160.11746058300014,161.11516600000004,161.73937275000003,162.73584695800014,159.63461395800005,159.63461395800005,159.64807683300006,159.63461395800005,159.63461395800005,159.63461395800005,159.64807683300006,159.63461395800005,164.756585416,165.43347525000013,167.50719633300014,171.54988470800004,165.43347525000013,165.43347525000013,170.55822708300002,165.89378750000014,166.90201945800004,167.50719633300014,168.5197447080002,165.43347525000013,165.43347525000013,165.40857733333343,165.43347525000013,165.43347525000013,165.43347525000013,165.40857733333343,165.43347525000013,165.43347525000013,170.55822708300002,165.43347525000013,170.55822708300002,170.62694208300013,171.25501279100013,165.43347525000013,2,1,1.035963541999763,reldom2_s015,001,2025-02-14_14h21.39.859,Vis-B-Scan_AC,2022.2.5,None,
0,0.0,None,fixation,stimulus/viswhere_stim/blank_white.png,stimulus/viswhere_stim/blank_white.png,stimulus/viswhat_stim/blank_white.png,stimulus/viswhat_stim/blank_white.png,stimulus/viswhere_stim/blank_white.png,stimulus/viswhere_stim/blank_white.png,stimulus/viswhere_stim/blank_white.png,stimulus/viswhere_stim/blank_white.png,0.0,0.0,0.0,0.0,0,0.0,0,0.0,0,0.0,0,0.0,0,0.0,0.0,0,0.0,0,0.0,0,0.0,0,0.0,0,0,0,0,0,0,0,0,10,,,,,0,16,16,16,,,,,,,,,171.54988470800004,171.54988470800004,171.54988470800004,171.54988470800004,171.54988470800004,171.54988470800004,171.54988470800004,171.54988470800004,171.45210316633356,171.54988470800004,171.54988470800004,171.54988470800004,171.45210316633356,171.54988470800004,171.54988470800004,171.54988470800004,171.54988470800004,171.54988470800004,171.54988470800004,171.54988470800004,171.54988470800004,171.54988470800004,171.54988470800004,171.54988470800004,171.54988470800004,171.54988470800004,171.54988470800004,171.50210316633357,171.54988470800004,171.54988470800004,171.54988470800004,171.50210316633357,171.54988470800004,171.54988470800004,171.54988470800004,171.54988470800004,171.54988470800004,176.77835475000006,176.77835475000006,181.81652691600016,None,0,,reldom2_s015,001,2025-02-14_14h21.39.859,Vis-B-Scan_AC,2022.2.5,None,
13,First_Order,3.0,viswhat,stimulus/viswhat_stim/blank_white.png,stimulus/viswhat_stim/blank_white.png,stimulus/viswhat_stim/land_animal-moose.png,stimulus/viswhat_stim/water_animal-whale (1).png,stimulus/viswhat_stim/blank_white.png,stimulus/viswhat_stim/type_box.png,stimulus/viswhat_stim/type_yes.png,stimulus/viswhat_stim/type_no.png,None,Type,None,Type,1,0.0,0,5.125,0,5.125,0,5.125,0,0.0,0.625,0,0.0,0,0.0,1,0.5,1,2.125,0,0,0,0,0,0,0,0,0,,,,,0,17,17,17,,,,,,,,,181.81652691600016,181.81652691600016,181.81652691600016,181.81652691600016,181.81652691600016,181.81652691600016,181.81652691600016,181.81652691600016,181.71417999966678,181.81652691600016,181.81652691600016,181.81652691600016,181.71417999966678,181.81652691600016,181.81652691600016,181.81652691600016,183.91813150000007,187.89903704100016,181.81652691600016,181.81652691600016,187.01683175000016,182.28313400000002,183.33582287500008,183.91813150000007,184.9740303750002,181.81652691600016,181.81652691600016,181.76417999966677,181.81652691600016,181.81652691600016,181.81652691600016,181.76417999966677,181.81652691600016,181.81652691600016,187.01683175000016,181.81652691600016,187.01683175000016,187.01683175000016,187.70125970800018,181.81652691600016,1,1,2.071665334000045,reldom2_s015,001,2025-02-14_14h21.39.859,Vis-B-Scan_AC,2022.2.5,None,
14,First_Order,3.0,viswhat,stimulus/viswhat_stim/blank_white.png,stimulus/viswhat_stim/blank_white.png,stimulus/viswhat_stim/land_vehicle-trolley.png,stimulus/viswhat_stim/water_vehicle-jetski.png,stimulus/viswhat_stim/blank_white.png,stimulus/viswhat_stim/location_box.png,stimulus/viswhat_stim/location_yes.png,stimulus/viswhat_stim/location_no.png,None,Location,None,Type,2,0.0,0,5.125,0,5.125,0,5.125,0,0.0,0.625,0,0.0,0,0.0,1,0.5,1,2.125,0,0,0,0,0,0,0,0,0,,,,,0,18,18,18,,,,,,,,,187.89903704100016,187.89903704100016,187.89903704100016,187.89903704100016,187.89903704100016,187.89903704100016,187.89903704100016,187.89903704100016,187.86792637466687,187.89903704100016,187.89903704100016,187.89903704100016,187.86792637466687,187.89903704100016,187.89903704100016,187.89903704100016,190.00613762500006,193.9688190410002,187.89903704100016,187.89903704100016,193.04856020800003,188.37465433300008,189.40443795800002,190.00613762500006,191.016046791,187.89903704100016,187.89903704100016,187.88459304133352,187.89903704100016,187.89903704100016,187.89903704100016,187.88459304133352,187.89903704100016,187.89903704100016,193.04856020800003,187.89903704100016,193.04856020800003,193.10700529100018,193.74627020800017,187.89903704100016,2,1,1.3303646669999125,reldom2_s015,001,2025-02-14_14h21.39.859,Vis-B-Scan_AC,2022.2.5,None,
15,First_Order,3.0,viswhat,stimulus/viswhat_stim/blank_white.png,stimulus/viswhat_stim/blank_white.png,stimulus/viswhat_stim/land_animal-ostrich.png,stimulus/viswhat_stim/land_vehicle-train.png,stimulus/viswhat_stim/blank_white.png,stimulus/viswhat_stim/location_box.png,stimulus/viswhat_stim/location_yes.png,stimulus/viswhat_stim/location_no.png,None,Location,None,Location,1,0.0,0,5.125,0,5.125,0,5.125,0,0.0,0.625,0,0.0,0,0.0,1,0.5,1,2.125,0,0,0,0,0,0,0,0,0,,,,,0,19,19,19,,,,,,,,,193.9688190410002,193.9688190410002,193.9688190410002,193.9688190410002,193.9688190410002,193.9688190410002,193.9688190410002,193.9688190410002,193.94331695800008,193.9688190410002,193.9688190410002,193.9688190410002,193.94331695800008,193.9688190410002,193.9688190410002,193.9688190410002,196.0786135410001,200.37403175000009,193.9688190410002,193.9688190410002,199.11484258300015,194.45036229100015,195.46221241600006,196.0786135410001,197.09589854100022,193.9688190410002,193.9688190410002,193.95998362466673,193.9688190410002,193.9688190410002,193.9688190410002,193.95998362466673,193.9688190410002,193.9688190410002,199.11484258300015,193.9688190410002,199.11484258300015,199.1841423750002,199.85393616600004,193.9688190410002,1,1,0.8276840829998946,reldom2_s015,001,2025-02-14_14h21.39.859,Vis-B-Scan_AC,2022.2.5,None,
16,First_Order,3.0,viswhat,stimulus/viswhat_stim/blank_white.png,stimulus/viswhat_stim/blank_white.png,stimulus/viswhat_stim/water_animal-lobster.png,stimulus/viswhat_stim/land_animal-moose.png,stimulus/viswhat_stim/blank_white.png,stimulus/viswhat_stim/location_box.png,stimulus/viswhat_stim/location_yes.png,stimulus/viswhat_stim/location_no.png,None,Location,None,Type,2,0.0,0,5.125,0,5.125,0,5.125,0,0.0,0.625,0,0.0,0,0.0,1,0.5,1,2.125,0,0,0,0,0,0,0,0,0,,,,,0,20,20,20,,,,,,,,,200.37403175000009,200.37403175000009,200.37403175000009,200.37403175000009,200.37403175000009,200.37403175000009,200.37403175000009,200.37403175000009,200.00674929133342,200.37403175000009,200.37403175000009,200.37403175000009,200.00674929133342,200.37403175000009,200.37403175000009,200.37403175000009,202.35056320800004,,200.37403175000009,200.37403175000009,205.763346791,200.734127875,201.99102900000003,202.35056320800004,203.6097728750001,200.37403175000009,200.37403175000009,200.20674929133344,200.37403175000009,200.37403175000009,200.37403175000009,200.20674929133344,200.37403175000009,200.37403175000009,205.763346791,200.37403175000009,205.763346791,205.58990841600007,,200.37403175000009,2,1,1.8646534169997722,reldom2_s015,001,2025-02-14_14h21.39.859,Vis-B-Scan_AC,2022.2.5,None,
0,0.0,None,fixation,stimulus/viswhere_stim/blank_white.png,stimulus/viswhere_stim/blank_white.png,stimulus/viswhat_stim/blank_white.png,stimulus/viswhat_stim/blank_white.png,stimulus/viswhere_stim/blank_white.png,stimulus/viswhere_stim/blank_white.png,stimulus/viswhere_stim/blank_white.png,stimulus/viswhere_stim/blank_white.png,0.0,0.0,0.0,0.0,0,0.0,0,0.0,0,0.0,0,0.0,0,0.0,0.0,0,0.0,0,0.0,0,0.0,0,0.0,0,0,0,0,0,0,0,0,8,,,,,0,21,21,21,,,,,,,,,206.43919075000008,206.43919075000008,206.43919075000008,206.43919075000008,206.43919075000008,206.43919075000008,206.43919075000008,206.43919075000008,206.33719750000014,206.43919075000008,206.43919075000008,206.43919075000008,206.33719750000014,206.43919075000008,206.43919075000008,206.43919075000008,206.43919075000008,206.43919075000008,206.43919075000008,206.43919075000008,206.43919075000008,206.43919075000008,206.43919075000008,206.43919075000008,206.43919075000008,206.43919075000008,206.43919075000008,206.38719750000016,206.43919075000008,206.43919075000008,206.43919075000008,206.38719750000016,206.43919075000008,206.43919075000008,206.43919075000008,206.43919075000008,206.43919075000008,211.62218579100022,211.62218579100022,214.6011141250001,None,0,,reldom2_s015,001,2025-02-14_14h21.39.859,Vis-B-Scan_AC,2022.2.5,None,
17,Second_Order,3.0,viswhat,stimulus/viswhat_stim/land_animal-giraffe.png,stimulus/viswhat_stim/water_animal-stingray.png,stimulus/viswhat_stim/water_animal-squid.png,stimulus/viswhat_stim/water_vehicle-yacht.png,stimulus/viswhere_stim/match_blank.png,stimulus/viswhere_stim/match_box.png,stimulus/viswhere_stim/match_yes.png,stimulus/viswhere_stim/match_no.png,2.0,Match,Type,Location,2,5.125,0,5.125,0,5.125,0,5.125,0,0.75,0.75,1,0.5,1,2.125,1,0.5,1,2.125,0,0,0,0,0,0,0,0,0,,,,,0,22,22,22,,,,,,,,,214.6011141250001,219.72372858300014,215.04352395800015,216.0425321250002,216.67697916600014,217.66736558300022,214.6011141250001,214.6011141250001,214.60257495800002,214.6011141250001,214.6011141250001,214.6011141250001,214.60257495800002,214.6011141250001,219.72372858300014,220.5567584580001,222.6275340000002,226.5464094580002,220.5567584580001,220.5567584580001,225.71455262500012,221.00732670800016,222.06217458300011,222.6275340000002,223.68305687500015,220.5567584580001,220.5567584580001,220.5231075416667,220.5567584580001,220.5567584580001,220.5567584580001,220.5231075416667,220.5567584580001,220.5567584580001,225.71455262500012,220.5567584580001,225.71455262500012,225.74696270800018,,220.5567584580001,2,1,1.2428852079999615,reldom2_s015,001,2025-02-14_14h21.39.859,Vis-B-Scan_AC,2022.2.5,None,
18,Second_Order,3.0,viswhat,stimulus/viswhat_stim/water_animal-whale (1).png,stimulus/viswhat_stim/land_animal-tiger.png,stimulus/viswhat_stim/water_animal-orka.png,stimulus/viswhat_stim/water_vehicle-cargoboat.png,stimulus/viswhere_stim/match_blank.png,stimulus/viswhere_stim/match_box.png,stimulus/viswhere_stim/match_yes.png,stimulus/viswhere_stim/match_no.png,2.0,Match,Type,Location,2,5.125,0,5.125,0,5.125,0,5.125,0,0.625,0.625,1,0.5,1,2.125,1,0.5,1,2.125,0,0,0,0,0,0,0,0,0,,,,,0,23,23,23,,,,,,,,,226.5464094580002,231.66695804100004,227.0177275000001,228.00643358300022,228.62563204100002,229.62358845800009,226.5464094580002,226.5464094580002,226.55076791600015,226.5464094580002,226.5464094580002,226.5464094580002,226.55076791600015,226.5464094580002,231.66695804100004,232.44071150000013,234.48993495800005,238.54546475000006,232.44071150000013,232.44071150000013,237.66241925000008,232.83607987500022,233.89375054100014,234.48993495800005,235.55152875000022,232.44071150000013,232.44071150000013,232.38013233300023,232.44071150000013,232.44071150000013,232.44071150000013,232.38013233300023,232.44071150000013,232.44071150000013,237.66241925000008,232.44071150000013,237.66241925000008,237.60190212500015,238.54546475000006,232.44071150000013,2,1,1.4498001659999318,reldom2_s015,001,2025-02-14_14h21.39.859,Vis-B-Scan_AC,2022.2.5,None,
0,0.0,None,fixation,stimulus/viswhere_stim/blank_white.png,stimulus/viswhere_stim/blank_white.png,stimulus/viswhat_stim/blank_white.png,stimulus/viswhat_stim/blank_white.png,stimulus/viswhere_stim/blank_white.png,stimulus/viswhere_stim/blank_white.png,stimulus/viswhere_stim/blank_white.png,stimulus/viswhere_stim/blank_white.png,0.0,0.0,0.0,0.0,0,0.0,0,0.0,0,0.0,0,0.0,0,0.0,0.0,0,0.0,0,0.0,0,0.0,0,0.0,0,0,0,0,0,0,0,0,9,,,,,0,24,24,24,,,,,,,,,238.54546475000006,238.54546475000006,238.54546475000006,238.54546475000006,238.54546475000006,238.54546475000006,238.54546475000006,238.54546475000006,238.4488272083335,238.54546475000006,238.54546475000006,238.54546475000006,238.4488272083335,238.54546475000006,238.54546475000006,238.54546475000006,238.54546475000006,238.54546475000006,238.54546475000006,238.54546475000006,238.54546475000006,238.54546475000006,238.54546475000006,238.54546475000006,238.54546475000006,238.54546475000006,238.54546475000006,238.49882720833352,238.54546475000006,238.54546475000006,238.54546475000006,238.49882720833352,238.54546475000006,238.54546475000006,238.54546475000006,238.54546475000006,238.54546475000006,243.77001666600017,243.77001666600017,247.73500950000016,None,0,,reldom2_s015,001,2025-02-14_14h21.39.859,Vis-B-Scan_AC,2022.2.5,None,
19,First_Order,4.0,viswhat,stimulus/viswhat_stim/blank_white.png,stimulus/viswhat_stim/blank_white.png,stimulus/viswhat_stim/water_animal-dolphin.png,stimulus/viswhat_stim/water_vehicle-canoe.png,stimulus/viswhat_stim/blank_white.png,stimulus/viswhat_stim/type_box.png,stimulus/viswhat_stim/type_yes.png,stimulus/viswhat_stim/type_no.png,None,Type,None,Location,2,0.0,0,5.125,0,5.125,0,5.125,0,0.0,0.625,0,0.0,0,0.0,1,0.5,1,2.125,0,0,0,0,0,0,0,0,0,,,,,0,25,25,25,,,,,,,,,247.73500950000016,247.73500950000016,247.73500950000016,247.73500950000016,247.73500950000016,247.73500950000016,247.73500950000016,247.73500950000016,247.6953234166669,247.73500950000016,247.73500950000016,247.73500950000016,247.6953234166669,247.73500950000016,247.73500950000016,247.73500950000016,249.84143729100015,253.87884016600015,247.73500950000016,247.73500950000016,252.87681900000007,248.19491158300002,249.20698612500018,249.84143729100015,250.8580895,247.73500950000016,247.73500950000016,247.71199008333355,247.73500950000016,247.73500950000016,247.73500950000016,247.71199008333355,247.73500950000016,247.73500950000016,252.87681900000007,247.73500950000016,252.87681900000007,252.94641933300022,253.57764820800003,247.73500950000016,2,1,1.3348901669999123,reldom2_s015,001,2025-02-14_14h21.39.859,Vis-B-Scan_AC,2022.2.5,None,
20,First_Order,4.0,viswhat,stimulus/viswhat_stim/blank_white.png,stimulus/viswhat_stim/blank_white.png,stimulus/viswhat_stim/land_animal-elephant.png,stimulus/viswhat_stim/land_vehicle-pickuptruck.png,stimulus/viswhat_stim/blank_white.png,stimulus/viswhat_stim/type_box.png,stimulus/viswhat_stim/type_yes.png,stimulus/viswhat_stim/type_no.png,None,Type,None,Location,2,0.0,0,5.125,0,5.125,0,5.125,0,0.0,0.625,0,0.0,0,0.0,1,0.5,1,2.125,0,0,0,0,0,0,0,0,0,,,,,0,26,26,26,,,,,,,,,253.87884016600015,253.87884016600015,253.87884016600015,253.87884016600015,253.87884016600015,253.87884016600015,253.87884016600015,253.87884016600015,253.76974637500018,253.87884016600015,253.87884016600015,253.87884016600015,253.76974637500018,253.87884016600015,253.87884016600015,253.87884016600015,255.96256712500008,260.14444541600005,253.87884016600015,253.87884016600015,259.0505749580002,254.3538047080001,255.42764487500017,255.96256712500008,257.03478058300016,253.87884016600015,253.87884016600015,253.81974637500016,253.87884016600015,253.87884016600015,253.87884016600015,253.81974637500016,253.87884016600015,253.87884016600015,259.0505749580002,253.87884016600015,259.0505749580002,259.1047685000001,260.14444541600005,253.87884016600015,2,1,1.4616987090000748,reldom2_s015,001,2025-02-14_14h21.39.859,Vis-B-Scan_AC,2022.2.5,None,
21,First_Order,4.0,viswhat,stimulus/viswhat_stim/blank_white.png,stimulus/viswhat_stim/blank_white.png,stimulus/viswhat_stim/water_vehicle-cruiseship.png,stimulus/viswhat_stim/land_vehicle-oldcar.png,stimulus/viswhat_stim/blank_white.png,stimulus/viswhat_stim/type_box.png,stimulus/viswhat_stim/type_yes.png,stimulus/viswhat_stim/type_no.png,None,Type,None,Type,1,0.0,0,5.125,0,5.125,0,5.125,0,0.0,0.625,0,0.0,0,0.0,1,0.5,1,2.125,0,0,0,0,0,0,0,0,0,,,,,0,27,27,27,,,,,,,,,260.14444541600005,260.14444541600005,260.14444541600005,260.14444541600005,260.14444541600005,260.14444541600005,260.14444541600005,260.14444541600005,259.9167194996668,260.14444541600005,260.14444541600005,260.14444541600005,259.9167194996668,260.14444541600005,260.14444541600005,260.14444541600005,262.22017725,266.289587708,260.14444541600005,260.14444541600005,265.4521993750002,260.6082854160002,261.76104995800006,262.22017725,263.3746329160001,260.14444541600005,260.14444541600005,260.03338616633346,260.14444541600005,260.14444541600005,260.14444541600005,260.03338616633346,260.14444541600005,260.14444541600005,265.4521993750002,260.14444541600005,265.4521993750002,265.3427365,,260.14444541600005,1,1,1.7066535839999233,reldom2_s015,001,2025-02-14_14h21.39.859,Vis-B-Scan_AC,2022.2.5,None,
22,First_Order,4.0,viswhat,stimulus/viswhat_stim/blank_white.png,stimulus/viswhat_stim/blank_white.png,stimulus/viswhat_stim/water_vehicle-pirateship.png,stimulus/viswhat_stim/water_animal-orka.png,stimulus/viswhat_stim/blank_white.png,stimulus/viswhat_stim/location_box.png,stimulus/viswhat_stim/location_yes.png,stimulus/viswhat_stim/location_no.png,None,Location,None,Location,1,0.0,0,5.125,0,5.125,0,5.125,0,0.0,0.625,0,0.0,0,0.0,1,0.5,1,2.125,0,0,0,0,0,0,0,0,0,,,,,0,28,28,28,,,,,,,,,266.289587708,266.289587708,266.289587708,266.289587708,266.289587708,266.289587708,266.289587708,266.289587708,266.1745297913335,266.289587708,266.289587708,266.289587708,266.1745297913335,266.289587708,266.289587708,266.289587708,268.3797880410002,272.4335178330002,266.289587708,266.289587708,271.4781290000001,266.7631639580002,267.84131279100006,268.3797880410002,269.4631857910001,266.289587708,266.289587708,266.2245297913335,266.289587708,266.289587708,266.289587708,266.2245297913335,266.289587708,266.289587708,271.4781290000001,266.289587708,271.4781290000001,271.4781290000001,272.1550876250001,266.289587708,1,1,0.8910052920000453,reldom2_s015,001,2025-02-14_14h21.39.859,Vis-B-Scan_AC,2022.2.5,None,
0,0.0,None,fixation,stimulus/viswhere_stim/blank_white.png,stimulus/viswhere_stim/blank_white.png,stimulus/viswhat_stim/blank_white.png,stimulus/viswhat_stim/blank_white.png,stimulus/viswhere_stim/blank_white.png,stimulus/viswhere_stim/blank_white.png,stimulus/viswhere_stim/blank_white.png,stimulus/viswhere_stim/blank_white.png,0.0,0.0,0.0,0.0,0,0.0,0,0.0,0,0.0,0,0.0,0,0.0,0.0,0,0.0,0,0.0,0,0.0,0,0.0,0,0,0,0,0,0,0,0,10,,,,,0,29,29,29,,,,,,,,,272.4335178330002,272.4335178330002,272.4335178330002,272.4335178330002,272.4335178330002,272.4335178330002,272.4335178330002,272.4335178330002,272.3384209583334,272.4335178330002,272.4335178330002,272.4335178330002,272.3384209583334,272.4335178330002,272.4335178330002,272.4335178330002,272.4335178330002,272.4335178330002,272.4335178330002,272.4335178330002,272.4335178330002,272.4335178330002,272.4335178330002,272.4335178330002,272.4335178330002,272.4335178330002,272.4335178330002,272.38842095833337,272.4335178330002,272.4335178330002,272.4335178330002,272.38842095833337,272.4335178330002,272.4335178330002,272.4335178330002,272.4335178330002,272.4335178330002,277.62189987500005,277.62189987500005,282.5660562910002,None,0,,reldom2_s015,001,2025-02-14_14h21.39.859,Vis-B-Scan_AC,2022.2.5,None,
23,Second_Order,4.0,viswhat,stimulus/viswhat_stim/land_vehicle-pickuptruck.png,stimulus/viswhat_stim/land_animal-lion.png,stimulus/viswhat_stim/water_animal-jellyfish.png,stimulus/viswhat_stim/water_vehicle-cabincruiser.png,stimulus/viswhere_stim/match_blank.png,stimulus/viswhere_stim/match_box.png,stimulus/viswhere_stim/match_yes.png,stimulus/viswhere_stim/match_no.png,1.0,Match,Location,Location,1,5.125,0,5.125,0,5.125,0,5.125,0,0.75,0.75,1,0.5,1,2.125,1,0.5,1,2.125,0,0,0,0,0,0,0,0,0,,,,,0,30,30,30,,,,,,,,,282.5660562910002,287.67972725000004,283.033808916,284.0327120410002,284.6551663330001,285.65290029100015,282.5660562910002,282.5660562910002,282.57986733300015,282.5660562910002,282.5660562910002,282.5660562910002,282.57986733300015,282.5660562910002,287.67972725000004,288.5194832500001,290.5941929580001,,288.5194832500001,288.5194832500001,293.6629795000001,288.9568193750001,289.9938523330002,290.5941929580001,291.6323238330001,288.5194832500001,288.5194832500001,288.47968833266674,288.5194832500001,288.5194832500001,288.5194832500001,288.47968833266674,288.5194832500001,288.5194832500001,293.6629795000001,288.5194832500001,293.6629795000001,293.69733291600005,,288.5194832500001,1,1,1.5638351659997625,reldom2_s015,001,2025-02-14_14h21.39.859,Vis-B-Scan_AC,2022.2.5,None,
24,Second_Order,4.0,viswhat,stimulus/viswhat_stim/water_vehicle-pirateship.png,stimulus/viswhat_stim/land_vehicle-oldcar.png,stimulus/viswhat_stim/land_animal-zebra.png,stimulus/viswhat_stim/water_animal-seahorse.png,stimulus/viswhere_stim/match_blank.png,stimulus/viswhere_stim/match_box.png,stimulus/viswhere_stim/match_yes.png,stimulus/viswhere_stim/match_no.png,1.0,Match,Type,Type,1,5.125,0,5.125,0,5.125,0,5.125,0,0.625,0.625,1,0.5,1,2.125,1,0.5,1,2.125,0,0,0,0,0,0,0,0,0,,,,,0,31,31,31,,,,,,,,,294.48446341600015,299.6064690410001,294.94548350000014,295.94321175000005,296.5663094160002,297.56380808300014,294.48446341600015,294.48446341600015,294.482048208,294.48446341600015,294.48446341600015,294.48446341600015,294.482048208,294.48446341600015,299.6064690410001,300.2908413750001,302.3741312500001,306.40125012500016,300.2908413750001,300.2908413750001,305.4268500830001,300.730194708,301.74674204100006,302.3741312500001,303.39354404100004,300.2908413750001,300.2908413750001,300.2700149580001,300.2908413750001,300.2908413750001,300.2908413750001,300.2700149580001,300.2908413750001,300.2908413750001,305.4268500830001,300.2908413750001,305.4268500830001,305.4827575410002,306.1150754160001,300.2908413750001,2,0,2.08113841699992,reldom2_s015,001,2025-02-14_14h21.39.859,Vis-B-Scan_AC,2022.2.5,None,
0,0.0,None,fixation,stimulus/viswhere_stim/blank_white.png,stimulus/viswhere_stim/blank_white.png,stimulus/viswhat_stim/blank_white.png,stimulus/viswhat_stim/blank_white.png,stimulus/viswhere_stim/blank_white.png,stimulus/viswhere_stim/blank_white.png,stimulus/viswhere_stim/blank_white.png,stimulus/viswhere_stim/blank_white.png,0.0,0.0,0.0,0.0,0,0.0,0,0.0,0,0.0,0,0.0,0,0.0,0.0,0,0.0,0,0.0,0,0.0,0,0.0,0,0,0,0,0,0,0,0,9,,,,,0,32,32,32,,,,,,,,,306.40125012500016,306.40125012500016,306.40125012500016,306.40125012500016,306.40125012500016,306.40125012500016,306.40125012500016,306.40125012500016,306.3076246250001,306.40125012500016,306.40125012500016,306.40125012500016,306.3076246250001,306.40125012500016,306.40125012500016,306.40125012500016,306.40125012500016,306.40125012500016,306.40125012500016,306.40125012500016,306.40125012500016,306.40125012500016,306.40125012500016,306.40125012500016,306.40125012500016,306.40125012500016,306.40125012500016,306.3576246250001,306.40125012500016,306.40125012500016,306.40125012500016,306.3576246250001,306.40125012500016,306.40125012500016,306.40125012500016,306.40125012500016,306.40125012500016,311.60581875,311.60581875,315.6100992910001,None,0,,reldom2_s015,001,2025-02-14_14h21.39.859,Vis-B-Scan_AC,2022.2.5,None,
25,First_Order,5.0,viswhere,stimulus/viswhere_stim/blank_white.png,stimulus/viswhere_stim/blank_white.png,stimulus/viswhere_stim/90-deg_dot-right_seagreen.png,stimulus/viswhere_stim/150-deg_dot-right_turquoise.png,stimulus/viswhere_stim/blank_white.png,stimulus/viswhere_stim/line_box.png,stimulus/viswhere_stim/line_yes.png,stimulus/viswhere_stim/line_no.png,None,Line,None,Dot,2,0.0,0,5.125,0,5.125,0,5.125,0,0.0,0.625,0,0.0,0,0.0,1,0.5,1,2.125,0,0,0,0,0,0,0,0,0,,,,,0,33,33,33,,,,,,,,,315.6100992910001,315.6100992910001,315.6100992910001,315.6100992910001,315.6100992910001,315.6100992910001,315.6100992910001,315.6100992910001,315.59085874966684,315.6100992910001,315.6100992910001,315.6100992910001,315.59085874966684,315.6100992910001,315.6100992910001,315.6100992910001,317.720654833,321.6771113330001,315.6100992910001,315.6100992910001,320.7387196660002,316.0891968750002,317.1079386660001,317.720654833,318.72330008300014,315.6100992910001,315.6100992910001,315.59085874966684,315.6100992910001,315.6100992910001,315.6100992910001,315.59085874966684,315.6100992910001,315.6100992910001,320.7387196660002,315.6100992910001,320.7387196660002,320.835775,321.4623035410002,315.6100992910001,2,1,1.4327747089998866,reldom2_s015,001,2025-02-14_14h21.39.859,Vis-B-Scan_AC,2022.2.5,None,
26,First_Order,5.0,viswhere,stimulus/viswhere_stim/blank_white.png,stimulus/viswhere_stim/blank_white.png,stimulus/viswhere_stim/150-deg_dot-left_seagreen.png,stimulus/viswhere_stim/150-deg_dot-right_seagreen.png,stimulus/viswhere_stim/blank_white.png,stimulus/viswhere_stim/dot_box.png,stimulus/viswhere_stim/dot_yes.png,stimulus/viswhere_stim/dot_no.png,None,Dot,None,Line,2,0.0,0,5.125,0,5.125,0,5.125,0,0.0,0.625,0,0.0,0,0.0,1,0.5,1,2.125,0,0,0,0,0,0,0,0,0,,,,,0,34,34,34,,,,,,,,,321.6771113330001,321.6771113330001,321.6771113330001,321.6771113330001,321.6771113330001,321.6771113330001,321.6771113330001,321.6771113330001,321.6558424163334,321.6771113330001,321.6771113330001,321.6771113330001,321.6558424163334,321.6771113330001,321.6771113330001,321.6771113330001,323.7901757080001,327.73968133300014,321.6771113330001,321.6771113330001,326.799622041,322.1571338330002,323.1760622080001,323.7901757080001,324.79575679100003,321.6771113330001,321.6771113330001,321.6725090830001,321.6771113330001,321.6771113330001,321.6771113330001,321.6725090830001,321.6771113330001,321.6771113330001,326.799622041,321.6771113330001,326.799622041,326.8973466250002,327.52288416600004,321.6771113330001,2,1,1.3840863749999244,reldom2_s015,001,2025-02-14_14h21.39.859,Vis-B-Scan_AC,2022.2.5,None,
27,First_Order,5.0,viswhere,stimulus/viswhere_stim/blank_white.png,stimulus/viswhere_stim/blank_white.png,stimulus/viswhere_stim/90-deg_dot-left_turquoise.png,stimulus/viswhere_stim/90-deg_dot-right_seagreen.png,stimulus/viswhere_stim/blank_white.png,stimulus/viswhere_stim/line_box.png,stimulus/viswhere_stim/line_yes.png,stimulus/viswhere_stim/line_no.png,None,Line,None,Line,1,0.0,0,5.125,0,5.125,0,5.125,0,0.0,0.625,0,0.0,0,0.0,1,0.5,1,2.125,0,0,0,0,0,0,0,0,0,,,,,0,35,35,35,,,,,,,,,327.73968133300014,327.73968133300014,327.73968133300014,327.73968133300014,327.73968133300014,327.73968133300014,327.73968133300014,327.73968133300014,327.71875683333343,327.73968133300014,327.73968133300014,327.73968133300014,327.71875683333343,327.73968133300014,327.73968133300014,327.73968133300014,329.8456042910002,333.8009955,327.73968133300014,327.73968133300014,332.872122708,328.21892645800017,329.23449833300015,329.8456042910002,330.8658803330002,327.73968133300014,327.73968133300014,327.7354235000001,327.73968133300014,327.73968133300014,327.73968133300014,327.7354235000001,327.73968133300014,327.73968133300014,332.872122708,327.73968133300014,332.872122708,332.9693944160001,333.59859491600014,327.73968133300014,1,1,0.8855685000000904,reldom2_s015,001,2025-02-14_14h21.39.859,Vis-B-Scan_AC,2022.2.5,None,
28,First_Order,5.0,viswhere,stimulus/viswhere_stim/blank_white.png,stimulus/viswhere_stim/blank_white.png,stimulus/viswhere_stim/120-deg_dot-right_mediumslateblue.png,stimulus/viswhere_stim/90-deg_dot-right_lightsseagreen.png,stimulus/viswhere_stim/blank_white.png,stimulus/viswhere_stim/dot_box.png,stimulus/viswhere_stim/dot_yes.png,stimulus/viswhere_stim/dot_no.png,None,Dot,None,Dot,1,0.0,0,5.125,0,5.125,0,5.125,0,0.0,0.625,0,0.0,0,0.0,1,0.5,1,2.125,0,0,0,0,0,0,0,0,0,,,,,0,36,36,36,,,,,,,,,333.8009955,333.8009955,333.8009955,333.8009955,333.8009955,333.8009955,333.8009955,333.8009955,333.7798003743333,333.8009955,333.8009955,333.8009955,333.7798003743333,333.8009955,333.8009955,333.8009955,335.9151126250001,339.94213266600013,333.8009955,333.8009955,338.9344182080001,334.27763525,335.2885680410002,335.9151126250001,336.9335711660001,333.8009955,333.8009955,333.79646704099997,333.8009955,333.8009955,333.8009955,333.79646704099997,333.8009955,333.8009955,338.9344182080001,333.8009955,338.9344182080001,339.0301108330002,339.663133625,333.8009955,1,1,0.7249154999999519,reldom2_s015,001,2025-02-14_14h21.39.859,Vis-B-Scan_AC,2022.2.5,None,
0,0.0,None,fixation,stimulus/viswhere_stim/blank_white.png,stimulus/viswhere_stim/blank_white.png,stimulus/viswhat_stim/blank_white.png,stimulus/viswhat_stim/blank_white.png,stimulus/viswhere_stim/blank_white.png,stimulus/viswhere_stim/blank_white.png,stimulus/viswhere_stim/blank_white.png,stimulus/viswhere_stim/blank_white.png,0.0,0.0,0.0,0.0,0,0.0,0,0.0,0,0.0,0,0.0,0,0.0,0.0,0,0.0,0,0.0,0,0.0,0,0.0,0,0,0,0,0,0,0,0,10,,,,,0,37,37,37,,,,,,,,,339.94213266600013,339.94213266600013,339.94213266600013,339.94213266600013,339.94213266600013,339.94213266600013,339.94213266600013,339.94213266600013,339.84385595833334,339.94213266600013,339.94213266600013,339.94213266600013,339.84385595833334,339.94213266600013,339.94213266600013,339.94213266600013,339.94213266600013,339.94213266600013,339.94213266600013,339.94213266600013,339.94213266600013,339.94213266600013,339.94213266600013,339.94213266600013,339.94213266600013,339.94213266600013,339.94213266600013,339.89385595833335,339.94213266600013,339.94213266600013,339.94213266600013,339.89385595833335,339.94213266600013,339.94213266600013,339.94213266600013,339.94213266600013,339.94213266600013,345.131631125,345.131631125,350.0591011660001,None,0,,reldom2_s015,001,2025-02-14_14h21.39.859,Vis-B-Scan_AC,2022.2.5,None,
29,Second_Order,5.0,viswhere,stimulus/viswhere_stim/30-deg_dot-right_peru.png,stimulus/viswhere_stim/120-deg_dot-right_royalblue.png,stimulus/viswhere_stim/120-deg_dot-left_lightsseagreen.png,stimulus/viswhere_stim/90-deg_dot-left_seagreen.png,stimulus/viswhere_stim/match_blank.png,stimulus/viswhere_stim/match_box.png,stimulus/viswhere_stim/match_yes.png,stimulus/viswhere_stim/match_no.png,1.0,Match,Dot,Dot,1,5.125,0,5.125,0,5.125,0,5.125,0,0.75,0.75,1,0.5,1,2.125,1,0.5,1,2.125,0,0,0,0,0,0,0,0,0,,,,,0,38,38,38,,,,,,,,,350.0591011660001,355.18042475000016,350.53971483300006,351.5386973750001,352.16146008300007,353.15893529100003,350.0591011660001,350.0591011660001,350.0729119583335,350.0591011660001,350.0591011660001,350.0591011660001,350.0729119583335,350.0591011660001,355.18042475000016,355.9756655410001,358.0438619580002,361.9449597500002,355.9756655410001,355.9756655410001,361.11420687500004,356.4374223750001,357.4514630410001,358.0438619580002,359.0458835000002,355.9756655410001,355.9756655410001,355.9487215413335,355.9756655410001,355.9756655410001,355.9756655410001,355.9487215413335,355.9756655410001,355.9756655410001,361.11420687500004,355.9756655410001,361.11420687500004,361.170638541,361.9449597500002,355.9756655410001,1,1,1.0139239170000565,reldom2_s015,001,2025-02-14_14h21.39.859,Vis-B-Scan_AC,2022.2.5,None,
30,Second_Order,5.0,viswhere,stimulus/viswhere_stim/60-deg_dot-right_seagreen.png,stimulus/viswhere_stim/60-deg_dot-left_slateblue.png,stimulus/viswhere_stim/120-deg_dot-left_seagreen.png,stimulus/viswhere_stim/30-deg_dot-left_cyan.png,stimulus/viswhere_stim/match_blank.png,stimulus/viswhere_stim/match_box.png,stimulus/viswhere_stim/match_yes.png,stimulus/viswhere_stim/match_no.png,2.0,Match,Line,Dot,2,5.125,0,5.125,0,5.125,0,5.125,0,0.625,0.625,1,0.5,1,2.125,1,0.5,1,2.125,0,0,0,0,0,0,0,0,0,,,,,0,39,39,39,,,,,,,,,361.9449597500002,367.062717666,362.43034950000015,363.42019195800003,364.05546408300006,365.0529947910002,361.9449597500002,361.9449597500002,361.9584075830001,361.9449597500002,361.9449597500002,361.9449597500002,361.9584075830001,361.9449597500002,367.062717666,367.72915041600004,369.8128354160001,373.85450812500017,367.72915041600004,367.72915041600004,372.8598802910001,368.1908849160002,369.20350320800003,369.8128354160001,370.8316057500001,367.72915041600004,367.72915041600004,367.70895649933345,367.72915041600004,367.72915041600004,367.72915041600004,367.70895649933345,367.72915041600004,367.72915041600004,372.8598802910001,367.72915041600004,372.8598802910001,372.92764416600016,373.5592605410002,367.72915041600004,2,1,1.0325618340000347,reldom2_s015,001,2025-02-14_14h21.39.859,Vis-B-Scan_AC,2022.2.5,None,
0,0.0,None,fixation,stimulus/viswhere_stim/blank_white.png,stimulus/viswhere_stim/blank_white.png,stimulus/viswhat_stim/blank_white.png,stimulus/viswhat_stim/blank_white.png,stimulus/viswhere_stim/blank_white.png,stimulus/viswhere_stim/blank_white.png,stimulus/viswhere_stim/blank_white.png,stimulus/viswhere_stim/blank_white.png,0.0,0.0,0.0,0.0,0,0.0,0,0.0,0,0.0,0,0.0,0,0.0,0.0,0,0.0,0,0.0,0,0.0,0,0.0,0,0,0,0,0,0,0,0,9,,,,,0,40,40,40,,,,,,,,,373.85450812500017,373.85450812500017,373.85450812500017,373.85450812500017,373.85450812500017,373.85450812500017,373.85450812500017,373.85450812500017,373.7554274993334,373.85450812500017,373.85450812500017,373.85450812500017,373.7554274993334,373.85450812500017,373.85450812500017,373.85450812500017,373.85450812500017,373.85450812500017,373.85450812500017,373.85450812500017,373.85450812500017,373.85450812500017,373.85450812500017,373.85450812500017,373.85450812500017,373.85450812500017,373.85450812500017,373.8054274993334,373.85450812500017,373.85450812500017,373.85450812500017,373.8054274993334,373.85450812500017,373.85450812500017,373.85450812500017,373.85450812500017,373.85450812500017,379.06630800000016,379.06630800000016,383.03213262500003,None,0,,reldom2_s015,001,2025-02-14_14h21.39.859,Vis-B-Scan_AC,2022.2.5,None,
31,First_Order,6.0,viswhere,stimulus/viswhere_stim/blank_white.png,stimulus/viswhere_stim/blank_white.png,stimulus/viswhere_stim/120-deg_dot-left_royalblue.png,stimulus/viswhere_stim/30-deg_dot-left_goldenrod.png,stimulus/viswhere_stim/blank_white.png,stimulus/viswhere_stim/dot_box.png,stimulus/viswhere_stim/dot_yes.png,stimulus/viswhere_stim/dot_no.png,None,Dot,None,Dot,1,0.0,0,5.125,0,5.125,0,5.125,0,0.0,0.625,0,0.0,0,0.0,1,0.5,1,2.125,0,0,0,0,0,0,0,0,0,,,,,0,41,41,41,,,,,,,,,383.03213262500003,383.03213262500003,383.03213262500003,383.03213262500003,383.03213262500003,383.03213262500003,383.03213262500003,383.03213262500003,383.01218379166664,383.03213262500003,383.03213262500003,383.03213262500003,383.01218379166664,383.03213262500003,383.03213262500003,383.03213262500003,385.1390713750002,389.09189062500013,383.03213262500003,383.03213262500003,388.16514900000016,383.50657716600017,384.5151155000001,385.1390713750002,386.15155304100017,383.03213262500003,383.03213262500003,383.02885045833335,383.03213262500003,383.03213262500003,383.03213262500003,383.02885045833335,383.03213262500003,383.03213262500003,388.16514900000016,383.03213262500003,388.16514900000016,388.25970700000016,388.8873463750001,383.03213262500003,1,1,0.9418153749998055,reldom2_s015,001,2025-02-14_14h21.39.859,Vis-B-Scan_AC,2022.2.5,None,
32,First_Order,6.0,viswhere,stimulus/viswhere_stim/blank_white.png,stimulus/viswhere_stim/blank_white.png,stimulus/viswhere_stim/150-deg_dot-left_salmon.png,stimulus/viswhere_stim/150-deg_dot-right_salmon.png,stimulus/viswhere_stim/blank_white.png,stimulus/viswhere_stim/dot_box.png,stimulus/viswhere_stim/dot_yes.png,stimulus/viswhere_stim/dot_no.png,None,Dot,None,Line,2,0.0,0,5.125,0,5.125,0,5.125,0,0.0,0.625,0,0.0,0,0.0,1,0.5,1,2.125,0,0,0,0,0,0,0,0,0,,,,,0,42,42,42,,,,,,,,,389.09189062500013,389.09189062500013,389.09189062500013,389.09189062500013,389.09189062500013,389.09189062500013,389.09189062500013,389.09189062500013,389.0711188333335,389.09189062500013,389.09189062500013,389.09189062500013,389.0711188333335,389.09189062500013,389.09189062500013,389.09189062500013,391.20609845800004,395.1567600830001,389.09189062500013,389.09189062500013,394.2277086660001,389.5719122080002,390.5738852080001,391.20609845800004,392.20870745800016,389.09189062500013,389.09189062500013,389.08778550000017,389.09189062500013,389.09189062500013,389.09189062500013,389.08778550000017,389.09189062500013,389.09189062500013,394.2277086660001,389.09189062500013,394.2277086660001,394.31141341600005,394.9401049160001,389.09189062500013,2,1,1.284009332999858,reldom2_s015,001,2025-02-14_14h21.39.859,Vis-B-Scan_AC,2022.2.5,None,
33,First_Order,6.0,viswhere,stimulus/viswhere_stim/blank_white.png,stimulus/viswhere_stim/blank_white.png,stimulus/viswhere_stim/150-deg_dot-left_cyan.png,stimulus/viswhere_stim/150-deg_dot-right_seagreen.png,stimulus/viswhere_stim/blank_white.png,stimulus/viswhere_stim/line_box.png,stimulus/viswhere_stim/line_yes.png,stimulus/viswhere_stim/line_no.png,None,Line,None,Line,1,0.0,0,5.125,0,5.125,0,5.125,0,0.0,0.625,0,0.0,0,0.0,1,0.5,1,2.125,0,0,0,0,0,0,0,0,0,,,,,0,43,43,43,,,,,,,,,395.1567600830001,395.1567600830001,395.1567600830001,395.1567600830001,395.1567600830001,395.1567600830001,395.1567600830001,395.1567600830001,395.13491620833344,395.1567600830001,395.1567600830001,395.1567600830001,395.13491620833344,395.1567600830001,395.1567600830001,395.1567600830001,397.2678148750001,401.22313020800016,395.1567600830001,395.1567600830001,400.28588870800013,395.63888429100007,396.65216820800015,397.2678148750001,398.2788847080001,395.1567600830001,395.1567600830001,395.1515828750001,395.1567600830001,395.1567600830001,395.1567600830001,395.1515828750001,395.1567600830001,395.1567600830001,400.28588870800013,395.1567600830001,400.28588870800013,400.3836966250001,401.00652237500003,395.1567600830001,1,1,0.7127774999999019,reldom2_s015,001,2025-02-14_14h21.39.859,Vis-B-Scan_AC,2022.2.5,None,
34,First_Order,6.0,viswhere,stimulus/viswhere_stim/blank_white.png,stimulus/viswhere_stim/blank_white.png,stimulus/viswhere_stim/150-deg_dot-right_cyan.png,stimulus/viswhere_stim/120-deg_dot-right_cyan.png,stimulus/viswhere_stim/blank_white.png,stimulus/viswhere_stim/line_box.png,stimulus/viswhere_stim/line_yes.png,stimulus/viswhere_stim/line_no.png,None,Line,None,Dot,2,0.0,0,5.125,0,5.125,0,5.125,0,0.0,0.625,0,0.0,0,0.0,1,0.5,1,2.125,0,0,0,0,0,0,0,0,0,,,,,0,44,44,44,,,,,,,,,401.22313020800016,401.22313020800016,401.22313020800016,401.22313020800016,401.22313020800016,401.22313020800016,401.22313020800016,401.22313020800016,401.20215191633343,401.22313020800016,401.22313020800016,401.22313020800016,401.20215191633343,401.22313020800016,401.22313020800016,401.22313020800016,403.32998654100015,407.3674271660002,401.22313020800016,401.22313020800016,406.34783425,401.7019620830001,402.7183889580001,403.32998654100015,404.3496623750002,401.22313020800016,401.22313020800016,401.2188185830001,401.22313020800016,401.22313020800016,401.22313020800016,401.2188185830001,401.22313020800016,401.22313020800016,406.34783425,401.22313020800016,406.34783425,406.4447657500002,407.0765556250001,401.22313020800016,2,1,1.118254332999868,reldom2_s015,001,2025-02-14_14h21.39.859,Vis-B-Scan_AC,2022.2.5,None,
0,0.0,None,fixation,stimulus/viswhere_stim/blank_white.png,stimulus/viswhere_stim/blank_white.png,stimulus/viswhat_stim/blank_white.png,stimulus/viswhat_stim/blank_white.png,stimulus/viswhere_stim/blank_white.png,stimulus/viswhere_stim/blank_white.png,stimulus/viswhere_stim/blank_white.png,stimulus/viswhere_stim/blank_white.png,0.0,0.0,0.0,0.0,0,0.0,0,0.0,0,0.0,0,0.0,0,0.0,0.0,0,0.0,0,0.0,0,0.0,0,0.0,0,0,0,0,0,0,0,0,8,,,,,0,45,45,45,,,,,,,,,407.3674271660002,407.3674271660002,407.3674271660002,407.3674271660002,407.3674271660002,407.3674271660002,407.3674271660002,407.3674271660002,407.27016279133346,407.3674271660002,407.3674271660002,407.3674271660002,407.27016279133346,407.3674271660002,407.3674271660002,407.3674271660002,407.3674271660002,407.3674271660002,407.3674271660002,407.3674271660002,407.3674271660002,407.3674271660002,407.3674271660002,407.3674271660002,407.3674271660002,407.3674271660002,407.3674271660002,407.3201627913335,407.3674271660002,407.3674271660002,407.3674271660002,407.3201627913335,407.3674271660002,407.3674271660002,407.3674271660002,407.3674271660002,407.3674271660002,412.56584916600013,412.56584916600013,415.5229463750002,None,0,,reldom2_s015,001,2025-02-14_14h21.39.859,Vis-B-Scan_AC,2022.2.5,None,
35,Second_Order,6.0,viswhere,stimulus/viswhere_stim/60-deg_dot-right_cyan.png,stimulus/viswhere_stim/60-deg_dot-left_goldenrod.png,stimulus/viswhere_stim/150-deg_dot-left_salmon.png,stimulus/viswhere_stim/150-deg_dot-right_goldenrod.png,stimulus/viswhere_stim/match_blank.png,stimulus/viswhere_stim/match_box.png,stimulus/viswhere_stim/match_yes.png,stimulus/viswhere_stim/match_no.png,1.0,Match,Line,Line,1,5.125,0,5.125,0,5.125,0,5.125,0,0.75,0.75,1,0.5,1,2.125,1,0.5,1,2.125,0,0,0,0,0,0,0,0,0,,,,,0,46,46,46,,,,,,,,,415.5229463750002,420.6365330000001,416.0043679580001,416.99314770800015,417.62892579100003,418.62701037500005,415.5229463750002,415.5229463750002,415.53661662433353,415.5229463750002,415.5229463750002,415.5229463750002,415.53661662433353,415.5229463750002,420.6365330000001,421.4291787500001,423.4982872910002,427.39969162500006,421.4291787500001,421.4291787500001,426.56905537500006,421.8768160830002,422.882038833,423.4982872910002,424.5144694160001,421.4291787500001,421.4291787500001,421.4035018743334,421.4291787500001,421.4291787500001,421.4291787500001,421.4035018743334,421.4291787500001,421.4291787500001,426.56905537500006,421.4291787500001,426.56905537500006,426.62523179100003,427.39969162500006,421.4291787500001,1,1,0.6489227080001001,reldom2_s015,001,2025-02-14_14h21.39.859,Vis-B-Scan_AC,2022.2.5,None,
36,Second_Order,6.0,viswhere,stimulus/viswhere_stim/120-deg_dot-right_slateblue.png,stimulus/viswhere_stim/120-deg_dot-left_royalblue.png,stimulus/viswhere_stim/150-deg_dot-right_royalblue.png,stimulus/viswhere_stim/150-deg_dot-left_salmon.png,stimulus/viswhere_stim/match_blank.png,stimulus/viswhere_stim/match_box.png,stimulus/viswhere_stim/match_yes.png,stimulus/viswhere_stim/match_no.png,1.0,Match,Line,Line,1,5.125,0,5.125,0,5.125,0,5.125,0,0.625,0.625,1,0.5,1,2.125,1,0.5,1,2.125,0,0,0,0,0,0,0,0,0,,,,,0,47,47,47,,,,,,,,,427.39969162500006,432.5135345410001,427.88522412500015,428.8837773330001,429.50677454100014,430.5048775,427.39969162500006,427.39969162500006,427.41280270800013,427.39969162500006,427.39969162500006,427.39969162500006,427.41280270800013,427.39969162500006,432.5135345410001,433.1846950830002,435.2723965,439.3059712080001,433.1846950830002,433.1846950830002,438.3125875830001,433.63264266600004,434.63792950000015,435.2723965,436.28238412500014,433.1846950830002,433.1846950830002,433.16036991633337,433.1846950830002,433.1846950830002,433.1846950830002,433.16036991633337,433.1846950830002,433.1846950830002,438.3125875830001,433.1846950830002,438.3125875830001,438.3828830000002,439.0108421660002,433.1846950830002,1,1,0.5376496250000855,reldom2_s015,001,2025-02-14_14h21.39.859,Vis-B-Scan_AC,2022.2.5,None,
0,0.0,None,fixation,stimulus/viswhere_stim/blank_white.png,stimulus/viswhere_stim/blank_white.png,stimulus/viswhat_stim/blank_white.png,stimulus/viswhat_stim/blank_white.png,stimulus/viswhere_stim/blank_white.png,stimulus/viswhere_stim/blank_white.png,stimulus/viswhere_stim/blank_white.png,stimulus/viswhere_stim/blank_white.png,0.0,0.0,0.0,0.0,0,0.0,0,0.0,0,0.0,0,0.0,0,0.0,0.0,0,0.0,0,0.0,0,0.0,0,0.0,0,0,0,0,0,0,0,0,10,,,,,0,48,48,48,,,,,,,,,439.3059712080001,439.3059712080001,439.3059712080001,439.3059712080001,439.3059712080001,439.3059712080001,439.3059712080001,439.3059712080001,439.20659520833334,439.3059712080001,439.3059712080001,439.3059712080001,439.20659520833334,439.3059712080001,439.3059712080001,439.3059712080001,439.3059712080001,439.3059712080001,439.3059712080001,439.3059712080001,439.3059712080001,439.3059712080001,439.3059712080001,439.3059712080001,439.3059712080001,439.3059712080001,439.3059712080001,439.25659520833335,439.3059712080001,439.3059712080001,439.3059712080001,439.25659520833335,439.3059712080001,439.3059712080001,439.3059712080001,439.3059712080001,439.3059712080001,444.5328833750002,444.5328833750002,449.59237400000006,None,0,,reldom2_s015,001,2025-02-14_14h21.39.859,Vis-B-Scan_AC,2022.2.5,None,
37,First_Order,7.0,viswhat,stimulus/viswhat_stim/blank_white.png,stimulus/viswhat_stim/blank_white.png,stimulus/viswhat_stim/water_vehicle-sailboat.png,stimulus/viswhat_stim/land_vehicle-bus.png,stimulus/viswhat_stim/blank_white.png,stimulus/viswhat_stim/location_box.png,stimulus/viswhat_stim/location_yes.png,stimulus/viswhat_stim/location_no.png,None,Location,None,Type,2,0.0,0,5.125,0,5.125,0,5.125,0,0.0,0.625,0,0.0,0,0.0,1,0.5,1,2.125,0,0,0,0,0,0,0,0,0,,,,,0,49,49,49,,,,,,,,,449.59237400000006,449.59237400000006,449.59237400000006,449.59237400000006,449.59237400000006,449.59237400000006,449.59237400000006,449.59237400000006,449.4987592916667,449.59237400000006,449.59237400000006,449.59237400000006,449.4987592916667,449.59237400000006,449.59237400000006,449.59237400000006,451.6662027080001,,449.59237400000006,449.59237400000006,454.74857995800016,450.06916150000006,451.1360288330002,451.6662027080001,452.732533416,449.59237400000006,449.59237400000006,449.5487592916667,449.59237400000006,449.59237400000006,449.59237400000006,449.5487592916667,449.59237400000006,449.59237400000006,454.74857995800016,449.59237400000006,454.74857995800016,454.7961424580001,455.4587415830001,449.59237400000006,2,1,0.9960697919998438,reldom2_s015,001,2025-02-14_14h21.39.859,Vis-B-Scan_AC,2022.2.5,None,
38,First_Order,7.0,viswhat,stimulus/viswhat_stim/blank_white.png,stimulus/viswhat_stim/blank_white.png,stimulus/viswhat_stim/land_vehicle-tank.png,stimulus/viswhat_stim/land_animal-elephant.png,stimulus/viswhat_stim/blank_white.png,stimulus/viswhat_stim/type_box.png,stimulus/viswhat_stim/type_yes.png,stimulus/viswhat_stim/type_no.png,None,Type,None,Location,2,0.0,0,5.125,0,5.125,0,5.125,0,0.0,0.625,0,0.0,0,0.0,1,0.5,1,2.125,0,0,0,0,0,0,0,0,0,,,,,0,50,50,50,,,,,,,,,455.7138217500001,455.7138217500001,455.7138217500001,455.7138217500001,455.7138217500001,455.7138217500001,455.7138217500001,455.7138217500001,455.6087415830001,455.7138217500001,455.7138217500001,455.7138217500001,455.6087415830001,455.7138217500001,455.7138217500001,455.7138217500001,457.7933672500001,461.7935087080002,455.7138217500001,455.7138217500001,460.916514708,456.175581791,457.21733029100005,457.7933672500001,458.83954804100017,455.7138217500001,455.7138217500001,455.6587415830001,455.7138217500001,455.7138217500001,455.7138217500001,455.6587415830001,455.7138217500001,455.7138217500001,460.916514708,455.7138217500001,460.916514708,460.916514708,461.59381458300004,455.7138217500001,2,1,1.1602446249999048,reldom2_s015,001,2025-02-14_14h21.39.859,Vis-B-Scan_AC,2022.2.5,None,
39,First_Order,7.0,viswhat,stimulus/viswhat_stim/blank_white.png,stimulus/viswhat_stim/blank_white.png,stimulus/viswhat_stim/land_animal-ostrich.png,stimulus/viswhat_stim/water_animal-whale.png,stimulus/viswhat_stim/blank_white.png,stimulus/viswhat_stim/location_box.png,stimulus/viswhat_stim/location_yes.png,stimulus/viswhat_stim/location_no.png,None,Location,None,Type,2,0.0,0,5.125,0,5.125,0,5.125,0,0.0,0.625,0,0.0,0,0.0,1,0.5,1,2.125,0,0,0,0,0,0,0,0,0,,,,,0,51,51,51,,,,,,,,,461.7935087080002,461.7935087080002,461.7935087080002,461.7935087080002,461.7935087080002,461.7935087080002,461.7935087080002,461.7935087080002,461.76048124966667,461.7935087080002,461.7935087080002,461.7935087080002,461.76048124966667,461.7935087080002,461.7935087080002,461.7935087080002,463.88189820800017,467.8749008750001,461.7935087080002,461.7935087080002,466.9364870830002,462.26055625000004,463.2789401250002,463.88189820800017,464.9051033750002,461.7935087080002,461.7935087080002,461.7771479163334,461.7935087080002,461.7935087080002,461.7935087080002,461.7771479163334,461.7935087080002,461.7935087080002,466.9364870830002,461.7935087080002,466.9364870830002,467.0021565000002,467.6342783330001,461.7935087080002,2,1,0.8558842919999279,reldom2_s015,001,2025-02-14_14h21.39.859,Vis-B-Scan_AC,2022.2.5,None,
40,First_Order,7.0,viswhat,stimulus/viswhat_stim/blank_white.png,stimulus/viswhat_stim/blank_white.png,stimulus/viswhat_stim/land_vehicle-truck.png,stimulus/viswhat_stim/land_animal-fox.png,stimulus/viswhat_stim/blank_white.png,stimulus/viswhat_stim/location_box.png,stimulus/viswhat_stim/location_yes.png,stimulus/viswhat_stim/location_no.png,None,Location,None,Location,1,0.0,0,5.125,0,5.125,0,5.125,0,0.0,0.625,0,0.0,0,0.0,1,0.5,1,2.125,0,0,0,0,0,0,0,0,0,,,,,0,52,52,52,,,,,,,,,467.8749008750001,467.8749008750001,467.8749008750001,467.8749008750001,467.8749008750001,467.8749008750001,467.8749008750001,467.8749008750001,467.8430932080001,467.8749008750001,467.8749008750001,467.8749008750001,467.8430932080001,467.8749008750001,467.8749008750001,467.8749008750001,469.97784745800004,474.02451495800005,467.8749008750001,467.8749008750001,473.0014301660001,468.342019208,469.3484772080001,469.97784745800004,470.98715237500005,467.8749008750001,467.8749008750001,467.8597598746668,467.8749008750001,467.8749008750001,467.8749008750001,467.8597598746668,467.8749008750001,467.8749008750001,473.0014301660001,467.8749008750001,473.0014301660001,473.0905630000002,473.7292089580001,467.8749008750001,1,1,1.1634368330001053,reldom2_s015,001,2025-02-14_14h21.39.859,Vis-B-Scan_AC,2022.2.5,None,
0,0.0,None,fixation,stimulus/viswhere_stim/blank_white.png,stimulus/viswhere_stim/blank_white.png,stimulus/viswhat_stim/blank_white.png,stimulus/viswhat_stim/blank_white.png,stimulus/viswhere_stim/blank_white.png,stimulus/viswhere_stim/blank_white.png,stimulus/viswhere_stim/blank_white.png,stimulus/viswhere_stim/blank_white.png,0.0,0.0,0.0,0.0,0,0.0,0,0.0,0,0.0,0,0.0,0,0.0,0.0,0,0.0,0,0.0,0,0.0,0,0.0,0,0,0,0,0,0,0,0,8,,,,,0,53,53,53,,,,,,,,,474.02451495800005,474.02451495800005,474.02451495800005,474.02451495800005,474.02451495800005,474.02451495800005,474.02451495800005,474.02451495800005,473.9177121243334,474.02451495800005,474.02451495800005,474.02451495800005,473.9177121243334,474.02451495800005,474.02451495800005,474.02451495800005,474.02451495800005,474.02451495800005,474.02451495800005,474.02451495800005,474.02451495800005,474.02451495800005,474.02451495800005,474.02451495800005,474.02451495800005,474.02451495800005,474.02451495800005,473.98437879100004,474.02451495800005,474.02451495800005,474.02451495800005,473.98437879100004,474.02451495800005,474.02451495800005,474.02451495800005,474.02451495800005,474.02451495800005,479.233307125,479.233307125,482.148984958,None,0,,reldom2_s015,001,2025-02-14_14h21.39.859,Vis-B-Scan_AC,2022.2.5,None,
41,Second_Order,7.0,viswhat,stimulus/viswhat_stim/water_animal-whale (1).png,stimulus/viswhat_stim/water_vehicle-canoe(1).png,stimulus/viswhat_stim/land_animal-tiger.png,stimulus/viswhat_stim/land_vehicle-train.png,stimulus/viswhere_stim/match_blank.png,stimulus/viswhere_stim/match_box.png,stimulus/viswhere_stim/match_yes.png,stimulus/viswhere_stim/match_no.png,1.0,Match,Location,Location,1,5.125,0,5.125,0,5.125,0,5.125,0,0.75,0.75,1,0.5,1,2.125,1,0.5,1,2.125,0,0,0,0,0,0,0,0,0,,,,,0,54,54,54,,,,,,,,,482.148984958,487.2734183750001,482.62496087500017,483.61342775,484.24942150000015,485.24746475000006,482.148984958,482.148984958,482.1554332083334,482.148984958,482.148984958,482.148984958,482.1554332083334,482.148984958,487.2734183750001,488.1003440830002,490.17785037500016,494.07441970800005,488.1003440830002,488.1003440830002,493.265895708,488.5366667080002,489.57442329100013,490.17785037500016,491.22345725000014,488.1003440830002,488.1003440830002,488.07440712466683,488.1003440830002,488.1003440830002,488.1003440830002,488.07440712466683,488.1003440830002,488.1003440830002,493.265895708,488.1003440830002,493.265895708,493.29415062500016,,488.1003440830002,1,1,0.8946381669998118,reldom2_s015,001,2025-02-14_14h21.39.859,Vis-B-Scan_AC,2022.2.5,None,
42,Second_Order,7.0,viswhat,stimulus/viswhat_stim/land_vehicle-buldozer.png,stimulus/viswhat_stim/water_vehicle-jetski.png,stimulus/viswhat_stim/water_animal-whale.png,stimulus/viswhat_stim/land_animal-fox.png,stimulus/viswhere_stim/match_blank.png,stimulus/viswhere_stim/match_box.png,stimulus/viswhere_stim/match_yes.png,stimulus/viswhere_stim/match_no.png,1.0,Match,Type,Type,1,5.125,0,5.125,0,5.125,0,5.125,0,0.625,0.625,1,0.5,1,2.125,1,0.5,1,2.125,0,0,0,0,0,0,0,0,0,,,,,0,55,55,55,,,,,,,,,494.07441970800005,499.1962634580002,494.53941350000014,495.537669583,496.159735125,497.1583383750001,494.07441970800005,494.07441970800005,494.0741087083334,494.07441970800005,494.07441970800005,494.07441970800005,494.0741087083334,494.07441970800005,499.1962634580002,499.890082333,501.9585842910001,506.014725708,499.890082333,499.890082333,505.03102308300004,500.33673154100006,501.3590948330002,501.9585842910001,502.9859738330001,499.890082333,499.890082333,499.8643794580001,499.890082333,499.890082333,499.890082333,499.8643794580001,499.890082333,499.890082333,505.03102308300004,499.890082333,505.03102308300004,505.0724801660001,505.713712708,499.890082333,1,1,0.7838250840000001,reldom2_s015,001,2025-02-14_14h21.39.859,Vis-B-Scan_AC,2022.2.5,None,
0,0.0,None,fixation,stimulus/viswhere_stim/blank_white.png,stimulus/viswhere_stim/blank_white.png,stimulus/viswhat_stim/blank_white.png,stimulus/viswhat_stim/blank_white.png,stimulus/viswhere_stim/blank_white.png,stimulus/viswhere_stim/blank_white.png,stimulus/viswhere_stim/blank_white.png,stimulus/viswhere_stim/blank_white.png,0.0,0.0,0.0,0.0,0,0.0,0,0.0,0,0.0,0,0.0,0,0.0,0.0,0,0.0,0,0.0,0,0.0,0,0.0,0,0,0,0,0,0,0,0,9,,,,,0,56,56,56,,,,,,,,,506.014725708,506.014725708,506.014725708,506.014725708,506.014725708,506.014725708,506.014725708,506.014725708,505.9163165830001,506.014725708,506.014725708,506.014725708,505.9163165830001,506.014725708,506.014725708,506.014725708,506.014725708,506.014725708,506.014725708,506.014725708,506.014725708,506.014725708,506.014725708,506.014725708,506.014725708,506.014725708,506.014725708,505.9663165830001,506.014725708,506.014725708,506.014725708,505.9663165830001,506.014725708,506.014725708,506.014725708,506.014725708,506.014725708,511.2369989160002,511.2369989160002,515.2337683330002,None,0,,reldom2_s015,001,2025-02-14_14h21.39.859,Vis-B-Scan_AC,2022.2.5,None,
43,First_Order,8.0,viswhat,stimulus/viswhat_stim/blank_white.png,stimulus/viswhat_stim/blank_white.png,stimulus/viswhat_stim/land_animal-fox.png,stimulus/viswhat_stim/land_vehicle-motorcycle.png,stimulus/viswhat_stim/blank_white.png,stimulus/viswhat_stim/type_box.png,stimulus/viswhat_stim/type_yes.png,stimulus/viswhat_stim/type_no.png,None,Type,None,Location,2,0.0,0,5.125,0,5.125,0,5.125,0,0.0,0.625,0,0.0,0,0.0,1,0.5,1,2.125,0,0,0,0,0,0,0,0,0,,,,,0,57,57,57,,,,,,,,,515.2337683330002,515.2337683330002,515.2337683330002,515.2337683330002,515.2337683330002,515.2337683330002,515.2337683330002,515.2337683330002,515.1907193326668,515.2337683330002,515.2337683330002,515.2337683330002,515.1907193326668,515.2337683330002,515.2337683330002,515.2337683330002,517.3221171250002,521.3156658330001,515.2337683330002,515.2337683330002,520.378471041,515.7189869160002,516.7471510830001,517.3221171250002,518.3537345000002,515.2337683330002,515.2337683330002,515.2073859993335,515.2337683330002,515.2337683330002,515.2337683330002,515.2073859993335,515.2337683330002,515.2337683330002,520.378471041,515.2337683330002,520.378471041,520.4525767500002,521.1057693750001,515.2337683330002,2,1,2.6091950830000314,reldom2_s015,001,2025-02-14_14h21.39.859,Vis-B-Scan_AC,2022.2.5,None,
44,First_Order,8.0,viswhat,stimulus/viswhat_stim/blank_white.png,stimulus/viswhat_stim/blank_white.png,stimulus/viswhat_stim/land_animal-pig.png,stimulus/viswhat_stim/land_vehicle-firetruck.png,stimulus/viswhat_stim/blank_white.png,stimulus/viswhat_stim/location_box.png,stimulus/viswhat_stim/location_yes.png,stimulus/viswhat_stim/location_no.png,None,Location,None,Location,1,0.0,0,5.125,0,5.125,0,5.125,0,0.0,0.625,0,0.0,0,0.0,1,0.5,1,2.125,0,0,0,0,0,0,0,0,0,,,,,0,58,58,58,,,,,,,,,521.3156658330001,521.3156658330001,521.3156658330001,521.3156658330001,521.3156658330001,521.3156658330001,521.3156658330001,521.3156658330001,521.2783673330001,521.3156658330001,521.3156658330001,521.3156658330001,521.2783673330001,521.3156658330001,521.3156658330001,521.3156658330001,523.4183685410001,527.4331698750002,521.3156658330001,521.3156658330001,526.4416618330001,521.781763833,522.7895228750001,523.4183685410001,524.4307593750002,521.3156658330001,521.3156658330001,521.2950339996668,521.3156658330001,521.3156658330001,521.3156658330001,521.2950339996668,521.3156658330001,521.3156658330001,526.4416618330001,521.3156658330001,526.4416618330001,526.532518791,527.1720332910002,521.3156658330001,1,1,0.6554342500000985,reldom2_s015,001,2025-02-14_14h21.39.859,Vis-B-Scan_AC,2022.2.5,None,
45,First_Order,8.0,viswhat,stimulus/viswhat_stim/blank_white.png,stimulus/viswhat_stim/blank_white.png,stimulus/viswhat_stim/land_vehicle-trolley.png,stimulus/viswhat_stim/water_vehicle-sailboat.png,stimulus/viswhat_stim/blank_white.png,stimulus/viswhat_stim/type_box.png,stimulus/viswhat_stim/type_yes.png,stimulus/viswhat_stim/type_no.png,None,Type,None,Type,1,0.0,0,5.125,0,5.125,0,5.125,0,0.0,0.625,0,0.0,0,0.0,1,0.5,1,2.125,0,0,0,0,0,0,0,0,0,,,,,0,59,59,59,,,,,,,,,527.4331698750002,527.4331698750002,527.4331698750002,527.4331698750002,527.4331698750002,527.4331698750002,527.4331698750002,527.4331698750002,527.3433294163334,527.4331698750002,527.4331698750002,527.4331698750002,527.3433294163334,527.4331698750002,527.4331698750002,527.4331698750002,529.5253123330001,,527.4331698750002,527.4331698750002,532.5940023750002,527.9200740000001,528.9913495410001,529.5253123330001,530.6004074580001,527.4331698750002,527.4331698750002,527.3933294163334,527.4331698750002,527.4331698750002,527.4331698750002,527.3933294163334,527.4331698750002,527.4331698750002,532.5940023750002,527.4331698750002,532.5940023750002,532.637019,533.3234031250001,527.4331698750002,1,1,1.7302205830001185,reldom2_s015,001,2025-02-14_14h21.39.859,Vis-B-Scan_AC,2022.2.5,None,
46,First_Order,8.0,viswhat,stimulus/viswhat_stim/blank_white.png,stimulus/viswhat_stim/blank_white.png,stimulus/viswhat_stim/water_vehicle-canoe(1).png,stimulus/viswhat_stim/land_vehicle-truck.png,stimulus/viswhat_stim/blank_white.png,stimulus/viswhat_stim/type_box.png,stimulus/viswhat_stim/type_yes.png,stimulus/viswhat_stim/type_no.png,None,Type,None,Type,1,0.0,0,5.125,0,5.125,0,5.125,0,0.0,0.625,0,0.0,0,0.0,1,0.5,1,2.125,0,0,0,0,0,0,0,0,0,,,,,0,60,60,60,,,,,,,,,533.4924399580002,533.4924399580002,533.4924399580002,533.4924399580002,533.4924399580002,533.4924399580002,533.4924399580002,533.4924399580002,533.4567364583335,533.4924399580002,533.4924399580002,533.4924399580002,533.4567364583335,533.4924399580002,533.4924399580002,533.4924399580002,535.6009508330001,539.6279789160001,533.4924399580002,533.4924399580002,538.6313292080001,533.969445166,534.9936408750002,535.6009508330001,536.6091210830002,533.4924399580002,533.4924399580002,533.4734031250001,533.4924399580002,533.4924399580002,533.4924399580002,533.4734031250001,533.4924399580002,533.4924399580002,538.6313292080001,533.4924399580002,538.6313292080001,538.7124597500001,539.3404270000001,533.4924399580002,1,1,0.9930942500000128,reldom2_s015,001,2025-02-14_14h21.39.859,Vis-B-Scan_AC,2022.2.5,None,
0,0.0,None,fixation,stimulus/viswhere_stim/blank_white.png,stimulus/viswhere_stim/blank_white.png,stimulus/viswhat_stim/blank_white.png,stimulus/viswhat_stim/blank_white.png,stimulus/viswhere_stim/blank_white.png,stimulus/viswhere_stim/blank_white.png,stimulus/viswhere_stim/blank_white.png,stimulus/viswhere_stim/blank_white.png,0.0,0.0,0.0,0.0,0,0.0,0,0.0,0,0.0,0,0.0,0,0.0,0.0,0,0.0,0,0.0,0,0.0,0,0.0,0,0,0,0,0,0,0,0,9,,,,,0,61,61,61,,,,,,,,,539.6279789160001,539.6279789160001,539.6279789160001,539.6279789160001,539.6279789160001,539.6279789160001,539.6279789160001,539.6279789160001,539.5237615413336,539.6279789160001,539.6279789160001,539.6279789160001,539.5237615413336,539.6279789160001,539.6279789160001,539.6279789160001,539.6279789160001,539.6279789160001,539.6279789160001,539.6279789160001,539.6279789160001,539.6279789160001,539.6279789160001,539.6279789160001,539.6279789160001,539.6279789160001,539.6279789160001,539.5904282080002,539.6279789160001,539.6279789160001,539.6279789160001,539.5904282080002,539.6279789160001,539.6279789160001,539.6279789160001,539.6279789160001,539.6279789160001,544.8253266250001,544.8253266250001,548.7582194580002,None,0,,reldom2_s015,001,2025-02-14_14h21.39.859,Vis-B-Scan_AC,2022.2.5,None,
47,Second_Order,8.0,viswhat,stimulus/viswhat_stim/water_animal-seaturtle.png,stimulus/viswhat_stim/water_vehicle-kayak.png,stimulus/viswhat_stim/water_vehicle-motorboatraft.png,stimulus/viswhat_stim/land_vehicle-tank.png,stimulus/viswhere_stim/match_blank.png,stimulus/viswhere_stim/match_box.png,stimulus/viswhere_stim/match_yes.png,stimulus/viswhere_stim/match_no.png,2.0,Match,Location,Type,2,5.125,0,5.125,0,5.125,0,5.125,0,0.75,0.75,1,0.5,1,2.125,1,0.5,1,2.125,0,0,0,0,0,0,0,0,0,,,,,0,62,62,62,,,,,,,,,548.7582194580002,553.8767112500002,549.2285677080001,550.2179853750001,550.853525833,551.8512256250001,548.7582194580002,548.7582194580002,548.7613547913335,548.7582194580002,548.7582194580002,548.7582194580002,548.7613547913335,548.7582194580002,553.8767112500002,554.674756458,556.7448443750002,560.644064458,554.674756458,554.674756458,559.8022829580002,555.129176375,556.132586833,556.7448443750002,557.7512286660001,554.674756458,554.674756458,554.6615878330001,554.674756458,554.674756458,554.674756458,554.6615878330001,554.674756458,554.674756458,559.8022829580002,554.674756458,559.8022829580002,559.8621425830001,560.644064458,554.674756458,1,0,2.040160042000025,reldom2_s015,001,2025-02-14_14h21.39.859,Vis-B-Scan_AC,2022.2.5,None,
48,Second_Order,8.0,viswhat,stimulus/viswhat_stim/land_vehicle-rv.png,stimulus/viswhat_stim/water_vehicle-cargoboat.png,stimulus/viswhat_stim/water_animal-squid.png,stimulus/viswhat_stim/land_animal-dog.png,stimulus/viswhere_stim/match_blank.png,stimulus/viswhere_stim/match_box.png,stimulus/viswhere_stim/match_yes.png,stimulus/viswhere_stim/match_no.png,1.0,Match,Type,Type,1,5.125,0,5.125,0,5.125,0,5.125,0,0.625,0.625,1,0.5,1,2.125,1,0.5,1,2.125,0,0,0,0,0,0,0,0,0,,,,,0,63,63,63,,,,,,,,,560.644064458,565.7669862910002,561.122620458,562.1115273330001,562.7487047080001,563.7455520000001,560.644064458,560.644064458,560.6486884160001,560.644064458,560.644064458,560.644064458,560.6486884160001,560.644064458,565.7669862910002,566.4723845410001,568.5517347500002,,566.4723845410001,566.4723845410001,571.6300525000001,566.9068530830002,567.9298947910002,568.5517347500002,569.5800678750002,566.4723845410001,566.4723845410001,566.4349077910001,566.4723845410001,566.4723845410001,566.4723845410001,566.4349077910001,566.4723845410001,566.4723845410001,571.6300525000001,566.4723845410001,571.6300525000001,571.655761708,572.2892998750001,566.4723845410001,1,1,2.1026286250000794,reldom2_s015,001,2025-02-14_14h21.39.859,Vis-B-Scan_AC,2022.2.5,None,
0,0.0,None,fixation,stimulus/viswhere_stim/blank_white.png,stimulus/viswhere_stim/blank_white.png,stimulus/viswhat_stim/blank_white.png,stimulus/viswhat_stim/blank_white.png,stimulus/viswhere_stim/blank_white.png,stimulus/viswhere_stim/blank_white.png,stimulus/viswhere_stim/blank_white.png,stimulus/viswhere_stim/blank_white.png,0.0,0.0,0.0,0.0,0,0.0,0,0.0,0,0.0,0,0.0,0,0.0,0.0,0,0.0,0,0.0,0,0.0,0,0.0,0,0,0,0,0,0,0,0,16,,,,,0,64,64,64,,,,,,,,,572.5751285830002,572.5751285830002,572.5751285830002,572.5751285830002,572.5751285830002,572.5751285830002,572.5751285830002,572.5751285830002,572.4825313326668,572.5751285830002,572.5751285830002,572.5751285830002,572.4825313326668,572.5751285830002,572.5751285830002,572.5751285830002,572.5751285830002,572.5751285830002,572.5751285830002,572.5751285830002,572.5751285830002,572.5751285830002,572.5751285830002,572.5751285830002,572.5751285830002,572.5751285830002,572.5751285830002,572.5325313326667,572.5751285830002,572.5751285830002,572.5751285830002,572.5325313326667,572.5751285830002,572.5751285830002,572.5751285830002,572.5751285830002,572.5751285830002,577.7962978330002,577.7962978330002,588.7107861660002,None,0,,reldom2_s015,001,2025-02-14_14h21.39.859,Vis-B-Scan_AC,2022.2.5,None,
