Trial,Order,Block,Type,Stimuli_File1,Stimuli_File2,Stimuli_File3,Stimuli_File4,Cue_File1,Cue_File2,Response_File_Yes,Response_File_No,Match,Cue_Dimension,Pair1_Dimension,Pair2_Dimension,Key,Cue1_Duration,Cue1_Onset,Cue2_Duration,Cue2_Onset,ResponseYes_Duration,ResponseYes_Onset,ResponseNo_Duration,ResponseNo_Onset,ITI_Within,ITI_Between,Image1_Duration,Image1_Onset,Image2_Duration,Image2_Onset,Image3_Duration,Image3_Onset,Image4_Duration,Image4_Onset,Sound1_Duration,Sound1_Onset,Sound2_Duration,Sound2_Onset,Sound3_Duration,Sound3_Onset,Sound4_Duration,Sound4_Onset,Fixation_Duration,trials_2.thisRepN,trials_2.thisTrialN,trials_2.thisN,trials_2.thisIndex,trials.thisRepN,trials.thisTrialN,trials.thisN,trials.thisIndex,text_start.started,key_resp_start.started,key_resp_start.keys,key_resp_start.rt,text2.started,key_resp_2.started,key_resp_2.keys,key_resp_2.rt,cue_file1.started,cue_file1.stopped,image_1.started,image_1.stopped,image_2.started,image_2.stopped,sound_icon1.started,sound_icon1.stopped,sound_1.started,sound_1.stopped,sound_icon2.started,sound_icon2.stopped,sound_2.started,sound_2.stopped,image_blank_1.started,image_blank_1.stopped,key_press.started,key_press.stopped,fixation_text.started,cue_file2.started,cue_file2.stopped,image_3.started,image_3.stopped,image_4.started,image_4.stopped,sound_icon3.started,sound_icon3.stopped,sound_3.started,sound_3.stopped,sound_icon4.started,sound_icon4.stopped,sound_4.started,sound_4.stopped,response_yes.started,response_yes.stopped,response_no.started,response_no.stopped,iti_blank.started,iti_blank.stopped,fixation_text.stopped,key_press.keys,key_press.corr,key_press.rt,participant,session,date,expName,psychopyVersion,frameRate,
,,,,,,,,,,,,,,,,,,,,,,,,,,,,,,,,,,,,,,,,,,,,,,,,,,,,10.941764375000275,10.941764375000275,2,1.1569855000002462,,,,,,,,,,,,,,,,,,,,,,,,,,,,,,,,,,,,,,,,,,,,,,,,reldom2_s015,001,2025-02-14_14h44.41.532,Where-B-Scan_AC,2022.2.5,None,
,,,,,,,,,,,,,,,,,,,,,,,,,,,,,,,,,,,,,,,,,,,,0,0,0,0,,,,,,,,,12.140759124999931,12.140759124999931,5,17.742761458000132,,,,,,,,,,,,,,,,,,,,,,,,,,,,,,,,,,,,,,,,,,,,reldom2_s015,001,2025-02-14_14h44.41.532,Where-B-Scan_AC,2022.2.5,None,
,,,,,,,,,,,,,,,,,,,,,,,,,,,,,,,,,,,,,,,,,,,,1,0,1,0,,,,,,,,,29.89803562499992,29.89803562499992,5,1.9833845830003156,,,,,,,,,,,,,,,,,,,,,,,,,,,,,,,,,,,,,,,,,,,,reldom2_s015,001,2025-02-14_14h44.41.532,Where-B-Scan_AC,2022.2.5,None,
,,,,,,,,,,,,,,,,,,,,,,,,,,,,,,,,,,,,,,,,,,,,2,0,2,0,,,,,,,,,31.901741250000214,31.901741250000214,5,1.977676750000228,,,,,,,,,,,,,,,,,,,,,,,,,,,,,,,,,,,,,,,,,,,,reldom2_s015,001,2025-02-14_14h44.41.532,Where-B-Scan_AC,2022.2.5,None,
,,,,,,,,,,,,,,,,,,,,,,,,,,,,,,,,,,,,,,,,,,,,3,0,3,0,,,,,,,,,33.89897574999986,33.89897574999986,5,1.981498417000239,,,,,,,,,,,,,,,,,,,,,,,,,,,,,,,,,,,,,,,,,,,,reldom2_s015,001,2025-02-14_14h44.41.532,Where-B-Scan_AC,2022.2.5,None,
0,0.0,None,fixation,stimulus/audwhere_stim/blank_white.png,stimulus/audwhere_stim/blank_white.png,stimulus/viswhere_stim/blank_white.png,stimulus/viswhere_stim/blank_white.png,stimulus/audwhere_stim/blank_white.png,stimulus/audwhere_stim/blank_white.png,stimulus/audwhere_stim/blank_white.png,stimulus/audwhere_stim/blank_white.png,0.0,0.0,0.0,0.0,0,0.0,0,0.0,0,0.0,0,0.0,0,0.0,0.0,0,0.0,0,0.0,0,0.0,0,0.0,0,0.0,0,0.0,0,0.0,0,0.0,16,,,,,0,0,0,0,,,,,,,,,36.097646582999914,36.097646582999914,36.097646582999914,36.097646582999914,36.097646582999914,36.097646582999914,36.097646582999914,36.097646582999914,35.99907079166666,36.097646582999914,36.097646582999914,36.097646582999914,35.99907079166666,36.097646582999914,36.097646582999914,36.097646582999914,36.097646582999914,36.097646582999914,36.097646582999914,36.097646582999914,36.097646582999914,36.097646582999914,36.097646582999914,36.097646582999914,36.097646582999914,36.097646582999914,36.097646582999914,36.04907079166666,36.097646582999914,36.097646582999914,36.097646582999914,36.04907079166666,36.097646582999914,36.097646582999914,36.097646582999914,36.097646582999914,36.097646582999914,41.272334540999964,41.272334540999964,52.33363245800001,None,0,,reldom2_s015,001,2025-02-14_14h44.41.532,Where-B-Scan_AC,2022.2.5,None,
1,First_Order,1.0,audwhere,stimulus/audwhere_stim/dummy.wav,stimulus/audwhere_stim/dummy.wav,stimulus/audwhere_stim/right_away_290h.wav,stimulus/audwhere_stim/right_toward_300h.wav,stimulus/audwhere_stim/blank_white.png,stimulus/audwhere_stim/direction_box.png,stimulus/audwhere_stim/direction_yes.png,stimulus/audwhere_stim/direction_no.png,None,Direction,None,Side,2,0.0,0,5.125,0,5.125,0,5.125,0,0.0,0.625,0,0.0,0,0.0,0,0.0,0,0.0,0,0.0,0,0.0,1,0.5,1,2.125,0,,,,,0,1,1,1,,,,,,,,,52.33363245800001,52.33363245800001,52.33363245800001,52.33363245800001,52.33363245800001,52.33363245800001,52.33363245800001,52.33363245800001,52.262933082999915,52.33363245800001,52.33363245800001,52.33363245800001,52.262933082999915,52.33363245800001,52.33363245800001,52.33363245800001,54.42477224999993,58.44715649999989,52.33363245800001,52.33363245800001,57.513674750000064,52.33363245800001,52.33363245800001,52.33363245800001,52.33363245800001,52.78868933300009,53.832827582999926,52.759619374666514,,54.42477224999993,55.47342537500026,54.395674166666836,,52.33363245800001,57.513674750000064,52.33363245800001,57.513674750000064,57.55381787500028,58.236028540999996,52.33363245800001,2,1,1.279236167000363,reldom2_s015,001,2025-02-14_14h44.41.532,Where-B-Scan_AC,2022.2.5,None,
2,First_Order,1.0,audwhere,stimulus/audwhere_stim/dummy.wav,stimulus/audwhere_stim/dummy.wav,stimulus/audwhere_stim/left_toward_290h.wav,stimulus/audwhere_stim/right_toward_280h.wav,stimulus/audwhere_stim/blank_white.png,stimulus/audwhere_stim/side_box.png,stimulus/audwhere_stim/side_yes.png,stimulus/audwhere_stim/side_no.png,None,Side,None,Direction,2,0.0,0,5.125,0,5.125,0,5.125,0,0.0,0.625,0,0.0,0,0.0,0,0.0,0,0.0,0,0.0,0,0.0,1,0.5,1,2.125,0,,,,,0,2,2,2,,,,,,,,,58.44715649999989,58.44715649999989,58.44715649999989,58.44715649999989,58.44715649999989,58.44715649999989,58.44715649999989,58.44715649999989,58.36936187433333,58.44715649999989,58.44715649999989,58.44715649999989,58.36936187433333,58.44715649999989,58.44715649999989,58.44715649999989,60.54115200000024,64.57457462499997,58.44715649999989,58.44715649999989,63.63926233300026,58.44715649999989,58.44715649999989,58.44715649999989,58.44715649999989,58.902146708000146,59.951167833,58.87305733266682,59.9052422499999,60.54115200000024,61.5900825409999,60.512597749666625,,58.44715649999989,63.63926233300026,58.44715649999989,63.63926233300026,63.63926233300026,64.32217654099986,58.44715649999989,2,1,1.0282247919999463,reldom2_s015,001,2025-02-14_14h44.41.532,Where-B-Scan_AC,2022.2.5,None,
3,First_Order,1.0,audwhere,stimulus/audwhere_stim/dummy.wav,stimulus/audwhere_stim/dummy.wav,stimulus/audwhere_stim/right_toward_280h.wav,stimulus/audwhere_stim/right_away_300h.wav,stimulus/audwhere_stim/blank_white.png,stimulus/audwhere_stim/direction_box.png,stimulus/audwhere_stim/direction_yes.png,stimulus/audwhere_stim/direction_no.png,None,Direction,None,Side,2,0.0,0,5.125,0,5.125,0,5.125,0,0.0,0.625,0,0.0,0,0.0,0,0.0,0,0.0,0,0.0,0,0.0,1,0.5,1,2.125,0,,,,,0,3,3,3,,,,,,,,,64.57457462499997,64.57457462499997,64.57457462499997,64.57457462499997,64.57457462499997,64.57457462499997,64.57457462499997,64.57457462499997,64.49587316633335,64.57457462499997,64.57457462499997,64.57457462499997,64.49587316633335,64.57457462499997,64.57457462499997,64.57457462499997,66.64535295799988,,64.57457462499997,64.57457462499997,69.73424999999997,64.57457462499997,64.57457462499997,64.57457462499997,64.57457462499997,65.03513987499991,66.09298183300007,65.0055108326667,,66.64535295799988,67.70423075000008,66.61601470766688,,64.57457462499997,69.73424999999997,64.57457462499997,69.73424999999997,69.77496208299999,70.4619898750002,64.57457462499997,2,1,1.4892904590001308,reldom2_s015,001,2025-02-14_14h44.41.532,Where-B-Scan_AC,2022.2.5,None,
4,First_Order,1.0,audwhere,stimulus/audwhere_stim/dummy.wav,stimulus/audwhere_stim/dummy.wav,stimulus/audwhere_stim/left_toward_270h.wav,stimulus/audwhere_stim/right_toward_300h.wav,stimulus/audwhere_stim/blank_white.png,stimulus/audwhere_stim/direction_box.png,stimulus/audwhere_stim/direction_yes.png,stimulus/audwhere_stim/direction_no.png,None,Direction,None,Direction,1,0.0,0,5.125,0,5.125,0,5.125,0,0.0,0.625,0,0.0,0,0.0,0,0.0,0,0.0,0,0.0,0,0.0,1,0.5,1,2.125,0,,,,,0,4,4,4,,,,,,,,,70.67286458299986,70.67286458299986,70.67286458299986,70.67286458299986,70.67286458299986,70.67286458299986,70.67286458299986,70.67286458299986,70.59532320833353,70.67286458299986,70.67286458299986,70.67286458299986,70.59532320833353,70.67286458299986,70.67286458299986,70.67286458299986,72.74537499999997,,70.67286458299986,70.67286458299986,75.83884641600025,70.67286458299986,70.67286458299986,70.67286458299986,70.67286458299986,71.13335854100023,72.19205308300025,71.10388716666672,,72.74537499999997,73.8084819579999,72.71575887466658,,70.67286458299986,75.83884641600025,70.67286458299986,75.83884641600025,75.87879929100018,76.52800958299986,70.67286458299986,1,1,1.5449255839998841,reldom2_s015,001,2025-02-14_14h44.41.532,Where-B-Scan_AC,2022.2.5,None,
0,0.0,None,fixation,stimulus/audwhere_stim/blank_white.png,stimulus/audwhere_stim/blank_white.png,stimulus/viswhere_stim/blank_white.png,stimulus/viswhere_stim/blank_white.png,stimulus/audwhere_stim/blank_white.png,stimulus/audwhere_stim/blank_white.png,stimulus/audwhere_stim/blank_white.png,stimulus/audwhere_stim/blank_white.png,0.0,0.0,0.0,0.0,0,0.0,0,0.0,0,0.0,0,0.0,0,0.0,0.0,0,0.0,0,0.0,0,0.0,0,0.0,0,0.0,0,0.0,0,0.0,0,0.0,10,,,,,0,5,5,5,,,,,,,,,76.80055845800007,76.80055845800007,76.80055845800007,76.80055845800007,76.80055845800007,76.80055845800007,76.80055845800007,76.80055845800007,76.70214712433346,76.80055845800007,76.80055845800007,76.80055845800007,76.70214712433346,76.80055845800007,76.80055845800007,76.80055845800007,76.80055845800007,76.80055845800007,76.80055845800007,76.80055845800007,76.80055845800007,76.80055845800007,76.80055845800007,76.80055845800007,76.80055845800007,76.80055845800007,76.80055845800007,76.75214712433348,76.80055845800007,76.80055845800007,76.80055845800007,76.75214712433348,76.80055845800007,76.80055845800007,76.80055845800007,76.80055845800007,76.80055845800007,81.99869799999988,81.99869799999988,86.97441579099996,None,0,,reldom2_s015,001,2025-02-14_14h44.41.532,Where-B-Scan_AC,2022.2.5,None,
5,Second_Order,1.0,audwhere,stimulus/audwhere_stim/right_toward_300h.wav,stimulus/audwhere_stim/left_toward_280h.wav,stimulus/audwhere_stim/right_toward_280h.wav,stimulus/audwhere_stim/right_away_280h.wav,stimulus/audwhere_stim/match_blank.png,stimulus/audwhere_stim/match_box.png,stimulus/audwhere_stim/match_yes.png,stimulus/audwhere_stim/match_no.png,2.0,Match,Direction,Side,2,5.125,0,5.125,0,5.125,0,5.125,0,0.75,0.75,0,0.0,0,0.0,0,0.0,0,0.0,1,0.5,1,2.125,1,0.5,1,2.125,0,,,,,0,6,6,6,,,,,,,,,86.97441579099996,92.0981320410001,86.97441579099996,86.97441579099996,86.97441579099996,86.97441579099996,87.43068549999998,88.42074466600025,87.4343916246669,88.42074466600025,89.05588545799992,90.05391041600024,89.06821466666658,,92.0981320410001,92.96268820800015,95.01679450000029,,92.96268820800015,92.96268820800015,98.1372700830002,92.96268820800015,92.96268820800015,92.96268820800015,92.96268820800015,93.41691445800006,94.46617995799988,93.3880197496667,,95.01679450000029,96.0735548749999,94.98729824966655,,92.96268820800015,98.1372700830002,92.96268820800015,98.1372700830002,98.1372700830002,,92.96268820800015,2,1,1.2597947499998554,reldom2_s015,001,2025-02-14_14h44.41.532,Where-B-Scan_AC,2022.2.5,None,
6,Second_Order,1.0,audwhere,stimulus/audwhere_stim/right_toward_270h.wav,stimulus/audwhere_stim/right_away_290h.wav,stimulus/audwhere_stim/left_toward_300h.wav,stimulus/audwhere_stim/left_away_290h.wav,stimulus/audwhere_stim/match_blank.png,stimulus/audwhere_stim/match_box.png,stimulus/audwhere_stim/match_yes.png,stimulus/audwhere_stim/match_no.png,1.0,Match,Side,Side,1,5.125,0,5.125,0,5.125,0,5.125,0,0.625,0.625,0,0.0,0,0.0,0,0.0,0,0.0,1,0.5,1,2.125,1,0.5,1,2.125,0,,,,,0,7,7,7,,,,,,,,,98.93995570800007,104.05843458300023,98.93995570800007,98.93995570800007,98.93995570800007,98.93995570800007,99.39604783300001,100.39453675000004,99.40858133266671,,101.0174077910001,102.01450070800001,101.02942324966695,102.0177170410002,104.05843458300023,104.78734725000004,106.83049470800006,110.88950058299997,104.78734725000004,104.78734725000004,109.93557687500015,104.78734725000004,104.78734725000004,104.78734725000004,104.78734725000004,105.23929483300026,106.28449579100015,105.2105534576665,,106.83049470800006,107.8800047499999,106.80131237466664,,104.78734725000004,109.93557687500015,104.78734725000004,109.93557687500015,109.97603229100014,110.65863991600008,104.78734725000004,1,1,1.40475483299997,reldom2_s015,001,2025-02-14_14h44.41.532,Where-B-Scan_AC,2022.2.5,None,
0,0.0,None,fixation,stimulus/audwhere_stim/blank_white.png,stimulus/audwhere_stim/blank_white.png,stimulus/viswhere_stim/blank_white.png,stimulus/viswhere_stim/blank_white.png,stimulus/audwhere_stim/blank_white.png,stimulus/audwhere_stim/blank_white.png,stimulus/audwhere_stim/blank_white.png,stimulus/audwhere_stim/blank_white.png,0.0,0.0,0.0,0.0,0,0.0,0,0.0,0,0.0,0,0.0,0,0.0,0.0,0,0.0,0,0.0,0,0.0,0,0.0,0,0.0,0,0.0,0,0.0,0,0.0,9,,,,,0,8,8,8,,,,,,,,,110.88950058299997,110.88950058299997,110.88950058299997,110.88950058299997,110.88950058299997,110.88950058299997,110.88950058299997,110.88950058299997,110.79197324933341,110.88950058299997,110.88950058299997,110.88950058299997,110.79197324933341,110.88950058299997,110.88950058299997,110.88950058299997,110.88950058299997,110.88950058299997,110.88950058299997,110.88950058299997,110.88950058299997,110.88950058299997,110.88950058299997,110.88950058299997,110.88950058299997,110.88950058299997,110.88950058299997,110.84197324933342,110.88950058299997,110.88950058299997,110.88950058299997,110.84197324933342,110.88950058299997,110.88950058299997,110.88950058299997,110.88950058299997,110.88950058299997,116.09934425000029,116.09934425000029,120.13550433299997,None,0,,reldom2_s015,001,2025-02-14_14h44.41.532,Where-B-Scan_AC,2022.2.5,None,
7,First_Order,2.0,audwhere,stimulus/audwhere_stim/dummy.wav,stimulus/audwhere_stim/dummy.wav,stimulus/audwhere_stim/left_toward_270h.wav,stimulus/audwhere_stim/right_toward_270h.wav,stimulus/audwhere_stim/blank_white.png,stimulus/audwhere_stim/direction_box.png,stimulus/audwhere_stim/direction_yes.png,stimulus/audwhere_stim/direction_no.png,None,Direction,None,Direction,1,0.0,0,5.125,0,5.125,0,5.125,0,0.0,0.625,0,0.0,0,0.0,0,0.0,0,0.0,0,0.0,0,0.0,1,0.5,1,2.125,0,,,,,0,9,9,9,,,,,,,,,120.13550433299997,120.13550433299997,120.13550433299997,120.13550433299997,120.13550433299997,120.13550433299997,120.13550433299997,120.13550433299997,120.06539824966664,120.13550433299997,120.13550433299997,120.13550433299997,120.06539824966664,120.13550433299997,120.13550433299997,120.13550433299997,122.21851599999991,,120.13550433299997,120.13550433299997,125.32912954099993,120.13550433299997,120.13550433299997,120.13550433299997,120.13550433299997,120.5971866660002,121.66020187499998,120.56747041666655,,122.21851599999991,123.28714587500008,122.18884595766691,,120.13550433299997,125.32912954099993,120.13550433299997,125.32912954099993,125.32912954099993,125.98137145800001,120.13550433299997,1,1,2.3696632910000517,reldom2_s015,001,2025-02-14_14h44.41.532,Where-B-Scan_AC,2022.2.5,None,
8,First_Order,2.0,audwhere,stimulus/audwhere_stim/dummy.wav,stimulus/audwhere_stim/dummy.wav,stimulus/audwhere_stim/left_toward_280h.wav,stimulus/audwhere_stim/right_toward_290h.wav,stimulus/audwhere_stim/blank_white.png,stimulus/audwhere_stim/side_box.png,stimulus/audwhere_stim/side_yes.png,stimulus/audwhere_stim/side_no.png,None,Side,None,Direction,2,0.0,0,5.125,0,5.125,0,5.125,0,0.0,0.625,0,0.0,0,0.0,0,0.0,0,0.0,0,0.0,0,0.0,1,0.5,1,2.125,0,,,,,0,10,10,10,,,,,,,,,126.23444787500011,126.23444787500011,126.23444787500011,126.23444787500011,126.23444787500011,126.23444787500011,126.23444787500011,126.23444787500011,126.15500712433334,126.23444787500011,126.23444787500011,126.23444787500011,126.15500712433334,126.23444787500011,126.23444787500011,126.23444787500011,128.3173972909999,,126.23444787500011,126.23444787500011,131.42111691599985,126.23444787500011,126.23444787500011,126.23444787500011,126.23444787500011,126.69751533299996,127.76096624999991,126.66769637466656,,128.3173972909999,129.38474229099984,128.28753141666655,,126.23444787500011,131.42111691599985,126.23444787500011,131.42111691599985,131.4620057080001,132.11434429100018,126.23444787500011,2,1,0.8536052910003491,reldom2_s015,001,2025-02-14_14h44.41.532,Where-B-Scan_AC,2022.2.5,None,
9,First_Order,2.0,audwhere,stimulus/audwhere_stim/dummy.wav,stimulus/audwhere_stim/dummy.wav,stimulus/audwhere_stim/left_away_270h.wav,stimulus/audwhere_stim/left_toward_290h.wav,stimulus/audwhere_stim/blank_white.png,stimulus/audwhere_stim/side_box.png,stimulus/audwhere_stim/side_yes.png,stimulus/audwhere_stim/side_no.png,None,Side,None,Side,1,0.0,0,5.125,0,5.125,0,5.125,0,0.0,0.625,0,0.0,0,0.0,0,0.0,0,0.0,0,0.0,0,0.0,1,0.5,1,2.125,0,,,,,0,11,11,11,,,,,,,,,132.32811220800022,132.32811220800022,132.32811220800022,132.32811220800022,132.32811220800022,132.32811220800022,132.32811220800022,132.32811220800022,132.24767762433353,132.32811220800022,132.32811220800022,132.32811220800022,132.24767762433353,132.32811220800022,132.32811220800022,132.32811220800022,134.40951200000018,138.45556883300014,132.32811220800022,132.32811220800022,137.50980170799994,132.32811220800022,132.32811220800022,132.32811220800022,132.32811220800022,132.791497875,133.85234108300028,132.7623574576667,,134.40951200000018,135.473370833,134.37968595766668,,132.32811220800022,137.50980170799994,132.32811220800022,137.50980170799994,137.55052979099992,138.20339129100012,132.32811220800022,1,1,2.2904474170004505,reldom2_s015,001,2025-02-14_14h44.41.532,Where-B-Scan_AC,2022.2.5,None,
10,First_Order,2.0,audwhere,stimulus/audwhere_stim/dummy.wav,stimulus/audwhere_stim/dummy.wav,stimulus/audwhere_stim/right_away_290h.wav,stimulus/audwhere_stim/right_toward_290h.wav,stimulus/audwhere_stim/blank_white.png,stimulus/audwhere_stim/side_box.png,stimulus/audwhere_stim/side_yes.png,stimulus/audwhere_stim/side_no.png,None,Side,None,Side,1,0.0,0,5.125,0,5.125,0,5.125,0,0.0,0.625,0,0.0,0,0.0,0,0.0,0,0.0,0,0.0,0,0.0,1,0.5,1,2.125,0,,,,,0,12,12,12,,,,,,,,,138.45556883300014,138.45556883300014,138.45556883300014,138.45556883300014,138.45556883300014,138.45556883300014,138.45556883300014,138.45556883300014,138.37717674933324,138.45556883300014,138.45556883300014,138.45556883300014,138.37717674933324,138.45556883300014,138.45556883300014,138.45556883300014,140.53938795800013,144.6061078749999,138.45556883300014,138.45556883300014,143.6383043750002,138.45556883300014,138.45556883300014,138.45556883300014,138.45556883300014,138.91817166600003,139.98509566600023,138.88831829166682,,140.53938795800013,141.60446708300015,140.50961199966676,,138.45556883300014,143.6383043750002,138.45556883300014,143.6383043750002,143.6792557910003,144.33351754100022,138.45556883300014,1,1,1.4186845829999584,reldom2_s015,001,2025-02-14_14h44.41.532,Where-B-Scan_AC,2022.2.5,None,
0,0.0,None,fixation,stimulus/audwhere_stim/blank_white.png,stimulus/audwhere_stim/blank_white.png,stimulus/viswhere_stim/blank_white.png,stimulus/viswhere_stim/blank_white.png,stimulus/audwhere_stim/blank_white.png,stimulus/audwhere_stim/blank_white.png,stimulus/audwhere_stim/blank_white.png,stimulus/audwhere_stim/blank_white.png,0.0,0.0,0.0,0.0,0,0.0,0,0.0,0,0.0,0,0.0,0,0.0,0.0,0,0.0,0,0.0,0,0.0,0,0.0,0,0.0,0,0.0,0,0.0,0,0.0,9,,,,,0,13,13,13,,,,,,,,,144.6061078749999,144.6061078749999,144.6061078749999,144.6061078749999,144.6061078749999,144.6061078749999,144.6061078749999,144.6061078749999,144.50685604133346,144.6061078749999,144.6061078749999,144.6061078749999,144.50685604133346,144.6061078749999,144.6061078749999,144.6061078749999,144.6061078749999,144.6061078749999,144.6061078749999,144.6061078749999,144.6061078749999,144.6061078749999,144.6061078749999,144.6061078749999,144.6061078749999,144.6061078749999,144.6061078749999,144.55685604133345,144.6061078749999,144.6061078749999,144.6061078749999,144.55685604133345,144.6061078749999,144.6061078749999,144.6061078749999,144.6061078749999,144.6061078749999,149.83181816600018,149.83181816600018,153.76055666599996,None,0,,reldom2_s015,001,2025-02-14_14h44.41.532,Where-B-Scan_AC,2022.2.5,None,
11,Second_Order,2.0,audwhere,stimulus/audwhere_stim/left_toward_280h.wav,stimulus/audwhere_stim/left_away_290h.wav,stimulus/audwhere_stim/left_away_290h.wav,stimulus/audwhere_stim/right_away_280h.wav,stimulus/audwhere_stim/match_blank.png,stimulus/audwhere_stim/match_box.png,stimulus/audwhere_stim/match_yes.png,stimulus/audwhere_stim/match_no.png,2.0,Match,Side,Direction,2,5.125,0,5.125,0,5.125,0,5.125,0,0.75,0.75,0,0.0,0,0.0,0,0.0,0,0.0,1,0.5,1,2.125,1,0.5,1,2.125,0,,,,,0,14,14,14,,,,,,,,,153.76055666599996,158.8843636659999,153.76055666599996,153.76055666599996,153.76055666599996,153.76055666599996,154.2184671250002,155.20896191600013,154.22167516666676,,155.84318933300028,156.84197787499988,155.8558576666667,,158.8843636659999,159.7309377910001,161.8027360000001,,159.7309377910001,159.7309377910001,164.90435037499992,159.7309377910001,159.7309377910001,159.7309377910001,159.7309377910001,160.19018074999985,161.2485132910001,160.16044145766662,,161.8027360000001,162.86808741599998,161.77257483266683,,159.7309377910001,164.90435037499992,159.7309377910001,164.90435037499992,164.90435037499992,,159.7309377910001,2,1,1.196868459000143,reldom2_s015,001,2025-02-14_14h44.41.532,Where-B-Scan_AC,2022.2.5,None,
12,Second_Order,2.0,audwhere,stimulus/audwhere_stim/left_away_270h.wav,stimulus/audwhere_stim/left_toward_280h.wav,stimulus/audwhere_stim/right_away_280h.wav,stimulus/audwhere_stim/right_toward_300h.wav,stimulus/audwhere_stim/match_blank.png,stimulus/audwhere_stim/match_box.png,stimulus/audwhere_stim/match_yes.png,stimulus/audwhere_stim/match_no.png,1.0,Match,Side,Side,1,5.125,0,5.125,0,5.125,0,5.125,0,0.625,0.625,0,0.0,0,0.0,0,0.0,0,0.0,1,0.5,1,2.125,1,0.5,1,2.125,0,,,,,0,15,15,15,,,,,,,,,165.7106745000001,170.82887591600002,165.7106745000001,165.7106745000001,165.7106745000001,165.7106745000001,166.16649658300003,167.16510304099984,166.1796618746669,,167.7890245409999,168.78558512500013,167.8004950416669,,170.82887591600002,171.56003620799993,173.61798545800002,177.66114724999989,171.56003620799993,171.56003620799993,176.74345362500026,171.56003620799993,171.56003620799993,171.56003620799993,171.56003620799993,172.01546520800002,173.06848500000024,171.98621004166696,,173.61798545800002,174.67489179099994,173.58846670766687,,171.56003620799993,176.74345362500026,171.56003620799993,176.74345362500026,176.74345362500026,177.42968679100022,171.56003620799993,1,1,1.5728591249999226,reldom2_s015,001,2025-02-14_14h44.41.532,Where-B-Scan_AC,2022.2.5,None,
0,0.0,None,fixation,stimulus/audwhere_stim/blank_white.png,stimulus/audwhere_stim/blank_white.png,stimulus/viswhere_stim/blank_white.png,stimulus/viswhere_stim/blank_white.png,stimulus/audwhere_stim/blank_white.png,stimulus/audwhere_stim/blank_white.png,stimulus/audwhere_stim/blank_white.png,stimulus/audwhere_stim/blank_white.png,0.0,0.0,0.0,0.0,0,0.0,0,0.0,0,0.0,0,0.0,0,0.0,0.0,0,0.0,0,0.0,0,0.0,0,0.0,0,0.0,0,0.0,0,0.0,0,0.0,8,,,,,0,16,16,16,,,,,,,,,177.66114724999989,177.66114724999989,177.66114724999989,177.66114724999989,177.66114724999989,177.66114724999989,177.66114724999989,177.66114724999989,177.56302012433358,177.66114724999989,177.66114724999989,177.66114724999989,177.56302012433358,177.66114724999989,177.66114724999989,177.66114724999989,177.66114724999989,177.66114724999989,177.66114724999989,177.66114724999989,177.66114724999989,177.66114724999989,177.66114724999989,177.66114724999989,177.66114724999989,177.66114724999989,177.66114724999989,177.61302012433356,177.66114724999989,177.66114724999989,177.66114724999989,177.61302012433356,177.66114724999989,177.66114724999989,177.66114724999989,177.66114724999989,177.66114724999989,182.84887904100015,182.84887904100015,185.84164199999987,None,0,,reldom2_s015,001,2025-02-14_14h44.41.532,Where-B-Scan_AC,2022.2.5,None,
13,First_Order,3.0,viswhere,stimulus/viswhere_stim/blank_white.png,stimulus/viswhere_stim/blank_white.png,stimulus/viswhere_stim/150-deg_dot-left_seagreen.png,stimulus/viswhere_stim/150-deg_dot-right_royalblue.png,stimulus/viswhere_stim/blank_white.png,stimulus/viswhere_stim/line_box.png,stimulus/viswhere_stim/line_yes.png,stimulus/viswhere_stim/line_no.png,None,Line,None,Line,1,0.0,0,5.125,0,5.125,0,5.125,0,0.0,0.625,0,0.0,0,0.0,1,0.5,1,2.125,0,0.0,0,0.0,0,0.0,0,0.0,0,,,,,0,17,17,17,,,,,,,,,185.84164199999987,185.84164199999987,185.84164199999987,185.84164199999987,185.84164199999987,185.84164199999987,185.84164199999987,185.84164199999987,185.82308904166683,185.84164199999987,185.84164199999987,185.84164199999987,185.82308904166683,185.84164199999987,185.84164199999987,185.84164199999987,187.9473142910001,191.9096414159999,185.84164199999987,185.84164199999987,190.96964416599985,186.3256953330001,187.32930116600028,187.9473142910001,188.95800850000023,185.84164199999987,185.84164199999987,185.82308904166683,185.84164199999987,185.84164199999987,185.84164199999987,185.82308904166683,185.84164199999987,185.84164199999987,190.96964416599985,185.84164199999987,190.96964416599985,191.06666108299987,191.69229458300015,185.84164199999987,1,1,0.9312398330002907,reldom2_s015,001,2025-02-14_14h44.41.532,Where-B-Scan_AC,2022.2.5,None,
14,First_Order,3.0,viswhere,stimulus/viswhere_stim/blank_white.png,stimulus/viswhere_stim/blank_white.png,stimulus/viswhere_stim/90-deg_dot-right_cyan.png,stimulus/viswhere_stim/90-deg_dot-left_turquoise.png,stimulus/viswhere_stim/blank_white.png,stimulus/viswhere_stim/line_box.png,stimulus/viswhere_stim/line_yes.png,stimulus/viswhere_stim/line_no.png,None,Line,None,Line,1,0.0,0,5.125,0,5.125,0,5.125,0,0.0,0.625,0,0.0,0,0.0,1,0.5,1,2.125,0,0.0,0,0.0,0,0.0,0,0.0,0,,,,,0,18,18,18,,,,,,,,,191.9096414159999,191.9096414159999,191.9096414159999,191.9096414159999,191.9096414159999,191.9096414159999,191.9096414159999,191.9096414159999,191.88802166633363,191.9096414159999,191.9096414159999,191.9096414159999,191.88802166633363,191.9096414159999,191.9096414159999,191.9096414159999,194.0180512080001,197.977565916,191.9096414159999,191.9096414159999,197.03591329100027,192.39006341599998,193.404976583,194.0180512080001,195.0203543329999,191.9096414159999,191.9096414159999,191.9046883330003,191.9096414159999,191.9096414159999,191.9096414159999,191.9046883330003,191.9096414159999,191.9096414159999,197.03591329100027,191.9096414159999,197.03591329100027,197.1337047500001,197.7591514159999,191.9096414159999,1,1,0.9102972499999851,reldom2_s015,001,2025-02-14_14h44.41.532,Where-B-Scan_AC,2022.2.5,None,
15,First_Order,3.0,viswhere,stimulus/viswhere_stim/blank_white.png,stimulus/viswhere_stim/blank_white.png,stimulus/viswhere_stim/60-deg_dot-right_salmon.png,stimulus/viswhere_stim/150-deg_dot-right_turquoise.png,stimulus/viswhere_stim/blank_white.png,stimulus/viswhere_stim/dot_box.png,stimulus/viswhere_stim/dot_yes.png,stimulus/viswhere_stim/dot_no.png,None,Dot,None,Dot,1,0.0,0,5.125,0,5.125,0,5.125,0,0.0,0.625,0,0.0,0,0.0,1,0.5,1,2.125,0,0.0,0,0.0,0,0.0,0,0.0,0,,,,,0,19,19,19,,,,,,,,,197.977565916,197.977565916,197.977565916,197.977565916,197.977565916,197.977565916,197.977565916,197.977565916,197.95435624933347,197.977565916,197.977565916,197.977565916,197.95435624933347,197.977565916,197.977565916,197.977565916,200.086821375,204.04317649999984,197.977565916,197.977565916,203.10166750000008,198.45747058300003,199.47358554099992,200.086821375,201.1051816250001,197.977565916,197.977565916,197.97102291600015,197.977565916,197.977565916,197.977565916,197.97102291600015,197.977565916,197.977565916,203.10166750000008,197.977565916,203.10166750000008,203.19996104100028,203.82611225000028,197.977565916,1,1,1.2965669169998364,reldom2_s015,001,2025-02-14_14h44.41.532,Where-B-Scan_AC,2022.2.5,None,
16,First_Order,3.0,viswhere,stimulus/viswhere_stim/blank_white.png,stimulus/viswhere_stim/blank_white.png,stimulus/viswhere_stim/120-deg_dot-left_peru.png,stimulus/viswhere_stim/120-deg_dot-right_royalblue.png,stimulus/viswhere_stim/blank_white.png,stimulus/viswhere_stim/dot_box.png,stimulus/viswhere_stim/dot_yes.png,stimulus/viswhere_stim/dot_no.png,None,Dot,None,Line,2,0.0,0,5.125,0,5.125,0,5.125,0,0.0,0.625,0,0.0,0,0.0,1,0.5,1,2.125,0,0.0,0,0.0,0,0.0,0,0.0,0,,,,,0,20,20,20,,,,,,,,,204.04317649999984,204.04317649999984,204.04317649999984,204.04317649999984,204.04317649999984,204.04317649999984,204.04317649999984,204.04317649999984,204.0221572083336,204.04317649999984,204.04317649999984,204.04317649999984,204.0221572083336,204.04317649999984,204.04317649999984,204.04317649999984,206.1414046660002,210.1781867499999,204.04317649999984,204.04317649999984,209.19492979100005,204.519418416,205.53005587500002,206.1414046660002,207.15581470799998,204.04317649999984,204.04317649999984,204.03882387500028,204.04317649999984,204.04317649999984,204.04317649999984,204.03882387500028,204.04317649999984,204.04317649999984,209.19492979100005,204.04317649999984,209.19492979100005,209.26580624999997,209.89899441600028,204.04317649999984,2,1,1.1803210829998534,reldom2_s015,001,2025-02-14_14h44.41.532,Where-B-Scan_AC,2022.2.5,None,
0,0.0,None,fixation,stimulus/audwhere_stim/blank_white.png,stimulus/audwhere_stim/blank_white.png,stimulus/viswhere_stim/blank_white.png,stimulus/viswhere_stim/blank_white.png,stimulus/audwhere_stim/blank_white.png,stimulus/audwhere_stim/blank_white.png,stimulus/audwhere_stim/blank_white.png,stimulus/audwhere_stim/blank_white.png,0.0,0.0,0.0,0.0,0,0.0,0,0.0,0,0.0,0,0.0,0,0.0,0.0,0,0.0,0,0.0,0,0.0,0,0.0,0,0.0,0,0.0,0,0.0,0,0.0,10,,,,,0,21,21,21,,,,,,,,,210.1781867499999,210.1781867499999,210.1781867499999,210.1781867499999,210.1781867499999,210.1781867499999,210.1781867499999,210.1781867499999,210.08009937433357,210.1781867499999,210.1781867499999,210.1781867499999,210.08009937433357,210.1781867499999,210.1781867499999,210.1781867499999,210.1781867499999,210.1781867499999,210.1781867499999,210.1781867499999,210.1781867499999,210.1781867499999,210.1781867499999,210.1781867499999,210.1781867499999,210.1781867499999,210.1781867499999,210.13009937433358,210.1781867499999,210.1781867499999,210.1781867499999,210.13009937433358,210.1781867499999,210.1781867499999,210.1781867499999,210.1781867499999,210.1781867499999,215.3673681250002,215.3673681250002,220.3037182500002,None,0,,reldom2_s015,001,2025-02-14_14h44.41.532,Where-B-Scan_AC,2022.2.5,None,
17,Second_Order,3.0,viswhere,stimulus/viswhere_stim/90-deg_dot-left_lightsseagreen.png,stimulus/viswhere_stim/90-deg_dot-right_lightsseagreen.png,stimulus/viswhere_stim/120-deg_dot-right_cyan.png,stimulus/viswhere_stim/60-deg_dot-right_royalblue.png,stimulus/audwhere_stim/match_blank.png,stimulus/audwhere_stim/match_box.png,stimulus/audwhere_stim/match_yes.png,stimulus/audwhere_stim/match_no.png,2.0,Match,Line,Dot,2,5.125,0,5.125,0,5.125,0,5.125,0,0.75,0.75,1,0.5,1,2.125,1,0.5,1,2.125,0,0.0,0,0.0,0,0.0,0,0.0,0,,,,,0,22,22,22,,,,,,,,,220.3037182500002,225.4222822910001,220.7746380409999,221.76275270799988,222.41404125000008,223.41189050000003,220.3037182500002,220.3037182500002,220.31724416633338,220.3037182500002,220.3037182500002,220.3037182500002,220.31724416633338,220.3037182500002,225.4222822910001,226.21336120800015,228.287148291,232.1520224159999,226.21336120800015,226.21336120800015,231.33982212499996,226.65785720800022,227.67385758299997,228.287148291,229.30431254099994,226.21336120800015,226.21336120800015,226.1882488333336,226.21336120800015,226.21336120800015,226.21336120800015,226.1882488333336,226.21336120800015,226.21336120800015,231.33982212499996,226.21336120800015,231.33982212499996,231.40984254100022,232.1888841250002,226.21336120800015,2,1,1.1938066249999792,reldom2_s015,001,2025-02-14_14h44.41.532,Where-B-Scan_AC,2022.2.5,None,
18,Second_Order,3.0,viswhere,stimulus/viswhere_stim/90-deg_dot-left_lightsseagreen.png,stimulus/viswhere_stim/60-deg_dot-left_mediumslateblue.png,stimulus/viswhere_stim/60-deg_dot-right_lightsseagreen.png,stimulus/viswhere_stim/30-deg_dot-right_goldenrod.png,stimulus/audwhere_stim/match_blank.png,stimulus/audwhere_stim/match_box.png,stimulus/audwhere_stim/match_yes.png,stimulus/audwhere_stim/match_no.png,1.0,Match,Dot,Dot,1,5.125,0,5.125,0,5.125,0,5.125,0,0.625,0.625,1,0.5,1,2.125,1,0.5,1,2.125,0,0.0,0,0.0,0,0.0,0,0.0,0,,,,,0,23,23,23,,,,,,,,,232.1888841250002,237.3106925000002,232.67052049999984,233.66880337500015,234.2925788749999,235.28902366600005,232.1888841250002,232.1888841250002,232.20202241599992,232.1888841250002,232.1888841250002,232.1888841250002,232.20202241599992,232.1888841250002,237.3106925000002,237.98106720800024,240.07300895800017,244.1004250410001,237.98106720800024,237.98106720800024,243.106697833,238.4447112910002,239.460388083,240.07300895800017,241.09072562500023,237.98106720800024,237.98106720800024,237.96208533333362,237.98106720800024,237.98106720800024,237.98106720800024,237.96208533333362,237.98106720800024,237.98106720800024,243.106697833,237.98106720800024,243.106697833,243.18991766599993,243.81842429100016,237.98106720800024,1,1,1.634198749999996,reldom2_s015,001,2025-02-14_14h44.41.532,Where-B-Scan_AC,2022.2.5,None,
0,0.0,None,fixation,stimulus/audwhere_stim/blank_white.png,stimulus/audwhere_stim/blank_white.png,stimulus/viswhere_stim/blank_white.png,stimulus/viswhere_stim/blank_white.png,stimulus/audwhere_stim/blank_white.png,stimulus/audwhere_stim/blank_white.png,stimulus/audwhere_stim/blank_white.png,stimulus/audwhere_stim/blank_white.png,0.0,0.0,0.0,0.0,0,0.0,0,0.0,0,0.0,0,0.0,0,0.0,0.0,0,0.0,0,0.0,0,0.0,0,0.0,0,0.0,0,0.0,0,0.0,0,0.0,9,,,,,0,24,24,24,,,,,,,,,244.1004250410001,244.1004250410001,244.1004250410001,244.1004250410001,244.1004250410001,244.1004250410001,244.1004250410001,244.1004250410001,244.00046233333327,244.1004250410001,244.1004250410001,244.1004250410001,244.00046233333327,244.1004250410001,244.1004250410001,244.1004250410001,244.1004250410001,244.1004250410001,244.1004250410001,244.1004250410001,244.1004250410001,244.1004250410001,244.1004250410001,244.1004250410001,244.1004250410001,244.1004250410001,244.1004250410001,244.0504623333333,244.1004250410001,244.1004250410001,244.1004250410001,244.0504623333333,244.1004250410001,244.1004250410001,244.1004250410001,244.1004250410001,244.1004250410001,249.3207681250001,249.3207681250001,253.29137949999995,None,0,,reldom2_s015,001,2025-02-14_14h44.41.532,Where-B-Scan_AC,2022.2.5,None,
19,First_Order,4.0,viswhere,stimulus/viswhere_stim/blank_white.png,stimulus/viswhere_stim/blank_white.png,stimulus/viswhere_stim/90-deg_dot-left_seagreen.png,stimulus/viswhere_stim/150-deg_dot-left_lightsseagreen.png,stimulus/viswhere_stim/blank_white.png,stimulus/viswhere_stim/dot_box.png,stimulus/viswhere_stim/dot_yes.png,stimulus/viswhere_stim/dot_no.png,None,Dot,None,Dot,1,0.0,0,5.125,0,5.125,0,5.125,0,0.0,0.625,0,0.0,0,0.0,1,0.5,1,2.125,0,0.0,0,0.0,0,0.0,0,0.0,0,,,,,0,25,25,25,,,,,,,,,253.29137949999995,253.29137949999995,253.29137949999995,253.29137949999995,253.29137949999995,253.29137949999995,253.29137949999995,253.29137949999995,253.2722528746669,253.29137949999995,253.29137949999995,253.29137949999995,253.2722528746669,253.29137949999995,253.29137949999995,253.29137949999995,255.40375291600003,259.35529891600027,253.29137949999995,253.29137949999995,258.42808650000006,253.77144741600023,254.79105000000027,255.40375291600003,256.40906616600023,253.29137949999995,253.29137949999995,253.2722528746669,253.29137949999995,253.29137949999995,253.29137949999995,253.2722528746669,253.29137949999995,253.29137949999995,258.42808650000006,253.29137949999995,258.42808650000006,258.51110529100015,259.14016025,253.29137949999995,1,1,0.9526162910001403,reldom2_s015,001,2025-02-14_14h44.41.532,Where-B-Scan_AC,2022.2.5,None,
20,First_Order,4.0,viswhere,stimulus/viswhere_stim/blank_white.png,stimulus/viswhere_stim/blank_white.png,stimulus/viswhere_stim/30-deg_dot-left_peru.png,stimulus/viswhere_stim/30-deg_dot-right_salmon.png,stimulus/viswhere_stim/blank_white.png,stimulus/viswhere_stim/dot_box.png,stimulus/viswhere_stim/dot_yes.png,stimulus/viswhere_stim/dot_no.png,None,Dot,None,Line,2,0.0,0,5.125,0,5.125,0,5.125,0,0.0,0.625,0,0.0,0,0.0,1,0.5,1,2.125,0,0.0,0,0.0,0,0.0,0,0.0,0,,,,,0,26,26,26,,,,,,,,,259.35529891600027,259.35529891600027,259.35529891600027,259.35529891600027,259.35529891600027,259.35529891600027,259.35529891600027,259.35529891600027,259.33432183333326,259.35529891600027,259.35529891600027,259.35529891600027,259.33432183333326,259.35529891600027,259.35529891600027,259.35529891600027,261.45375183299984,265.42212770800006,259.35529891600027,259.35529891600027,264.4775312910001,259.8313216249999,260.8449423330003,261.45375183299984,262.47114491599996,259.35529891600027,259.35529891600027,259.3509884999999,259.35529891600027,259.35529891600027,259.35529891600027,259.3509884999999,259.35529891600027,259.35529891600027,264.4775312910001,259.35529891600027,264.4775312910001,264.5748425410002,265.20754341600014,259.35529891600027,2,1,1.203686709000067,reldom2_s015,001,2025-02-14_14h44.41.532,Where-B-Scan_AC,2022.2.5,None,
21,First_Order,4.0,viswhere,stimulus/viswhere_stim/blank_white.png,stimulus/viswhere_stim/blank_white.png,stimulus/viswhere_stim/60-deg_dot-left_lightsseagreen.png,stimulus/viswhere_stim/30-deg_dot-left_slateblue.png,stimulus/viswhere_stim/blank_white.png,stimulus/viswhere_stim/line_box.png,stimulus/viswhere_stim/line_yes.png,stimulus/viswhere_stim/line_no.png,None,Line,None,Dot,2,0.0,0,5.125,0,5.125,0,5.125,0,0.0,0.625,0,0.0,0,0.0,1,0.5,1,2.125,0,0.0,0,0.0,0,0.0,0,0.0,0,,,,,0,27,27,27,,,,,,,,,265.42212770800006,265.42212770800006,265.42212770800006,265.42212770800006,265.42212770800006,265.42212770800006,265.42212770800006,265.42212770800006,265.40110070833344,265.42212770800006,265.42212770800006,265.42212770800006,265.40110070833344,265.42212770800006,265.42212770800006,265.42212770800006,267.5280385000001,271.48397916600015,265.42212770800006,265.42212770800006,270.55785837500025,265.901545875,266.916642916,267.5280385000001,268.54745354099987,265.42212770800006,265.42212770800006,265.4177673750001,265.42212770800006,265.42212770800006,265.42212770800006,265.4177673750001,265.42212770800006,265.42212770800006,270.55785837500025,265.42212770800006,270.55785837500025,270.64110541599985,271.2683252910001,265.42212770800006,2,1,1.0449829160002082,reldom2_s015,001,2025-02-14_14h44.41.532,Where-B-Scan_AC,2022.2.5,None,
22,First_Order,4.0,viswhere,stimulus/viswhere_stim/blank_white.png,stimulus/viswhere_stim/blank_white.png,stimulus/viswhere_stim/120-deg_dot-right_peru.png,stimulus/viswhere_stim/150-deg_dot-right_peru.png,stimulus/viswhere_stim/blank_white.png,stimulus/viswhere_stim/line_box.png,stimulus/viswhere_stim/line_yes.png,stimulus/viswhere_stim/line_no.png,None,Line,None,Dot,2,0.0,0,5.125,0,5.125,0,5.125,0,0.0,0.625,0,0.0,0,0.0,1,0.5,1,2.125,0,0.0,0,0.0,0,0.0,0,0.0,0,,,,,0,28,28,28,,,,,,,,,271.48397916600015,271.48397916600015,271.48397916600015,271.48397916600015,271.48397916600015,271.48397916600015,271.48397916600015,271.48397916600015,271.46269741633324,271.48397916600015,271.48397916600015,271.48397916600015,271.46269741633324,271.48397916600015,271.48397916600015,271.48397916600015,273.5995062080001,277.62016425,271.48397916600015,271.48397916600015,276.61744350000026,271.9662736250002,272.9850017910003,273.5995062080001,274.60754691600005,271.48397916600015,271.48397916600015,271.4793640829999,271.48397916600015,271.48397916600015,271.48397916600015,271.4793640829999,271.48397916600015,271.48397916600015,276.61744350000026,271.48397916600015,276.61744350000026,276.714612708,277.33965308300003,271.48397916600015,2,1,1.4404097090000505,reldom2_s015,001,2025-02-14_14h44.41.532,Where-B-Scan_AC,2022.2.5,None,
0,0.0,None,fixation,stimulus/audwhere_stim/blank_white.png,stimulus/audwhere_stim/blank_white.png,stimulus/viswhere_stim/blank_white.png,stimulus/viswhere_stim/blank_white.png,stimulus/audwhere_stim/blank_white.png,stimulus/audwhere_stim/blank_white.png,stimulus/audwhere_stim/blank_white.png,stimulus/audwhere_stim/blank_white.png,0.0,0.0,0.0,0.0,0,0.0,0,0.0,0,0.0,0,0.0,0,0.0,0.0,0,0.0,0,0.0,0,0.0,0,0.0,0,0.0,0,0.0,0,0.0,0,0.0,10,,,,,0,29,29,29,,,,,,,,,277.62016425,277.62016425,277.62016425,277.62016425,277.62016425,277.62016425,277.62016425,277.62016425,277.5213003743332,277.62016425,277.62016425,277.62016425,277.5213003743332,277.62016425,277.62016425,277.62016425,277.62016425,277.62016425,277.62016425,277.62016425,277.62016425,277.62016425,277.62016425,277.62016425,277.62016425,277.62016425,277.62016425,277.5713003743332,277.62016425,277.62016425,277.62016425,277.5713003743332,277.62016425,277.62016425,277.62016425,277.62016425,277.62016425,282.81581883299987,282.81581883299987,287.75968925000006,None,0,,reldom2_s015,001,2025-02-14_14h44.41.532,Where-B-Scan_AC,2022.2.5,None,
23,Second_Order,4.0,viswhere,stimulus/viswhere_stim/60-deg_dot-right_peru.png,stimulus/viswhere_stim/60-deg_dot-left_royalblue.png,stimulus/viswhere_stim/90-deg_dot-left_slateblue.png,stimulus/viswhere_stim/90-deg_dot-right_royalblue.png,stimulus/audwhere_stim/match_blank.png,stimulus/audwhere_stim/match_box.png,stimulus/audwhere_stim/match_yes.png,stimulus/audwhere_stim/match_no.png,1.0,Match,Line,Line,1,5.125,0,5.125,0,5.125,0,5.125,0,0.75,0.75,1,0.5,1,2.125,1,0.5,1,2.125,0,0.0,0,0.0,0,0.0,0,0.0,0,,,,,0,30,30,30,,,,,,,,,287.75968925000006,292.87643237500015,288.2322785000001,289.23035908300017,289.8656000000001,290.85419,287.75968925000006,287.75968925000006,287.7732509583335,287.75968925000006,287.75968925000006,287.75968925000006,287.7732509583335,287.75968925000006,292.87643237500015,293.6688744160001,295.75387445800015,299.64224541600015,293.6688744160001,293.6688744160001,298.80838620800023,294.1173933330001,295.11905916600017,295.75387445800015,296.76502258300025,293.6688744160001,293.6688744160001,293.64449441633315,293.6688744160001,293.6688744160001,293.6688744160001,293.64449441633315,293.6688744160001,293.6688744160001,298.80838620800023,293.6688744160001,298.80838620800023,298.8689105829999,299.64224541600015,293.6688744160001,1,1,0.8926341250003134,reldom2_s015,001,2025-02-14_14h44.41.532,Where-B-Scan_AC,2022.2.5,None,
24,Second_Order,4.0,viswhere,stimulus/viswhere_stim/120-deg_dot-left_peru.png,stimulus/viswhere_stim/120-deg_dot-right_peru.png,stimulus/viswhere_stim/30-deg_dot-right_peru.png,stimulus/viswhere_stim/30-deg_dot-left_lightsseagreen.png,stimulus/audwhere_stim/match_blank.png,stimulus/audwhere_stim/match_box.png,stimulus/audwhere_stim/match_yes.png,stimulus/audwhere_stim/match_no.png,1.0,Match,Line,Line,1,5.125,0,5.125,0,5.125,0,5.125,0,0.625,0.625,1,0.5,1,2.125,1,0.5,1,2.125,0,0.0,0,0.0,0,0.0,0,0.0,0,,,,,0,31,31,31,,,,,,,,,299.64224541600015,304.7556562499999,300.12609141600024,301.124762208,301.7476087079999,302.7453431660001,299.64224541600015,299.64224541600015,299.6561575829999,299.64224541600015,299.64224541600015,299.64224541600015,299.6561575829999,299.64224541600015,304.7556562499999,305.42506970800014,307.5041435000003,311.54140420800013,305.42506970800014,305.42506970800014,310.5507930409999,305.8706644580002,306.8904379999999,307.5041435000003,308.5094250410002,305.42506970800014,305.42506970800014,305.40120579133327,305.42506970800014,305.42506970800014,305.42506970800014,305.40120579133327,305.42506970800014,305.42506970800014,310.5507930409999,305.42506970800014,310.5507930409999,310.61996254099995,311.24733074999995,305.42506970800014,1,1,1.1835160000000542,reldom2_s015,001,2025-02-14_14h44.41.532,Where-B-Scan_AC,2022.2.5,None,
0,0.0,None,fixation,stimulus/audwhere_stim/blank_white.png,stimulus/audwhere_stim/blank_white.png,stimulus/viswhere_stim/blank_white.png,stimulus/viswhere_stim/blank_white.png,stimulus/audwhere_stim/blank_white.png,stimulus/audwhere_stim/blank_white.png,stimulus/audwhere_stim/blank_white.png,stimulus/audwhere_stim/blank_white.png,0.0,0.0,0.0,0.0,0,0.0,0,0.0,0,0.0,0,0.0,0,0.0,0.0,0,0.0,0,0.0,0,0.0,0,0.0,0,0.0,0,0.0,0,0.0,0,0.0,9,,,,,0,32,32,32,,,,,,,,,311.54140420800013,311.54140420800013,311.54140420800013,311.54140420800013,311.54140420800013,311.54140420800013,311.54140420800013,311.54140420800013,311.4411409583334,311.54140420800013,311.54140420800013,311.54140420800013,311.4411409583334,311.54140420800013,311.54140420800013,311.54140420800013,311.54140420800013,311.54140420800013,311.54140420800013,311.54140420800013,311.54140420800013,311.54140420800013,311.54140420800013,311.54140420800013,311.54140420800013,311.54140420800013,311.54140420800013,311.4911409583334,311.54140420800013,311.54140420800013,311.54140420800013,311.4911409583334,311.54140420800013,311.54140420800013,311.54140420800013,311.54140420800013,311.54140420800013,316.76880029099993,316.76880029099993,320.8003483329999,None,0,,reldom2_s015,001,2025-02-14_14h44.41.532,Where-B-Scan_AC,2022.2.5,None,
25,First_Order,5.0,audwhere,stimulus/audwhere_stim/dummy.wav,stimulus/audwhere_stim/dummy.wav,stimulus/audwhere_stim/right_toward_280h.wav,stimulus/audwhere_stim/right_away_290h.wav,stimulus/audwhere_stim/blank_white.png,stimulus/audwhere_stim/side_box.png,stimulus/audwhere_stim/side_yes.png,stimulus/audwhere_stim/side_no.png,None,Side,None,Side,1,0.0,0,5.125,0,5.125,0,5.125,0,0.0,0.625,0,0.0,0,0.0,0,0.0,0,0.0,0,0.0,0,0.0,1,0.5,1,2.125,0,,,,,0,33,33,33,,,,,,,,,320.8003483329999,320.8003483329999,320.8003483329999,320.8003483329999,320.8003483329999,320.8003483329999,320.8003483329999,320.8003483329999,320.7283955416666,320.8003483329999,320.8003483329999,320.8003483329999,320.7283955416666,320.8003483329999,320.8003483329999,320.8003483329999,322.8877864159999,,320.8003483329999,320.8003483329999,325.9536069999999,320.8003483329999,320.8003483329999,320.8003483329999,320.8003483329999,321.26468275000025,322.3325211659999,321.23504249966686,,322.8877864159999,323.95985066599997,322.8578947076669,,320.8003483329999,325.9536069999999,320.8003483329999,325.9536069999999,325.994848458,326.6478351660003,320.8003483329999,1,1,2.0105922500001725,reldom2_s015,001,2025-02-14_14h44.41.532,Where-B-Scan_AC,2022.2.5,None,
26,First_Order,5.0,audwhere,stimulus/audwhere_stim/dummy.wav,stimulus/audwhere_stim/dummy.wav,stimulus/audwhere_stim/right_toward_300h.wav,stimulus/audwhere_stim/left_toward_270h.wav,stimulus/audwhere_stim/blank_white.png,stimulus/audwhere_stim/direction_box.png,stimulus/audwhere_stim/direction_yes.png,stimulus/audwhere_stim/direction_no.png,None,Direction,None,Direction,1,0.0,0,5.125,0,5.125,0,5.125,0,0.0,0.625,0,0.0,0,0.0,0,0.0,0,0.0,0,0.0,0,0.0,1,0.5,1,2.125,0,,,,,0,34,34,34,,,,,,,,,326.90167658300015,326.90167658300015,326.90167658300015,326.90167658300015,326.90167658300015,326.90167658300015,326.90167658300015,326.90167658300015,326.8220331663334,326.90167658300015,326.90167658300015,326.90167658300015,326.8220331663334,326.90167658300015,326.90167658300015,326.90167658300015,329.002611291,,326.90167658300015,326.90167658300015,332.0845770410001,326.90167658300015,326.90167658300015,326.90167658300015,326.90167658300015,327.3686817910002,328.4421246249999,327.3382975826669,,329.002611291,330.07767324999986,328.9723748326667,,326.90167658300015,332.0845770410001,326.90167658300015,332.0845770410001,332.125531875,332.77987920800024,326.90167658300015,1,1,1.4468428340001083,reldom2_s015,001,2025-02-14_14h44.41.532,Where-B-Scan_AC,2022.2.5,None,
27,First_Order,5.0,audwhere,stimulus/audwhere_stim/dummy.wav,stimulus/audwhere_stim/dummy.wav,stimulus/audwhere_stim/left_toward_290h.wav,stimulus/audwhere_stim/left_away_300h.wav,stimulus/audwhere_stim/blank_white.png,stimulus/audwhere_stim/direction_box.png,stimulus/audwhere_stim/direction_yes.png,stimulus/audwhere_stim/direction_no.png,None,Direction,None,Side,2,0.0,0,5.125,0,5.125,0,5.125,0,0.0,0.625,0,0.0,0,0.0,0,0.0,0,0.0,0,0.0,0,0.0,1,0.5,1,2.125,0,,,,,0,35,35,35,,,,,,,,,332.9929697910002,332.9929697910002,332.9929697910002,332.9929697910002,332.9929697910002,332.9929697910002,332.9929697910002,332.9929697910002,332.91321254133356,332.9929697910002,332.9929697910002,332.9929697910002,332.91321254133356,332.9929697910002,332.9929697910002,332.9929697910002,335.0953374999999,,332.9929697910002,332.9929697910002,338.18188183300026,332.9929697910002,332.9929697910002,332.9929697910002,332.9929697910002,333.46025233299997,334.5359269159999,333.4301387916669,,335.0953374999999,336.1248925,335.0649385826666,,332.9929697910002,338.18188183300026,332.9929697910002,338.18188183300026,338.22320100000024,338.87996954100026,332.9929697910002,2,1,1.28375508299996,reldom2_s015,001,2025-02-14_14h44.41.532,Where-B-Scan_AC,2022.2.5,None,
28,First_Order,5.0,audwhere,stimulus/audwhere_stim/dummy.wav,stimulus/audwhere_stim/dummy.wav,stimulus/audwhere_stim/right_away_300h.wav,stimulus/audwhere_stim/right_toward_290h.wav,stimulus/audwhere_stim/blank_white.png,stimulus/audwhere_stim/direction_box.png,stimulus/audwhere_stim/direction_yes.png,stimulus/audwhere_stim/direction_no.png,None,Direction,None,Side,2,0.0,0,5.125,0,5.125,0,5.125,0,0.0,0.625,0,0.0,0,0.0,0,0.0,0,0.0,0,0.0,0,0.0,1,0.5,1,2.125,0,,,,,0,36,36,36,,,,,,,,,339.0933385829999,339.0933385829999,339.0933385829999,339.0933385829999,339.0933385829999,339.0933385829999,339.0933385829999,339.0933385829999,339.0133028743336,339.0933385829999,339.0933385829999,339.0933385829999,339.0133028743336,339.0933385829999,339.0933385829999,339.0933385829999,341.1962108749999,,339.0933385829999,339.0933385829999,344.2823324579999,339.0933385829999,339.0933385829999,339.0933385829999,339.0933385829999,339.5602280000003,340.590424,339.5302104996665,,341.1962108749999,342.22984995800016,341.16585879166655,,339.0933385829999,344.2823324579999,339.0933385829999,344.2823324579999,344.32376891600006,344.978929416,339.0933385829999,2,1,0.917882040999757,reldom2_s015,001,2025-02-14_14h44.41.532,Where-B-Scan_AC,2022.2.5,None,
0,0.0,None,fixation,stimulus/audwhere_stim/blank_white.png,stimulus/audwhere_stim/blank_white.png,stimulus/viswhere_stim/blank_white.png,stimulus/viswhere_stim/blank_white.png,stimulus/audwhere_stim/blank_white.png,stimulus/audwhere_stim/blank_white.png,stimulus/audwhere_stim/blank_white.png,stimulus/audwhere_stim/blank_white.png,0.0,0.0,0.0,0.0,0,0.0,0,0.0,0,0.0,0,0.0,0,0.0,0.0,0,0.0,0,0.0,0,0.0,0,0.0,0,0.0,0,0.0,0,0.0,0,0.0,10,,,,,0,37,37,37,,,,,,,,,345.2127891660002,345.2127891660002,345.2127891660002,345.2127891660002,345.2127891660002,345.2127891660002,345.2127891660002,345.2127891660002,345.11226274933335,345.2127891660002,345.2127891660002,345.2127891660002,345.11226274933335,345.2127891660002,345.2127891660002,345.2127891660002,345.2127891660002,345.2127891660002,345.2127891660002,345.2127891660002,345.2127891660002,345.2127891660002,345.2127891660002,345.2127891660002,345.2127891660002,345.2127891660002,345.2127891660002,345.16226274933337,345.2127891660002,345.2127891660002,345.2127891660002,345.16226274933337,345.2127891660002,345.2127891660002,345.2127891660002,345.2127891660002,345.2127891660002,350.42406979099997,350.42406979099997,355.39253658300004,None,0,,reldom2_s015,001,2025-02-14_14h44.41.532,Where-B-Scan_AC,2022.2.5,None,
29,Second_Order,5.0,audwhere,stimulus/audwhere_stim/right_toward_270h.wav,stimulus/audwhere_stim/right_away_280h.wav,stimulus/audwhere_stim/left_away_270h.wav,stimulus/audwhere_stim/right_away_300h.wav,stimulus/audwhere_stim/match_blank.png,stimulus/audwhere_stim/match_box.png,stimulus/audwhere_stim/match_yes.png,stimulus/audwhere_stim/match_no.png,2.0,Match,Side,Direction,2,5.125,0,5.125,0,5.125,0,5.125,0,0.75,0.75,0,0.0,0,0.0,0,0.0,0,0.0,1,0.5,1,2.125,1,0.5,1,2.125,0,,,,,0,38,38,38,,,,,,,,,355.39253658300004,360.5169693749999,355.39253658300004,355.39253658300004,355.39253658300004,355.39253658300004,355.8510027080001,356.8404393750002,355.8540717076669,356.8404393750002,357.47657849999996,358.4738890829999,357.48846858266666,,360.5169693749999,361.36615062500005,363.40609408299997,367.36809066600017,361.36615062500005,361.36615062500005,366.5158515000003,361.36615062500005,361.36615062500005,361.36615062500005,361.36615062500005,361.783141375,362.85026500000004,361.75295683266654,,363.40609408299997,364.47843895799997,363.3762314576668,,361.36615062500005,366.5158515000003,361.36615062500005,366.5158515000003,366.55703245799987,,361.36615062500005,2,1,0.61117670800013,reldom2_s015,001,2025-02-14_14h44.41.532,Where-B-Scan_AC,2022.2.5,None,
30,Second_Order,5.0,audwhere,stimulus/audwhere_stim/right_away_300h.wav,stimulus/audwhere_stim/right_toward_300h.wav,stimulus/audwhere_stim/left_toward_290h.wav,stimulus/audwhere_stim/left_away_270h.wav,stimulus/audwhere_stim/match_blank.png,stimulus/audwhere_stim/match_box.png,stimulus/audwhere_stim/match_yes.png,stimulus/audwhere_stim/match_no.png,1.0,Match,Side,Side,1,5.125,0,5.125,0,5.125,0,5.125,0,0.625,0.625,0,0.0,0,0.0,0,0.0,0,0.0,1,0.5,1,2.125,1,0.5,1,2.125,0,,,,,0,39,39,39,,,,,,,,,367.36809066600017,372.48963029100014,367.36809066600017,367.36809066600017,367.36809066600017,367.36809066600017,367.81370529100013,368.80123920799997,367.8284803326667,,369.45438354099997,370.451691666,369.4663119576669,370.45480558300005,372.48963029100014,373.2246986660002,375.296035375,,373.2246986660002,373.2246986660002,378.39024658300013,373.2246986660002,373.2246986660002,373.2246986660002,373.2246986660002,373.6830596660002,374.7437023749999,373.6534274996668,,375.296035375,376.36049483299985,375.2666399576667,,373.2246986660002,378.39024658300013,373.2246986660002,378.39024658300013,378.39024658300013,379.0408970409999,373.2246986660002,1,1,1.2086456659999385,reldom2_s015,001,2025-02-14_14h44.41.532,Where-B-Scan_AC,2022.2.5,None,
0,0.0,None,fixation,stimulus/audwhere_stim/blank_white.png,stimulus/audwhere_stim/blank_white.png,stimulus/viswhere_stim/blank_white.png,stimulus/viswhere_stim/blank_white.png,stimulus/audwhere_stim/blank_white.png,stimulus/audwhere_stim/blank_white.png,stimulus/audwhere_stim/blank_white.png,stimulus/audwhere_stim/blank_white.png,0.0,0.0,0.0,0.0,0,0.0,0,0.0,0,0.0,0,0.0,0,0.0,0.0,0,0.0,0,0.0,0,0.0,0,0.0,0,0.0,0,0.0,0,0.0,0,0.0,8,,,,,0,40,40,40,,,,,,,,,379.31471591599984,379.31471591599984,379.31471591599984,379.31471591599984,379.31471591599984,379.31471591599984,379.31471591599984,379.31471591599984,379.2149746663332,379.31471591599984,379.31471591599984,379.31471591599984,379.2149746663332,379.31471591599984,379.31471591599984,379.31471591599984,379.31471591599984,379.31471591599984,379.31471591599984,379.31471591599984,379.31471591599984,379.31471591599984,379.31471591599984,379.31471591599984,379.31471591599984,379.31471591599984,379.31471591599984,379.2649746663332,379.31471591599984,379.31471591599984,379.31471591599984,379.2649746663332,379.31471591599984,379.31471591599984,379.31471591599984,379.31471591599984,379.31471591599984,384.526643875,384.526643875,387.53714949999994,None,0,,reldom2_s015,001,2025-02-14_14h44.41.532,Where-B-Scan_AC,2022.2.5,None,
31,First_Order,6.0,audwhere,stimulus/audwhere_stim/dummy.wav,stimulus/audwhere_stim/dummy.wav,stimulus/audwhere_stim/left_toward_270h.wav,stimulus/audwhere_stim/right_toward_280h.wav,stimulus/audwhere_stim/blank_white.png,stimulus/audwhere_stim/side_box.png,stimulus/audwhere_stim/side_yes.png,stimulus/audwhere_stim/side_no.png,None,Side,None,Direction,2,0.0,0,5.125,0,5.125,0,5.125,0,0.0,0.625,0,0.0,0,0.0,0,0.0,0,0.0,0,0.0,0,0.0,1,0.5,1,2.125,0,,,,,0,41,41,41,,,,,,,,,387.53714949999994,387.53714949999994,387.53714949999994,387.53714949999994,387.53714949999994,387.53714949999994,387.53714949999994,387.53714949999994,387.4649015416668,387.53714949999994,387.53714949999994,387.53714949999994,387.4649015416668,387.53714949999994,387.53714949999994,387.53714949999994,389.62148725,,387.53714949999994,387.53714949999994,392.68600941600016,387.53714949999994,387.53714949999994,387.53714949999994,387.53714949999994,388.00170283299985,389.0645191660001,387.9716475416669,,389.62148725,390.6943867499999,389.59144187466677,,387.53714949999994,392.68600941600016,387.53714949999994,392.68600941600016,392.72706637500005,393.378943833,387.53714949999994,2,1,0.8217855830002918,reldom2_s015,001,2025-02-14_14h44.41.532,Where-B-Scan_AC,2022.2.5,None,
32,First_Order,6.0,audwhere,stimulus/audwhere_stim/dummy.wav,stimulus/audwhere_stim/dummy.wav,stimulus/audwhere_stim/right_toward_280h.wav,stimulus/audwhere_stim/left_toward_290h.wav,stimulus/audwhere_stim/blank_white.png,stimulus/audwhere_stim/direction_box.png,stimulus/audwhere_stim/direction_yes.png,stimulus/audwhere_stim/direction_no.png,None,Direction,None,Direction,1,0.0,0,5.125,0,5.125,0,5.125,0,0.0,0.625,0,0.0,0,0.0,0,0.0,0,0.0,0,0.0,0,0.0,1,0.5,1,2.125,0,,,,,0,42,42,42,,,,,,,,,393.63261687500017,393.63261687500017,393.63261687500017,393.63261687500017,393.63261687500017,393.63261687500017,393.63261687500017,393.63261687500017,393.55303091633334,393.63261687500017,393.63261687500017,393.63261687500017,393.55303091633334,393.63261687500017,393.63261687500017,393.63261687500017,395.7342290830002,,393.63261687500017,393.63261687500017,398.81752562500014,393.63261687500017,393.63261687500017,393.63261687500017,393.63261687500017,394.10167870800024,395.174318375,394.07143870766663,,395.7342290830002,396.7661701249999,395.7037598326667,,393.63261687500017,398.81752562500014,393.63261687500017,398.81752562500014,398.858176791,399.51492995800027,393.63261687500017,1,1,2.286848041999747,reldom2_s015,001,2025-02-14_14h44.41.532,Where-B-Scan_AC,2022.2.5,None,
33,First_Order,6.0,audwhere,stimulus/audwhere_stim/dummy.wav,stimulus/audwhere_stim/dummy.wav,stimulus/audwhere_stim/left_toward_270h.wav,stimulus/audwhere_stim/left_away_300h.wav,stimulus/audwhere_stim/blank_white.png,stimulus/audwhere_stim/side_box.png,stimulus/audwhere_stim/side_yes.png,stimulus/audwhere_stim/side_no.png,None,Side,None,Side,1,0.0,0,5.125,0,5.125,0,5.125,0,0.0,0.625,0,0.0,0,0.0,0,0.0,0,0.0,0,0.0,0,0.0,1,0.5,1,2.125,0,,,,,0,43,43,43,,,,,,,,,399.7282812080002,399.7282812080002,399.7282812080002,399.7282812080002,399.7282812080002,399.7282812080002,399.7282812080002,399.7282812080002,399.6482632913336,399.7282812080002,399.7282812080002,399.7282812080002,399.6482632913336,399.7282812080002,399.7282812080002,399.7282812080002,401.8168618330001,,399.7282812080002,399.7282812080002,404.87976958299987,399.7282812080002,399.7282812080002,399.7282812080002,399.7282812080002,400.19465945799993,401.2609482080002,400.1647302916665,,401.8168618330001,402.8867170409999,401.7868781246668,,399.7282812080002,404.87976958299987,399.7282812080002,404.87976958299987,404.92074845800016,405.572753208,399.7282812080002,1,1,1.3542997089998607,reldom2_s015,001,2025-02-14_14h44.41.532,Where-B-Scan_AC,2022.2.5,None,
34,First_Order,6.0,audwhere,stimulus/audwhere_stim/dummy.wav,stimulus/audwhere_stim/dummy.wav,stimulus/audwhere_stim/right_toward_300h.wav,stimulus/audwhere_stim/left_toward_290h.wav,stimulus/audwhere_stim/blank_white.png,stimulus/audwhere_stim/side_box.png,stimulus/audwhere_stim/side_yes.png,stimulus/audwhere_stim/side_no.png,None,Side,None,Direction,2,0.0,0,5.125,0,5.125,0,5.125,0,0.0,0.625,0,0.0,0,0.0,0,0.0,0,0.0,0,0.0,0,0.0,1,0.5,1,2.125,0,,,,,0,44,44,44,,,,,,,,,405.82444399999986,405.82444399999986,405.82444399999986,405.82444399999986,405.82444399999986,405.82444399999986,405.82444399999986,405.82444399999986,405.7462916243336,405.82444399999986,405.82444399999986,405.82444399999986,405.7462916243336,405.82444399999986,405.82444399999986,405.82444399999986,407.917442166,,405.82444399999986,405.82444399999986,410.98387125,405.82444399999986,405.82444399999986,405.82444399999986,405.82444399999986,406.2913960000001,407.35953091600004,406.26176879166655,,407.917442166,408.9895543749999,407.8862743326665,,405.82444399999986,410.98387125,405.82444399999986,410.98387125,411.02512820799984,411.68002104100015,405.82444399999986,1,0,1.196063249999952,reldom2_s015,001,2025-02-14_14h44.41.532,Where-B-Scan_AC,2022.2.5,None,
0,0.0,None,fixation,stimulus/audwhere_stim/blank_white.png,stimulus/audwhere_stim/blank_white.png,stimulus/viswhere_stim/blank_white.png,stimulus/viswhere_stim/blank_white.png,stimulus/audwhere_stim/blank_white.png,stimulus/audwhere_stim/blank_white.png,stimulus/audwhere_stim/blank_white.png,stimulus/audwhere_stim/blank_white.png,0.0,0.0,0.0,0.0,0,0.0,0,0.0,0,0.0,0,0.0,0,0.0,0.0,0,0.0,0,0.0,0,0.0,0,0.0,0,0.0,0,0.0,0,0.0,0,0.0,8,,,,,0,45,45,45,,,,,,,,,411.95574920800027,411.95574920800027,411.95574920800027,411.95574920800027,411.95574920800027,411.95574920800027,411.95574920800027,411.95574920800027,411.85443387433327,411.95574920800027,411.95574920800027,411.95574920800027,411.85443387433327,411.95574920800027,411.95574920800027,411.95574920800027,411.95574920800027,411.95574920800027,411.95574920800027,411.95574920800027,411.95574920800027,411.95574920800027,411.95574920800027,411.95574920800027,411.95574920800027,411.95574920800027,411.95574920800027,411.9044338743333,411.95574920800027,411.95574920800027,411.95574920800027,411.9044338743333,411.95574920800027,411.95574920800027,411.95574920800027,411.95574920800027,411.95574920800027,417.14925595800014,417.14925595800014,420.13217937499985,None,0,,reldom2_s015,001,2025-02-14_14h44.41.532,Where-B-Scan_AC,2022.2.5,None,
35,Second_Order,6.0,audwhere,stimulus/audwhere_stim/left_toward_280h.wav,stimulus/audwhere_stim/right_toward_270h.wav,stimulus/audwhere_stim/left_away_300h.wav,stimulus/audwhere_stim/right_away_280h.wav,stimulus/audwhere_stim/match_blank.png,stimulus/audwhere_stim/match_box.png,stimulus/audwhere_stim/match_yes.png,stimulus/audwhere_stim/match_no.png,1.0,Match,Direction,Direction,1,5.125,0,5.125,0,5.125,0,5.125,0,0.75,0.75,0,0.0,0,0.0,0,0.0,0,0.0,1,0.5,1,2.125,1,0.5,1,2.125,0,,,,,0,46,46,46,,,,,,,,,420.13217937499985,425.25113762499996,420.13217937499985,420.13217937499985,420.13217937499985,420.13217937499985,420.58586508300004,421.57318399999986,420.60011099966664,,422.20843700000023,423.2069120000001,422.2212912076668,,425.25113762499996,426.09849325000005,428.1799618750001,432.0984462910001,426.09849325000005,426.09849325000005,431.28606683299995,426.09849325000005,426.09849325000005,426.09849325000005,426.09849325000005,426.51410124999984,427.5767921659999,426.4840958326665,,428.1799618750001,429.25008770800014,428.1502959996667,,426.09849325000005,431.28606683299995,426.09849325000005,431.28606683299995,431.28606683299995,,426.09849325000005,1,1,0.8666255419998379,reldom2_s015,001,2025-02-14_14h44.41.532,Where-B-Scan_AC,2022.2.5,None,
36,Second_Order,6.0,audwhere,stimulus/audwhere_stim/left_toward_300h.wav,stimulus/audwhere_stim/right_toward_280h.wav,stimulus/audwhere_stim/left_away_300h.wav,stimulus/audwhere_stim/right_away_300h.wav,stimulus/audwhere_stim/match_blank.png,stimulus/audwhere_stim/match_box.png,stimulus/audwhere_stim/match_yes.png,stimulus/audwhere_stim/match_no.png,1.0,Match,Direction,Direction,1,5.125,0,5.125,0,5.125,0,5.125,0,0.625,0.625,0,0.0,0,0.0,0,0.0,0,0.0,1,0.5,1,2.125,1,0.5,1,2.125,0,,,,,0,47,47,47,,,,,,,,,432.0984462910001,437.2226864160002,432.0984462910001,432.0984462910001,432.0984462910001,432.0984462910001,432.54865979099986,433.5473257910003,432.56184479166654,,434.1823195410002,435.170983,434.18549966666683,,437.2226864160002,437.9583553749999,440.02835404100006,,437.9583553749999,437.9583553749999,443.12118854100027,437.9583553749999,437.9583553749999,437.9583553749999,437.9583553749999,438.4154006250001,439.4722871660001,438.38616970766657,,440.02835404100006,441.09150750000026,439.99851095766667,,437.9583553749999,443.12118854100027,437.9583553749999,443.12118854100027,443.12118854100027,443.8090148330002,437.9583553749999,1,1,1.0716779169997608,reldom2_s015,001,2025-02-14_14h44.41.532,Where-B-Scan_AC,2022.2.5,None,
0,0.0,None,fixation,stimulus/audwhere_stim/blank_white.png,stimulus/audwhere_stim/blank_white.png,stimulus/viswhere_stim/blank_white.png,stimulus/viswhere_stim/blank_white.png,stimulus/audwhere_stim/blank_white.png,stimulus/audwhere_stim/blank_white.png,stimulus/audwhere_stim/blank_white.png,stimulus/audwhere_stim/blank_white.png,0.0,0.0,0.0,0.0,0,0.0,0,0.0,0,0.0,0,0.0,0,0.0,0.0,0,0.0,0,0.0,0,0.0,0,0.0,0,0.0,0,0.0,0,0.0,0,0.0,10,,,,,0,48,48,48,,,,,,,,,444.0445857079999,444.0445857079999,444.0445857079999,444.0445857079999,444.0445857079999,444.0445857079999,444.0445857079999,444.0445857079999,443.94234816633355,444.0445857079999,444.0445857079999,444.0445857079999,443.94234816633355,444.0445857079999,444.0445857079999,444.0445857079999,444.0445857079999,444.0445857079999,444.0445857079999,444.0445857079999,444.0445857079999,444.0445857079999,444.0445857079999,444.0445857079999,444.0445857079999,444.0445857079999,444.0445857079999,443.99234816633356,444.0445857079999,444.0445857079999,444.0445857079999,443.99234816633356,444.0445857079999,444.0445857079999,444.0445857079999,444.0445857079999,444.0445857079999,449.26012379099984,449.26012379099984,454.2431247499999,None,0,,reldom2_s015,001,2025-02-14_14h44.41.532,Where-B-Scan_AC,2022.2.5,None,
37,First_Order,7.0,viswhere,stimulus/viswhere_stim/blank_white.png,stimulus/viswhere_stim/blank_white.png,stimulus/viswhere_stim/150-deg_dot-left_turquoise.png,stimulus/viswhere_stim/120-deg_dot-left_mediumslateblue.png,stimulus/viswhere_stim/blank_white.png,stimulus/viswhere_stim/line_box.png,stimulus/viswhere_stim/line_yes.png,stimulus/viswhere_stim/line_no.png,None,Line,None,Dot,2,0.0,0,5.125,0,5.125,0,5.125,0,0.0,0.625,0,0.0,0,0.0,1,0.5,1,2.125,0,0.0,0,0.0,0,0.0,0,0.0,0,,,,,0,49,49,49,,,,,,,,,454.2431247499999,454.2431247499999,454.2431247499999,454.2431247499999,454.2431247499999,454.2431247499999,454.2431247499999,454.2431247499999,454.2220890826667,454.2431247499999,454.2431247499999,454.2431247499999,454.2220890826667,454.2431247499999,454.2431247499999,454.2431247499999,456.33836791600015,460.30304820799984,454.2431247499999,454.2431247499999,459.3804700830001,454.72408458300015,455.74190362499985,456.33836791600015,457.3418972909999,454.2431247499999,454.2431247499999,454.2387557493334,454.2431247499999,454.2431247499999,454.2431247499999,454.2387557493334,454.2431247499999,454.2431247499999,459.3804700830001,454.2431247499999,459.3804700830001,459.4640866660002,460.0879975830003,454.2431247499999,2,1,1.4172712079998746,reldom2_s015,001,2025-02-14_14h44.41.532,Where-B-Scan_AC,2022.2.5,None,
38,First_Order,7.0,viswhere,stimulus/viswhere_stim/blank_white.png,stimulus/viswhere_stim/blank_white.png,stimulus/viswhere_stim/120-deg_dot-left_mediumslateblue.png,stimulus/viswhere_stim/120-deg_dot-right_seagreen.png,stimulus/viswhere_stim/blank_white.png,stimulus/viswhere_stim/dot_box.png,stimulus/viswhere_stim/dot_yes.png,stimulus/viswhere_stim/dot_no.png,None,Dot,None,Line,2,0.0,0,5.125,0,5.125,0,5.125,0,0.0,0.625,0,0.0,0,0.0,1,0.5,1,2.125,0,0.0,0,0.0,0,0.0,0,0.0,0,,,,,0,50,50,50,,,,,,,,,460.30304820799984,460.30304820799984,460.30304820799984,460.30304820799984,460.30304820799984,460.30304820799984,460.30304820799984,460.30304820799984,460.28193087433357,460.30304820799984,460.30304820799984,460.30304820799984,460.28193087433357,460.30304820799984,460.30304820799984,460.30304820799984,462.404020125,466.37570700000015,460.30304820799984,460.30304820799984,465.4283560409999,460.7808602079999,461.7938595410001,462.404020125,463.42236104099993,460.30304820799984,460.30304820799984,460.2985975410002,460.30304820799984,460.30304820799984,460.30304820799984,460.2985975410002,460.30304820799984,460.30304820799984,465.4283560409999,460.30304820799984,465.4283560409999,465.52501625000014,466.1718965,460.30304820799984,2,1,0.9515393330002553,reldom2_s015,001,2025-02-14_14h44.41.532,Where-B-Scan_AC,2022.2.5,None,
39,First_Order,7.0,viswhere,stimulus/viswhere_stim/blank_white.png,stimulus/viswhere_stim/blank_white.png,stimulus/viswhere_stim/60-deg_dot-right_salmon.png,stimulus/viswhere_stim/60-deg_dot-left_peru.png,stimulus/viswhere_stim/blank_white.png,stimulus/viswhere_stim/line_box.png,stimulus/viswhere_stim/line_yes.png,stimulus/viswhere_stim/line_no.png,None,Line,None,Line,1,0.0,0,5.125,0,5.125,0,5.125,0,0.0,0.625,0,0.0,0,0.0,1,0.5,1,2.125,0,0.0,0,0.0,0,0.0,0,0.0,0,,,,,0,51,51,51,,,,,,,,,466.37570700000015,466.37570700000015,466.37570700000015,466.37570700000015,466.37570700000015,466.37570700000015,466.37570700000015,466.37570700000015,466.3555597493335,466.37570700000015,466.37570700000015,466.37570700000015,466.3555597493335,466.37570700000015,466.37570700000015,466.37570700000015,468.4849595410001,472.4567783329999,466.37570700000015,466.37570700000015,471.5138521250001,466.85624991600025,467.87089625,468.4849595410001,469.5031059160001,466.37570700000015,466.37570700000015,466.37222641600016,466.37570700000015,466.37570700000015,466.37570700000015,466.37222641600016,466.37570700000015,466.37570700000015,471.5138521250001,466.37570700000015,471.5138521250001,471.60123283300027,472.22623620800005,466.37570700000015,1,1,1.1224183330000415,reldom2_s015,001,2025-02-14_14h44.41.532,Where-B-Scan_AC,2022.2.5,None,
40,First_Order,7.0,viswhere,stimulus/viswhere_stim/blank_white.png,stimulus/viswhere_stim/blank_white.png,stimulus/viswhere_stim/60-deg_dot-right_slateblue.png,stimulus/viswhere_stim/90-deg_dot-right_royalblue.png,stimulus/viswhere_stim/blank_white.png,stimulus/viswhere_stim/dot_box.png,stimulus/viswhere_stim/dot_yes.png,stimulus/viswhere_stim/dot_no.png,None,Dot,None,Dot,1,0.0,0,5.125,0,5.125,0,5.125,0,0.0,0.625,0,0.0,0,0.0,1,0.5,1,2.125,0,0.0,0,0.0,0,0.0,0,0.0,0,,,,,0,52,52,52,,,,,,,,,472.4567783329999,472.4567783329999,472.4567783329999,472.4567783329999,472.4567783329999,472.4567783329999,472.4567783329999,472.4567783329999,472.43658674933323,472.4567783329999,472.4567783329999,472.4567783329999,472.43658674933323,472.4567783329999,472.4567783329999,472.4567783329999,474.56380479100017,478.59873000000016,472.4567783329999,472.4567783329999,477.5937263750002,472.93647545800013,473.9525237500002,474.56380479100017,475.5820828330002,472.4567783329999,472.4567783329999,472.4532534159999,472.4567783329999,472.4567783329999,472.4567783329999,472.4532534159999,472.4567783329999,472.4567783329999,477.5937263750002,472.4567783329999,477.5937263750002,477.675988083,478.303917708,472.4567783329999,1,1,1.1108770410000943,reldom2_s015,001,2025-02-14_14h44.41.532,Where-B-Scan_AC,2022.2.5,None,
0,0.0,None,fixation,stimulus/audwhere_stim/blank_white.png,stimulus/audwhere_stim/blank_white.png,stimulus/viswhere_stim/blank_white.png,stimulus/viswhere_stim/blank_white.png,stimulus/audwhere_stim/blank_white.png,stimulus/audwhere_stim/blank_white.png,stimulus/audwhere_stim/blank_white.png,stimulus/audwhere_stim/blank_white.png,0.0,0.0,0.0,0.0,0,0.0,0,0.0,0,0.0,0,0.0,0,0.0,0.0,0,0.0,0,0.0,0,0.0,0,0.0,0,0.0,0,0.0,0,0.0,0,0.0,8,,,,,0,53,53,53,,,,,,,,,478.59873000000016,478.59873000000016,478.59873000000016,478.59873000000016,478.59873000000016,478.59873000000016,478.59873000000016,478.59873000000016,478.50010424933345,478.59873000000016,478.59873000000016,478.59873000000016,478.50010424933345,478.59873000000016,478.59873000000016,478.59873000000016,478.59873000000016,478.59873000000016,478.59873000000016,478.59873000000016,478.59873000000016,478.59873000000016,478.59873000000016,478.59873000000016,478.59873000000016,478.59873000000016,478.59873000000016,478.55010424933346,478.59873000000016,478.59873000000016,478.59873000000016,478.55010424933346,478.59873000000016,478.59873000000016,478.59873000000016,478.59873000000016,478.59873000000016,483.7930180829999,483.7930180829999,486.70293204100017,None,0,,reldom2_s015,001,2025-02-14_14h44.41.532,Where-B-Scan_AC,2022.2.5,None,
41,Second_Order,7.0,viswhere,stimulus/viswhere_stim/60-deg_dot-right_seagreen.png,stimulus/viswhere_stim/30-deg_dot-right_mediumslateblue.png,stimulus/viswhere_stim/60-deg_dot-left_mediumslateblue.png,stimulus/viswhere_stim/150-deg_dot-left_salmon.png,stimulus/audwhere_stim/match_blank.png,stimulus/audwhere_stim/match_box.png,stimulus/audwhere_stim/match_yes.png,stimulus/audwhere_stim/match_no.png,1.0,Match,Dot,Dot,1,5.125,0,5.125,0,5.125,0,5.125,0,0.75,0.75,1,0.5,1,2.125,1,0.5,1,2.125,0,0.0,0,0.0,0,0.0,0,0.0,0,,,,,0,54,54,54,,,,,,,,,486.70293204100017,491.82014045799997,487.187720333,488.17732849999993,488.81339641600016,489.81078375000016,486.70293204100017,486.70293204100017,486.71809362433316,486.70293204100017,486.70293204100017,486.70293204100017,486.71809362433316,486.70293204100017,491.82014045799997,492.61405104100004,494.688104416,498.58742600000005,492.61405104100004,492.61405104100004,497.74934266599985,493.06232954100005,494.0706163330001,494.688104416,495.69867004100024,492.61405104100004,492.61405104100004,492.5881113743335,492.61405104100004,492.61405104100004,492.61405104100004,492.5881113743335,492.61405104100004,492.61405104100004,497.74934266599985,492.61405104100004,497.74934266599985,497.811780041,498.58742600000005,492.61405104100004,1,1,1.2056912500002,reldom2_s015,001,2025-02-14_14h44.41.532,Where-B-Scan_AC,2022.2.5,None,
42,Second_Order,7.0,viswhere,stimulus/viswhere_stim/90-deg_dot-right_goldenrod.png,stimulus/viswhere_stim/120-deg_dot-right_mediumslateblue.png,stimulus/viswhere_stim/60-deg_dot-right_peru.png,stimulus/viswhere_stim/60-deg_dot-left_mediumslateblue.png,stimulus/audwhere_stim/match_blank.png,stimulus/audwhere_stim/match_box.png,stimulus/audwhere_stim/match_yes.png,stimulus/audwhere_stim/match_no.png,2.0,Match,Dot,Line,2,5.125,0,5.125,0,5.125,0,5.125,0,0.625,0.625,1,0.5,1,2.125,1,0.5,1,2.125,0,0.0,0,0.0,0,0.0,0,0.0,0,,,,,0,55,55,55,,,,,,,,,498.58742600000005,503.70947545800027,499.0691006249999,500.06735637500014,500.68984066600024,501.6881249160001,498.58742600000005,498.58742600000005,498.60141887499987,498.58742600000005,498.58742600000005,498.58742600000005,498.60141887499987,498.58742600000005,503.70947545800027,504.38456162500006,506.4617708330002,510.49935341599985,504.38456162500006,504.38456162500006,509.52223479099985,504.84983724999984,505.86672612500024,506.4617708330002,507.4825631660001,504.38456162500006,504.38456162500006,504.3612340413333,504.38456162500006,504.38456162500006,504.38456162500006,504.3612340413333,504.38456162500006,504.38456162500006,509.52223479099985,504.38456162500006,509.52223479099985,509.5767741660002,510.2069799579999,504.38456162500006,2,1,1.1927810000001955,reldom2_s015,001,2025-02-14_14h44.41.532,Where-B-Scan_AC,2022.2.5,None,
0,0.0,None,fixation,stimulus/audwhere_stim/blank_white.png,stimulus/audwhere_stim/blank_white.png,stimulus/viswhere_stim/blank_white.png,stimulus/viswhere_stim/blank_white.png,stimulus/audwhere_stim/blank_white.png,stimulus/audwhere_stim/blank_white.png,stimulus/audwhere_stim/blank_white.png,stimulus/audwhere_stim/blank_white.png,0.0,0.0,0.0,0.0,0,0.0,0,0.0,0,0.0,0,0.0,0,0.0,0.0,0,0.0,0,0.0,0,0.0,0,0.0,0,0.0,0,0.0,0,0.0,0,0.0,8,,,,,0,56,56,56,,,,,,,,,510.49935341599985,510.49935341599985,510.49935341599985,510.49935341599985,510.49935341599985,510.49935341599985,510.49935341599985,510.49935341599985,510.4003364993335,510.49935341599985,510.49935341599985,510.49935341599985,510.4003364993335,510.49935341599985,510.49935341599985,510.49935341599985,510.49935341599985,510.49935341599985,510.49935341599985,510.49935341599985,510.49935341599985,510.49935341599985,510.49935341599985,510.49935341599985,510.49935341599985,510.49935341599985,510.49935341599985,510.4503364993335,510.49935341599985,510.49935341599985,510.49935341599985,510.4503364993335,510.49935341599985,510.49935341599985,510.49935341599985,510.49935341599985,510.49935341599985,515.7302666250002,515.7302666250002,518.6965086660002,None,0,,reldom2_s015,001,2025-02-14_14h44.41.532,Where-B-Scan_AC,2022.2.5,None,
43,First_Order,8.0,viswhere,stimulus/viswhere_stim/blank_white.png,stimulus/viswhere_stim/blank_white.png,stimulus/viswhere_stim/120-deg_dot-left_lightsseagreen.png,stimulus/viswhere_stim/120-deg_dot-right_royalblue.png,stimulus/viswhere_stim/blank_white.png,stimulus/viswhere_stim/line_box.png,stimulus/viswhere_stim/line_yes.png,stimulus/viswhere_stim/line_no.png,None,Line,None,Line,1,0.0,0,5.125,0,5.125,0,5.125,0,0.0,0.625,0,0.0,0,0.0,1,0.5,1,2.125,0,0.0,0,0.0,0,0.0,0,0.0,0,,,,,0,57,57,57,,,,,,,,,518.6965086660002,518.6965086660002,518.6965086660002,518.6965086660002,518.6965086660002,518.6965086660002,518.6965086660002,518.6965086660002,518.6773145416665,518.6965086660002,518.6965086660002,518.6965086660002,518.6773145416665,518.6965086660002,518.6965086660002,518.6965086660002,520.7979083330001,524.7586650829999,518.6965086660002,518.6965086660002,523.8176790410002,519.1746800830001,520.188177083,520.7979083330001,521.8127718330002,518.6965086660002,518.6965086660002,518.6773145416665,518.6965086660002,518.6965086660002,518.6965086660002,518.6773145416665,518.6965086660002,518.6965086660002,523.8176790410002,518.6965086660002,523.8176790410002,523.9136724160003,524.5400280409999,518.6965086660002,1,1,1.6067039590002423,reldom2_s015,001,2025-02-14_14h44.41.532,Where-B-Scan_AC,2022.2.5,None,
44,First_Order,8.0,viswhere,stimulus/viswhere_stim/blank_white.png,stimulus/viswhere_stim/blank_white.png,stimulus/viswhere_stim/60-deg_dot-right_peru.png,stimulus/viswhere_stim/90-deg_dot-right_turquoise.png,stimulus/viswhere_stim/blank_white.png,stimulus/viswhere_stim/dot_box.png,stimulus/viswhere_stim/dot_yes.png,stimulus/viswhere_stim/dot_no.png,None,Dot,None,Dot,1,0.0,0,5.125,0,5.125,0,5.125,0,0.0,0.625,0,0.0,0,0.0,1,0.5,1,2.125,0,0.0,0,0.0,0,0.0,0,0.0,0,,,,,0,58,58,58,,,,,,,,,524.7586650829999,524.7586650829999,524.7586650829999,524.7586650829999,524.7586650829999,524.7586650829999,524.7586650829999,524.7586650829999,524.7375307493334,524.7586650829999,524.7586650829999,524.7586650829999,524.7375307493334,524.7586650829999,524.7586650829999,524.7586650829999,526.8622044160002,530.8257880830001,524.7586650829999,524.7586650829999,529.8860878750002,525.237819208,526.2529465410003,526.8622044160002,527.877947041,524.7586650829999,524.7586650829999,524.754197416,524.7586650829999,524.7586650829999,524.7586650829999,524.754197416,524.7586650829999,524.7586650829999,529.8860878750002,524.7586650829999,529.8860878750002,529.982863666,530.6077584160003,524.7586650829999,1,1,1.0147265840000728,reldom2_s015,001,2025-02-14_14h44.41.532,Where-B-Scan_AC,2022.2.5,None,
45,First_Order,8.0,viswhere,stimulus/viswhere_stim/blank_white.png,stimulus/viswhere_stim/blank_white.png,stimulus/viswhere_stim/150-deg_dot-right_lightsseagreen.png,stimulus/viswhere_stim/150-deg_dot-left_royalblue.png,stimulus/viswhere_stim/blank_white.png,stimulus/viswhere_stim/dot_box.png,stimulus/viswhere_stim/dot_yes.png,stimulus/viswhere_stim/dot_no.png,None,Dot,None,Line,2,0.0,0,5.125,0,5.125,0,5.125,0,0.0,0.625,0,0.0,0,0.0,1,0.5,1,2.125,0,0.0,0,0.0,0,0.0,0,0.0,0,,,,,0,59,59,59,,,,,,,,,530.8257880830001,530.8257880830001,530.8257880830001,530.8257880830001,530.8257880830001,530.8257880830001,530.8257880830001,530.8257880830001,530.8044661243333,530.8257880830001,530.8257880830001,530.8257880830001,530.8044661243333,530.8257880830001,530.8257880830001,530.8257880830001,532.9306485410002,536.8919516250003,530.8257880830001,530.8257880830001,535.9520725410002,531.3084253749998,532.3139577500001,532.9306485410002,533.9410802500001,530.8257880830001,530.8257880830001,530.821132791,530.8257880830001,530.8257880830001,530.8257880830001,530.821132791,530.8257880830001,530.8257880830001,535.9520725410002,530.8257880830001,535.9520725410002,536.0499183330003,536.675805416,530.8257880830001,2,1,0.9534707919997345,reldom2_s015,001,2025-02-14_14h44.41.532,Where-B-Scan_AC,2022.2.5,None,
46,First_Order,8.0,viswhere,stimulus/viswhere_stim/blank_white.png,stimulus/viswhere_stim/blank_white.png,stimulus/viswhere_stim/30-deg_dot-left_salmon.png,stimulus/viswhere_stim/150-deg_dot-left_turquoise.png,stimulus/viswhere_stim/blank_white.png,stimulus/viswhere_stim/line_box.png,stimulus/viswhere_stim/line_yes.png,stimulus/viswhere_stim/line_no.png,None,Line,None,Dot,2,0.0,0,5.125,0,5.125,0,5.125,0,0.0,0.625,0,0.0,0,0.0,1,0.5,1,2.125,0,0.0,0,0.0,0,0.0,0,0.0,0,,,,,0,60,60,60,,,,,,,,,536.8919516250003,536.8919516250003,536.8919516250003,536.8919516250003,536.8919516250003,536.8919516250003,536.8919516250003,536.8919516250003,536.8706819163334,536.8919516250003,536.8919516250003,536.8919516250003,536.8706819163334,536.8919516250003,536.8919516250003,536.8919516250003,538.9918581249999,543.0286580830002,536.8919516250003,536.8919516250003,542.024826333,537.3738710410003,538.3769979580002,538.9918581249999,539.9988592909999,536.8919516250003,536.8919516250003,536.8873485830001,536.8919516250003,536.8919516250003,536.8919516250003,536.8873485830001,536.8919516250003,536.8919516250003,542.024826333,536.8919516250003,542.024826333,542.121931791,542.748691666,536.8919516250003,2,1,1.3696979579999606,reldom2_s015,001,2025-02-14_14h44.41.532,Where-B-Scan_AC,2022.2.5,None,
0,0.0,None,fixation,stimulus/audwhere_stim/blank_white.png,stimulus/audwhere_stim/blank_white.png,stimulus/viswhere_stim/blank_white.png,stimulus/viswhere_stim/blank_white.png,stimulus/audwhere_stim/blank_white.png,stimulus/audwhere_stim/blank_white.png,stimulus/audwhere_stim/blank_white.png,stimulus/audwhere_stim/blank_white.png,0.0,0.0,0.0,0.0,0,0.0,0,0.0,0,0.0,0,0.0,0,0.0,0.0,0,0.0,0,0.0,0,0.0,0,0.0,0,0.0,0,0.0,0,0.0,0,0.0,9,,,,,0,61,61,61,,,,,,,,,543.0286580830002,543.0286580830002,543.0286580830002,543.0286580830002,543.0286580830002,543.0286580830002,543.0286580830002,543.0286580830002,542.9290964163332,543.0286580830002,543.0286580830002,543.0286580830002,542.9290964163332,543.0286580830002,543.0286580830002,543.0286580830002,543.0286580830002,543.0286580830002,543.0286580830002,543.0286580830002,543.0286580830002,543.0286580830002,543.0286580830002,543.0286580830002,543.0286580830002,543.0286580830002,543.0286580830002,542.9790964163332,543.0286580830002,543.0286580830002,543.0286580830002,542.9790964163332,543.0286580830002,543.0286580830002,543.0286580830002,543.0286580830002,543.0286580830002,548.233884625,548.233884625,552.1591287910001,None,0,,reldom2_s015,001,2025-02-14_14h44.41.532,Where-B-Scan_AC,2022.2.5,None,
47,Second_Order,8.0,viswhere,stimulus/viswhere_stim/90-deg_dot-left_lightsseagreen.png,stimulus/viswhere_stim/120-deg_dot-left_royalblue.png,stimulus/viswhere_stim/30-deg_dot-right_mediumslateblue.png,stimulus/viswhere_stim/60-deg_dot-right_lightsseagreen.png,stimulus/audwhere_stim/match_blank.png,stimulus/audwhere_stim/match_box.png,stimulus/audwhere_stim/match_yes.png,stimulus/audwhere_stim/match_no.png,1.0,Match,Dot,Dot,1,5.125,0,5.125,0,5.125,0,5.125,0,0.75,0.75,1,0.5,1,2.125,1,0.5,1,2.125,0,0.0,0,0.0,0,0.0,0,0.0,0,,,,,0,62,62,62,,,,,,,,,552.1591287910001,557.2715977080002,552.6427533330002,553.6415080830002,554.2652092080002,555.261725375,552.1591287910001,552.1591287910001,552.1583683746666,552.1591287910001,552.1591287910001,552.1591287910001,552.1583683746666,552.1591287910001,557.2715977080002,558.063703666,560.142703083,564.0345210410001,558.063703666,558.063703666,563.2030299160001,558.5091872080002,559.5266415830001,560.142703083,561.1458156660001,558.063703666,558.063703666,558.0386142913335,558.063703666,558.063703666,558.063703666,558.0386142913335,558.063703666,558.063703666,563.2030299160001,558.063703666,563.2030299160001,563.2600944159999,564.0345210410001,558.063703666,1,1,1.0986750830002165,reldom2_s015,001,2025-02-14_14h44.41.532,Where-B-Scan_AC,2022.2.5,None,
48,Second_Order,8.0,viswhere,stimulus/viswhere_stim/60-deg_dot-left_seagreen.png,stimulus/viswhere_stim/90-deg_dot-left_peru.png,stimulus/viswhere_stim/30-deg_dot-right_turquoise.png,stimulus/viswhere_stim/30-deg_dot-left_lightsseagreen.png,stimulus/audwhere_stim/match_blank.png,stimulus/audwhere_stim/match_box.png,stimulus/audwhere_stim/match_yes.png,stimulus/audwhere_stim/match_no.png,2.0,Match,Dot,Line,2,5.125,0,5.125,0,5.125,0,5.125,0,0.625,0.625,1,0.5,1,2.125,1,0.5,1,2.125,0,0.0,0,0.0,0,0.0,0,0.0,0,,,,,0,63,63,63,,,,,,,,,564.0345210410001,569.1497235410002,564.5203281250001,565.5191439999999,566.1411040000003,567.13924425,564.0345210410001,564.0345210410001,564.0478821660001,564.0345210410001,564.0345210410001,564.0345210410001,564.0478821660001,564.0345210410001,569.1497235410002,569.8147856660003,571.9093500829999,575.9432480410001,569.8147856660003,569.8147856660003,574.9502232499999,570.2796834159999,571.2955259999999,571.9093500829999,572.9128968750001,569.8147856660003,569.8147856660003,569.7953509163335,569.8147856660003,569.8147856660003,569.8147856660003,569.7953509163335,569.8147856660003,569.8147856660003,574.9502232499999,569.8147856660003,574.9502232499999,575.0205437079999,575.6458218329999,569.8147856660003,2,1,1.5167577080001138,reldom2_s015,001,2025-02-14_14h44.41.532,Where-B-Scan_AC,2022.2.5,None,
0,0.0,None,fixation,stimulus/audwhere_stim/blank_white.png,stimulus/audwhere_stim/blank_white.png,stimulus/viswhere_stim/blank_white.png,stimulus/viswhere_stim/blank_white.png,stimulus/audwhere_stim/blank_white.png,stimulus/audwhere_stim/blank_white.png,stimulus/audwhere_stim/blank_white.png,stimulus/audwhere_stim/blank_white.png,0.0,0.0,0.0,0.0,0,0.0,0,0.0,0,0.0,0,0.0,0,0.0,0.0,0,0.0,0,0.0,0,0.0,0,0.0,0,0.0,0,0.0,0,0.0,0,0.0,16,,,,,0,64,64,64,,,,,,,,,575.9432480410001,575.9432480410001,575.9432480410001,575.9432480410001,575.9432480410001,575.9432480410001,575.9432480410001,575.9432480410001,575.8416429993334,575.9432480410001,575.9432480410001,575.9432480410001,575.8416429993334,575.9432480410001,575.9432480410001,575.9432480410001,575.9432480410001,575.9432480410001,575.9432480410001,575.9432480410001,575.9432480410001,575.9432480410001,575.9432480410001,575.9432480410001,575.9432480410001,575.9432480410001,575.9432480410001,575.8916429993334,575.9432480410001,575.9432480410001,575.9432480410001,575.8916429993334,575.9432480410001,575.9432480410001,575.9432480410001,575.9432480410001,575.9432480410001,581.1269609159999,581.1269609159999,592.0737157910003,None,0,,reldom2_s015,001,2025-02-14_14h44.41.532,Where-B-Scan_AC,2022.2.5,None,
