Trial,Order,Block,Type,Stimuli_File1,Stimuli_File2,Stimuli_File3,Stimuli_File4,Cue_File1,Cue_File2,Response_File_Yes,Response_File_No,Match,Cue_Dimension,Pair1_Dimension,Pair2_Dimension,Key,Cue1_Duration,Cue1_Onset,Cue2_Duration,Cue2_Onset,ResponseYes_Duration,ResponseYes_Onset,ResponseNo_Duration,ResponseNo_Onset,ITI_Within,ITI_Between,Image1_Duration,Image1_Onset,Image2_Duration,Image2_Onset,Image3_Duration,Image3_Onset,Image4_Duration,Image4_Onset,Sound1_Duration,Sound1_Onset,Sound2_Duration,Sound2_Onset,Sound3_Duration,Sound3_Onset,Sound4_Duration,Sound4_Onset,Fixation_Duration,trials_2.thisRepN,trials_2.thisTrialN,trials_2.thisN,trials_2.thisIndex,trials.thisRepN,trials.thisTrialN,trials.thisN,trials.thisIndex,text_start.started,key_resp_start.started,key_resp_start.keys,key_resp_start.rt,text2.started,key_resp_2.started,key_resp_2.keys,key_resp_2.rt,cue_file1.started,cue_file1.stopped,image_1.started,image_1.stopped,image_2.started,image_2.stopped,sound_icon1.started,sound_icon1.stopped,sound_1.started,sound_1.stopped,sound_icon2.started,sound_icon2.stopped,sound_2.started,sound_2.stopped,image_blank_1.started,image_blank_1.stopped,key_press.started,key_press.stopped,fixation_text.started,cue_file2.started,cue_file2.stopped,image_3.started,image_3.stopped,image_4.started,image_4.stopped,sound_icon3.started,sound_icon3.stopped,sound_3.started,sound_3.stopped,sound_icon4.started,sound_icon4.stopped,sound_4.started,sound_4.stopped,response_yes.started,response_yes.stopped,response_no.started,response_no.stopped,iti_blank.started,iti_blank.stopped,fixation_text.stopped,key_press.keys,key_press.corr,key_press.rt,participant,session,date,expName,psychopyVersion,frameRate,
,,,,,,,,,,,,,,,,,,,,,,,,,,,,,,,,,,,,,,,,,,,,,,,,,,,,8.801222790999873,8.801222790999873,2,0.9982538750005006,,,,,,,,,,,,,,,,,,,,,,,,,,,,,,,,,,,,,,,,,,,,,,,,reldom2_s015,001,2025-02-14_14h55.51.093,Aud-B-Scan_AC,2022.2.5,None,
,,,,,,,,,,,,,,,,,,,,,,,,,,,,,,,,,,,,,,,,,,,,0,0,0,0,,,,,,,,,9.83850795799981,9.83850795799981,5,17.335835417,,,,,,,,,,,,,,,,,,,,,,,,,,,,,,,,,,,,,,,,,,,,reldom2_s015,001,2025-02-14_14h55.51.093,Aud-B-Scan_AC,2022.2.5,None,
,,,,,,,,,,,,,,,,,,,,,,,,,,,,,,,,,,,,,,,,,,,,1,0,1,0,,,,,,,,,27.18756616599967,27.18756616599967,5,1.982813540999814,,,,,,,,,,,,,,,,,,,,,,,,,,,,,,,,,,,,,,,,,,,,reldom2_s015,001,2025-02-14_14h55.51.093,Aud-B-Scan_AC,2022.2.5,None,
,,,,,,,,,,,,,,,,,,,,,,,,,,,,,,,,,,,,,,,,,,,,2,0,2,0,,,,,,,,,29.191457249999985,29.191457249999985,5,1.9777032080000936,,,,,,,,,,,,,,,,,,,,,,,,,,,,,,,,,,,,,,,,,,,,reldom2_s015,001,2025-02-14_14h55.51.093,Aud-B-Scan_AC,2022.2.5,None,
,,,,,,,,,,,,,,,,,,,,,,,,,,,,,,,,,,,,,,,,,,,,3,0,3,0,,,,,,,,,31.188803540999743,31.188803540999743,5,1.9815759160001107,,,,,,,,,,,,,,,,,,,,,,,,,,,,,,,,,,,,,,,,,,,,reldom2_s015,001,2025-02-14_14h55.51.093,Aud-B-Scan_AC,2022.2.5,None,
0,0.0,None,fixation,stimulus/audwhat_stim/blank_white.png,stimulus/audwhat_stim/blank_white.png,stimulus/audwhere_stim/blank_white.png,stimulus/audwhere_stim/blank_white.png,stimulus/audwhat_stim/blank_white.png,stimulus/audwhat_stim/blank_white.png,stimulus/audwhat_stim/blank_white.png,stimulus/audwhat_stim/blank_white.png,0.0,0.0,0.0,0.0,0,0.0,0,0.0,0,0.0,0,0.0,0,0.0,0.0,0,0,0,0,0,0,0,0,0,0.0,0,0.0,0,0.0,0,0.0,16,,,,,0,0,0,0,,,,,,,,,33.383809540999664,33.383809540999664,33.383809540999664,33.383809540999664,33.383809540999664,33.383809540999664,33.383809540999664,33.383809540999664,33.28834004166662,33.383809540999664,33.383809540999664,33.383809540999664,33.28834004166662,33.383809540999664,33.383809540999664,33.383809540999664,33.383809540999664,33.383809540999664,33.383809540999664,33.383809540999664,33.383809540999664,33.383809540999664,33.383809540999664,33.383809540999664,33.383809540999664,33.383809540999664,33.383809540999664,33.33834004166662,33.383809540999664,33.383809540999664,33.383809540999664,33.33834004166662,33.383809540999664,33.383809540999664,33.383809540999664,33.383809540999664,33.383809540999664,38.59296987499965,38.59296987499965,49.59032049999996,None,0,,reldom2_s015,001,2025-02-14_14h55.51.093,Aud-B-Scan_AC,2022.2.5,None,
1,First_Order,1.0,audwhat,stimulus/audwhat_stim/dummy.wav,stimulus/audwhat_stim/dummy.wav,stimulus/audwhat_stim/string viola_low-pitch_F_loud.wav,stimulus/audwhat_stim/string cello_high-pitch_Dtri_loud.wav,stimulus/audwhat_stim/blank_white.png,stimulus/audwhat_stim/pitch_box.png,stimulus/audwhat_stim/pitch_yes.png,stimulus/audwhat_stim/pitch_no.png,None,Pitch,None,Category,2,0.0,0,5.125,0,5.125,0,5.125,0,0.0,0.625,0,0,0,0,0,0,0,0,0,0.0,0,0.0,1,0.5,1,2.125,0,,,,,0,1,1,1,,,,,,,,,49.59032049999996,49.59032049999996,49.59032049999996,49.59032049999996,49.59032049999996,49.59032049999996,49.59032049999996,49.59032049999996,49.51687691599991,49.59032049999996,49.59032049999996,49.59032049999996,49.51687691599991,49.59032049999996,49.59032049999996,49.59032049999996,51.68920541599982,,49.59032049999996,49.59032049999996,54.75174783300008,49.59032049999996,49.59032049999996,49.59032049999996,49.59032049999996,50.046733499999846,51.095209540999804,50.01779474966658,,51.68920541599982,52.74010795799995,51.660003874666714,,49.59032049999996,54.75174783300008,49.59032049999996,54.75174783300008,54.79169324999975,55.4766381659997,49.59032049999996,2,1,1.1929734579998694,reldom2_s015,001,2025-02-14_14h55.51.093,Aud-B-Scan_AC,2022.2.5,None,
2,First_Order,1.0,audwhat,stimulus/audwhat_stim/dummy.wav,stimulus/audwhat_stim/dummy.wav,stimulus/audwhat_stim/percussion xylophone_high-pitch_Ftri_loud.wav,stimulus/audwhat_stim/string viola_high-pitch_Ftri_loud.wav,stimulus/audwhat_stim/blank_white.png,stimulus/audwhat_stim/pitch_box.png,stimulus/audwhat_stim/pitch_yes.png,stimulus/audwhat_stim/pitch_no.png,None,Pitch,None,Pitch,1,0.0,0,5.125,0,5.125,0,5.125,0,0.0,0.625,0,0,0,0,0,0,0,0,0,0.0,0,0.0,1,0.5,1,2.125,0,,,,,0,2,2,2,,,,,,,,,55.68976266599975,55.68976266599975,55.68976266599975,55.68976266599975,55.68976266599975,55.68976266599975,55.68976266599975,55.68976266599975,55.609971499333035,55.68976266599975,55.68976266599975,55.68976266599975,55.609971499333035,55.68976266599975,55.68976266599975,55.68976266599975,57.78747870799998,61.80707783299977,55.68976266599975,55.68976266599975,60.86576691599976,55.68976266599975,55.68976266599975,55.68976266599975,55.68976266599975,56.14697854099995,57.1929044579997,56.117853082666684,57.1929044579997,57.78747870799998,58.84342354099999,57.757743499666745,,55.68976266599975,60.86576691599976,55.68976266599975,60.86576691599976,60.90604274999987,61.55526624999993,55.68976266599975,1,1,1.7992725000003702,reldom2_s015,001,2025-02-14_14h55.51.093,Aud-B-Scan_AC,2022.2.5,None,
3,First_Order,1.0,audwhat,stimulus/audwhat_stim/dummy.wav,stimulus/audwhat_stim/dummy.wav,stimulus/audwhat_stim/string viola_low-pitch_Dtri_loud.wav,stimulus/audwhat_stim/percussion mallet_low-pitch_Dtri_loud.wav,stimulus/audwhat_stim/blank_white.png,stimulus/audwhat_stim/category_box.png,stimulus/audwhat_stim/category_yes.png,stimulus/audwhat_stim/category_no.png,None,Category,None,Pitch,2,0.0,0,5.125,0,5.125,0,5.125,0,0.0,0.625,0,0,0,0,0,0,0,0,0,0.0,0,0.0,1,0.5,1,2.125,0,,,,,0,3,3,3,,,,,,,,,61.80707783299977,61.80707783299977,61.80707783299977,61.80707783299977,61.80707783299977,61.80707783299977,61.80707783299977,61.80707783299977,61.729039166333344,61.80707783299977,61.80707783299977,61.80707783299977,61.729039166333344,61.80707783299977,61.80707783299977,61.80707783299977,63.89229362499964,,61.80707783299977,61.80707783299977,66.99455979100003,61.80707783299977,61.80707783299977,61.80707783299977,61.80707783299977,62.27064283299978,63.338047665999966,62.2407419576664,,63.89229362499964,64.95657908299972,63.86248620766652,,61.80707783299977,66.99455979100003,61.80707783299977,66.99455979100003,67.03547587499997,67.68822533299999,61.80707783299977,2,1,1.3182241250001425,reldom2_s015,001,2025-02-14_14h55.51.093,Aud-B-Scan_AC,2022.2.5,None,
4,First_Order,1.0,audwhat,stimulus/audwhat_stim/dummy.wav,stimulus/audwhat_stim/dummy.wav,stimulus/audwhat_stim/percussion mallet_low-pitch_D_loud.wav,stimulus/audwhat_stim/percussion xylophone_high-pitch_Dtri_loud.wav,stimulus/audwhat_stim/blank_white.png,stimulus/audwhat_stim/pitch_box.png,stimulus/audwhat_stim/pitch_yes.png,stimulus/audwhat_stim/pitch_no.png,None,Pitch,None,Category,2,0.0,0,5.125,0,5.125,0,5.125,0,0.0,0.625,0,0,0,0,0,0,0,0,0,0.0,0,0.0,1,0.5,1,2.125,0,,,,,0,4,4,4,,,,,,,,,67.90108333299986,67.90108333299986,67.90108333299986,67.90108333299986,67.90108333299986,67.90108333299986,67.90108333299986,67.90108333299986,67.82155866633332,67.90108333299986,67.90108333299986,67.90108333299986,67.82155866633332,67.90108333299986,67.90108333299986,67.90108333299986,69.98441420799963,,67.90108333299986,67.90108333299986,73.09290570799976,67.90108333299986,67.90108333299986,67.90108333299986,67.90108333299986,68.36304870799995,69.42866341599984,68.33364645766666,,69.98441420799963,71.05340141599982,69.95443391666664,71.00680574999978,67.90108333299986,73.09290570799976,67.90108333299986,73.09290570799976,73.09290570799976,73.74488595799994,67.90108333299986,2,1,0.9349296660002437,reldom2_s015,001,2025-02-14_14h55.51.093,Aud-B-Scan_AC,2022.2.5,None,
0,0.0,None,fixation,stimulus/audwhat_stim/blank_white.png,stimulus/audwhat_stim/blank_white.png,stimulus/audwhere_stim/blank_white.png,stimulus/audwhere_stim/blank_white.png,stimulus/audwhat_stim/blank_white.png,stimulus/audwhat_stim/blank_white.png,stimulus/audwhat_stim/blank_white.png,stimulus/audwhat_stim/blank_white.png,0.0,0.0,0.0,0.0,0,0.0,0,0.0,0,0.0,0,0.0,0,0.0,0.0,0,0,0,0,0,0,0,0,0,0.0,0,0.0,0,0.0,0,0.0,8,,,,,0,5,5,5,,,,,,,,,74.0193261659997,74.0193261659997,74.0193261659997,74.0193261659997,74.0193261659997,74.0193261659997,74.0193261659997,74.0193261659997,73.91905783333334,74.0193261659997,74.0193261659997,74.0193261659997,73.91905783333334,74.0193261659997,74.0193261659997,74.0193261659997,74.0193261659997,74.0193261659997,74.0193261659997,74.0193261659997,74.0193261659997,74.0193261659997,74.0193261659997,74.0193261659997,74.0193261659997,74.0193261659997,74.0193261659997,73.96905783333335,74.0193261659997,74.0193261659997,74.0193261659997,73.96905783333335,74.0193261659997,74.0193261659997,74.0193261659997,74.0193261659997,74.0193261659997,79.24481908300004,79.24481908300004,82.15827308300004,None,0,,reldom2_s015,001,2025-02-14_14h55.51.093,Aud-B-Scan_AC,2022.2.5,None,
5,Second_Order,1.0,audwhat,stimulus/audwhat_stim/percussion mallet_high-pitch_Dtri_loud.wav,stimulus/audwhat_stim/string cello_high-pitch_Dtri_loud.wav,stimulus/audwhat_stim/string viola_low-pitch_F_loud.wav,stimulus/audwhat_stim/percussion mallet_low-pitch_F_loud.wav,stimulus/audwhat_stim/match_blank.png,stimulus/audwhat_stim/match_box.png,stimulus/audwhat_stim/match_yes.png,stimulus/audwhat_stim/match_no.png,1.0,Match,Pitch,Pitch,1,5.125,0,5.125,0,5.125,0,5.125,0,0.75,0.75,0,0,0,0,0,0,0,0,1,0.5,1,2.125,1,0.5,1,2.125,0,,,,,0,6,6,6,,,,,,,,,82.15827308300004,87.28225370799964,82.15827308300004,82.15827308300004,82.15827308300004,82.15827308300004,82.61519566599964,83.60479458300006,82.61791729166659,,84.23960116599983,85.23808454099981,84.25215458266645,,87.28225370799964,88.14585666599987,90.21380258299996,,88.14585666599987,88.14585666599987,93.30967358299995,88.14585666599987,88.14585666599987,88.14585666599987,88.14585666599987,88.60224724999989,89.66338154100004,88.57274091666638,,90.21380258299996,91.27832395799987,90.18402820766666,,88.14585666599987,93.30967358299995,88.14585666599987,93.30967358299995,93.30967358299995,,88.14585666599987,1,1,1.2693383339997126,reldom2_s015,001,2025-02-14_14h55.51.093,Aud-B-Scan_AC,2022.2.5,None,
6,Second_Order,1.0,audwhat,stimulus/audwhat_stim/percussion mallet_low-pitch_F_loud.wav,stimulus/audwhat_stim/percussion mallet_high-pitch_Dtri_loud.wav,stimulus/audwhat_stim/string viola_low-pitch_Ftri_loud.wav,stimulus/audwhat_stim/percussion mallet_low-pitch_Ftri_loud.wav,stimulus/audwhat_stim/match_blank.png,stimulus/audwhat_stim/match_box.png,stimulus/audwhat_stim/match_yes.png,stimulus/audwhat_stim/match_no.png,2.0,Match,Category,Pitch,2,5.125,0,5.125,0,5.125,0,5.125,0,0.625,0.625,0,0,0,0,0,0,0,0,1,0.5,1,2.125,1,0.5,1,2.125,0,,,,,0,7,7,7,,,,,,,,,94.11682283299979,99.24218829099982,94.11682283299979,94.11682283299979,94.11682283299979,94.11682283299979,94.57644204100006,95.56600279099985,94.58037545766662,,96.20228704099964,97.19920779099994,96.2135583746665,,99.24218829099982,99.97035929100002,102.02966679099973,106.07059495799967,99.97035929100002,99.97035929100002,105.14959499999986,99.97035929100002,99.97035929100002,99.97035929100002,99.97035929100002,100.42635087500003,101.4794425,100.39705683266654,,102.02966679099973,103.08718562500007,102.00017024966634,,99.97035929100002,105.14959499999986,99.97035929100002,105.14959499999986,105.14959499999986,105.79943183299974,99.97035929100002,2,1,0.9895630000000892,reldom2_s015,001,2025-02-14_14h55.51.093,Aud-B-Scan_AC,2022.2.5,None,
0,0.0,None,fixation,stimulus/audwhat_stim/blank_white.png,stimulus/audwhat_stim/blank_white.png,stimulus/audwhere_stim/blank_white.png,stimulus/audwhere_stim/blank_white.png,stimulus/audwhat_stim/blank_white.png,stimulus/audwhat_stim/blank_white.png,stimulus/audwhat_stim/blank_white.png,stimulus/audwhat_stim/blank_white.png,0.0,0.0,0.0,0.0,0,0.0,0,0.0,0,0.0,0,0.0,0,0.0,0.0,0,0,0,0,0,0,0,0,0,0.0,0,0.0,0,0.0,0,0.0,10,,,,,0,8,8,8,,,,,,,,,106.07059495799967,106.07059495799967,106.07059495799967,106.07059495799967,106.07059495799967,106.07059495799967,106.07059495799967,106.07059495799967,105.97274891633299,106.07059495799967,106.07059495799967,106.07059495799967,105.97274891633299,106.07059495799967,106.07059495799967,106.07059495799967,106.07059495799967,106.07059495799967,106.07059495799967,106.07059495799967,106.07059495799967,106.07059495799967,106.07059495799967,106.07059495799967,106.07059495799967,106.07059495799967,106.07059495799967,106.022748916333,106.07059495799967,106.07059495799967,106.07059495799967,106.022748916333,106.07059495799967,106.07059495799967,106.07059495799967,106.07059495799967,106.07059495799967,111.26238783300005,111.26238783300005,116.33424633300001,None,0,,reldom2_s015,001,2025-02-14_14h55.51.093,Aud-B-Scan_AC,2022.2.5,None,
7,First_Order,2.0,audwhat,stimulus/audwhat_stim/dummy.wav,stimulus/audwhat_stim/dummy.wav,stimulus/audwhat_stim/percussion xylophone_high-pitch_F_loud.wav,stimulus/audwhat_stim/percussion mallet_low-pitch_D_loud.wav,stimulus/audwhat_stim/blank_white.png,stimulus/audwhat_stim/category_box.png,stimulus/audwhat_stim/category_yes.png,stimulus/audwhat_stim/category_no.png,None,Category,None,Category,1,0.0,0,5.125,0,5.125,0,5.125,0,0.0,0.625,0,0,0,0,0,0,0,0,0,0.0,0,0.0,1,0.5,1,2.125,0,,,,,0,9,9,9,,,,,,,,,116.33424633300001,116.33424633300001,116.33424633300001,116.33424633300001,116.33424633300001,116.33424633300001,116.33424633300001,116.33424633300001,116.26241045766635,116.33424633300001,116.33424633300001,116.33424633300001,116.26241045766635,116.33424633300001,116.33424633300001,116.33424633300001,118.42813362499965,122.44579129099975,116.33424633300001,116.33424633300001,121.49883829099963,116.33424633300001,116.33424633300001,116.33424633300001,116.33424633300001,116.79994249999982,117.87155737500007,116.76943237466664,117.82510449999972,118.42813362499965,119.50250849999975,118.39779958266651,,116.33424633300001,121.49883829099963,116.33424633300001,121.49883829099963,121.53977233299975,122.19141795799987,116.33424633300001,None,0,,reldom2_s015,001,2025-02-14_14h55.51.093,Aud-B-Scan_AC,2022.2.5,None,
8,First_Order,2.0,audwhat,stimulus/audwhat_stim/dummy.wav,stimulus/audwhat_stim/dummy.wav,stimulus/audwhat_stim/percussion mallet_low-pitch_D_loud.wav,stimulus/audwhat_stim/string viola_low-pitch_D_loud.wav,stimulus/audwhat_stim/blank_white.png,stimulus/audwhat_stim/pitch_box.png,stimulus/audwhat_stim/pitch_yes.png,stimulus/audwhat_stim/pitch_no.png,None,Pitch,None,Pitch,1,0.0,0,5.125,0,5.125,0,5.125,0,0.0,0.625,0,0,0,0,0,0,0,0,0,0.0,0,0.0,1,0.5,1,2.125,0,,,,,0,10,10,10,,,,,,,,,122.44579129099975,122.44579129099975,122.44579129099975,122.44579129099975,122.44579129099975,122.44579129099975,122.44579129099975,122.44579129099975,122.36581574933336,122.44579129099975,122.44579129099975,122.44579129099975,122.36581574933336,122.44579129099975,122.44579129099975,122.44579129099975,124.53834070799985,,122.44579129099975,122.44579129099975,127.60269608299996,122.44579129099975,122.44579129099975,122.44579129099975,122.44579129099975,122.911276541,123.98011879099977,122.8812241246667,,124.53834070799985,125.60832816599986,124.5083547076663,,122.44579129099975,127.60269608299996,122.44579129099975,127.60269608299996,127.64331979100007,128.29582887499964,122.44579129099975,1,1,1.5175887919999695,reldom2_s015,001,2025-02-14_14h55.51.093,Aud-B-Scan_AC,2022.2.5,None,
9,First_Order,2.0,audwhat,stimulus/audwhat_stim/dummy.wav,stimulus/audwhat_stim/dummy.wav,stimulus/audwhat_stim/percussion mallet_low-pitch_D_loud.wav,stimulus/audwhat_stim/percussion mallet_high-pitch_Ftri_loud.wav,stimulus/audwhat_stim/blank_white.png,stimulus/audwhat_stim/category_box.png,stimulus/audwhat_stim/category_yes.png,stimulus/audwhat_stim/category_no.png,None,Category,None,Category,1,0.0,0,5.125,0,5.125,0,5.125,0,0.0,0.625,0,0,0,0,0,0,0,0,0,0.0,0,0.0,1,0.5,1,2.125,0,,,,,0,11,11,11,,,,,,,,,128.55159970799969,128.55159970799969,128.55159970799969,128.55159970799969,128.55159970799969,128.55159970799969,128.55159970799969,128.55159970799969,128.4699524163331,128.55159970799969,128.55159970799969,128.55159970799969,128.4699524163331,128.55159970799969,128.55159970799969,128.55159970799969,130.65408629099966,,128.55159970799969,128.55159970799969,133.73709812499965,128.55159970799969,128.55159970799969,128.55159970799969,128.55159970799969,129.01833712500002,130.09326775,128.98846287466657,,130.65408629099966,131.68356979100008,130.6236527916665,,128.55159970799969,133.73709812499965,128.55159970799969,133.73709812499965,133.7784658749997,134.43510829099978,128.55159970799969,1,1,1.4462247500000558,reldom2_s015,001,2025-02-14_14h55.51.093,Aud-B-Scan_AC,2022.2.5,None,
10,First_Order,2.0,audwhat,stimulus/audwhat_stim/dummy.wav,stimulus/audwhat_stim/dummy.wav,stimulus/audwhat_stim/string cello_high-pitch_F_loud.wav,stimulus/audwhat_stim/percussion mallet_high-pitch_F_loud.wav,stimulus/audwhat_stim/blank_white.png,stimulus/audwhat_stim/category_box.png,stimulus/audwhat_stim/category_yes.png,stimulus/audwhat_stim/category_no.png,None,Category,None,Pitch,2,0.0,0,5.125,0,5.125,0,5.125,0,0.0,0.625,0,0,0,0,0,0,0,0,0,0.0,0,0.0,1,0.5,1,2.125,0,,,,,0,12,12,12,,,,,,,,,134.64902549999988,134.64902549999988,134.64902549999988,134.64902549999988,134.64902549999988,134.64902549999988,134.64902549999988,134.64902549999988,134.56844162433313,134.64902549999988,134.64902549999988,134.64902549999988,134.56844162433313,134.64902549999988,134.64902549999988,134.64902549999988,136.74925616599967,,134.64902549999988,134.64902549999988,139.83662808300005,134.64902549999988,134.64902549999988,134.64902549999988,134.64902549999988,135.11583816599978,136.188095041,135.0848629576665,,136.74925616599967,137.78292933299963,136.71884549966651,,134.64902549999988,139.83662808300005,134.64902549999988,139.83662808300005,139.87818650000008,140.53467933299999,134.64902549999988,2,1,0.9414100839999264,reldom2_s015,001,2025-02-14_14h55.51.093,Aud-B-Scan_AC,2022.2.5,None,
0,0.0,None,fixation,stimulus/audwhat_stim/blank_white.png,stimulus/audwhat_stim/blank_white.png,stimulus/audwhere_stim/blank_white.png,stimulus/audwhere_stim/blank_white.png,stimulus/audwhat_stim/blank_white.png,stimulus/audwhat_stim/blank_white.png,stimulus/audwhat_stim/blank_white.png,stimulus/audwhat_stim/blank_white.png,0.0,0.0,0.0,0.0,0,0.0,0,0.0,0,0.0,0,0.0,0,0.0,0.0,0,0,0,0,0,0,0,0,0,0.0,0,0.0,0,0.0,0,0.0,8,,,,,0,13,13,13,,,,,,,,,140.76809616599985,140.76809616599985,140.76809616599985,140.76809616599985,140.76809616599985,140.76809616599985,140.76809616599985,140.76809616599985,140.66801266633334,140.76809616599985,140.76809616599985,140.76809616599985,140.66801266633334,140.76809616599985,140.76809616599985,140.76809616599985,140.76809616599985,140.76809616599985,140.76809616599985,140.76809616599985,140.76809616599985,140.76809616599985,140.76809616599985,140.76809616599985,140.76809616599985,140.76809616599985,140.76809616599985,140.71801266633332,140.76809616599985,140.76809616599985,140.76809616599985,140.71801266633332,140.76809616599985,140.76809616599985,140.76809616599985,140.76809616599985,140.76809616599985,145.96876158299983,145.96876158299983,148.90226866600005,None,0,,reldom2_s015,001,2025-02-14_14h55.51.093,Aud-B-Scan_AC,2022.2.5,None,
11,Second_Order,2.0,audwhat,stimulus/audwhat_stim/string viola_high-pitch_Dtri_loud.wav,stimulus/audwhat_stim/string cello_low-pitch_D_loud.wav,stimulus/audwhat_stim/percussion mallet_high-pitch_Dtri_loud.wav,stimulus/audwhat_stim/percussion mallet_low-pitch_Ftri_loud.wav,stimulus/audwhat_stim/match_blank.png,stimulus/audwhat_stim/match_box.png,stimulus/audwhat_stim/match_yes.png,stimulus/audwhat_stim/match_no.png,1.0,Match,Category,Category,1,5.125,0,5.125,0,5.125,0,5.125,0,0.75,0.75,0,0,0,0,0,0,0,0,1,0.5,1,2.125,1,0.5,1,2.125,0,,,,,0,14,14,14,,,,,,,,,148.90226866600005,154.01834733299984,148.90226866600005,148.90226866600005,148.90226866600005,148.90226866600005,149.35774208299972,150.35525766599994,149.36955883266663,,150.97860054099965,151.97542195799997,150.98968224966646,,154.01834733299984,154.8691088749997,156.9474903749997,160.86838491599974,154.8691088749997,154.8691088749997,160.05699137500005,154.8691088749997,154.8691088749997,154.8691088749997,154.8691088749997,155.286212041,156.34663283300006,155.2566006246664,,156.9474903749997,158.0171923329999,156.91795370766638,,154.8691088749997,160.05699137500005,154.8691088749997,160.05699137500005,160.05699137500005,,154.8691088749997,1,1,0.7355910830001449,reldom2_s015,001,2025-02-14_14h55.51.093,Aud-B-Scan_AC,2022.2.5,None,
12,Second_Order,2.0,audwhat,stimulus/audwhat_stim/string viola_low-pitch_F_loud.wav,stimulus/audwhat_stim/string viola_high-pitch_Ftri_loud.wav,stimulus/audwhat_stim/percussion mallet_low-pitch_Ftri_loud.wav,stimulus/audwhat_stim/percussion xylophone_high-pitch_Dtri_loud.wav,stimulus/audwhat_stim/match_blank.png,stimulus/audwhat_stim/match_box.png,stimulus/audwhat_stim/match_yes.png,stimulus/audwhat_stim/match_no.png,1.0,Match,Category,Category,1,5.125,0,5.125,0,5.125,0,5.125,0,0.625,0.625,0,0,0,0,0,0,0,0,1,0.5,1,2.125,1,0.5,1,2.125,0,,,,,0,15,15,15,,,,,,,,,160.86838491599974,165.99152370799993,160.86838491599974,160.86838491599974,160.86838491599974,160.86838491599974,161.3176323749999,162.31618220799965,161.3308294166666,,162.95101695799985,163.9400432909997,162.9541949166667,,165.99152370799993,166.72511391599983,168.79106858299974,172.84361441600004,166.72511391599983,166.72511391599983,171.88098141599994,166.72511391599983,166.72511391599983,166.72511391599983,166.72511391599983,167.18293033300006,168.23811583299994,167.1521893326665,,168.79106858299974,169.85313779099988,168.7615640826664,169.80685624999978,166.72511391599983,171.88098141599994,166.72511391599983,171.88098141599994,171.92206604099965,172.57125129099995,166.72511391599983,1,1,1.1687132090000887,reldom2_s015,001,2025-02-14_14h55.51.093,Aud-B-Scan_AC,2022.2.5,None,
0,0.0,None,fixation,stimulus/audwhat_stim/blank_white.png,stimulus/audwhat_stim/blank_white.png,stimulus/audwhere_stim/blank_white.png,stimulus/audwhere_stim/blank_white.png,stimulus/audwhat_stim/blank_white.png,stimulus/audwhat_stim/blank_white.png,stimulus/audwhat_stim/blank_white.png,stimulus/audwhat_stim/blank_white.png,0.0,0.0,0.0,0.0,0,0.0,0,0.0,0,0.0,0,0.0,0,0.0,0.0,0,0,0,0,0,0,0,0,0,0.0,0,0.0,0,0.0,0,0.0,9,,,,,0,16,16,16,,,,,,,,,172.84361441600004,172.84361441600004,172.84361441600004,172.84361441600004,172.84361441600004,172.84361441600004,172.84361441600004,172.84361441600004,172.74455524933333,172.84361441600004,172.84361441600004,172.84361441600004,172.74455524933333,172.84361441600004,172.84361441600004,172.84361441600004,172.84361441600004,172.84361441600004,172.84361441600004,172.84361441600004,172.84361441600004,172.84361441600004,172.84361441600004,172.84361441600004,172.84361441600004,172.84361441600004,172.84361441600004,172.7945552493333,172.84361441600004,172.84361441600004,172.84361441600004,172.7945552493333,172.84361441600004,172.84361441600004,172.84361441600004,172.84361441600004,172.84361441600004,178.05862783299972,178.05862783299972,182.08687199999986,None,0,,reldom2_s015,001,2025-02-14_14h55.51.093,Aud-B-Scan_AC,2022.2.5,None,
13,First_Order,3.0,audwhere,stimulus/audwhere_stim/dummy.wav,stimulus/audwhere_stim/dummy.wav,stimulus/audwhere_stim/left_toward_290h.wav,stimulus/audwhere_stim/right_toward_280h.wav,stimulus/audwhere_stim/blank_white.png,stimulus/audwhere_stim/direction_box.png,stimulus/audwhere_stim/direction_yes.png,stimulus/audwhere_stim/direction_no.png,None,Direction,None,Direction,1,0.0,0,5.125,0,5.125,0,5.125,0,0.0,0.625,0,0,0,0,0,0,0,0,0,0.0,0,0.0,1,0.5,1,2.125,0,,,,,0,17,17,17,,,,,,,,,182.08687199999986,182.08687199999986,182.08687199999986,182.08687199999986,182.08687199999986,182.08687199999986,182.08687199999986,182.08687199999986,182.01482079166652,182.08687199999986,182.08687199999986,182.08687199999986,182.01482079166652,182.08687199999986,182.08687199999986,182.08687199999986,184.18805679099978,,182.08687199999986,182.08687199999986,187.26872000000003,182.08687199999986,182.08687199999986,182.08687199999986,182.08687199999986,182.552982833,183.62811020799973,182.52291279166664,,184.18805679099978,185.26373958299973,184.1578035416667,,182.08687199999986,187.26872000000003,182.08687199999986,187.26872000000003,187.31021362499996,187.96571745799974,182.08687199999986,1,1,1.8666836670004159,reldom2_s015,001,2025-02-14_14h55.51.093,Aud-B-Scan_AC,2022.2.5,None,
14,First_Order,3.0,audwhere,stimulus/audwhere_stim/dummy.wav,stimulus/audwhere_stim/dummy.wav,stimulus/audwhere_stim/left_toward_270h.wav,stimulus/audwhere_stim/right_toward_290h.wav,stimulus/audwhere_stim/blank_white.png,stimulus/audwhere_stim/direction_box.png,stimulus/audwhere_stim/direction_yes.png,stimulus/audwhere_stim/direction_no.png,None,Direction,None,Direction,1,0.0,0,5.125,0,5.125,0,5.125,0,0.0,0.625,0,0,0,0,0,0,0,0,0,0.0,0,0.0,1,0.5,1,2.125,0,,,,,0,18,18,18,,,,,,,,,188.17866595799978,188.17866595799978,188.17866595799978,188.17866595799978,188.17866595799978,188.17866595799978,188.17866595799978,188.17866595799978,188.0990507913331,188.17866595799978,188.17866595799978,188.17866595799978,188.0990507913331,188.17866595799978,188.17866595799978,188.17866595799978,190.27674387499974,,188.17866595799978,188.17866595799978,193.35921837499973,188.17866595799978,188.17866595799978,188.17866595799978,188.17866595799978,188.64356016600004,189.71840887500002,188.61308637466644,,190.27674387499974,191.30686320799987,190.24730420766653,,188.17866595799978,193.35921837499973,188.17866595799978,193.35921837499973,193.3997979579999,194.05599600000005,188.17866595799978,1,1,2.7307077500004198,reldom2_s015,001,2025-02-14_14h55.51.093,Aud-B-Scan_AC,2022.2.5,None,
15,First_Order,3.0,audwhere,stimulus/audwhere_stim/dummy.wav,stimulus/audwhere_stim/dummy.wav,stimulus/audwhere_stim/left_away_290h.wav,stimulus/audwhere_stim/left_toward_280h.wav,stimulus/audwhere_stim/blank_white.png,stimulus/audwhere_stim/direction_box.png,stimulus/audwhere_stim/direction_yes.png,stimulus/audwhere_stim/direction_no.png,None,Direction,None,Side,2,0.0,0,5.125,0,5.125,0,5.125,0,0.0,0.625,0,0,0,0,0,0,0,0,0,0.0,0,0.0,1,0.5,1,2.125,0,,,,,0,19,19,19,,,,,,,,,194.26893783299965,194.26893783299965,194.26893783299965,194.26893783299965,194.26893783299965,194.26893783299965,194.26893783299965,194.26893783299965,194.1893293333334,194.26893783299965,194.26893783299965,194.26893783299965,194.1893293333334,194.26893783299965,194.26893783299965,194.26893783299965,196.36634604099982,,194.26893783299965,194.26893783299965,199.45615745799978,194.26893783299965,194.26893783299965,194.26893783299965,194.26893783299965,194.73496716599993,195.80869104099975,194.7045683326667,,196.36634604099982,197.400320791,196.33612233266675,,194.26893783299965,199.45615745799978,194.26893783299965,199.45615745799978,199.49762408299966,200.15421387499964,194.26893783299965,2,1,1.5700470409997251,reldom2_s015,001,2025-02-14_14h55.51.093,Aud-B-Scan_AC,2022.2.5,None,
16,First_Order,3.0,audwhere,stimulus/audwhere_stim/dummy.wav,stimulus/audwhere_stim/dummy.wav,stimulus/audwhere_stim/left_toward_300h.wav,stimulus/audwhere_stim/left_away_290h.wav,stimulus/audwhere_stim/blank_white.png,stimulus/audwhere_stim/direction_box.png,stimulus/audwhere_stim/direction_yes.png,stimulus/audwhere_stim/direction_no.png,None,Direction,None,Side,2,0.0,0,5.125,0,5.125,0,5.125,0,0.0,0.625,0,0,0,0,0,0,0,0,0,0.0,0,0.0,1,0.5,1,2.125,0,,,,,0,20,20,20,,,,,,,,,200.36807675,200.36807675,200.36807675,200.36807675,200.36807675,200.36807675,200.36807675,200.36807675,200.287547208333,200.36807675,200.36807675,200.36807675,200.287547208333,200.36807675,200.36807675,200.36807675,202.47433345799982,,200.36807675,200.36807675,205.51654774999997,200.36807675,200.36807675,200.36807675,200.36807675,200.83518249999997,201.865656125,200.8051289576663,,202.47433345799982,203.50570883299997,202.44385445766673,,200.36807675,205.51654774999997,200.36807675,205.51654774999997,205.598885291,206.25624654099965,200.36807675,2,1,1.6579484169997158,reldom2_s015,001,2025-02-14_14h55.51.093,Aud-B-Scan_AC,2022.2.5,None,
0,0.0,None,fixation,stimulus/audwhat_stim/blank_white.png,stimulus/audwhat_stim/blank_white.png,stimulus/audwhere_stim/blank_white.png,stimulus/audwhere_stim/blank_white.png,stimulus/audwhat_stim/blank_white.png,stimulus/audwhat_stim/blank_white.png,stimulus/audwhat_stim/blank_white.png,stimulus/audwhat_stim/blank_white.png,0.0,0.0,0.0,0.0,0,0.0,0,0.0,0,0.0,0,0.0,0,0.0,0.0,0,0,0,0,0,0,0,0,0,0.0,0,0.0,0,0.0,0,0.0,10,,,,,0,21,21,21,,,,,,,,,206.49073658299994,206.49073658299994,206.49073658299994,206.49073658299994,206.49073658299994,206.49073658299994,206.49073658299994,206.49073658299994,206.389579874333,206.49073658299994,206.49073658299994,206.49073658299994,206.389579874333,206.49073658299994,206.49073658299994,206.49073658299994,206.49073658299994,206.49073658299994,206.49073658299994,206.49073658299994,206.49073658299994,206.49073658299994,206.49073658299994,206.49073658299994,206.49073658299994,206.49073658299994,206.49073658299994,206.439579874333,206.49073658299994,206.49073658299994,206.49073658299994,206.439579874333,206.49073658299994,206.49073658299994,206.49073658299994,206.49073658299994,206.49073658299994,211.6995031659999,211.6995031659999,216.62198070799968,None,0,,reldom2_s015,001,2025-02-14_14h55.51.093,Aud-B-Scan_AC,2022.2.5,None,
17,Second_Order,3.0,audwhere,stimulus/audwhere_stim/right_toward_290h.wav,stimulus/audwhere_stim/right_away_290h.wav,stimulus/audwhere_stim/right_away_280h.wav,stimulus/audwhere_stim/left_away_300h.wav,stimulus/audwhat_stim/match_blank.png,stimulus/audwhat_stim/match_box.png,stimulus/audwhat_stim/match_yes.png,stimulus/audwhat_stim/match_no.png,2.0,Match,Side,Direction,2,5.125,0,5.125,0,5.125,0,5.125,0,0.75,0.75,0,0,0,0,0,0,0,0,1,0.5,1,2.125,1,0.5,1,2.125,0,,,,,0,22,22,22,,,,,,,,,216.62198070799968,221.7415918329998,216.62198070799968,216.62198070799968,216.62198070799968,216.62198070799968,217.07886874999986,218.06526699999995,217.09263295766667,,218.70081137499983,219.6988074159999,218.71329491666646,,221.7415918329998,222.59189324999988,224.63389145799965,,222.59189324999988,222.59189324999988,227.75021091600001,222.59189324999988,222.59189324999988,222.59189324999988,222.59189324999988,223.00940762499977,224.07595120799988,222.97951020766666,,224.63389145799965,225.70760162499982,224.60369120766634,,222.59189324999988,227.75021091600001,222.59189324999988,227.75021091600001,227.75021091600001,,222.59189324999988,2,1,1.842994415999783,reldom2_s015,001,2025-02-14_14h55.51.093,Aud-B-Scan_AC,2022.2.5,None,
18,Second_Order,3.0,audwhere,stimulus/audwhere_stim/right_toward_270h.wav,stimulus/audwhere_stim/left_toward_270h.wav,stimulus/audwhere_stim/right_away_300h.wav,stimulus/audwhere_stim/left_away_280h.wav,stimulus/audwhat_stim/match_blank.png,stimulus/audwhat_stim/match_box.png,stimulus/audwhat_stim/match_yes.png,stimulus/audwhat_stim/match_no.png,1.0,Match,Direction,Direction,1,5.125,0,5.125,0,5.125,0,5.125,0,0.625,0.625,0,0,0,0,0,0,0,0,1,0.5,1,2.125,1,0.5,1,2.125,0,,,,,0,23,23,23,,,,,,,,,228.56028799999967,233.68106170800002,228.56028799999967,228.56028799999967,228.56028799999967,228.56028799999967,229.02045174999967,230.00947229099984,229.0240571246666,,230.6451025829997,231.64314983299982,230.6575429166667,,233.68106170800002,234.4166031249997,236.48614820800003,,234.4166031249997,234.4166031249997,239.586547333,234.4166031249997,234.4166031249997,234.4166031249997,234.4166031249997,234.874763625,235.9344633329997,234.8449902496666,,236.48614820800003,237.54945666599997,236.4566968326665,,234.4166031249997,239.586547333,234.4166031249997,239.586547333,239.586547333,240.23840166599985,234.4166031249997,1,1,1.103020958000343,reldom2_s015,001,2025-02-14_14h55.51.093,Aud-B-Scan_AC,2022.2.5,None,
0,0.0,None,fixation,stimulus/audwhat_stim/blank_white.png,stimulus/audwhat_stim/blank_white.png,stimulus/audwhere_stim/blank_white.png,stimulus/audwhere_stim/blank_white.png,stimulus/audwhat_stim/blank_white.png,stimulus/audwhat_stim/blank_white.png,stimulus/audwhat_stim/blank_white.png,stimulus/audwhat_stim/blank_white.png,0.0,0.0,0.0,0.0,0,0.0,0,0.0,0,0.0,0,0.0,0,0.0,0.0,0,0,0,0,0,0,0,0,0,0.0,0,0.0,0,0.0,0,0.0,8,,,,,0,24,24,24,,,,,,,,,240.5124673749997,240.5124673749997,240.5124673749997,240.5124673749997,240.5124673749997,240.5124673749997,240.5124673749997,240.5124673749997,240.41280183333325,240.5124673749997,240.5124673749997,240.5124673749997,240.41280183333325,240.5124673749997,240.5124673749997,240.5124673749997,240.5124673749997,240.5124673749997,240.5124673749997,240.5124673749997,240.5124673749997,240.5124673749997,240.5124673749997,240.5124673749997,240.5124673749997,240.5124673749997,240.5124673749997,240.46280183333323,240.5124673749997,240.5124673749997,240.5124673749997,240.46280183333323,240.5124673749997,240.5124673749997,240.5124673749997,240.5124673749997,240.5124673749997,245.7266656249999,245.7266656249999,248.745598041,None,0,,reldom2_s015,001,2025-02-14_14h55.51.093,Aud-B-Scan_AC,2022.2.5,None,
19,First_Order,4.0,audwhere,stimulus/audwhere_stim/dummy.wav,stimulus/audwhere_stim/dummy.wav,stimulus/audwhere_stim/right_toward_280h.wav,stimulus/audwhere_stim/left_toward_280h.wav,stimulus/audwhere_stim/blank_white.png,stimulus/audwhere_stim/side_box.png,stimulus/audwhere_stim/side_yes.png,stimulus/audwhere_stim/side_no.png,None,Side,None,Direction,2,0.0,0,5.125,0,5.125,0,5.125,0,0.0,0.625,0,0,0,0,0,0,0,0,0,0.0,0,0.0,1,0.5,1,2.125,0,,,,,0,25,25,25,,,,,,,,,248.745598041,248.745598041,248.745598041,248.745598041,248.745598041,248.745598041,248.745598041,248.745598041,248.67472658266632,248.745598041,248.745598041,248.745598041,248.67472658266632,248.745598041,248.745598041,248.745598041,250.8354791249999,,248.745598041,248.745598041,253.90498879100005,248.745598041,248.745598041,248.745598041,248.745598041,249.21157429100003,250.28028841600008,249.18010841666663,,250.8354791249999,251.90800166600002,250.80571908266646,,248.745598041,253.90498879100005,248.745598041,253.90498879100005,253.94567962499968,254.59873579099985,248.745598041,2,1,1.4692974999998114,reldom2_s015,001,2025-02-14_14h55.51.093,Aud-B-Scan_AC,2022.2.5,None,
20,First_Order,4.0,audwhere,stimulus/audwhere_stim/dummy.wav,stimulus/audwhere_stim/dummy.wav,stimulus/audwhere_stim/left_toward_290h.wav,stimulus/audwhere_stim/right_toward_270h.wav,stimulus/audwhere_stim/blank_white.png,stimulus/audwhere_stim/side_box.png,stimulus/audwhere_stim/side_yes.png,stimulus/audwhere_stim/side_no.png,None,Side,None,Direction,2,0.0,0,5.125,0,5.125,0,5.125,0,0.0,0.625,0,0,0,0,0,0,0,0,0,0.0,0,0.0,1,0.5,1,2.125,0,,,,,0,26,26,26,,,,,,,,,254.85190104100002,254.85190104100002,254.85190104100002,254.85190104100002,254.85190104100002,254.85190104100002,254.85190104100002,254.85190104100002,254.77282916633308,254.85190104100002,254.85190104100002,254.85190104100002,254.77282916633308,254.85190104100002,254.85190104100002,254.85190104100002,256.94091362499967,,254.85190104100002,254.85190104100002,260.0094155409997,254.85190104100002,254.85190104100002,254.85190104100002,254.85190104100002,255.31827524999972,256.3850017499999,255.28795608266662,,256.94091362499967,257.9702347079997,256.9108508746665,,254.85190104100002,260.0094155409997,254.85190104100002,260.0094155409997,260.0506181659998,260.70221541599994,254.85190104100002,2,1,0.6509834160001446,reldom2_s015,001,2025-02-14_14h55.51.093,Aud-B-Scan_AC,2022.2.5,None,
21,First_Order,4.0,audwhere,stimulus/audwhere_stim/dummy.wav,stimulus/audwhere_stim/dummy.wav,stimulus/audwhere_stim/left_toward_270h.wav,stimulus/audwhere_stim/left_away_300h.wav,stimulus/audwhere_stim/blank_white.png,stimulus/audwhere_stim/side_box.png,stimulus/audwhere_stim/side_yes.png,stimulus/audwhere_stim/side_no.png,None,Side,None,Side,1,0.0,0,5.125,0,5.125,0,5.125,0,0.0,0.625,0,0,0,0,0,0,0,0,0,0.0,0,0.0,1,0.5,1,2.125,0,,,,,0,27,27,27,,,,,,,,,260.9553398329999,260.9553398329999,260.9553398329999,260.9553398329999,260.9553398329999,260.9553398329999,260.9553398329999,260.9553398329999,260.8762656243331,260.9553398329999,260.9553398329999,260.9553398329999,260.8762656243331,260.9553398329999,260.9553398329999,260.9553398329999,263.04555945799984,,260.9553398329999,260.9553398329999,266.113891125,260.9553398329999,260.9553398329999,260.9553398329999,260.9553398329999,261.4220887910001,262.4886180829999,261.3923762496663,,263.04555945799984,264.11794166599975,263.0155010416663,,260.9553398329999,266.113891125,260.9553398329999,266.113891125,266.1545972079998,266.8096685830001,260.9553398329999,1,1,2.6626278329999877,reldom2_s015,001,2025-02-14_14h55.51.093,Aud-B-Scan_AC,2022.2.5,None,
22,First_Order,4.0,audwhere,stimulus/audwhere_stim/dummy.wav,stimulus/audwhere_stim/dummy.wav,stimulus/audwhere_stim/left_away_290h.wav,stimulus/audwhere_stim/left_toward_270h.wav,stimulus/audwhere_stim/blank_white.png,stimulus/audwhere_stim/side_box.png,stimulus/audwhere_stim/side_yes.png,stimulus/audwhere_stim/side_no.png,None,Side,None,Side,1,0.0,0,5.125,0,5.125,0,5.125,0,0.0,0.625,0,0,0,0,0,0,0,0,0,0.0,0,0.0,1,0.5,1,2.125,0,,,,,0,28,28,28,,,,,,,,,267.06249620799963,267.06249620799963,267.06249620799963,267.06249620799963,267.06249620799963,267.06249620799963,267.06249620799963,267.06249620799963,266.9840752913334,267.06249620799963,267.06249620799963,267.06249620799963,266.9840752913334,267.06249620799963,267.06249620799963,267.06249620799963,269.1559592499998,273.19991308299996,267.06249620799963,267.06249620799963,272.22872237499996,267.06249620799963,267.06249620799963,267.06249620799963,267.06249620799963,267.527772291,268.59686724999983,267.49801866666644,,269.1559592499998,270.2321445829998,269.12608999966665,,267.06249620799963,272.22872237499996,267.06249620799963,272.22872237499996,272.2698881659999,272.92501379099986,267.06249620799963,1,1,1.028178083000057,reldom2_s015,001,2025-02-14_14h55.51.093,Aud-B-Scan_AC,2022.2.5,None,
0,0.0,None,fixation,stimulus/audwhat_stim/blank_white.png,stimulus/audwhat_stim/blank_white.png,stimulus/audwhere_stim/blank_white.png,stimulus/audwhere_stim/blank_white.png,stimulus/audwhat_stim/blank_white.png,stimulus/audwhat_stim/blank_white.png,stimulus/audwhat_stim/blank_white.png,stimulus/audwhat_stim/blank_white.png,0.0,0.0,0.0,0.0,0,0.0,0,0.0,0,0.0,0,0.0,0,0.0,0.0,0,0,0,0,0,0,0,0,0,0.0,0,0.0,0,0.0,0,0.0,10,,,,,0,29,29,29,,,,,,,,,273.19991308299996,273.19991308299996,273.19991308299996,273.19991308299996,273.19991308299996,273.19991308299996,273.19991308299996,273.19991308299996,273.0990323743332,273.19991308299996,273.19991308299996,273.19991308299996,273.0990323743332,273.19991308299996,273.19991308299996,273.19991308299996,273.19991308299996,273.19991308299996,273.19991308299996,273.19991308299996,273.19991308299996,273.19991308299996,273.19991308299996,273.19991308299996,273.19991308299996,273.19991308299996,273.19991308299996,273.1490323743332,273.19991308299996,273.19991308299996,273.19991308299996,273.1490323743332,273.19991308299996,273.19991308299996,273.19991308299996,273.19991308299996,273.19991308299996,278.404957666,278.404957666,283.37568495799997,None,0,,reldom2_s015,001,2025-02-14_14h55.51.093,Aud-B-Scan_AC,2022.2.5,None,
23,Second_Order,4.0,audwhere,stimulus/audwhere_stim/right_toward_300h.wav,stimulus/audwhere_stim/left_toward_270h.wav,stimulus/audwhere_stim/left_away_300h.wav,stimulus/audwhere_stim/right_away_300h.wav,stimulus/audwhat_stim/match_blank.png,stimulus/audwhat_stim/match_box.png,stimulus/audwhat_stim/match_yes.png,stimulus/audwhat_stim/match_no.png,1.0,Match,Direction,Direction,1,5.125,0,5.125,0,5.125,0,5.125,0,0.75,0.75,0,0,0,0,0,0,0,0,1,0.5,1,2.125,1,0.5,1,2.125,0,,,,,0,30,30,30,,,,,,,,,283.37568495799997,288.49544549999973,283.37568495799997,283.37568495799997,283.37568495799997,283.37568495799997,283.83331933299996,284.81942304099994,283.84642208266655,,285.45448991600006,286.4530089159998,285.4674055416665,,288.49544549999973,289.34155525000006,291.3860486660001,,289.34155525000006,289.34155525000006,294.50079204099984,289.34155525000006,289.34155525000006,289.34155525000006,289.34155525000006,289.8031986249998,290.8724938329997,289.7736062916663,,291.3860486660001,292.457962166,291.35585216666664,,289.34155525000006,294.50079204099984,289.34155525000006,294.50079204099984,294.54221099999995,,289.34155525000006,1,1,0.7117387919997782,reldom2_s015,001,2025-02-14_14h55.51.093,Aud-B-Scan_AC,2022.2.5,None,
24,Second_Order,4.0,audwhere,stimulus/audwhere_stim/right_toward_300h.wav,stimulus/audwhere_stim/left_toward_300h.wav,stimulus/audwhere_stim/left_away_290h.wav,stimulus/audwhere_stim/right_away_280h.wav,stimulus/audwhat_stim/match_blank.png,stimulus/audwhat_stim/match_box.png,stimulus/audwhat_stim/match_yes.png,stimulus/audwhat_stim/match_no.png,1.0,Match,Direction,Direction,1,5.125,0,5.125,0,5.125,0,5.125,0,0.625,0.625,0,0,0,0,0,0,0,0,1,0.5,1,2.125,1,0.5,1,2.125,0,,,,,0,31,31,31,,,,,,,,,295.317480916,300.44094441599964,295.317480916,295.317480916,295.317480916,295.317480916,295.7784435829999,296.7769498749999,295.7911927916664,,297.39966537500004,298.39726466599996,297.4117791666665,,300.44094441599964,301.1695709159999,303.24513391599976,,301.1695709159999,301.1695709159999,306.34394966599984,301.1695709159999,301.1695709159999,301.1695709159999,301.1695709159999,301.58406254099964,302.64332383300007,301.5545071666663,,303.24513391599976,304.3099578749998,303.2148525826667,,301.1695709159999,306.34394966599984,301.1695709159999,306.34394966599984,306.34394966599984,306.99447499999997,301.1695709159999,1,1,0.998311083000317,reldom2_s015,001,2025-02-14_14h55.51.093,Aud-B-Scan_AC,2022.2.5,None,
0,0.0,None,fixation,stimulus/audwhat_stim/blank_white.png,stimulus/audwhat_stim/blank_white.png,stimulus/audwhere_stim/blank_white.png,stimulus/audwhere_stim/blank_white.png,stimulus/audwhat_stim/blank_white.png,stimulus/audwhat_stim/blank_white.png,stimulus/audwhat_stim/blank_white.png,stimulus/audwhat_stim/blank_white.png,0.0,0.0,0.0,0.0,0,0.0,0,0.0,0,0.0,0,0.0,0,0.0,0.0,0,0,0,0,0,0,0,0,0,0.0,0,0.0,0,0.0,0,0.0,9,,,,,0,32,32,32,,,,,,,,,307.26925083299966,307.26925083299966,307.26925083299966,307.26925083299966,307.26925083299966,307.26925083299966,307.26925083299966,307.26925083299966,307.16801545833334,307.26925083299966,307.26925083299966,307.26925083299966,307.16801545833334,307.26925083299966,307.26925083299966,307.26925083299966,307.26925083299966,307.26925083299966,307.26925083299966,307.26925083299966,307.26925083299966,307.26925083299966,307.26925083299966,307.26925083299966,307.26925083299966,307.26925083299966,307.26925083299966,307.21801545833335,307.26925083299966,307.26925083299966,307.26925083299966,307.21801545833335,307.26925083299966,307.26925083299966,307.26925083299966,307.26925083299966,307.26925083299966,312.49016970799994,312.49016970799994,316.5251985,None,0,,reldom2_s015,001,2025-02-14_14h55.51.093,Aud-B-Scan_AC,2022.2.5,None,
25,First_Order,5.0,audwhat,stimulus/audwhat_stim/dummy.wav,stimulus/audwhat_stim/dummy.wav,stimulus/audwhat_stim/percussion xylophone_high-pitch_Ftri_loud.wav,stimulus/audwhat_stim/percussion mallet_low-pitch_F_loud.wav,stimulus/audwhat_stim/blank_white.png,stimulus/audwhat_stim/pitch_box.png,stimulus/audwhat_stim/pitch_yes.png,stimulus/audwhat_stim/pitch_no.png,None,Pitch,None,Category,2,0.0,0,5.125,0,5.125,0,5.125,0,0.0,0.625,0,0,0,0,0,0,0,0,0,0.0,0,0.0,1,0.5,1,2.125,0,,,,,0,33,33,33,,,,,,,,,316.5251985,316.5251985,316.5251985,316.5251985,316.5251985,316.5251985,316.5251985,316.5251985,316.45262462466656,316.5251985,316.5251985,316.5251985,316.45262462466656,316.5251985,316.5251985,316.5251985,318.6136904159998,,316.5251985,316.5251985,321.68180437499996,316.5251985,316.5251985,316.5251985,316.5251985,316.9893388329997,318.0573557079997,316.9597304166666,318.01093812499994,318.6136904159998,319.68301374999965,318.5836887916664,,316.5251985,321.68180437499996,316.5251985,321.68180437499996,321.72311545799994,322.37703395799963,316.5251985,2,1,1.5019903749998775,reldom2_s015,001,2025-02-14_14h55.51.093,Aud-B-Scan_AC,2022.2.5,None,
26,First_Order,5.0,audwhat,stimulus/audwhat_stim/dummy.wav,stimulus/audwhat_stim/dummy.wav,stimulus/audwhat_stim/percussion mallet_low-pitch_Dtri_loud.wav,stimulus/audwhat_stim/percussion xylophone_high-pitch_Ftri_loud.wav,stimulus/audwhat_stim/blank_white.png,stimulus/audwhat_stim/category_box.png,stimulus/audwhat_stim/category_yes.png,stimulus/audwhat_stim/category_no.png,None,Category,None,Category,1,0.0,0,5.125,0,5.125,0,5.125,0,0.0,0.625,0,0,0,0,0,0,0,0,0,0.0,0,0.0,1,0.5,1,2.125,0,,,,,0,34,34,34,,,,,,,,,322.6318756249998,322.6318756249998,322.6318756249998,322.6318756249998,322.6318756249998,322.6318756249998,322.6318756249998,322.6318756249998,322.5511502083333,322.6318756249998,322.6318756249998,322.6318756249998,322.5511502083333,322.6318756249998,322.6318756249998,322.6318756249998,324.73581887499995,,322.6318756249998,322.6318756249998,327.81963929099993,322.6318756249998,322.6318756249998,322.6318756249998,322.6318756249998,323.09916641599966,324.1289402499997,323.0692739996664,,324.73581887499995,325.7671692499998,324.70534954166646,325.7671692499998,322.6318756249998,327.81963929099993,322.6318756249998,327.81963929099993,327.8614292499997,328.517411541,322.6318756249998,1,1,0.9325246670000524,reldom2_s015,001,2025-02-14_14h55.51.093,Aud-B-Scan_AC,2022.2.5,None,
27,First_Order,5.0,audwhat,stimulus/audwhat_stim/dummy.wav,stimulus/audwhat_stim/dummy.wav,stimulus/audwhat_stim/string cello_low-pitch_Dtri_loud.wav,stimulus/audwhat_stim/percussion mallet_low-pitch_Dtri_loud.wav,stimulus/audwhat_stim/blank_white.png,stimulus/audwhat_stim/pitch_box.png,stimulus/audwhat_stim/pitch_yes.png,stimulus/audwhat_stim/pitch_no.png,None,Pitch,None,Pitch,1,0.0,0,5.125,0,5.125,0,5.125,0,0.0,0.625,0,0,0,0,0,0,0,0,0,0.0,0,0.0,1,0.5,1,2.125,0,,,,,0,35,35,35,,,,,,,,,328.73134924999977,328.73134924999977,328.73134924999977,328.73134924999977,328.73134924999977,328.73134924999977,328.73134924999977,328.73134924999977,328.6507448743333,328.73134924999977,328.73134924999977,328.73134924999977,328.6507448743333,328.73134924999977,328.73134924999977,328.73134924999977,330.8268418749999,334.8517539159998,328.73134924999977,328.73134924999977,333.90034049999986,328.73134924999977,328.73134924999977,328.73134924999977,328.73134924999977,329.19834862499965,330.26698604099965,329.1669848746667,,330.8268418749999,331.90075045799995,330.7967034996666,,328.73134924999977,333.90034049999986,328.73134924999977,333.90034049999986,333.94169462499985,334.5972435829999,328.73134924999977,1,1,1.1627894170001127,reldom2_s015,001,2025-02-14_14h55.51.093,Aud-B-Scan_AC,2022.2.5,None,
28,First_Order,5.0,audwhat,stimulus/audwhat_stim/dummy.wav,stimulus/audwhat_stim/dummy.wav,stimulus/audwhat_stim/percussion xylophone_high-pitch_Ftri_loud.wav,stimulus/audwhat_stim/percussion mallet_low-pitch_F_loud.wav,stimulus/audwhat_stim/blank_white.png,stimulus/audwhat_stim/category_box.png,stimulus/audwhat_stim/category_yes.png,stimulus/audwhat_stim/category_no.png,None,Category,None,Category,1,0.0,0,5.125,0,5.125,0,5.125,0,0.0,0.625,0,0,0,0,0,0,0,0,0,0.0,0,0.0,1,0.5,1,2.125,0,,,,,0,36,36,36,,,,,,,,,334.8517539159998,334.8517539159998,334.8517539159998,334.8517539159998,334.8517539159998,334.8517539159998,334.8517539159998,334.8517539159998,334.77150062433304,334.8517539159998,334.8517539159998,334.8517539159998,334.77150062433304,334.8517539159998,334.8517539159998,334.8517539159998,336.95859166599985,340.99796820799975,334.8517539159998,334.8517539159998,340.0209908749998,334.8517539159998,334.8517539159998,334.8517539159998,334.8517539159998,335.32050620799964,336.35172970799977,335.2905419166666,336.35172970799977,336.95859166599985,337.9900281659998,336.92785262466646,,334.8517539159998,340.0209908749998,334.8517539159998,340.0209908749998,340.06229512499976,340.72332925,334.8517539159998,1,1,1.112287667000146,reldom2_s015,001,2025-02-14_14h55.51.093,Aud-B-Scan_AC,2022.2.5,None,
0,0.0,None,fixation,stimulus/audwhat_stim/blank_white.png,stimulus/audwhat_stim/blank_white.png,stimulus/audwhere_stim/blank_white.png,stimulus/audwhere_stim/blank_white.png,stimulus/audwhat_stim/blank_white.png,stimulus/audwhat_stim/blank_white.png,stimulus/audwhat_stim/blank_white.png,stimulus/audwhat_stim/blank_white.png,0.0,0.0,0.0,0.0,0,0.0,0,0.0,0,0.0,0,0.0,0,0.0,0.0,0,0,0,0,0,0,0,0,0,0.0,0,0.0,0,0.0,0,0.0,8,,,,,0,37,37,37,,,,,,,,,340.99796820799975,340.99796820799975,340.99796820799975,340.99796820799975,340.99796820799975,340.99796820799975,340.99796820799975,340.99796820799975,340.89775958333314,340.99796820799975,340.99796820799975,340.99796820799975,340.89775958333314,340.99796820799975,340.99796820799975,340.99796820799975,340.99796820799975,340.99796820799975,340.99796820799975,340.99796820799975,340.99796820799975,340.99796820799975,340.99796820799975,340.99796820799975,340.99796820799975,340.99796820799975,340.99796820799975,340.94775958333315,340.99796820799975,340.99796820799975,340.99796820799975,340.94775958333315,340.99796820799975,340.99796820799975,340.99796820799975,340.99796820799975,340.99796820799975,346.2157549159997,346.2157549159997,349.15817904100004,None,0,,reldom2_s015,001,2025-02-14_14h55.51.093,Aud-B-Scan_AC,2022.2.5,None,
29,Second_Order,5.0,audwhat,stimulus/audwhat_stim/string viola_low-pitch_Dtri_loud.wav,stimulus/audwhat_stim/percussion mallet_low-pitch_Dtri_loud.wav,stimulus/audwhat_stim/string viola_low-pitch_Dtri_loud.wav,stimulus/audwhat_stim/string cello_high-pitch_Ftri_loud.wav,stimulus/audwhat_stim/match_blank.png,stimulus/audwhat_stim/match_box.png,stimulus/audwhat_stim/match_yes.png,stimulus/audwhat_stim/match_no.png,2.0,Match,Pitch,Category,2,5.125,0,5.125,0,5.125,0,5.125,0,0.75,0.75,0,0,0,0,0,0,0,0,1,0.5,1,2.125,1,0.5,1,2.125,0,,,,,0,38,38,38,,,,,,,,,349.15817904100004,354.28042233299993,349.15817904100004,349.15817904100004,349.15817904100004,349.15817904100004,349.61535320799976,350.60442995799986,349.6190836666667,,351.242113541,352.238180416,351.25305924966665,,354.28042233299993,355.13176162499985,357.1782278749997,361.12394212499976,355.13176162499985,355.13176162499985,360.32585366600006,355.13176162499985,355.13176162499985,355.13176162499985,355.13176162499985,355.55109245799986,356.61829199999966,355.5214896246664,,357.1782278749997,358.2306371249997,357.1465289166665,,355.13176162499985,360.32585366600006,355.13176162499985,360.32585366600006,360.32585366600006,,355.13176162499985,2,1,1.0728812080001262,reldom2_s015,001,2025-02-14_14h55.51.093,Aud-B-Scan_AC,2022.2.5,None,
30,Second_Order,5.0,audwhat,stimulus/audwhat_stim/string viola_high-pitch_Ftri_loud.wav,stimulus/audwhat_stim/percussion xylophone_high-pitch_Ftri_loud.wav,stimulus/audwhat_stim/string viola_low-pitch_D_loud.wav,stimulus/audwhat_stim/percussion mallet_low-pitch_D_loud.wav,stimulus/audwhat_stim/match_blank.png,stimulus/audwhat_stim/match_box.png,stimulus/audwhat_stim/match_yes.png,stimulus/audwhat_stim/match_no.png,1.0,Match,Pitch,Pitch,1,5.125,0,5.125,0,5.125,0,5.125,0,0.625,0.625,0,0,0,0,0,0,0,0,1,0.5,1,2.125,1,0.5,1,2.125,0,,,,,0,39,39,39,,,,,,,,,361.12394212499976,366.2387048329997,361.12394212499976,361.12394212499976,361.12394212499976,361.12394212499976,361.58079562500006,362.57875020799975,361.59323520766634,,363.2012071659997,364.19951595799967,363.21336187466636,364.20298787499996,366.2387048329997,366.9548075829998,369.040603208,373.0805476659998,366.9548075829998,366.9548075829998,372.1097750409999,366.9548075829998,366.9548075829998,366.9548075829998,366.9548075829998,367.391130125,368.43717512500007,367.3591984166667,,369.040603208,370.113286625,369.01085237466646,,366.9548075829998,372.1097750409999,366.9548075829998,372.1097750409999,372.1510605829999,372.8038892909999,366.9548075829998,1,1,1.1544347080002808,reldom2_s015,001,2025-02-14_14h55.51.093,Aud-B-Scan_AC,2022.2.5,None,
0,0.0,None,fixation,stimulus/audwhat_stim/blank_white.png,stimulus/audwhat_stim/blank_white.png,stimulus/audwhere_stim/blank_white.png,stimulus/audwhere_stim/blank_white.png,stimulus/audwhat_stim/blank_white.png,stimulus/audwhat_stim/blank_white.png,stimulus/audwhat_stim/blank_white.png,stimulus/audwhat_stim/blank_white.png,0.0,0.0,0.0,0.0,0,0.0,0,0.0,0,0.0,0,0.0,0,0.0,0.0,0,0,0,0,0,0,0,0,0,0.0,0,0.0,0,0.0,0,0.0,9,,,,,0,40,40,40,,,,,,,,,373.0805476659998,373.0805476659998,373.0805476659998,373.0805476659998,373.0805476659998,373.0805476659998,373.0805476659998,373.0805476659998,372.9782250833333,373.0805476659998,373.0805476659998,373.0805476659998,372.9782250833333,373.0805476659998,373.0805476659998,373.0805476659998,373.0805476659998,373.0805476659998,373.0805476659998,373.0805476659998,373.0805476659998,373.0805476659998,373.0805476659998,373.0805476659998,373.0805476659998,373.0805476659998,373.0805476659998,373.0282250833333,373.0805476659998,373.0805476659998,373.0805476659998,373.0282250833333,373.0805476659998,373.0805476659998,373.0805476659998,373.0805476659998,373.0805476659998,378.2747493329998,378.2747493329998,382.30917958300006,None,0,,reldom2_s015,001,2025-02-14_14h55.51.093,Aud-B-Scan_AC,2022.2.5,None,
31,First_Order,6.0,audwhat,stimulus/audwhat_stim/dummy.wav,stimulus/audwhat_stim/dummy.wav,stimulus/audwhat_stim/string viola_low-pitch_D_loud.wav,stimulus/audwhat_stim/percussion mallet_low-pitch_D_loud.wav,stimulus/audwhat_stim/blank_white.png,stimulus/audwhat_stim/category_box.png,stimulus/audwhat_stim/category_yes.png,stimulus/audwhat_stim/category_no.png,None,Category,None,Pitch,2,0.0,0,5.125,0,5.125,0,5.125,0,0.0,0.625,0,0,0,0,0,0,0,0,0,0.0,0,0.0,1,0.5,1,2.125,0,,,,,0,41,41,41,,,,,,,,,382.30917958300006,382.30917958300006,382.30917958300006,382.30917958300006,382.30917958300006,382.30917958300006,382.30917958300006,382.30917958300006,382.2363732496666,382.30917958300006,382.30917958300006,382.30917958300006,382.2363732496666,382.30917958300006,382.30917958300006,382.30917958300006,384.41472220800006,,382.30917958300006,382.30917958300006,387.4579335409999,382.30917958300006,382.30917958300006,382.30917958300006,382.30917958300006,382.77641241599986,383.80711225000005,382.74676812466646,,384.41472220800006,385.4480538749999,384.3844382916666,,382.30917958300006,387.4579335409999,382.30917958300006,387.4579335409999,387.49897899999996,388.1556137079997,382.30917958300006,2,1,1.3644992090003143,reldom2_s015,001,2025-02-14_14h55.51.093,Aud-B-Scan_AC,2022.2.5,None,
32,First_Order,6.0,audwhat,stimulus/audwhat_stim/dummy.wav,stimulus/audwhat_stim/dummy.wav,stimulus/audwhat_stim/percussion mallet_high-pitch_Dtri_loud.wav,stimulus/audwhat_stim/string viola_high-pitch_Dtri_loud.wav,stimulus/audwhat_stim/blank_white.png,stimulus/audwhat_stim/pitch_box.png,stimulus/audwhat_stim/pitch_yes.png,stimulus/audwhat_stim/pitch_no.png,None,Pitch,None,Pitch,1,0.0,0,5.125,0,5.125,0,5.125,0,0.0,0.625,0,0,0,0,0,0,0,0,0,0.0,0,0.0,1,0.5,1,2.125,0,,,,,0,42,42,42,,,,,,,,,388.409880833,388.409880833,388.409880833,388.409880833,388.409880833,388.409880833,388.409880833,388.409880833,388.3295284993334,388.409880833,388.409880833,388.409880833,388.3295284993334,388.409880833,388.409880833,388.409880833,390.50955937499975,394.537759416,388.409880833,388.409880833,393.58663262499977,388.409880833,388.409880833,388.409880833,388.409880833,388.87681158299984,389.951163791,388.84686833266665,,390.50955937499975,391.5841086659998,390.4788182496666,,388.409880833,393.58663262499977,388.409880833,393.58663262499977,393.6275204999997,394.2839773749997,388.409880833,1,1,1.168513625000287,reldom2_s015,001,2025-02-14_14h55.51.093,Aud-B-Scan_AC,2022.2.5,None,
33,First_Order,6.0,audwhat,stimulus/audwhat_stim/dummy.wav,stimulus/audwhat_stim/dummy.wav,stimulus/audwhat_stim/string cello_high-pitch_D_loud.wav,stimulus/audwhat_stim/string viola_low-pitch_F_loud.wav,stimulus/audwhat_stim/blank_white.png,stimulus/audwhat_stim/pitch_box.png,stimulus/audwhat_stim/pitch_yes.png,stimulus/audwhat_stim/pitch_no.png,None,Pitch,None,Category,2,0.0,0,5.125,0,5.125,0,5.125,0,0.0,0.625,0,0,0,0,0,0,0,0,0,0.0,0,0.0,1,0.5,1,2.125,0,,,,,0,43,43,43,,,,,,,,,394.537759416,394.537759416,394.537759416,394.537759416,394.537759416,394.537759416,394.537759416,394.537759416,394.4582801243333,394.537759416,394.537759416,394.537759416,394.4582801243333,394.537759416,394.537759416,394.537759416,396.6383223329999,400.66813162499966,394.537759416,394.537759416,399.71745258300007,394.537759416,394.537759416,394.537759416,394.537759416,395.00430070799985,396.0790017909999,394.97396166666636,,396.6383223329999,397.71417112499967,396.6082411666664,,394.537759416,399.71745258300007,394.537759416,399.71745258300007,399.75827545799984,400.4134439999998,394.537759416,2,1,1.3517209579999871,reldom2_s015,001,2025-02-14_14h55.51.093,Aud-B-Scan_AC,2022.2.5,None,
34,First_Order,6.0,audwhat,stimulus/audwhat_stim/dummy.wav,stimulus/audwhat_stim/dummy.wav,stimulus/audwhat_stim/percussion mallet_low-pitch_F_loud.wav,stimulus/audwhat_stim/string viola_low-pitch_F_loud.wav,stimulus/audwhat_stim/blank_white.png,stimulus/audwhat_stim/category_box.png,stimulus/audwhat_stim/category_yes.png,stimulus/audwhat_stim/category_no.png,None,Category,None,Pitch,2,0.0,0,5.125,0,5.125,0,5.125,0,0.0,0.625,0,0,0,0,0,0,0,0,0,0.0,0,0.0,1,0.5,1,2.125,0,,,,,0,44,44,44,,,,,,,,,400.66813162499966,400.66813162499966,400.66813162499966,400.66813162499966,400.66813162499966,400.66813162499966,400.66813162499966,400.66813162499966,400.58768691633315,400.66813162499966,400.66813162499966,400.66813162499966,400.58768691633315,400.66813162499966,400.66813162499966,400.66813162499966,402.7794655829998,406.8012736659998,400.66813162499966,400.66813162499966,405.8259319579997,400.66813162499966,400.66813162499966,400.66813162499966,400.66813162499966,401.13721291599995,402.17135737499984,401.1069498746667,,402.7794655829998,403.8129574999998,402.7489139996667,,400.66813162499966,405.8259319579997,400.66813162499966,405.8259319579997,405.86705833299993,406.5259350409997,400.66813162499966,2,1,2.1075232909997794,reldom2_s015,001,2025-02-14_14h55.51.093,Aud-B-Scan_AC,2022.2.5,None,
0,0.0,None,fixation,stimulus/audwhat_stim/blank_white.png,stimulus/audwhat_stim/blank_white.png,stimulus/audwhere_stim/blank_white.png,stimulus/audwhere_stim/blank_white.png,stimulus/audwhat_stim/blank_white.png,stimulus/audwhat_stim/blank_white.png,stimulus/audwhat_stim/blank_white.png,stimulus/audwhat_stim/blank_white.png,0.0,0.0,0.0,0.0,0,0.0,0,0.0,0,0.0,0,0.0,0,0.0,0.0,0,0,0,0,0,0,0,0,0,0.0,0,0.0,0,0.0,0,0.0,9,,,,,0,45,45,45,,,,,,,,,406.8012736659998,406.8012736659998,406.8012736659998,406.8012736659998,406.8012736659998,406.8012736659998,406.8012736659998,406.8012736659998,406.70079783333324,406.8012736659998,406.8012736659998,406.8012736659998,406.70079783333324,406.8012736659998,406.8012736659998,406.8012736659998,406.8012736659998,406.8012736659998,406.8012736659998,406.8012736659998,406.8012736659998,406.8012736659998,406.8012736659998,406.8012736659998,406.8012736659998,406.8012736659998,406.8012736659998,406.75079783333325,406.8012736659998,406.8012736659998,406.8012736659998,406.75079783333325,406.8012736659998,406.8012736659998,406.8012736659998,406.8012736659998,406.8012736659998,412.0144037079999,412.0144037079999,415.929097791,None,0,,reldom2_s015,001,2025-02-14_14h55.51.093,Aud-B-Scan_AC,2022.2.5,None,
35,Second_Order,6.0,audwhat,stimulus/audwhat_stim/string cello_low-pitch_D_loud.wav,stimulus/audwhat_stim/percussion mallet_low-pitch_D_loud.wav,stimulus/audwhat_stim/percussion mallet_low-pitch_D_loud.wav,stimulus/audwhat_stim/percussion xylophone_high-pitch_Ftri_loud.wav,stimulus/audwhat_stim/match_blank.png,stimulus/audwhat_stim/match_box.png,stimulus/audwhat_stim/match_yes.png,stimulus/audwhat_stim/match_no.png,2.0,Match,Pitch,Category,2,5.125,0,5.125,0,5.125,0,5.125,0,0.75,0.75,0,0,0,0,0,0,0,0,1,0.5,1,2.125,1,0.5,1,2.125,0,,,,,0,46,46,46,,,,,,,,,415.929097791,421.05195266600003,415.929097791,415.929097791,415.929097791,415.929097791,416.3866801659997,417.376143083,416.3899511666666,,418.0111098749999,419.00922820799997,418.02355004166634,,421.05195266600003,421.9022091659999,423.9483664579998,,421.9022091659999,421.9022091659999,427.0668539159997,421.9022091659999,421.9022091659999,421.9022091659999,421.9022091659999,422.32011491599997,423.38955987500003,422.2898345416663,,423.9483664579998,425.01903458299967,423.9181752076663,424.97233174999974,421.9022091659999,427.0668539159997,421.9022091659999,427.0668539159997,427.0668539159997,,421.9022091659999,2,1,0.6684600419998787,reldom2_s015,001,2025-02-14_14h55.51.093,Aud-B-Scan_AC,2022.2.5,None,
36,Second_Order,6.0,audwhat,stimulus/audwhat_stim/string cello_low-pitch_Dtri_loud.wav,stimulus/audwhat_stim/percussion mallet_low-pitch_Dtri_loud.wav,stimulus/audwhat_stim/string viola_high-pitch_F_loud.wav,stimulus/audwhat_stim/percussion xylophone_high-pitch_F_loud.wav,stimulus/audwhat_stim/match_blank.png,stimulus/audwhat_stim/match_box.png,stimulus/audwhat_stim/match_yes.png,stimulus/audwhat_stim/match_no.png,1.0,Match,Pitch,Pitch,1,5.125,0,5.125,0,5.125,0,5.125,0,0.625,0.625,0,0,0,0,0,0,0,0,1,0.5,1,2.125,1,0.5,1,2.125,0,,,,,0,47,47,47,,,,,,,,,427.8819479159997,432.99551354100004,427.8819479159997,427.8819479159997,427.8819479159997,427.8819479159997,428.3344321249997,429.33309066599986,428.3471107496664,,429.9562565829997,430.953827458,429.96813679166667,,432.99551354100004,433.7266199999999,435.80614687499974,439.83796783299977,433.7266199999999,433.7266199999999,438.90968770799964,433.7266199999999,433.7266199999999,433.7266199999999,433.7266199999999,434.13905095799964,435.20426329099973,434.1101628746667,,435.80614687499974,436.8720559999997,435.7760292076666,436.82535004099964,433.7266199999999,438.90968770799964,433.7266199999999,438.90968770799964,438.90968770799964,439.5651177079999,433.7266199999999,2,0,0.7792867920002209,reldom2_s015,001,2025-02-14_14h55.51.093,Aud-B-Scan_AC,2022.2.5,None,
0,0.0,None,fixation,stimulus/audwhat_stim/blank_white.png,stimulus/audwhat_stim/blank_white.png,stimulus/audwhere_stim/blank_white.png,stimulus/audwhere_stim/blank_white.png,stimulus/audwhat_stim/blank_white.png,stimulus/audwhat_stim/blank_white.png,stimulus/audwhat_stim/blank_white.png,stimulus/audwhat_stim/blank_white.png,0.0,0.0,0.0,0.0,0,0.0,0,0.0,0,0.0,0,0.0,0,0.0,0.0,0,0,0,0,0,0,0,0,0,0.0,0,0.0,0,0.0,0,0.0,10,,,,,0,48,48,48,,,,,,,,,439.83796783299977,439.83796783299977,439.83796783299977,439.83796783299977,439.83796783299977,439.83796783299977,439.83796783299977,439.83796783299977,439.73909437433315,439.83796783299977,439.83796783299977,439.83796783299977,439.73909437433315,439.83796783299977,439.83796783299977,439.83796783299977,439.83796783299977,439.83796783299977,439.83796783299977,439.83796783299977,439.83796783299977,439.83796783299977,439.83796783299977,439.83796783299977,439.83796783299977,439.83796783299977,439.83796783299977,439.78909437433316,439.83796783299977,439.83796783299977,439.83796783299977,439.78909437433316,439.83796783299977,439.83796783299977,439.83796783299977,439.83796783299977,439.83796783299977,445.06687495799997,445.06687495799997,450.0631363329999,None,0,,reldom2_s015,001,2025-02-14_14h55.51.093,Aud-B-Scan_AC,2022.2.5,None,
37,First_Order,7.0,audwhere,stimulus/audwhere_stim/dummy.wav,stimulus/audwhere_stim/dummy.wav,stimulus/audwhere_stim/right_toward_300h.wav,stimulus/audwhere_stim/left_toward_290h.wav,stimulus/audwhere_stim/blank_white.png,stimulus/audwhere_stim/direction_box.png,stimulus/audwhere_stim/direction_yes.png,stimulus/audwhere_stim/direction_no.png,None,Direction,None,Direction,1,0.0,0,5.125,0,5.125,0,5.125,0,0.0,0.625,0,0,0,0,0,0,0,0,0,0.0,0,0.0,1,0.5,1,2.125,0,,,,,0,49,49,49,,,,,,,,,450.0631363329999,450.0631363329999,450.0631363329999,450.0631363329999,450.0631363329999,450.0631363329999,450.0631363329999,450.0631363329999,449.99107183266653,450.0631363329999,450.0631363329999,450.0631363329999,449.99107183266653,450.0631363329999,450.0631363329999,450.0631363329999,452.16731041599996,456.1748212079997,450.0631363329999,450.0631363329999,455.25981562499965,450.0631363329999,450.0631363329999,450.0631363329999,450.0631363329999,450.5308857079999,451.5617323329998,450.50128254166634,,452.16731041599996,453.199174333,452.1375632076663,,450.0631363329999,455.25981562499965,450.0631363329999,455.25981562499965,455.25981562499965,455.920499541,450.0631363329999,1,1,1.959944292000273,reldom2_s015,001,2025-02-14_14h55.51.093,Aud-B-Scan_AC,2022.2.5,None,
38,First_Order,7.0,audwhere,stimulus/audwhere_stim/dummy.wav,stimulus/audwhere_stim/dummy.wav,stimulus/audwhere_stim/right_toward_290h.wav,stimulus/audwhere_stim/right_away_270h.wav,stimulus/audwhere_stim/blank_white.png,stimulus/audwhere_stim/side_box.png,stimulus/audwhere_stim/side_yes.png,stimulus/audwhere_stim/side_no.png,None,Side,None,Side,1,0.0,0,5.125,0,5.125,0,5.125,0,0.0,0.625,0,0,0,0,0,0,0,0,0,0.0,0,0.0,1,0.5,1,2.125,0,,,,,0,50,50,50,,,,,,,,,456.1748212079997,456.1748212079997,456.1748212079997,456.1748212079997,456.1748212079997,456.1748212079997,456.1748212079997,456.1748212079997,456.0948553743334,456.1748212079997,456.1748212079997,456.1748212079997,456.0948553743334,456.1748212079997,456.1748212079997,456.1748212079997,458.2703769159998,462.2946202909998,456.1748212079997,456.1748212079997,461.34533195799986,456.1748212079997,456.1748212079997,456.1748212079997,456.1748212079997,456.63950883300004,457.7102931249997,456.6098237916665,,458.2703769159998,459.3447034579999,458.2401249166667,,456.1748212079997,461.34533195799986,456.1748212079997,461.34533195799986,461.38665304100005,462.04027370799986,456.1748212079997,1,1,0.7892507500000647,reldom2_s015,001,2025-02-14_14h55.51.093,Aud-B-Scan_AC,2022.2.5,None,
39,First_Order,7.0,audwhere,stimulus/audwhere_stim/dummy.wav,stimulus/audwhere_stim/dummy.wav,stimulus/audwhere_stim/left_away_290h.wav,stimulus/audwhere_stim/left_toward_290h.wav,stimulus/audwhere_stim/blank_white.png,stimulus/audwhere_stim/direction_box.png,stimulus/audwhere_stim/direction_yes.png,stimulus/audwhere_stim/direction_no.png,None,Direction,None,Side,2,0.0,0,5.125,0,5.125,0,5.125,0,0.0,0.625,0,0,0,0,0,0,0,0,0,0.0,0,0.0,1,0.5,1,2.125,0,,,,,0,51,51,51,,,,,,,,,462.2946202909998,462.2946202909998,462.2946202909998,462.2946202909998,462.2946202909998,462.2946202909998,462.2946202909998,462.2946202909998,462.214575041333,462.2946202909998,462.2946202909998,462.2946202909998,462.214575041333,462.2946202909998,462.2946202909998,462.2946202909998,464.40367587499986,,462.2946202909998,462.2946202909998,467.4506489579999,462.2946202909998,462.2946202909998,462.2946202909998,462.2946202909998,462.76347058300007,463.79583462499977,462.73318816666665,,464.40367587499986,465.4382217499997,464.37316404166654,,462.2946202909998,467.4506489579999,462.2946202909998,467.4506489579999,467.49184795799965,468.1499845829999,462.2946202909998,2,1,0.7965443749999395,reldom2_s015,001,2025-02-14_14h55.51.093,Aud-B-Scan_AC,2022.2.5,None,
40,First_Order,7.0,audwhere,stimulus/audwhere_stim/dummy.wav,stimulus/audwhere_stim/dummy.wav,stimulus/audwhere_stim/right_away_280h.wav,stimulus/audwhere_stim/right_toward_290h.wav,stimulus/audwhere_stim/blank_white.png,stimulus/audwhere_stim/direction_box.png,stimulus/audwhere_stim/direction_yes.png,stimulus/audwhere_stim/direction_no.png,None,Direction,None,Side,2,0.0,0,5.125,0,5.125,0,5.125,0,0.0,0.625,0,0,0,0,0,0,0,0,0,0.0,0,0.0,1,0.5,1,2.125,0,,,,,0,52,52,52,,,,,,,,,468.40453924999974,468.40453924999974,468.40453924999974,468.40453924999974,468.40453924999974,468.40453924999974,468.40453924999974,468.40453924999974,468.32466516633315,468.40453924999974,468.40453924999974,468.40453924999974,468.32466516633315,468.40453924999974,468.40453924999974,468.40453924999974,470.51069400000006,,468.40453924999974,468.40453924999974,473.5574419579998,468.40453924999974,468.40453924999974,468.40453924999974,468.40453924999974,468.8722164999999,469.90363424999987,468.84174379166666,,470.51069400000006,471.54643429099997,470.4798349576665,,468.40453924999974,473.5574419579998,468.40453924999974,473.5574419579998,473.59873312499985,474.2573643749997,468.40453924999974,2,1,0.8260930840001492,reldom2_s015,001,2025-02-14_14h55.51.093,Aud-B-Scan_AC,2022.2.5,None,
0,0.0,None,fixation,stimulus/audwhat_stim/blank_white.png,stimulus/audwhat_stim/blank_white.png,stimulus/audwhere_stim/blank_white.png,stimulus/audwhere_stim/blank_white.png,stimulus/audwhat_stim/blank_white.png,stimulus/audwhat_stim/blank_white.png,stimulus/audwhat_stim/blank_white.png,stimulus/audwhat_stim/blank_white.png,0.0,0.0,0.0,0.0,0,0.0,0,0.0,0,0.0,0,0.0,0,0.0,0.0,0,0,0,0,0,0,0,0,0,0.0,0,0.0,0,0.0,0,0.0,8,,,,,0,53,53,53,,,,,,,,,474.53169516599974,474.53169516599974,474.53169516599974,474.53169516599974,474.53169516599974,474.53169516599974,474.53169516599974,474.53169516599974,474.4317417083331,474.53169516599974,474.53169516599974,474.53169516599974,474.4317417083331,474.53169516599974,474.53169516599974,474.53169516599974,474.53169516599974,474.53169516599974,474.53169516599974,474.53169516599974,474.53169516599974,474.53169516599974,474.53169516599974,474.53169516599974,474.53169516599974,474.53169516599974,474.53169516599974,474.4817417083331,474.53169516599974,474.53169516599974,474.53169516599974,474.4817417083331,474.53169516599974,474.53169516599974,474.53169516599974,474.53169516599974,474.53169516599974,479.76008724999974,479.76008724999974,482.7006886659997,None,0,,reldom2_s015,001,2025-02-14_14h55.51.093,Aud-B-Scan_AC,2022.2.5,None,
41,Second_Order,7.0,audwhere,stimulus/audwhere_stim/left_toward_300h.wav,stimulus/audwhere_stim/right_toward_280h.wav,stimulus/audwhere_stim/right_toward_270h.wav,stimulus/audwhere_stim/right_away_290h.wav,stimulus/audwhat_stim/match_blank.png,stimulus/audwhat_stim/match_box.png,stimulus/audwhat_stim/match_yes.png,stimulus/audwhat_stim/match_no.png,2.0,Match,Direction,Side,2,5.125,0,5.125,0,5.125,0,5.125,0,0.75,0.75,0,0,0,0,0,0,0,0,1,0.5,1,2.125,1,0.5,1,2.125,0,,,,,0,54,54,54,,,,,,,,,482.7006886659997,487.822626916,482.7006886659997,482.7006886659997,482.7006886659997,482.7006886659997,483.1613135829998,484.15989425,483.17433029166637,,484.7821087499997,485.77990524999996,484.7949230416664,,487.822626916,488.67213887499975,490.71760137499996,,488.67213887499975,488.67213887499975,493.83640424999976,488.67213887499975,488.67213887499975,488.67213887499975,488.67213887499975,489.08836670799974,490.16007716600006,489.0593819166663,,490.71760137499996,491.79147520800007,490.6875727496665,,488.67213887499975,493.83640424999976,488.67213887499975,493.83640424999976,493.83640424999976,,488.67213887499975,2,1,1.0699642920003498,reldom2_s015,001,2025-02-14_14h55.51.093,Aud-B-Scan_AC,2022.2.5,None,
42,Second_Order,7.0,audwhere,stimulus/audwhere_stim/right_toward_290h.wav,stimulus/audwhere_stim/left_toward_270h.wav,stimulus/audwhere_stim/left_toward_290h.wav,stimulus/audwhere_stim/left_away_280h.wav,stimulus/audwhat_stim/match_blank.png,stimulus/audwhat_stim/match_box.png,stimulus/audwhat_stim/match_yes.png,stimulus/audwhat_stim/match_no.png,2.0,Match,Direction,Side,2,5.125,0,5.125,0,5.125,0,5.125,0,0.625,0.625,0,0,0,0,0,0,0,0,1,0.5,1,2.125,1,0.5,1,2.125,0,,,,,0,55,55,55,,,,,,,,,494.6483077079997,499.76704608299997,494.6483077079997,494.6483077079997,494.6483077079997,494.6483077079997,495.1039677079998,496.09100658299985,495.1180100416666,,496.72597099999984,497.72435745799976,496.7384237496665,,499.76704608299997,500.49464091599975,502.5682661249998,506.60081541599993,500.49464091599975,500.49464091599975,505.6729157499999,500.49464091599975,500.49464091599975,500.49464091599975,500.49464091599975,500.9536871659998,502.01331787499976,500.92414037466665,,502.5682661249998,503.637037125,502.5382579576665,,500.49464091599975,505.6729157499999,500.49464091599975,505.6729157499999,505.6729157499999,506.3274741659998,500.49464091599975,2,1,0.9922689580002952,reldom2_s015,001,2025-02-14_14h55.51.093,Aud-B-Scan_AC,2022.2.5,None,
0,0.0,None,fixation,stimulus/audwhat_stim/blank_white.png,stimulus/audwhat_stim/blank_white.png,stimulus/audwhere_stim/blank_white.png,stimulus/audwhere_stim/blank_white.png,stimulus/audwhat_stim/blank_white.png,stimulus/audwhat_stim/blank_white.png,stimulus/audwhat_stim/blank_white.png,stimulus/audwhat_stim/blank_white.png,0.0,0.0,0.0,0.0,0,0.0,0,0.0,0,0.0,0,0.0,0,0.0,0.0,0,0,0,0,0,0,0,0,0,0.0,0,0.0,0,0.0,0,0.0,10,,,,,0,56,56,56,,,,,,,,,506.60081541599993,506.60081541599993,506.60081541599993,506.60081541599993,506.60081541599993,506.60081541599993,506.60081541599993,506.60081541599993,506.50115808333305,506.60081541599993,506.60081541599993,506.60081541599993,506.50115808333305,506.60081541599993,506.60081541599993,506.60081541599993,506.60081541599993,506.60081541599993,506.60081541599993,506.60081541599993,506.60081541599993,506.60081541599993,506.60081541599993,506.60081541599993,506.60081541599993,506.60081541599993,506.60081541599993,506.55115808333306,506.60081541599993,506.60081541599993,506.60081541599993,506.55115808333306,506.60081541599993,506.60081541599993,506.60081541599993,506.60081541599993,506.60081541599993,511.8346094159997,511.8346094159997,516.8262369159997,None,0,,reldom2_s015,001,2025-02-14_14h55.51.093,Aud-B-Scan_AC,2022.2.5,None,
43,First_Order,8.0,audwhere,stimulus/audwhere_stim/dummy.wav,stimulus/audwhere_stim/dummy.wav,stimulus/audwhere_stim/right_toward_270h.wav,stimulus/audwhere_stim/left_toward_300h.wav,stimulus/audwhere_stim/blank_white.png,stimulus/audwhere_stim/side_box.png,stimulus/audwhere_stim/side_yes.png,stimulus/audwhere_stim/side_no.png,None,Side,None,Direction,2,0.0,0,5.125,0,5.125,0,5.125,0,0.0,0.625,0,0,0,0,0,0,0,0,0,0.0,0,0.0,1,0.5,1,2.125,0,,,,,0,57,57,57,,,,,,,,,516.8262369159997,516.8262369159997,516.8262369159997,516.8262369159997,516.8262369159997,516.8262369159997,516.8262369159997,516.8262369159997,516.7559424166667,516.8262369159997,516.8262369159997,516.8262369159997,516.7559424166667,516.8262369159997,516.8262369159997,516.8262369159997,518.9158822909999,,516.8262369159997,516.8262369159997,521.985851291,516.8262369159997,516.8262369159997,516.8262369159997,516.8262369159997,517.290634166,518.3574793329999,517.2606490826663,,518.9158822909999,519.9865064579999,518.8860256246664,,516.8262369159997,521.985851291,516.8262369159997,521.985851291,522.0266739579997,522.6801008329999,516.8262369159997,2,1,1.261803208999936,reldom2_s015,001,2025-02-14_14h55.51.093,Aud-B-Scan_AC,2022.2.5,None,
44,First_Order,8.0,audwhere,stimulus/audwhere_stim/dummy.wav,stimulus/audwhere_stim/dummy.wav,stimulus/audwhere_stim/right_toward_270h.wav,stimulus/audwhere_stim/left_toward_280h.wav,stimulus/audwhere_stim/blank_white.png,stimulus/audwhere_stim/side_box.png,stimulus/audwhere_stim/side_yes.png,stimulus/audwhere_stim/side_no.png,None,Side,None,Direction,2,0.0,0,5.125,0,5.125,0,5.125,0,0.0,0.625,0,0,0,0,0,0,0,0,0,0.0,0,0.0,1,0.5,1,2.125,0,,,,,0,58,58,58,,,,,,,,,522.9328985829998,522.9328985829998,522.9328985829998,522.9328985829998,522.9328985829998,522.9328985829998,522.9328985829998,522.9328985829998,522.8540150413334,522.9328985829998,522.9328985829998,522.9328985829998,522.8540150413334,522.9328985829998,522.9328985829998,522.9328985829998,525.02331525,,522.9328985829998,522.9328985829998,528.089634208,522.9328985829998,522.9328985829998,522.9328985829998,522.9328985829998,523.3988180829997,524.4659068749997,523.3689645826664,,525.02331525,526.0951137499997,524.9929987076664,,522.9328985829998,528.089634208,522.9328985829998,528.089634208,528.1308480409998,528.7881426659997,522.9328985829998,2,1,1.1081021670001974,reldom2_s015,001,2025-02-14_14h55.51.093,Aud-B-Scan_AC,2022.2.5,None,
45,First_Order,8.0,audwhere,stimulus/audwhere_stim/dummy.wav,stimulus/audwhere_stim/dummy.wav,stimulus/audwhere_stim/right_toward_270h.wav,stimulus/audwhere_stim/left_toward_290h.wav,stimulus/audwhere_stim/blank_white.png,stimulus/audwhere_stim/direction_box.png,stimulus/audwhere_stim/direction_yes.png,stimulus/audwhere_stim/direction_no.png,None,Direction,None,Direction,1,0.0,0,5.125,0,5.125,0,5.125,0,0.0,0.625,0,0,0,0,0,0,0,0,0,0.0,0,0.0,1,0.5,1,2.125,0,,,,,0,59,59,59,,,,,,,,,529.041520791,529.041520791,529.041520791,529.041520791,529.041520791,529.041520791,529.041520791,529.041520791,528.9621405413333,529.041520791,529.041520791,529.041520791,528.9621405413333,529.041520791,529.041520791,529.041520791,531.1486394159997,,529.041520791,529.041520791,534.1920721249999,529.041520791,529.041520791,529.041520791,529.041520791,529.512000916,530.541202458,529.4813860416664,,531.1486394159997,532.1829230409999,531.1189205826665,,529.041520791,534.1920721249999,529.041520791,534.1920721249999,534.233524708,534.8924737499997,529.041520791,1,1,1.0985499590001382,reldom2_s015,001,2025-02-14_14h55.51.093,Aud-B-Scan_AC,2022.2.5,None,
46,First_Order,8.0,audwhere,stimulus/audwhere_stim/dummy.wav,stimulus/audwhere_stim/dummy.wav,stimulus/audwhere_stim/left_away_300h.wav,stimulus/audwhere_stim/left_toward_300h.wav,stimulus/audwhere_stim/blank_white.png,stimulus/audwhere_stim/side_box.png,stimulus/audwhere_stim/side_yes.png,stimulus/audwhere_stim/side_no.png,None,Side,None,Side,1,0.0,0,5.125,0,5.125,0,5.125,0,0.0,0.625,0,0,0,0,0,0,0,0,0,0.0,0,0.0,1,0.5,1,2.125,0,,,,,0,60,60,60,,,,,,,,,535.1466621249997,535.1466621249997,535.1466621249997,535.1466621249997,535.1466621249997,535.1466621249997,535.1466621249997,535.1466621249997,535.0667161243333,535.1466621249997,535.1466621249997,535.1466621249997,535.0667161243333,535.1466621249997,535.1466621249997,535.1466621249997,537.2467514579998,541.296381958,535.1466621249997,535.1466621249997,540.323013666,535.1466621249997,535.1466621249997,535.1466621249997,535.1466621249997,535.615577041,536.6849173329997,535.5854636246665,,537.2467514579998,538.3207553329999,537.2160647916664,,535.1466621249997,540.323013666,535.1466621249997,540.323013666,540.363907291,541.0196352909998,535.1466621249997,1,1,1.317915333000201,reldom2_s015,001,2025-02-14_14h55.51.093,Aud-B-Scan_AC,2022.2.5,None,
0,0.0,None,fixation,stimulus/audwhat_stim/blank_white.png,stimulus/audwhat_stim/blank_white.png,stimulus/audwhere_stim/blank_white.png,stimulus/audwhere_stim/blank_white.png,stimulus/audwhat_stim/blank_white.png,stimulus/audwhat_stim/blank_white.png,stimulus/audwhat_stim/blank_white.png,stimulus/audwhat_stim/blank_white.png,0.0,0.0,0.0,0.0,0,0.0,0,0.0,0,0.0,0,0.0,0,0.0,0.0,0,0,0,0,0,0,0,0,0,0.0,0,0.0,0,0.0,0,0.0,9,,,,,0,61,61,61,,,,,,,,,541.296381958,541.296381958,541.296381958,541.296381958,541.296381958,541.296381958,541.296381958,541.296381958,541.1940293333333,541.296381958,541.296381958,541.296381958,541.1940293333333,541.296381958,541.296381958,541.296381958,541.296381958,541.296381958,541.296381958,541.296381958,541.296381958,541.296381958,541.296381958,541.296381958,541.296381958,541.296381958,541.296381958,541.2440293333333,541.296381958,541.296381958,541.296381958,541.2440293333333,541.296381958,541.296381958,541.296381958,541.296381958,541.296381958,546.505416041,546.505416041,550.4622462909997,None,0,,reldom2_s015,001,2025-02-14_14h55.51.093,Aud-B-Scan_AC,2022.2.5,None,
47,Second_Order,8.0,audwhere,stimulus/audwhere_stim/right_away_300h.wav,stimulus/audwhere_stim/right_toward_270h.wav,stimulus/audwhere_stim/left_away_280h.wav,stimulus/audwhere_stim/left_toward_270h.wav,stimulus/audwhat_stim/match_blank.png,stimulus/audwhat_stim/match_box.png,stimulus/audwhat_stim/match_yes.png,stimulus/audwhat_stim/match_no.png,1.0,Match,Side,Side,1,5.125,0,5.125,0,5.125,0,5.125,0,0.75,0.75,0,0,0,0,0,0,0,0,1,0.5,1,2.125,1,0.5,1,2.125,0,,,,,0,62,62,62,,,,,,,,,550.4622462909997,555.5795762079997,550.4622462909997,550.4622462909997,550.4622462909997,550.4622462909997,550.918445583,551.9162878329998,550.9309307496667,,552.5381670829997,553.5367355409999,552.5507756666664,,555.5795762079997,556.4301636659998,558.4730185829999,,556.4301636659998,556.4301636659998,561.5873389999997,556.4301636659998,556.4301636659998,556.4301636659998,556.4301636659998,556.8468694999997,557.9156281249998,556.8167127916665,,558.4730185829999,559.5454843749999,558.4431647496665,,556.4301636659998,561.5873389999997,556.4301636659998,561.5873389999997,561.6285229999999,,556.4301636659998,1,1,0.937146791000032,reldom2_s015,001,2025-02-14_14h55.51.093,Aud-B-Scan_AC,2022.2.5,None,
48,Second_Order,8.0,audwhere,stimulus/audwhere_stim/right_toward_270h.wav,stimulus/audwhere_stim/right_away_270h.wav,stimulus/audwhere_stim/left_away_280h.wav,stimulus/audwhere_stim/left_toward_290h.wav,stimulus/audwhat_stim/match_blank.png,stimulus/audwhat_stim/match_box.png,stimulus/audwhat_stim/match_yes.png,stimulus/audwhat_stim/match_no.png,1.0,Match,Side,Side,1,5.125,0,5.125,0,5.125,0,5.125,0,0.625,0.625,0,0,0,0,0,0,0,0,1,0.5,1,2.125,1,0.5,1,2.125,0,,,,,0,63,63,63,,,,,,,,,562.4011959159998,567.5232029579997,562.4011959159998,562.4011959159998,562.4011959159998,562.4011959159998,562.8617119159999,563.8610605829999,562.8745343326666,,564.4840281249999,565.4814360830001,564.4951904166667,,567.5232029579997,568.253504583,570.3349678330001,574.3660302499998,568.253504583,568.253504583,573.4389572079999,568.253504583,568.253504583,568.253504583,568.253504583,568.6702572079998,569.7332930829998,568.6406437496664,,570.3349678330001,571.4044329999997,570.3054013746666,,568.253504583,573.4389572079999,568.253504583,573.4389572079999,573.4389572079999,574.0921226659998,568.253504583,1,1,1.1435393750002731,reldom2_s015,001,2025-02-14_14h55.51.093,Aud-B-Scan_AC,2022.2.5,None,
0,0.0,None,fixation,stimulus/audwhat_stim/blank_white.png,stimulus/audwhat_stim/blank_white.png,stimulus/audwhere_stim/blank_white.png,stimulus/audwhere_stim/blank_white.png,stimulus/audwhat_stim/blank_white.png,stimulus/audwhat_stim/blank_white.png,stimulus/audwhat_stim/blank_white.png,stimulus/audwhat_stim/blank_white.png,0.0,0.0,0.0,0.0,0,0.0,0,0.0,0,0.0,0,0.0,0,0.0,0.0,0,0,0,0,0,0,0,0,0,0.0,0,0.0,0,0.0,0,0.0,16,,,,,0,64,64,64,,,,,,,,,574.3660302499998,574.3660302499998,574.3660302499998,574.3660302499998,574.3660302499998,574.3660302499998,574.3660302499998,574.3660302499998,574.2660866243333,574.3660302499998,574.3660302499998,574.3660302499998,574.2660866243333,574.3660302499998,574.3660302499998,574.3660302499998,574.3660302499998,574.3660302499998,574.3660302499998,574.3660302499998,574.3660302499998,574.3660302499998,574.3660302499998,574.3660302499998,574.3660302499998,574.3660302499998,574.3660302499998,574.3160866243333,574.3660302499998,574.3660302499998,574.3660302499998,574.3160866243333,574.3660302499998,574.3660302499998,574.3660302499998,574.3660302499998,574.3660302499998,579.5910263749997,579.5910263749997,590.5397222080001,None,0,,reldom2_s015,001,2025-02-14_14h55.51.093,Aud-B-Scan_AC,2022.2.5,None,
