Trial,Order,Block,Type,Stimuli_File1,Stimuli_File2,Stimuli_File3,Stimuli_File4,Cue_File1,Cue_File2,Response_File_Yes,Response_File_No,Match,Cue_Dimension,Pair1_Dimension,Pair2_Dimension,Key,Cue1_Duration,Cue1_Onset,Cue2_Duration,Cue2_Onset,ResponseYes_Duration,ResponseYes_Onset,ResponseNo_Duration,ResponseNo_Onset,ITI_Within,ITI_Between,Image1_Duration,Image1_Onset,Image2_Duration,Image2_Onset,Image3_Duration,Image3_Onset,Image4_Duration,Image4_Onset,Sound1_Duration,Sound1_Onset,Sound2_Duration,Sound2_Onset,Sound3_Duration,Sound3_Onset,Sound4_Duration,Sound4_Onset,Fixation_Duration,trials_2.thisRepN,trials_2.thisTrialN,trials_2.thisN,trials_2.thisIndex,trials.thisRepN,trials.thisTrialN,trials.thisN,trials.thisIndex,text_start.started,key_resp_start.started,key_resp_start.keys,key_resp_start.rt,text2.started,key_resp_2.started,key_resp_2.keys,key_resp_2.rt,cue_file1.started,cue_file1.stopped,image_1.started,image_1.stopped,image_2.started,image_2.stopped,sound_icon1.started,sound_icon1.stopped,sound_1.started,sound_1.stopped,sound_icon2.started,sound_icon2.stopped,sound_2.started,sound_2.stopped,image_blank_1.started,image_blank_1.stopped,key_press.started,key_press.stopped,fixation_text.started,cue_file2.started,cue_file2.stopped,image_3.started,image_3.stopped,image_4.started,image_4.stopped,sound_icon3.started,sound_icon3.stopped,sound_3.started,sound_3.stopped,sound_icon4.started,sound_icon4.stopped,sound_4.started,sound_4.stopped,response_yes.started,response_yes.stopped,response_no.started,response_no.stopped,iti_blank.started,iti_blank.stopped,fixation_text.stopped,key_press.keys,key_press.corr,key_press.rt,participant,session,date,expName,psychopyVersion,frameRate,
,,,,,,,,,,,,,,,,,,,,,,,,,,,,,,,,,,,,,,,,,,,,,,,,,,,,8.853973249999399,8.853973249999399,2,1.2623297909958637,,,,,,,,,,,,,,,,,,,,,,,,,,,,,,,,,,,,,,,,,,,,,,,,reldom2_s018,001,2025-02-21_12h07.06.962,Vis-A-Scan_AC,2022.2.5,None,
,,,,,,,,,,,,,,,,,,,,,,,,,,,,,,,,,,,,,,,,,,,,0,0,0,0,,,,,,,,,10.150484125006187,10.150484125006187,5,17.36561104199791,,,,,,,,,,,,,,,,,,,,,,,,,,,,,,,,,,,,,,,,,,,,reldom2_s018,001,2025-02-21_12h07.06.962,Vis-A-Scan_AC,2022.2.5,None,
,,,,,,,,,,,,,,,,,,,,,,,,,,,,,,,,,,,,,,,,,,,,1,0,1,0,,,,,,,,,27.530104959005257,27.530104959005257,5,1.9857132079996518,,,,,,,,,,,,,,,,,,,,,,,,,,,,,,,,,,,,,,,,,,,,reldom2_s018,001,2025-02-21_12h07.06.962,Vis-A-Scan_AC,2022.2.5,None,
,,,,,,,,,,,,,,,,,,,,,,,,,,,,,,,,,,,,,,,,,,,,2,0,2,0,,,,,,,,,29.53453133400035,29.53453133400035,5,1.9804200409998884,,,,,,,,,,,,,,,,,,,,,,,,,,,,,,,,,,,,,,,,,,,,reldom2_s018,001,2025-02-21_12h07.06.962,Vis-A-Scan_AC,2022.2.5,None,
,,,,,,,,,,,,,,,,,,,,,,,,,,,,,,,,,,,,,,,,,,,,3,0,3,0,,,,,,,,,31.532596542005194,31.532596542005194,5,1.982054791005794,,,,,,,,,,,,,,,,,,,,,,,,,,,,,,,,,,,,,,,,,,,,reldom2_s018,001,2025-02-21_12h07.06.962,Vis-A-Scan_AC,2022.2.5,None,
0,0.0,None,fixation,stimulus/viswhat_stim/blank_white.png,stimulus/viswhat_stim/blank_white.png,stimulus/viswhere_stim/blank_white.png,stimulus/viswhere_stim/blank_white.png,stimulus/viswhat_stim/blank_white.png,stimulus/viswhat_stim/blank_white.png,stimulus/viswhat_stim/blank_white.png,stimulus/viswhat_stim/blank_white.png,0.0,0.0,0.0,0.0,0,0.0,0,0.0,0,0.0,0,0.0,0,0.0,0.0,0,0.0,0,0.0,0,0.0,0,0.0,0,0,0,0,0,0,0,0,16,,,,,0,0,0,0,,,,,,,,,33.72762312499981,33.72762312499981,33.72762312499981,33.72762312499981,33.72762312499981,33.72762312499981,33.72762312499981,33.72762312499981,33.63108933366845,33.72762312499981,33.72762312499981,33.72762312499981,33.63108933366845,33.72762312499981,33.72762312499981,33.72762312499981,33.72762312499981,33.72762312499981,33.72762312499981,33.72762312499981,33.72762312499981,33.72762312499981,33.72762312499981,33.72762312499981,33.72762312499981,33.72762312499981,33.72762312499981,33.681089333668446,33.72762312499981,33.72762312499981,33.72762312499981,33.681089333668446,33.72762312499981,33.72762312499981,33.72762312499981,33.72762312499981,33.72762312499981,38.9083994169996,38.9083994169996,49.95628000000579,None,0,,reldom2_s018,001,2025-02-21_12h07.06.962,Vis-A-Scan_AC,2022.2.5,None,
1,First_Order,1.0,viswhat,stimulus/viswhat_stim/blank_white.png,stimulus/viswhat_stim/blank_white.png,stimulus/viswhat_stim/land_animal-moose.png,stimulus/viswhat_stim/water_animal-seaturtle.png,stimulus/viswhat_stim/blank_white.png,stimulus/viswhat_stim/type_box.png,stimulus/viswhat_stim/type_yes.png,stimulus/viswhat_stim/type_no.png,None,Type,None,Type,1,0.0,0,5.125,0,5.125,0,5.125,0,0.0,0.625,0,0.0,0,0.0,1,0.5,1,2.125,0,0,0,0,0,0,0,0,0,,,,,0,1,1,1,,,,,,,,,49.95628000000579,49.95628000000579,49.95628000000579,49.95628000000579,49.95628000000579,49.95628000000579,49.95628000000579,49.95628000000579,49.86308912500535,49.95628000000579,49.95628000000579,49.95628000000579,49.86308912500535,49.95628000000579,49.95628000000579,49.95628000000579,52.058833667004365,,49.95628000000579,49.95628000000579,55.13933270900452,50.41026162500202,51.489402750004956,52.058833667004365,53.14263087500149,49.95628000000579,49.95628000000579,49.91308912500535,49.95628000000579,49.95628000000579,49.95628000000579,49.91308912500535,49.95628000000579,49.95628000000579,55.13933270900452,49.95628000000579,55.13933270900452,55.13933270900452,55.813462209000136,49.95628000000579,1,1,2.4361685829935595,reldom2_s018,001,2025-02-21_12h07.06.962,Vis-A-Scan_AC,2022.2.5,None,
2,First_Order,1.0,viswhat,stimulus/viswhat_stim/blank_white.png,stimulus/viswhat_stim/blank_white.png,stimulus/viswhat_stim/water_vehicle-submarine.png,stimulus/viswhat_stim/land_vehicle-firetruck.png,stimulus/viswhat_stim/blank_white.png,stimulus/viswhat_stim/type_box.png,stimulus/viswhat_stim/type_yes.png,stimulus/viswhat_stim/type_no.png,None,Type,None,Type,1,0.0,0,5.125,0,5.125,0,5.125,0,0.0,0.625,0,0.0,0,0.0,1,0.5,1,2.125,0,0,0,0,0,0,0,0,0,,,,,0,2,2,2,,,,,,,,,56.00697208400379,56.00697208400379,56.00697208400379,56.00697208400379,56.00697208400379,56.00697208400379,56.00697208400379,56.00697208400379,55.963462209000134,56.00697208400379,56.00697208400379,56.00697208400379,55.963462209000134,56.00697208400379,56.00697208400379,56.00697208400379,58.10221966700192,62.09713500000362,56.00697208400379,56.00697208400379,61.151386084005935,56.48552400000335,57.494741542002885,58.10221966700192,59.12201770899992,56.00697208400379,56.00697208400379,55.996795542333466,56.00697208400379,56.00697208400379,56.00697208400379,55.996795542333466,56.00697208400379,56.00697208400379,61.151386084005935,56.00697208400379,61.151386084005935,61.231211292004446,61.86819700000342,56.00697208400379,1,1,0.6212612079980318,reldom2_s018,001,2025-02-21_12h07.06.962,Vis-A-Scan_AC,2022.2.5,None,
3,First_Order,1.0,viswhat,stimulus/viswhat_stim/blank_white.png,stimulus/viswhat_stim/blank_white.png,stimulus/viswhat_stim/water_vehicle-kayak.png,stimulus/viswhat_stim/land_vehicle-vespa.png,stimulus/viswhat_stim/blank_white.png,stimulus/viswhat_stim/location_box.png,stimulus/viswhat_stim/location_yes.png,stimulus/viswhat_stim/location_no.png,None,Location,None,Type,2,0.0,0,5.125,0,5.125,0,5.125,0,0.0,0.625,0,0.0,0,0.0,1,0.5,1,2.125,0,0,0,0,0,0,0,0,0,,,,,0,3,3,3,,,,,,,,,62.09713500000362,62.09713500000362,62.09713500000362,62.09713500000362,62.09713500000362,62.09713500000362,62.09713500000362,62.09713500000362,62.04722104200628,62.09713500000362,62.09713500000362,62.09713500000362,62.04722104200628,62.09713500000362,62.09713500000362,62.09713500000362,64.19153983400611,,62.09713500000362,62.09713500000362,67.26857016700524,62.56545283400192,63.61549933400238,64.19153983400611,65.24567029200261,62.09713500000362,62.09713500000362,62.063887708672944,62.09713500000362,62.09713500000362,62.09713500000362,62.063887708672944,62.09713500000362,62.09713500000362,67.26857016700524,62.09713500000362,67.26857016700524,67.2994231670018,67.94456137499947,62.09713500000362,2,1,0.8831382499993197,reldom2_s018,001,2025-02-21_12h07.06.962,Vis-A-Scan_AC,2022.2.5,None,
4,First_Order,1.0,viswhat,stimulus/viswhat_stim/blank_white.png,stimulus/viswhat_stim/blank_white.png,stimulus/viswhat_stim/water_vehicle-pirateship.png,stimulus/viswhat_stim/land_vehicle-buldozer.png,stimulus/viswhat_stim/blank_white.png,stimulus/viswhat_stim/location_box.png,stimulus/viswhat_stim/location_yes.png,stimulus/viswhat_stim/location_no.png,None,Location,None,Type,2,0.0,0,5.125,0,5.125,0,5.125,0,0.0,0.625,0,0.0,0,0.0,1,0.5,1,2.125,0,0,0,0,0,0,0,0,0,,,,,0,4,4,4,,,,,,,,,68.17345362500055,68.17345362500055,68.17345362500055,68.17345362500055,68.17345362500055,68.17345362500055,68.17345362500055,68.17345362500055,68.12239904166732,68.17345362500055,68.17345362500055,68.17345362500055,68.12239904166732,68.17345362500055,68.17345362500055,68.17345362500055,70.2700980840018,74.30187708400626,68.17345362500055,68.17345362500055,73.33100966700295,68.64657262500259,69.69596208400617,70.2700980840018,71.29136962500343,68.17345362500055,68.17345362500055,68.15573237500067,68.17345362500055,68.17345362500055,68.17345362500055,68.15573237500067,68.17345362500055,68.17345362500055,73.33100966700295,68.17345362500055,73.33100966700295,73.38791462500376,74.03999062500225,68.17345362500055,2,1,0.955484082995099,reldom2_s018,001,2025-02-21_12h07.06.962,Vis-A-Scan_AC,2022.2.5,None,
0,0.0,None,fixation,stimulus/viswhat_stim/blank_white.png,stimulus/viswhat_stim/blank_white.png,stimulus/viswhere_stim/blank_white.png,stimulus/viswhere_stim/blank_white.png,stimulus/viswhat_stim/blank_white.png,stimulus/viswhat_stim/blank_white.png,stimulus/viswhat_stim/blank_white.png,stimulus/viswhat_stim/blank_white.png,0.0,0.0,0.0,0.0,0,0.0,0,0.0,0,0.0,0,0.0,0,0.0,0.0,0,0.0,0,0.0,0,0.0,0,0.0,0,0,0,0,0,0,0,0,9,,,,,0,5,5,5,,,,,,,,,74.30187708400626,74.30187708400626,74.30187708400626,74.30187708400626,74.30187708400626,74.30187708400626,74.30187708400626,74.30187708400626,74.21324645866649,74.30187708400626,74.30187708400626,74.30187708400626,74.21324645866649,74.30187708400626,74.30187708400626,74.30187708400626,74.30187708400626,74.30187708400626,74.30187708400626,74.30187708400626,74.30187708400626,74.30187708400626,74.30187708400626,74.30187708400626,74.30187708400626,74.30187708400626,74.30187708400626,74.2632464586665,74.30187708400626,74.30187708400626,74.30187708400626,74.2632464586665,74.30187708400626,74.30187708400626,74.30187708400626,74.30187708400626,74.30187708400626,79.4861775840036,79.4861775840036,83.4543923750025,None,0,,reldom2_s018,001,2025-02-21_12h07.06.962,Vis-A-Scan_AC,2022.2.5,None,
5,Second_Order,1.0,viswhat,stimulus/viswhat_stim/water_vehicle-cruiser.png,stimulus/viswhat_stim/land_vehicle-pickuptruck.png,stimulus/viswhat_stim/land_animal-snake.png,stimulus/viswhat_stim/land_vehicle-trolley.png,stimulus/viswhat_stim/match_blank.png,stimulus/viswhat_stim/match_box.png,stimulus/viswhat_stim/match_yes.png,stimulus/viswhat_stim/match_no.png,2.0,Match,Type,Location,2,5.125,0,5.125,0,5.125,0,5.125,0,0.75,0.75,1,0.5,1,2.125,1,0.5,1,2.125,0,0,0,0,0,0,0,0,0,,,,,0,6,6,6,,,,,,,,,83.4543923750025,88.5756175839997,83.87824816700595,84.8661662500017,85.50271550000616,86.4991157090044,83.4543923750025,83.4543923750025,83.46843691733278,83.4543923750025,83.4543923750025,83.4543923750025,83.46843691733278,83.4543923750025,88.5756175839997,89.37425375000021,91.45826825000404,95.34568070900423,89.37425375000021,89.37425375000021,94.51977641700068,89.82270025000616,90.8315897499997,91.45826825000404,92.4753502090025,89.37425375000021,89.37425375000021,89.35952662500203,89.37425375000021,89.37425375000021,89.37425375000021,89.35952662500203,89.37425375000021,89.37425375000021,94.51977641700068,89.37425375000021,94.51977641700068,94.5707365000053,,89.37425375000021,2,1,1.4493638330022804,reldom2_s018,001,2025-02-21_12h07.06.962,Vis-A-Scan_AC,2022.2.5,None,
6,Second_Order,1.0,viswhat,stimulus/viswhat_stim/land_vehicle-firetruck.png,stimulus/viswhat_stim/land_animal-dog.png,stimulus/viswhat_stim/water_animal-seaturtle.png,stimulus/viswhat_stim/water_vehicle-sailboat.png,stimulus/viswhat_stim/match_blank.png,stimulus/viswhat_stim/match_box.png,stimulus/viswhat_stim/match_yes.png,stimulus/viswhat_stim/match_no.png,1.0,Match,Location,Location,1,5.125,0,5.125,0,5.125,0,5.125,0,0.625,0.625,1,0.5,1,2.125,1,0.5,1,2.125,0,0,0,0,0,0,0,0,0,,,,,0,7,7,7,,,,,,,,,95.34568070900423,100.46933279200312,95.82486104200507,96.82298570900457,97.44586625000375,98.44375095900614,95.34568070900423,95.34568070900423,95.34686641700391,95.34568070900423,95.34568070900423,95.34568070900423,95.34686641700391,95.34568070900423,100.46933279200312,101.214541500005,103.28660529199988,,101.214541500005,101.214541500005,106.40860933400108,101.62879225000506,102.66373991699948,103.28660529199988,104.33281312500185,101.214541500005,101.214541500005,101.16640637533904,101.214541500005,101.214541500005,101.214541500005,101.16640637533904,101.214541500005,101.214541500005,106.40860933400108,101.214541500005,106.40860933400108,106.40860933400108,107.30804141700355,101.214541500005,1,1,0.6674737080029445,reldom2_s018,001,2025-02-21_12h07.06.962,Vis-A-Scan_AC,2022.2.5,None,
0,0.0,None,fixation,stimulus/viswhat_stim/blank_white.png,stimulus/viswhat_stim/blank_white.png,stimulus/viswhere_stim/blank_white.png,stimulus/viswhere_stim/blank_white.png,stimulus/viswhat_stim/blank_white.png,stimulus/viswhat_stim/blank_white.png,stimulus/viswhat_stim/blank_white.png,stimulus/viswhat_stim/blank_white.png,0.0,0.0,0.0,0.0,0,0.0,0,0.0,0,0.0,0,0.0,0,0.0,0.0,0,0.0,0,0.0,0,0.0,0,0.0,0,0,0,0,0,0,0,0,9,,,,,0,8,8,8,,,,,,,,,107.30804141700355,107.30804141700355,107.30804141700355,107.30804141700355,107.30804141700355,107.30804141700355,107.30804141700355,107.30804141700355,107.21195870900411,107.30804141700355,107.30804141700355,107.30804141700355,107.21195870900411,107.30804141700355,107.30804141700355,107.30804141700355,107.30804141700355,107.30804141700355,107.30804141700355,107.30804141700355,107.30804141700355,107.30804141700355,107.30804141700355,107.30804141700355,107.30804141700355,107.30804141700355,107.30804141700355,107.2619587090041,107.30804141700355,107.30804141700355,107.30804141700355,107.2619587090041,107.30804141700355,107.30804141700355,107.30804141700355,107.30804141700355,107.30804141700355,112.49002645900327,112.49002645900327,116.59928100000252,None,0,,reldom2_s018,001,2025-02-21_12h07.06.962,Vis-A-Scan_AC,2022.2.5,None,
7,First_Order,2.0,viswhat,stimulus/viswhat_stim/blank_white.png,stimulus/viswhat_stim/blank_white.png,stimulus/viswhat_stim/water_vehicle-ship.png,stimulus/viswhat_stim/water_animal-stingray.png,stimulus/viswhat_stim/blank_white.png,stimulus/viswhat_stim/type_box.png,stimulus/viswhat_stim/type_yes.png,stimulus/viswhat_stim/type_no.png,None,Type,None,Location,2,0.0,0,5.125,0,5.125,0,5.125,0,0.0,0.625,0,0.0,0,0.0,1,0.5,1,2.125,0,0,0,0,0,0,0,0,0,,,,,0,9,9,9,,,,,,,,,116.59928100000252,116.59928100000252,116.59928100000252,116.59928100000252,116.59928100000252,116.59928100000252,116.59928100000252,116.59928100000252,116.50880691666923,116.59928100000252,116.59928100000252,116.59928100000252,116.50880691666923,116.59928100000252,116.59928100000252,116.59928100000252,118.6833169590027,,116.59928100000252,116.59928100000252,121.75642754200089,117.03713162500208,118.08042658400518,118.6833169590027,119.72741908400349,116.59928100000252,116.59928100000252,116.55880691666923,116.59928100000252,116.59928100000252,116.59928100000252,116.55880691666923,116.59928100000252,116.59928100000252,121.75642754200089,116.59928100000252,121.75642754200089,121.80624929199985,122.6279907499993,116.59928100000252,2,1,2.6443641250007204,reldom2_s018,001,2025-02-21_12h07.06.962,Vis-A-Scan_AC,2022.2.5,None,
8,First_Order,2.0,viswhat,stimulus/viswhat_stim/blank_white.png,stimulus/viswhat_stim/blank_white.png,stimulus/viswhat_stim/land_vehicle-train.png,stimulus/viswhat_stim/land_animal-fox.png,stimulus/viswhat_stim/blank_white.png,stimulus/viswhat_stim/type_box.png,stimulus/viswhat_stim/type_yes.png,stimulus/viswhat_stim/type_no.png,None,Type,None,Location,2,0.0,0,5.125,0,5.125,0,5.125,0,0.0,0.625,0,0.0,0,0.0,1,0.5,1,2.125,0,0,0,0,0,0,0,0,0,,,,,0,10,10,10,,,,,,,,,122.6279907499993,122.6279907499993,122.6279907499993,122.6279907499993,122.6279907499993,122.6279907499993,122.6279907499993,122.6279907499993,122.59673029200204,122.6279907499993,122.6279907499993,122.6279907499993,122.59673029200204,122.6279907499993,122.6279907499993,122.6279907499993,124.72444225000072,128.73025333400437,122.6279907499993,122.6279907499993,127.76296083399939,123.10221520900086,124.12226945900329,124.72444225000072,125.7470197090006,122.6279907499993,122.6279907499993,122.6133969586687,122.6279907499993,122.6279907499993,122.6279907499993,122.6133969586687,122.6279907499993,122.6279907499993,127.76296083399939,122.6279907499993,127.76296083399939,127.84643083400442,128.48136320900085,122.6279907499993,2,1,1.708475040999474,reldom2_s018,001,2025-02-21_12h07.06.962,Vis-A-Scan_AC,2022.2.5,None,
9,First_Order,2.0,viswhat,stimulus/viswhat_stim/blank_white.png,stimulus/viswhat_stim/blank_white.png,stimulus/viswhat_stim/land_animal-lion.png,stimulus/viswhat_stim/land_vehicle-bus.png,stimulus/viswhat_stim/blank_white.png,stimulus/viswhat_stim/location_box.png,stimulus/viswhat_stim/location_yes.png,stimulus/viswhat_stim/location_no.png,None,Location,None,Location,1,0.0,0,5.125,0,5.125,0,5.125,0,0.0,0.625,0,0.0,0,0.0,1,0.5,1,2.125,0,0,0,0,0,0,0,0,0,,,,,0,11,11,11,,,,,,,,,128.73025333400437,128.73025333400437,128.73025333400437,128.73025333400437,128.73025333400437,128.73025333400437,128.73025333400437,128.73025333400437,128.66478275033782,128.73025333400437,128.73025333400437,128.73025333400437,128.66478275033782,128.73025333400437,128.73025333400437,128.73025333400437,130.8336288749997,134.8833365840037,128.73025333400437,128.73025333400437,133.89502000000357,129.18877220900322,130.22143204200256,130.8336288749997,131.8724605000025,128.73025333400437,128.73025333400437,128.69811608367115,128.73025333400437,128.73025333400437,128.73025333400437,128.69811608367115,128.73025333400437,128.73025333400437,133.89502000000357,128.73025333400437,133.89502000000357,133.9277141670027,134.57901950000087,128.73025333400437,1,1,0.741277123997861,reldom2_s018,001,2025-02-21_12h07.06.962,Vis-A-Scan_AC,2022.2.5,None,
10,First_Order,2.0,viswhat,stimulus/viswhat_stim/blank_white.png,stimulus/viswhat_stim/blank_white.png,stimulus/viswhat_stim/land_animal-elephant.png,stimulus/viswhat_stim/land_vehicle-motorcycle.png,stimulus/viswhat_stim/blank_white.png,stimulus/viswhat_stim/location_box.png,stimulus/viswhat_stim/location_yes.png,stimulus/viswhat_stim/location_no.png,None,Location,None,Location,1,0.0,0,5.125,0,5.125,0,5.125,0,0.0,0.625,0,0.0,0,0.0,1,0.5,1,2.125,0,0,0,0,0,0,0,0,0,,,,,0,12,12,12,,,,,,,,,134.8833365840037,134.8833365840037,134.8833365840037,134.8833365840037,134.8833365840037,134.8833365840037,134.8833365840037,134.8833365840037,134.76076579167227,134.8833365840037,134.8833365840037,134.8833365840037,134.76076579167227,134.8833365840037,134.8833365840037,134.8833365840037,136.95813954200275,,134.8833365840037,134.8833365840037,140.1023665840039,135.35134725000535,136.42271625000285,136.95813954200275,138.03203241700248,134.8833365840037,134.8833365840037,134.82743245833893,134.8833365840037,134.8833365840037,134.8833365840037,134.82743245833893,134.8833365840037,134.8833365840037,140.1023665840039,134.8833365840037,140.1023665840039,140.1023665840039,140.99069575000613,134.8833365840037,1,1,0.8030238749997807,reldom2_s018,001,2025-02-21_12h07.06.962,Vis-A-Scan_AC,2022.2.5,None,
0,0.0,None,fixation,stimulus/viswhat_stim/blank_white.png,stimulus/viswhat_stim/blank_white.png,stimulus/viswhere_stim/blank_white.png,stimulus/viswhere_stim/blank_white.png,stimulus/viswhat_stim/blank_white.png,stimulus/viswhat_stim/blank_white.png,stimulus/viswhat_stim/blank_white.png,stimulus/viswhat_stim/blank_white.png,0.0,0.0,0.0,0.0,0,0.0,0,0.0,0,0.0,0,0.0,0,0.0,0.0,0,0.0,0,0.0,0,0.0,0,0.0,0,0,0,0,0,0,0,0,10,,,,,0,13,13,13,,,,,,,,,140.99069575000613,140.99069575000613,140.99069575000613,140.99069575000613,140.99069575000613,140.99069575000613,140.99069575000613,140.99069575000613,140.8980132923379,140.99069575000613,140.99069575000613,140.99069575000613,140.8980132923379,140.99069575000613,140.99069575000613,140.99069575000613,140.99069575000613,140.99069575000613,140.99069575000613,140.99069575000613,140.99069575000613,140.99069575000613,140.99069575000613,140.99069575000613,140.99069575000613,140.99069575000613,140.99069575000613,140.94801329233792,140.99069575000613,140.99069575000613,140.99069575000613,140.94801329233792,140.99069575000613,140.99069575000613,140.99069575000613,140.99069575000613,140.99069575000613,146.1968775839996,146.1968775839996,151.10737104200234,None,0,,reldom2_s018,001,2025-02-21_12h07.06.962,Vis-A-Scan_AC,2022.2.5,None,
11,Second_Order,2.0,viswhat,stimulus/viswhat_stim/water_vehicle-cabincruiser.png,stimulus/viswhat_stim/land_vehicle-scooter.png,stimulus/viswhat_stim/land_animal-giraffe.png,stimulus/viswhat_stim/water_animal-squid.png,stimulus/viswhat_stim/match_blank.png,stimulus/viswhat_stim/match_box.png,stimulus/viswhat_stim/match_yes.png,stimulus/viswhat_stim/match_no.png,1.0,Match,Type,Type,1,5.125,0,5.125,0,5.125,0,5.125,0,0.75,0.75,1,0.5,1,2.125,1,0.5,1,2.125,0,0,0,0,0,0,0,0,0,,,,,0,14,14,14,,,,,,,,,151.10737104200234,156.2326230000035,151.56853904200398,152.5560440420013,153.1906625000047,154.18904995900084,151.10737104200234,151.10737104200234,151.10823370833728,151.10737104200234,151.10737104200234,151.10737104200234,151.10823370833728,151.10737104200234,156.2326230000035,157.10167812500003,159.1779513750007,,157.10167812500003,157.10167812500003,162.30195000000094,157.53755687500234,158.57819570900028,159.1779513750007,160.22498841700144,157.10167812500003,157.10167812500003,157.0493757083362,157.10167812500003,157.10167812500003,157.10167812500003,157.0493757083362,157.10167812500003,157.10167812500003,162.30195000000094,157.10167812500003,162.30195000000094,162.30195000000094,,157.10167812500003,1,1,0.9270267500032787,reldom2_s018,001,2025-02-21_12h07.06.962,Vis-A-Scan_AC,2022.2.5,None,
12,Second_Order,2.0,viswhat,stimulus/viswhat_stim/land_animal-bunny.png,stimulus/viswhat_stim/land_vehicle-shortbus.png,stimulus/viswhat_stim/water_vehicle-sailboat.png,stimulus/viswhat_stim/water_animal-whale.png,stimulus/viswhat_stim/match_blank.png,stimulus/viswhat_stim/match_box.png,stimulus/viswhat_stim/match_yes.png,stimulus/viswhat_stim/match_no.png,1.0,Match,Location,Location,1,5.125,0,5.125,0,5.125,0,5.125,0,0.625,0.625,1,0.5,1,2.125,1,0.5,1,2.125,0,0,0,0,0,0,0,0,0,,,,,0,15,15,15,,,,,,,,,163.08585387500352,168.20980270900327,163.531568917002,164.5297561250045,165.15256216700072,166.1501288340005,163.08585387500352,163.08585387500352,163.09204183400144,163.08585387500352,163.08585387500352,163.08585387500352,163.09204183400144,163.08585387500352,168.20980270900327,168.9510090420008,171.0047228340045,,168.9510090420008,168.9510090420008,174.15113970899984,169.4078492500048,170.48873725000158,171.0047228340045,172.03924554200057,168.9510090420008,168.9510090420008,168.90632312533612,168.9510090420008,168.9510090420008,168.9510090420008,168.90632312533612,168.9510090420008,168.9510090420008,174.15113970899984,168.9510090420008,174.15113970899984,174.15113970899984,175.04478191700036,168.9510090420008,1,1,0.8957164159946842,reldom2_s018,001,2025-02-21_12h07.06.962,Vis-A-Scan_AC,2022.2.5,None,
0,0.0,None,fixation,stimulus/viswhat_stim/blank_white.png,stimulus/viswhat_stim/blank_white.png,stimulus/viswhere_stim/blank_white.png,stimulus/viswhere_stim/blank_white.png,stimulus/viswhat_stim/blank_white.png,stimulus/viswhat_stim/blank_white.png,stimulus/viswhat_stim/blank_white.png,stimulus/viswhat_stim/blank_white.png,0.0,0.0,0.0,0.0,0,0.0,0,0.0,0,0.0,0,0.0,0,0.0,0.0,0,0.0,0,0.0,0,0.0,0,0.0,0,0,0,0,0,0,0,0,9,,,,,0,16,16,16,,,,,,,,,175.04478191700036,175.04478191700036,175.04478191700036,175.04478191700036,175.04478191700036,175.04478191700036,175.04478191700036,175.04478191700036,174.94669120900508,175.04478191700036,175.04478191700036,175.04478191700036,174.94669120900508,175.04478191700036,175.04478191700036,175.04478191700036,175.04478191700036,175.04478191700036,175.04478191700036,175.04478191700036,175.04478191700036,175.04478191700036,175.04478191700036,175.04478191700036,175.04478191700036,175.04478191700036,175.04478191700036,174.9966912090051,175.04478191700036,175.04478191700036,175.04478191700036,174.9966912090051,175.04478191700036,175.04478191700036,175.04478191700036,175.04478191700036,175.04478191700036,180.23505529200338,180.23505529200338,184.2613851250062,None,0,,reldom2_s018,001,2025-02-21_12h07.06.962,Vis-A-Scan_AC,2022.2.5,None,
13,First_Order,3.0,viswhere,stimulus/viswhere_stim/blank_white.png,stimulus/viswhere_stim/blank_white.png,stimulus/viswhere_stim/90-deg_dot-left_slateblue.png,stimulus/viswhere_stim/120-deg_dot-left_slateblue.png,stimulus/viswhere_stim/blank_white.png,stimulus/viswhere_stim/dot_box.png,stimulus/viswhere_stim/dot_yes.png,stimulus/viswhere_stim/dot_no.png,None,Dot,None,Dot,1,0.0,0,5.125,0,5.125,0,5.125,0,0.0,0.625,0,0.0,0,0.0,1,0.5,1,2.125,0,0,0,0,0,0,0,0,0,,,,,0,17,17,17,,,,,,,,,184.2613851250062,184.2613851250062,184.2613851250062,184.2613851250062,184.2613851250062,184.2613851250062,184.2613851250062,184.2613851250062,184.24221900067158,184.2613851250062,184.2613851250062,184.2613851250062,184.24221900067158,184.2613851250062,184.2613851250062,184.2613851250062,186.35834504200466,190.31438670900388,184.2613851250062,184.2613851250062,189.39189254200028,184.73786287500116,185.74974562500574,186.35834504200466,187.37239575000422,184.2613851250062,184.2613851250062,184.24221900067158,184.2613851250062,184.2613851250062,184.2613851250062,184.24221900067158,184.2613851250062,184.2613851250062,189.39189254200028,184.2613851250062,189.39189254200028,189.48911358400073,190.11480758400285,184.2613851250062,1,1,0.9474264160016901,reldom2_s018,001,2025-02-21_12h07.06.962,Vis-A-Scan_AC,2022.2.5,None,
14,First_Order,3.0,viswhere,stimulus/viswhere_stim/blank_white.png,stimulus/viswhere_stim/blank_white.png,stimulus/viswhere_stim/30-deg_dot-left_royalblue.png,stimulus/viswhere_stim/30-deg_dot-right_peru.png,stimulus/viswhere_stim/blank_white.png,stimulus/viswhere_stim/dot_box.png,stimulus/viswhere_stim/dot_yes.png,stimulus/viswhere_stim/dot_no.png,None,Dot,None,Line,2,0.0,0,5.125,0,5.125,0,5.125,0,0.0,0.625,0,0.0,0,0.0,1,0.5,1,2.125,0,0,0,0,0,0,0,0,0,,,,,0,18,18,18,,,,,,,,,190.31438670900388,190.31438670900388,190.31438670900388,190.31438670900388,190.31438670900388,190.31438670900388,190.31438670900388,190.31438670900388,190.29496750033772,190.31438670900388,190.31438670900388,190.31438670900388,190.29496750033772,190.31438670900388,190.31438670900388,190.31438670900388,192.43071520900412,196.3751403339993,190.31438670900388,190.31438670900388,195.4503507920017,190.7912098750021,191.80377845900512,192.43071520900412,193.44844379200367,190.31438670900388,190.31438670900388,190.29496750033772,190.31438670900388,190.31438670900388,190.31438670900388,190.29496750033772,190.31438670900388,190.31438670900388,195.4503507920017,190.31438670900388,195.4503507920017,195.5336935000014,196.15882670900464,190.31438670900388,2,1,0.7491391250005108,reldom2_s018,001,2025-02-21_12h07.06.962,Vis-A-Scan_AC,2022.2.5,None,
15,First_Order,3.0,viswhere,stimulus/viswhere_stim/blank_white.png,stimulus/viswhere_stim/blank_white.png,stimulus/viswhere_stim/150-deg_dot-right_turquoise.png,stimulus/viswhere_stim/150-deg_dot-left_cyan.png,stimulus/viswhere_stim/blank_white.png,stimulus/viswhere_stim/line_box.png,stimulus/viswhere_stim/line_yes.png,stimulus/viswhere_stim/line_no.png,None,Line,None,Line,1,0.0,0,5.125,0,5.125,0,5.125,0,0.0,0.625,0,0.0,0,0.0,1,0.5,1,2.125,0,0,0,0,0,0,0,0,0,,,,,0,19,19,19,,,,,,,,,196.3751403339993,196.3751403339993,196.3751403339993,196.3751403339993,196.3751403339993,196.3751403339993,196.3751403339993,196.3751403339993,196.35435833333517,196.3751403339993,196.3751403339993,196.3751403339993,196.35435833333517,196.3751403339993,196.3751403339993,196.3751403339993,198.48397458399995,202.43683512500138,196.3751403339993,196.3751403339993,201.50944120900385,196.85922979200404,197.86690304200602,198.48397458399995,199.49719229200127,196.3751403339993,196.3751403339993,196.37102500000185,196.3751403339993,196.3751403339993,196.3751403339993,196.37102500000185,196.3751403339993,196.3751403339993,201.50944120900385,196.3751403339993,201.50944120900385,201.59523350000381,202.22065724999993,196.3751403339993,1,1,0.864741999997932,reldom2_s018,001,2025-02-21_12h07.06.962,Vis-A-Scan_AC,2022.2.5,None,
16,First_Order,3.0,viswhere,stimulus/viswhere_stim/blank_white.png,stimulus/viswhere_stim/blank_white.png,stimulus/viswhere_stim/120-deg_dot-right_mediumslateblue.png,stimulus/viswhere_stim/150-deg_dot-right_royalblue.png,stimulus/viswhere_stim/blank_white.png,stimulus/viswhere_stim/line_box.png,stimulus/viswhere_stim/line_yes.png,stimulus/viswhere_stim/line_no.png,None,Line,None,Dot,2,0.0,0,5.125,0,5.125,0,5.125,0,0.0,0.625,0,0.0,0,0.0,1,0.5,1,2.125,0,0,0,0,0,0,0,0,0,,,,,0,20,20,20,,,,,,,,,202.43683512500138,202.43683512500138,202.43683512500138,202.43683512500138,202.43683512500138,202.43683512500138,202.43683512500138,202.43683512500138,202.41594954233491,202.43683512500138,202.43683512500138,202.43683512500138,202.41594954233491,202.43683512500138,202.43683512500138,202.43683512500138,204.55097791700246,208.5816878340047,202.43683512500138,202.43683512500138,207.56147500000225,202.91667745900486,203.91881395900418,204.55097791700246,205.55884679200244,202.43683512500138,202.43683512500138,202.4326162090016,202.43683512500138,202.43683512500138,202.43683512500138,202.4326162090016,202.43683512500138,202.43683512500138,207.56147500000225,202.43683512500138,207.56147500000225,207.6588311250016,208.2904622920032,202.43683512500138,2,1,0.7679687080017175,reldom2_s018,001,2025-02-21_12h07.06.962,Vis-A-Scan_AC,2022.2.5,None,
0,0.0,None,fixation,stimulus/viswhat_stim/blank_white.png,stimulus/viswhat_stim/blank_white.png,stimulus/viswhere_stim/blank_white.png,stimulus/viswhere_stim/blank_white.png,stimulus/viswhat_stim/blank_white.png,stimulus/viswhat_stim/blank_white.png,stimulus/viswhat_stim/blank_white.png,stimulus/viswhat_stim/blank_white.png,0.0,0.0,0.0,0.0,0,0.0,0,0.0,0,0.0,0,0.0,0,0.0,0.0,0,0.0,0,0.0,0,0.0,0,0.0,0,0,0,0,0,0,0,0,8,,,,,0,21,21,21,,,,,,,,,208.5816878340047,208.5816878340047,208.5816878340047,208.5816878340047,208.5816878340047,208.5816878340047,208.5816878340047,208.5816878340047,208.48429800033531,208.5816878340047,208.5816878340047,208.5816878340047,208.48429800033531,208.5816878340047,208.5816878340047,208.5816878340047,208.5816878340047,208.5816878340047,208.5816878340047,208.5816878340047,208.5816878340047,208.5816878340047,208.5816878340047,208.5816878340047,208.5816878340047,208.5816878340047,208.5816878340047,208.53429800033533,208.5816878340047,208.5816878340047,208.5816878340047,208.53429800033533,208.5816878340047,208.5816878340047,208.5816878340047,208.5816878340047,208.5816878340047,213.81196908400307,213.81196908400307,216.70530658400094,None,0,,reldom2_s018,001,2025-02-21_12h07.06.962,Vis-A-Scan_AC,2022.2.5,None,
17,Second_Order,3.0,viswhere,stimulus/viswhere_stim/60-deg_dot-right_seagreen.png,stimulus/viswhere_stim/150-deg_dot-right_seagreen.png,stimulus/viswhere_stim/90-deg_dot-right_salmon.png,stimulus/viswhere_stim/90-deg_dot-left_seagreen.png,stimulus/viswhat_stim/match_blank.png,stimulus/viswhat_stim/match_box.png,stimulus/viswhat_stim/match_yes.png,stimulus/viswhat_stim/match_no.png,2.0,Match,Dot,Line,2,5.125,0,5.125,0,5.125,0,5.125,0,0.75,0.75,1,0.5,1,2.125,1,0.5,1,2.125,0,0,0,0,0,0,0,0,0,,,,,0,22,22,22,,,,,,,,,216.70530658400094,221.8287764590059,217.18856983400474,218.18710366700543,218.81019837500207,219.80707375000202,216.70530658400094,216.70530658400094,216.71943350033885,216.70530658400094,216.70530658400094,216.70530658400094,216.71943350033885,216.70530658400094,221.8287764590059,222.6253000420038,224.70632354200643,228.5873570420008,222.6253000420038,222.6253000420038,227.75813237500552,223.0711095000006,224.09169766700506,224.70632354200643,225.7137527090017,222.6253000420038,222.6253000420038,222.61387891700434,222.6253000420038,222.6253000420038,222.6253000420038,222.61387891700434,222.6253000420038,222.6253000420038,227.75813237500552,222.6253000420038,227.75813237500552,227.8126442089997,228.5873570420008,222.6253000420038,2,1,1.0156777079973835,reldom2_s018,001,2025-02-21_12h07.06.962,Vis-A-Scan_AC,2022.2.5,None,
18,Second_Order,3.0,viswhere,stimulus/viswhere_stim/150-deg_dot-right_goldenrod.png,stimulus/viswhere_stim/150-deg_dot-left_cyan.png,stimulus/viswhere_stim/120-deg_dot-left_royalblue.png,stimulus/viswhere_stim/60-deg_dot-left_royalblue.png,stimulus/viswhat_stim/match_blank.png,stimulus/viswhat_stim/match_box.png,stimulus/viswhat_stim/match_yes.png,stimulus/viswhat_stim/match_no.png,2.0,Match,Line,Dot,2,5.125,0,5.125,0,5.125,0,5.125,0,0.625,0.625,1,0.5,1,2.125,1,0.5,1,2.125,0,0,0,0,0,0,0,0,0,,,,,0,23,23,23,,,,,,,,,228.5873570420008,233.71012129200244,229.06647775000602,230.06459195900243,230.69892954200623,231.68797845900554,228.5873570420008,228.5873570420008,228.60068604200643,228.5873570420008,228.5873570420008,228.5873570420008,228.60068604200643,228.5873570420008,233.71012129200244,234.38086933400336,236.46903020900209,240.50251937500434,234.38086933400336,234.38086933400336,239.5209385000053,234.84350954200636,235.85872945900337,236.46903020900209,237.48855758400168,234.38086933400336,234.38086933400336,234.35748766733792,234.38086933400336,234.38086933400336,234.38086933400336,234.35748766733792,234.38086933400336,234.38086933400336,239.5209385000053,234.38086933400336,239.5209385000053,239.57688500000222,240.2076271670012,234.38086933400336,2,1,0.9338397500032443,reldom2_s018,001,2025-02-21_12h07.06.962,Vis-A-Scan_AC,2022.2.5,None,
0,0.0,None,fixation,stimulus/viswhat_stim/blank_white.png,stimulus/viswhat_stim/blank_white.png,stimulus/viswhere_stim/blank_white.png,stimulus/viswhere_stim/blank_white.png,stimulus/viswhat_stim/blank_white.png,stimulus/viswhat_stim/blank_white.png,stimulus/viswhat_stim/blank_white.png,stimulus/viswhat_stim/blank_white.png,0.0,0.0,0.0,0.0,0,0.0,0,0.0,0,0.0,0,0.0,0,0.0,0.0,0,0.0,0,0.0,0,0.0,0,0.0,0,0,0,0,0,0,0,0,10,,,,,0,24,24,24,,,,,,,,,240.50251937500434,240.50251937500434,240.50251937500434,240.50251937500434,240.50251937500434,240.50251937500434,240.50251937500434,240.50251937500434,240.40396470833852,240.50251937500434,240.50251937500434,240.50251937500434,240.40396470833852,240.50251937500434,240.50251937500434,240.50251937500434,240.50251937500434,240.50251937500434,240.50251937500434,240.50251937500434,240.50251937500434,240.50251937500434,240.50251937500434,240.50251937500434,240.50251937500434,240.50251937500434,240.50251937500434,240.45396470833853,240.50251937500434,240.50251937500434,240.50251937500434,240.45396470833853,240.50251937500434,240.50251937500434,240.50251937500434,240.50251937500434,240.50251937500434,245.68450458400184,245.68450458400184,250.7015173750042,None,0,,reldom2_s018,001,2025-02-21_12h07.06.962,Vis-A-Scan_AC,2022.2.5,None,
19,First_Order,4.0,viswhere,stimulus/viswhere_stim/blank_white.png,stimulus/viswhere_stim/blank_white.png,stimulus/viswhere_stim/90-deg_dot-right_royalblue.png,stimulus/viswhere_stim/120-deg_dot-right_goldenrod.png,stimulus/viswhere_stim/blank_white.png,stimulus/viswhere_stim/dot_box.png,stimulus/viswhere_stim/dot_yes.png,stimulus/viswhere_stim/dot_no.png,None,Dot,None,Dot,1,0.0,0,5.125,0,5.125,0,5.125,0,0.0,0.625,0,0.0,0,0.0,1,0.5,1,2.125,0,0,0,0,0,0,0,0,0,,,,,0,25,25,25,,,,,,,,,250.7015173750042,250.7015173750042,250.7015173750042,250.7015173750042,250.7015173750042,250.7015173750042,250.7015173750042,250.7015173750042,250.68238845867262,250.7015173750042,250.7015173750042,250.7015173750042,250.68238845867262,250.7015173750042,250.7015173750042,250.7015173750042,252.80384333400434,256.75863004200073,250.7015173750042,250.7015173750042,255.8325446250019,251.17992779199994,252.19412595900212,252.80384333400434,253.82409645900043,250.7015173750042,250.7015173750042,250.68238845867262,250.7015173750042,250.7015173750042,250.7015173750042,250.68238845867262,250.7015173750042,250.7015173750042,255.8325446250019,250.7015173750042,255.8325446250019,255.9272645000019,256.55793316700147,250.7015173750042,1,1,1.2568763330054935,reldom2_s018,001,2025-02-21_12h07.06.962,Vis-A-Scan_AC,2022.2.5,None,
20,First_Order,4.0,viswhere,stimulus/viswhere_stim/blank_white.png,stimulus/viswhere_stim/blank_white.png,stimulus/viswhere_stim/90-deg_dot-left_peru.png,stimulus/viswhere_stim/90-deg_dot-right_royalblue.png,stimulus/viswhere_stim/blank_white.png,stimulus/viswhere_stim/dot_box.png,stimulus/viswhere_stim/dot_yes.png,stimulus/viswhere_stim/dot_no.png,None,Dot,None,Line,2,0.0,0,5.125,0,5.125,0,5.125,0,0.0,0.625,0,0.0,0,0.0,1,0.5,1,2.125,0,0,0,0,0,0,0,0,0,,,,,0,26,26,26,,,,,,,,,256.75863004200073,256.75863004200073,256.75863004200073,256.75863004200073,256.75863004200073,256.75863004200073,256.75863004200073,256.75863004200073,256.738249125335,256.75863004200073,256.75863004200073,256.75863004200073,256.738249125335,256.75863004200073,256.75863004200073,256.75863004200073,258.8670965000056,262.81779587500205,256.75863004200073,256.75863004200073,261.88714145900303,257.2373391250003,258.2556005000006,258.8670965000056,259.8690335000065,256.75863004200073,256.75863004200073,256.75491579200167,256.75863004200073,256.75863004200073,256.75863004200073,256.75491579200167,256.75863004200073,256.75863004200073,261.88714145900303,256.75863004200073,261.88714145900303,261.9842764999994,262.615947667,256.75863004200073,2,1,1.2529230830041342,reldom2_s018,001,2025-02-21_12h07.06.962,Vis-A-Scan_AC,2022.2.5,None,
21,First_Order,4.0,viswhere,stimulus/viswhere_stim/blank_white.png,stimulus/viswhere_stim/blank_white.png,stimulus/viswhere_stim/120-deg_dot-left_cyan.png,stimulus/viswhere_stim/150-deg_dot-left_seagreen.png,stimulus/viswhere_stim/blank_white.png,stimulus/viswhere_stim/line_box.png,stimulus/viswhere_stim/line_yes.png,stimulus/viswhere_stim/line_no.png,None,Line,None,Dot,2,0.0,0,5.125,0,5.125,0,5.125,0,0.0,0.625,0,0.0,0,0.0,1,0.5,1,2.125,0,0,0,0,0,0,0,0,0,,,,,0,27,27,27,,,,,,,,,262.81779587500205,262.81779587500205,262.81779587500205,262.81779587500205,262.81779587500205,262.81779587500205,262.81779587500205,262.81779587500205,262.79622104233323,262.81779587500205,262.81779587500205,262.81779587500205,262.79622104233323,262.81779587500205,262.81779587500205,262.81779587500205,264.9160222499995,268.8844840840029,262.81779587500205,262.81779587500205,267.9456279590013,263.29798466700595,264.302422834,264.9160222499995,265.9244892090064,262.81779587500205,262.81779587500205,262.8128877089999,262.81779587500205,262.81779587500205,262.81779587500205,262.8128877089999,262.81779587500205,262.81779587500205,267.9456279590013,262.81779587500205,267.9456279590013,268.04257429200516,268.66937587500433,262.81779587500205,2,1,0.6615252080009668,reldom2_s018,001,2025-02-21_12h07.06.962,Vis-A-Scan_AC,2022.2.5,None,
22,First_Order,4.0,viswhere,stimulus/viswhere_stim/blank_white.png,stimulus/viswhere_stim/blank_white.png,stimulus/viswhere_stim/150-deg_dot-right_seagreen.png,stimulus/viswhere_stim/150-deg_dot-left_slateblue.png,stimulus/viswhere_stim/blank_white.png,stimulus/viswhere_stim/line_box.png,stimulus/viswhere_stim/line_yes.png,stimulus/viswhere_stim/line_no.png,None,Line,None,Line,1,0.0,0,5.125,0,5.125,0,5.125,0,0.0,0.625,0,0.0,0,0.0,1,0.5,1,2.125,0,0,0,0,0,0,0,0,0,,,,,0,28,28,28,,,,,,,,,268.8844840840029,268.8844840840029,268.8844840840029,268.8844840840029,268.8844840840029,268.8844840840029,268.8844840840029,268.8844840840029,268.8634879583381,268.8844840840029,268.8844840840029,268.8844840840029,268.8634879583381,268.8844840840029,268.8844840840029,268.8844840840029,270.9942496250005,275.01949087500543,268.8844840840029,268.8844840840029,274.02489470900036,269.3686177500058,270.3763387920044,270.9942496250005,272.0096844590007,268.8844840840029,268.8844840840029,268.88015462500476,268.8844840840029,268.8844840840029,268.8844840840029,268.88015462500476,268.8844840840029,268.8844840840029,274.02489470900036,268.8844840840029,274.02489470900036,274.10977587500383,274.7414107500008,268.8844840840029,1,1,0.5311981239938177,reldom2_s018,001,2025-02-21_12h07.06.962,Vis-A-Scan_AC,2022.2.5,None,
0,0.0,None,fixation,stimulus/viswhat_stim/blank_white.png,stimulus/viswhat_stim/blank_white.png,stimulus/viswhere_stim/blank_white.png,stimulus/viswhere_stim/blank_white.png,stimulus/viswhat_stim/blank_white.png,stimulus/viswhat_stim/blank_white.png,stimulus/viswhat_stim/blank_white.png,stimulus/viswhat_stim/blank_white.png,0.0,0.0,0.0,0.0,0,0.0,0,0.0,0,0.0,0,0.0,0,0.0,0.0,0,0.0,0,0.0,0,0.0,0,0.0,0,0,0,0,0,0,0,0,9,,,,,0,29,29,29,,,,,,,,,275.01949087500543,275.01949087500543,275.01949087500543,275.01949087500543,275.01949087500543,275.01949087500543,275.01949087500543,275.01949087500543,274.92157958333456,275.01949087500543,275.01949087500543,275.01949087500543,274.92157958333456,275.01949087500543,275.01949087500543,275.01949087500543,275.01949087500543,275.01949087500543,275.01949087500543,275.01949087500543,275.01949087500543,275.01949087500543,275.01949087500543,275.01949087500543,275.01949087500543,275.01949087500543,275.01949087500543,274.9715795833346,275.01949087500543,275.01949087500543,275.01949087500543,274.9715795833346,275.01949087500543,275.01949087500543,275.01949087500543,275.01949087500543,275.01949087500543,280.21240537500125,280.21240537500125,284.1326601670007,None,0,,reldom2_s018,001,2025-02-21_12h07.06.962,Vis-A-Scan_AC,2022.2.5,None,
23,Second_Order,4.0,viswhere,stimulus/viswhere_stim/90-deg_dot-right_salmon.png,stimulus/viswhere_stim/150-deg_dot-right_seagreen.png,stimulus/viswhere_stim/150-deg_dot-right_mediumslateblue.png,stimulus/viswhere_stim/150-deg_dot-left_lightsseagreen.png,stimulus/viswhat_stim/match_blank.png,stimulus/viswhat_stim/match_box.png,stimulus/viswhat_stim/match_yes.png,stimulus/viswhat_stim/match_no.png,2.0,Match,Dot,Line,2,5.125,0,5.125,0,5.125,0,5.125,0,0.75,0.75,1,0.5,1,2.125,1,0.5,1,2.125,0,0,0,0,0,0,0,0,0,,,,,0,30,30,30,,,,,,,,,284.1326601670007,289.256439417004,284.61054220900405,285.6092504590051,286.23172170900216,287.22983704200306,284.1326601670007,284.1326601670007,284.1473810003391,284.1326601670007,284.1326601670007,284.1326601670007,284.1473810003391,284.1326601670007,289.256439417004,290.0508288340061,292.1325682500028,295.99031816700153,290.0508288340061,290.0508288340061,295.1735871250057,290.5005672500047,291.510904792005,292.1325682500028,293.14970562500093,290.0508288340061,290.0508288340061,290.0392028340037,290.0508288340061,290.0508288340061,290.0508288340061,290.0392028340037,290.0508288340061,290.0508288340061,295.1735871250057,290.0508288340061,295.1735871250057,295.26426883400563,,290.0508288340061,2,1,0.8490599159995327,reldom2_s018,001,2025-02-21_12h07.06.962,Vis-A-Scan_AC,2022.2.5,None,
24,Second_Order,4.0,viswhere,stimulus/viswhere_stim/90-deg_dot-left_cyan.png,stimulus/viswhere_stim/60-deg_dot-left_slateblue.png,stimulus/viswhere_stim/120-deg_dot-right_goldenrod.png,stimulus/viswhere_stim/90-deg_dot-right_seagreen.png,stimulus/viswhat_stim/match_blank.png,stimulus/viswhat_stim/match_box.png,stimulus/viswhat_stim/match_yes.png,stimulus/viswhat_stim/match_no.png,1.0,Match,Dot,Dot,1,5.125,0,5.125,0,5.125,0,5.125,0,0.625,0.625,1,0.5,1,2.125,1,0.5,1,2.125,0,0,0,0,0,0,0,0,0,,,,,0,31,31,31,,,,,,,,,296.0273665000059,301.15008620900335,296.5045601670063,297.5035659589994,298.138117167,299.1278839170045,296.0273665000059,296.0273665000059,296.04031816700154,296.0273665000059,296.0273665000059,296.0273665000059,296.04031816700154,296.0273665000059,301.15008620900335,301.8198835000003,303.8968032500052,307.93317691700213,301.8198835000003,301.8198835000003,306.9439407919999,302.28419883400056,303.3005023750011,303.8968032500052,304.90191966700513,301.8198835000003,301.8198835000003,301.79658458333915,301.8198835000003,301.8198835000003,301.8198835000003,301.79658458333915,301.8198835000003,301.8198835000003,306.9439407919999,301.8198835000003,306.9439407919999,307.0126124590024,307.63966395900206,301.8198835000003,1,1,0.6293583750011749,reldom2_s018,001,2025-02-21_12h07.06.962,Vis-A-Scan_AC,2022.2.5,None,
0,0.0,None,fixation,stimulus/viswhat_stim/blank_white.png,stimulus/viswhat_stim/blank_white.png,stimulus/viswhere_stim/blank_white.png,stimulus/viswhere_stim/blank_white.png,stimulus/viswhat_stim/blank_white.png,stimulus/viswhat_stim/blank_white.png,stimulus/viswhat_stim/blank_white.png,stimulus/viswhat_stim/blank_white.png,0.0,0.0,0.0,0.0,0,0.0,0,0.0,0,0.0,0,0.0,0,0.0,0.0,0,0.0,0,0.0,0,0.0,0,0.0,0,0,0,0,0,0,0,0,10,,,,,0,32,32,32,,,,,,,,,307.93317691700213,307.93317691700213,307.93317691700213,307.93317691700213,307.93317691700213,307.93317691700213,307.93317691700213,307.93317691700213,307.83349333333655,307.93317691700213,307.93317691700213,307.93317691700213,307.83349333333655,307.93317691700213,307.93317691700213,307.93317691700213,307.93317691700213,307.93317691700213,307.93317691700213,307.93317691700213,307.93317691700213,307.93317691700213,307.93317691700213,307.93317691700213,307.93317691700213,307.93317691700213,307.93317691700213,307.88349333333656,307.93317691700213,307.93317691700213,307.93317691700213,307.88349333333656,307.93317691700213,307.93317691700213,307.93317691700213,307.93317691700213,307.93317691700213,313.1426074590054,313.1426074590054,318.13372445900313,None,0,,reldom2_s018,001,2025-02-21_12h07.06.962,Vis-A-Scan_AC,2022.2.5,None,
25,First_Order,5.0,viswhat,stimulus/viswhat_stim/blank_white.png,stimulus/viswhat_stim/blank_white.png,stimulus/viswhat_stim/land_vehicle-shortbus.png,stimulus/viswhat_stim/land_animal-pig.png,stimulus/viswhat_stim/blank_white.png,stimulus/viswhat_stim/location_box.png,stimulus/viswhat_stim/location_yes.png,stimulus/viswhat_stim/location_no.png,None,Location,None,Location,1,0.0,0,5.125,0,5.125,0,5.125,0,0.0,0.625,0,0.0,0,0.0,1,0.5,1,2.125,0,0,0,0,0,0,0,0,0,,,,,0,33,33,33,,,,,,,,,318.13372445900313,318.13372445900313,318.13372445900313,318.13372445900313,318.13372445900313,318.13372445900313,318.13372445900313,318.13372445900313,318.09406033366633,318.13372445900313,318.13372445900313,318.13372445900313,318.09406033366633,318.13372445900313,318.13372445900313,318.13372445900313,320.23772158400243,324.25830845900055,318.13372445900313,318.13372445900313,323.2769848750031,318.6004423340055,319.6243557090056,320.23772158400243,321.2620999589999,318.13372445900313,318.13372445900313,318.11072700033304,318.13372445900313,318.13372445900313,318.13372445900313,318.11072700033304,318.13372445900313,318.13372445900313,323.2769848750031,318.13372445900313,323.2769848750031,323.3474663340021,323.98301679200085,318.13372445900313,1,1,1.6288704170001438,reldom2_s018,001,2025-02-21_12h07.06.962,Vis-A-Scan_AC,2022.2.5,None,
26,First_Order,5.0,viswhat,stimulus/viswhat_stim/blank_white.png,stimulus/viswhat_stim/blank_white.png,stimulus/viswhat_stim/land_vehicle-rv.png,stimulus/viswhat_stim/land_animal-bunny.png,stimulus/viswhat_stim/blank_white.png,stimulus/viswhat_stim/type_box.png,stimulus/viswhat_stim/type_yes.png,stimulus/viswhat_stim/type_no.png,None,Type,None,Location,2,0.0,0,5.125,0,5.125,0,5.125,0,0.0,0.625,0,0.0,0,0.0,1,0.5,1,2.125,0,0,0,0,0,0,0,0,0,,,,,0,34,34,34,,,,,,,,,324.25830845900055,324.25830845900055,324.25830845900055,324.25830845900055,324.25830845900055,324.25830845900055,324.25830845900055,324.25830845900055,324.17614300000565,324.25830845900055,324.25830845900055,324.25830845900055,324.17614300000565,324.25830845900055,324.25830845900055,324.25830845900055,326.3550807499996,330.379735292001,324.25830845900055,324.25830845900055,329.41045158400084,324.7346692920037,325.7842965000018,326.3550807499996,327.40992145900236,324.25830845900055,324.25830845900055,324.22614300000566,324.25830845900055,324.25830845900055,324.25830845900055,324.22614300000566,324.25830845900055,324.25830845900055,329.41045158400084,324.25830845900055,329.41045158400084,329.45279329200275,330.1257774170008,324.25830845900055,2,1,0.685990749996563,reldom2_s018,001,2025-02-21_12h07.06.962,Vis-A-Scan_AC,2022.2.5,None,
27,First_Order,5.0,viswhat,stimulus/viswhat_stim/blank_white.png,stimulus/viswhat_stim/blank_white.png,stimulus/viswhat_stim/land_animal-zebra.png,stimulus/viswhat_stim/land_vehicle-oldcar.png,stimulus/viswhat_stim/blank_white.png,stimulus/viswhat_stim/location_box.png,stimulus/viswhat_stim/location_yes.png,stimulus/viswhat_stim/location_no.png,None,Location,None,Location,1,0.0,0,5.125,0,5.125,0,5.125,0,0.0,0.625,0,0.0,0,0.0,1,0.5,1,2.125,0,0,0,0,0,0,0,0,0,,,,,0,35,35,35,,,,,,,,,330.379735292001,330.379735292001,330.379735292001,330.379735292001,330.379735292001,330.379735292001,330.379735292001,330.379735292001,330.3011258333373,330.379735292001,330.379735292001,330.379735292001,330.3011258333373,330.379735292001,330.379735292001,330.379735292001,332.4944006250007,,330.379735292001,330.379735292001,335.5392750000028,330.8647660420029,331.9241727920016,332.4944006250007,333.5605548750027,330.379735292001,330.379735292001,330.35112583333733,330.379735292001,330.379735292001,330.379735292001,330.35112583333733,330.379735292001,330.379735292001,335.5392750000028,330.379735292001,335.5392750000028,335.57822729200416,336.23059062500397,330.379735292001,1,1,0.7383159999953932,reldom2_s018,001,2025-02-21_12h07.06.962,Vis-A-Scan_AC,2022.2.5,None,
28,First_Order,5.0,viswhat,stimulus/viswhat_stim/blank_white.png,stimulus/viswhat_stim/blank_white.png,stimulus/viswhat_stim/water_vehicle-canoe.png,stimulus/viswhat_stim/land_vehicle-trolley.png,stimulus/viswhat_stim/blank_white.png,stimulus/viswhat_stim/type_box.png,stimulus/viswhat_stim/type_yes.png,stimulus/viswhat_stim/type_no.png,None,Type,None,Type,1,0.0,0,5.125,0,5.125,0,5.125,0,0.0,0.625,0,0.0,0,0.0,1,0.5,1,2.125,0,0,0,0,0,0,0,0,0,,,,,0,36,36,36,,,,,,,,,336.4370438340047,336.4370438340047,336.4370438340047,336.4370438340047,336.4370438340047,336.4370438340047,336.4370438340047,336.4370438340047,336.4019246673362,336.4370438340047,336.4370438340047,336.4370438340047,336.4019246673362,336.4370438340047,336.4370438340047,336.4370438340047,338.549032834002,,336.4370438340047,336.4370438340047,341.56987408400164,336.9254628340059,337.9575821250037,338.549032834002,339.56133495900576,336.4370438340047,336.4370438340047,336.4185913340028,336.4370438340047,336.4370438340047,336.4370438340047,336.4185913340028,336.4370438340047,336.4370438340047,341.56987408400164,336.4370438340047,341.56987408400164,341.6504542920011,342.29506554200634,336.4370438340047,1,1,0.7787087909964612,reldom2_s018,001,2025-02-21_12h07.06.962,Vis-A-Scan_AC,2022.2.5,None,
0,0.0,None,fixation,stimulus/viswhat_stim/blank_white.png,stimulus/viswhat_stim/blank_white.png,stimulus/viswhere_stim/blank_white.png,stimulus/viswhere_stim/blank_white.png,stimulus/viswhat_stim/blank_white.png,stimulus/viswhat_stim/blank_white.png,stimulus/viswhat_stim/blank_white.png,stimulus/viswhat_stim/blank_white.png,0.0,0.0,0.0,0.0,0,0.0,0,0.0,0,0.0,0,0.0,0,0.0,0.0,0,0.0,0,0.0,0,0.0,0,0.0,0,0,0,0,0,0,0,0,9,,,,,0,37,37,37,,,,,,,,,342.5688190000001,342.5688190000001,342.5688190000001,342.5688190000001,342.5688190000001,342.5688190000001,342.5688190000001,342.5688190000001,342.4753510420065,342.5688190000001,342.5688190000001,342.5688190000001,342.4753510420065,342.5688190000001,342.5688190000001,342.5688190000001,342.5688190000001,342.5688190000001,342.5688190000001,342.5688190000001,342.5688190000001,342.5688190000001,342.5688190000001,342.5688190000001,342.5688190000001,342.5688190000001,342.5688190000001,342.5253510420065,342.5688190000001,342.5688190000001,342.5688190000001,342.5253510420065,342.5688190000001,342.5688190000001,342.5688190000001,342.5688190000001,342.5688190000001,347.76333354200324,347.76333354200324,351.6896865420058,None,0,,reldom2_s018,001,2025-02-21_12h07.06.962,Vis-A-Scan_AC,2022.2.5,None,
29,Second_Order,5.0,viswhat,stimulus/viswhat_stim/land_vehicle-schoolbus.png,stimulus/viswhat_stim/land_animal-snake.png,stimulus/viswhat_stim/water_vehicle-cruiser.png,stimulus/viswhat_stim/water_animal-whale.png,stimulus/viswhat_stim/match_blank.png,stimulus/viswhat_stim/match_box.png,stimulus/viswhat_stim/match_yes.png,stimulus/viswhat_stim/match_no.png,1.0,Match,Location,Location,1,5.125,0,5.125,0,5.125,0,5.125,0,0.75,0.75,1,0.5,1,2.125,1,0.5,1,2.125,0,0,0,0,0,0,0,0,0,,,,,0,38,38,38,,,,,,,,,351.6896865420058,356.81207112500124,352.1668385840021,353.1654760840029,353.7877326250018,354.78576070900453,351.6896865420058,351.6896865420058,351.69760158333713,351.6896865420058,351.6896865420058,351.6896865420058,351.69760158333713,351.6896865420058,356.81207112500124,357.7086444170054,359.77737208400504,,357.7086444170054,357.7086444170054,362.9482757500009,358.121828000003,359.225598584002,359.77737208400504,360.8849637500025,357.7086444170054,357.7086444170054,357.64549412500634,357.7086444170054,357.7086444170054,357.7086444170054,357.64549412500634,357.7086444170054,357.7086444170054,362.9482757500009,357.7086444170054,362.9482757500009,362.8852216250016,,357.7086444170054,1,1,0.650467874998867,reldom2_s018,001,2025-02-21_12h07.06.962,Vis-A-Scan_AC,2022.2.5,None,
30,Second_Order,5.0,viswhat,stimulus/viswhat_stim/land_vehicle-tank.png,stimulus/viswhat_stim/water_vehicle-cabincruiser.png,stimulus/viswhat_stim/land_animal-pig.png,stimulus/viswhat_stim/water_animal-stingray.png,stimulus/viswhat_stim/match_blank.png,stimulus/viswhat_stim/match_box.png,stimulus/viswhat_stim/match_yes.png,stimulus/viswhat_stim/match_no.png,1.0,Match,Type,Type,1,5.125,0,5.125,0,5.125,0,5.125,0,0.625,0.625,1,0.5,1,2.125,1,0.5,1,2.125,0,0,0,0,0,0,0,0,0,,,,,0,39,39,39,,,,,,,,,363.6716703340062,368.7890768750003,364.1405394590038,365.1299030000009,365.7662170420008,366.763425834004,363.6716703340062,363.6716703340062,363.66988062500457,363.6716703340062,363.6716703340062,363.6716703340062,363.66988062500457,363.6716703340062,368.7890768750003,369.4716698750053,371.5527324170034,375.59151766700234,369.4716698750053,369.4716698750053,374.60303379200195,369.91134895900177,370.9189029170011,371.5527324170034,372.5624661670008,369.4716698750053,369.4716698750053,369.4533362920018,369.4716698750053,369.4716698750053,369.4716698750053,369.4533362920018,369.4716698750053,369.4716698750053,374.60303379200195,369.4716698750053,374.60303379200195,374.66814566700486,375.30145304200414,369.4716698750053,1,1,1.1065078749961685,reldom2_s018,001,2025-02-21_12h07.06.962,Vis-A-Scan_AC,2022.2.5,None,
0,0.0,None,fixation,stimulus/viswhat_stim/blank_white.png,stimulus/viswhat_stim/blank_white.png,stimulus/viswhere_stim/blank_white.png,stimulus/viswhere_stim/blank_white.png,stimulus/viswhat_stim/blank_white.png,stimulus/viswhat_stim/blank_white.png,stimulus/viswhat_stim/blank_white.png,stimulus/viswhat_stim/blank_white.png,0.0,0.0,0.0,0.0,0,0.0,0,0.0,0,0.0,0,0.0,0,0.0,0.0,0,0.0,0,0.0,0,0.0,0,0.0,0,0,0,0,0,0,0,0,10,,,,,0,40,40,40,,,,,,,,,375.59151766700234,375.59151766700234,375.59151766700234,375.59151766700234,375.59151766700234,375.59151766700234,375.59151766700234,375.59151766700234,375.48494391733885,375.59151766700234,375.59151766700234,375.59151766700234,375.48494391733885,375.59151766700234,375.59151766700234,375.59151766700234,375.59151766700234,375.59151766700234,375.59151766700234,375.59151766700234,375.59151766700234,375.59151766700234,375.59151766700234,375.59151766700234,375.59151766700234,375.59151766700234,375.59151766700234,375.5516105840055,375.59151766700234,375.59151766700234,375.59151766700234,375.5516105840055,375.59151766700234,375.59151766700234,375.59151766700234,375.59151766700234,375.59151766700234,380.8006504590012,380.8006504590012,385.78673916700063,None,0,,reldom2_s018,001,2025-02-21_12h07.06.962,Vis-A-Scan_AC,2022.2.5,None,
31,First_Order,6.0,viswhat,stimulus/viswhat_stim/blank_white.png,stimulus/viswhat_stim/blank_white.png,stimulus/viswhat_stim/land_vehicle-rv.png,stimulus/viswhat_stim/land_animal-ostrich.png,stimulus/viswhat_stim/blank_white.png,stimulus/viswhat_stim/type_box.png,stimulus/viswhat_stim/type_yes.png,stimulus/viswhat_stim/type_no.png,None,Type,None,Location,2,0.0,0,5.125,0,5.125,0,5.125,0,0.0,0.625,0,0.0,0,0.0,1,0.5,1,2.125,0,0,0,0,0,0,0,0,0,,,,,0,41,41,41,,,,,,,,,385.78673916700063,385.78673916700063,385.78673916700063,385.78673916700063,385.78673916700063,385.78673916700063,385.78673916700063,385.78673916700063,385.7583070006682,385.78673916700063,385.78673916700063,385.78673916700063,385.7583070006682,385.78673916700063,385.78673916700063,385.78673916700063,387.90076787500584,391.9363081670017,385.78673916700063,385.78673916700063,390.91417933400226,386.26636183400115,387.2753532920033,387.90076787500584,388.91554041700147,385.78673916700063,385.78673916700063,385.7749736673349,385.78673916700063,385.78673916700063,385.78673916700063,385.7749736673349,385.78673916700063,385.78673916700063,390.91417933400226,385.78673916700063,390.91417933400226,391.0062428340025,391.6325555420044,385.78673916700063,2,1,1.4904744579980616,reldom2_s018,001,2025-02-21_12h07.06.962,Vis-A-Scan_AC,2022.2.5,None,
32,First_Order,6.0,viswhat,stimulus/viswhat_stim/blank_white.png,stimulus/viswhat_stim/blank_white.png,stimulus/viswhat_stim/land_animal-moose.png,stimulus/viswhat_stim/water_animal-dolphin.png,stimulus/viswhat_stim/blank_white.png,stimulus/viswhat_stim/type_box.png,stimulus/viswhat_stim/type_yes.png,stimulus/viswhat_stim/type_no.png,None,Type,None,Type,1,0.0,0,5.125,0,5.125,0,5.125,0,0.0,0.625,0,0.0,0,0.0,1,0.5,1,2.125,0,0,0,0,0,0,0,0,0,,,,,0,42,42,42,,,,,,,,,391.9363081670017,391.9363081670017,391.9363081670017,391.9363081670017,391.9363081670017,391.9363081670017,391.9363081670017,391.9363081670017,391.8426156670044,391.9363081670017,391.9363081670017,391.9363081670017,391.8426156670044,391.9363081670017,391.9363081670017,391.9363081670017,394.0449139170014,,391.9363081670017,391.9363081670017,397.14835054200375,392.404780542005,393.4601855000001,394.0449139170014,395.1023400000049,391.9363081670017,391.9363081670017,391.8926156670044,391.9363081670017,391.9363081670017,391.9363081670017,391.8926156670044,391.9363081670017,391.9363081670017,397.14835054200375,391.9363081670017,397.14835054200375,397.14835054200375,398.0017693340051,391.9363081670017,1,1,0.6170907080013421,reldom2_s018,001,2025-02-21_12h07.06.962,Vis-A-Scan_AC,2022.2.5,None,
33,First_Order,6.0,viswhat,stimulus/viswhat_stim/blank_white.png,stimulus/viswhat_stim/blank_white.png,stimulus/viswhat_stim/land_vehicle-buldozer.png,stimulus/viswhat_stim/water_vehicle-canoe.png,stimulus/viswhat_stim/blank_white.png,stimulus/viswhat_stim/location_box.png,stimulus/viswhat_stim/location_yes.png,stimulus/viswhat_stim/location_no.png,None,Location,None,Type,2,0.0,0,5.125,0,5.125,0,5.125,0,0.0,0.625,0,0.0,0,0.0,1,0.5,1,2.125,0,0,0,0,0,0,0,0,0,,,,,0,43,43,43,,,,,,,,,398.0017693340051,398.0017693340051,398.0017693340051,398.0017693340051,398.0017693340051,398.0017693340051,398.0017693340051,398.0017693340051,397.95074125066697,398.0017693340051,398.0017693340051,398.0017693340051,397.95074125066697,398.0017693340051,398.0017693340051,398.0017693340051,400.10668279200036,,398.0017693340051,398.0017693340051,403.15469645900157,398.47148525000375,399.5257370420004,400.10668279200036,401.12731495900516,398.0017693340051,398.0017693340051,397.9674079173337,398.0017693340051,398.0017693340051,398.0017693340051,397.9674079173337,398.0017693340051,398.0017693340051,403.15469645900157,398.0017693340051,403.15469645900157,403.21605416700186,403.85869304200605,398.0017693340051,2,1,0.6292026250011986,reldom2_s018,001,2025-02-21_12h07.06.962,Vis-A-Scan_AC,2022.2.5,None,
34,First_Order,6.0,viswhat,stimulus/viswhat_stim/blank_white.png,stimulus/viswhat_stim/blank_white.png,stimulus/viswhat_stim/land_vehicle-scooter.png,stimulus/viswhat_stim/water_vehicle-motorboatraft.png,stimulus/viswhat_stim/blank_white.png,stimulus/viswhat_stim/location_box.png,stimulus/viswhat_stim/location_yes.png,stimulus/viswhat_stim/location_no.png,None,Location,None,Type,2,0.0,0,5.125,0,5.125,0,5.125,0,0.0,0.625,0,0.0,0,0.0,1,0.5,1,2.125,0,0,0,0,0,0,0,0,0,,,,,0,44,44,44,,,,,,,,,404.06356754200533,404.06356754200533,404.06356754200533,404.06356754200533,404.06356754200533,404.06356754200533,404.06356754200533,404.06356754200533,404.0360130006719,404.06356754200533,404.06356754200533,404.06356754200533,404.0360130006719,404.06356754200533,404.06356754200533,404.06356754200533,406.1651230839998,410.1963562920064,404.06356754200533,404.06356754200533,409.2059738750031,404.54195083400555,405.5621076250027,406.1651230839998,407.18764204200124,404.06356754200533,404.06356754200533,404.05267966733857,404.06356754200533,404.06356754200533,404.06356754200533,404.05267966733857,404.06356754200533,404.06356754200533,409.2059738750031,404.06356754200533,409.2059738750031,409.2812465840034,409.9148961669998,404.06356754200533,2,1,1.193832790995657,reldom2_s018,001,2025-02-21_12h07.06.962,Vis-A-Scan_AC,2022.2.5,None,
0,0.0,None,fixation,stimulus/viswhat_stim/blank_white.png,stimulus/viswhat_stim/blank_white.png,stimulus/viswhere_stim/blank_white.png,stimulus/viswhere_stim/blank_white.png,stimulus/viswhat_stim/blank_white.png,stimulus/viswhat_stim/blank_white.png,stimulus/viswhat_stim/blank_white.png,stimulus/viswhat_stim/blank_white.png,0.0,0.0,0.0,0.0,0,0.0,0,0.0,0,0.0,0,0.0,0,0.0,0.0,0,0.0,0,0.0,0,0.0,0,0.0,0,0,0,0,0,0,0,0,8,,,,,0,45,45,45,,,,,,,,,410.1963562920064,410.1963562920064,410.1963562920064,410.1963562920064,410.1963562920064,410.1963562920064,410.1963562920064,410.1963562920064,410.09573912533716,410.1963562920064,410.1963562920064,410.1963562920064,410.09573912533716,410.1963562920064,410.1963562920064,410.1963562920064,410.1963562920064,410.1963562920064,410.1963562920064,410.1963562920064,410.1963562920064,410.1963562920064,410.1963562920064,410.1963562920064,410.1963562920064,410.1963562920064,410.1963562920064,410.1457391253372,410.1963562920064,410.1963562920064,410.1963562920064,410.1457391253372,410.1963562920064,410.1963562920064,410.1963562920064,410.1963562920064,410.1963562920064,415.4000171250009,415.4000171250009,418.3421914999999,None,0,,reldom2_s018,001,2025-02-21_12h07.06.962,Vis-A-Scan_AC,2022.2.5,None,
35,Second_Order,6.0,viswhat,stimulus/viswhat_stim/land_vehicle-train.png,stimulus/viswhat_stim/land_animal-moose.png,stimulus/viswhat_stim/land_vehicle-schoolbus.png,stimulus/viswhat_stim/water_vehicle-sailboat.png,stimulus/viswhat_stim/match_blank.png,stimulus/viswhat_stim/match_box.png,stimulus/viswhat_stim/match_yes.png,stimulus/viswhat_stim/match_no.png,2.0,Match,Location,Type,2,5.125,0,5.125,0,5.125,0,5.125,0,0.75,0.75,1,0.5,1,2.125,1,0.5,1,2.125,0,0,0,0,0,0,0,0,0,,,,,0,46,46,46,,,,,,,,,418.3421914999999,423.46660375000647,418.78795179200097,419.7857737500017,420.40920216700033,421.406119709005,418.3421914999999,418.3421914999999,418.35475695866864,418.3421914999999,418.3421914999999,418.3421914999999,418.35475695866864,418.3421914999999,423.46660375000647,424.3282869590039,426.3905781249996,,424.3282869590039,424.3282869590039,429.4864937090024,424.7401045420047,425.82349466700543,426.3905781249996,427.4266230840003,424.3282869590039,424.3282869590039,424.28345720833505,424.3282869590039,424.3282869590039,424.3282869590039,424.28345720833505,424.3282869590039,424.3282869590039,429.4864937090024,424.3282869590039,429.4864937090024,429.4864937090024,,424.3282869590039,2,1,1.0645372079961817,reldom2_s018,001,2025-02-21_12h07.06.962,Vis-A-Scan_AC,2022.2.5,None,
36,Second_Order,6.0,viswhat,stimulus/viswhat_stim/land_animal-moose.png,stimulus/viswhat_stim/land_vehicle-schoolbus.png,stimulus/viswhat_stim/land_vehicle-pickuptruck.png,stimulus/viswhat_stim/water_vehicle-canoe(1).png,stimulus/viswhat_stim/match_blank.png,stimulus/viswhat_stim/match_box.png,stimulus/viswhat_stim/match_yes.png,stimulus/viswhat_stim/match_no.png,2.0,Match,Location,Type,2,5.125,0,5.125,0,5.125,0,5.125,0,0.625,0.625,1,0.5,1,2.125,1,0.5,1,2.125,0,0,0,0,0,0,0,0,0,,,,,0,47,47,47,,,,,,,,,430.3203440840007,435.44338291700114,430.76373679200333,431.7502684170031,432.3857717089995,433.3840867500039,430.3203440840007,430.3203440840007,430.3288589589996,430.3203440840007,430.3203440840007,430.3203440840007,430.3288589589996,430.3203440840007,435.44338291700114,436.1243395000056,438.2010187920023,442.24491979199956,436.1243395000056,436.1243395000056,441.25396150000597,436.5808921670032,437.5971477090061,438.2010187920023,439.2198035420006,436.1243395000056,436.1243395000056,436.10733695900564,436.1243395000056,436.1243395000056,436.1243395000056,436.10733695900564,436.1243395000056,436.1243395000056,441.25396150000597,436.1243395000056,441.25396150000597,441.32063404200017,441.9552357920038,436.1243395000056,2,1,1.577875082999526,reldom2_s018,001,2025-02-21_12h07.06.962,Vis-A-Scan_AC,2022.2.5,None,
0,0.0,None,fixation,stimulus/viswhat_stim/blank_white.png,stimulus/viswhat_stim/blank_white.png,stimulus/viswhere_stim/blank_white.png,stimulus/viswhere_stim/blank_white.png,stimulus/viswhat_stim/blank_white.png,stimulus/viswhat_stim/blank_white.png,stimulus/viswhat_stim/blank_white.png,stimulus/viswhat_stim/blank_white.png,0.0,0.0,0.0,0.0,0,0.0,0,0.0,0,0.0,0,0.0,0,0.0,0.0,0,0.0,0,0.0,0,0.0,0,0.0,0,0,0,0,0,0,0,0,8,,,,,0,48,48,48,,,,,,,,,442.24491979199956,442.24491979199956,442.24491979199956,442.24491979199956,442.24491979199956,442.24491979199956,442.24491979199956,442.24491979199956,442.1392557503398,442.24491979199956,442.24491979199956,442.24491979199956,442.1392557503398,442.24491979199956,442.24491979199956,442.24491979199956,442.24491979199956,442.24491979199956,442.24491979199956,442.24491979199956,442.24491979199956,442.24491979199956,442.24491979199956,442.24491979199956,442.24491979199956,442.24491979199956,442.24491979199956,442.2059224170065,442.24491979199956,442.24491979199956,442.24491979199956,442.2059224170065,442.24491979199956,442.24491979199956,442.24491979199956,442.24491979199956,442.24491979199956,447.466917042002,447.466917042002,450.4264629169993,None,0,,reldom2_s018,001,2025-02-21_12h07.06.962,Vis-A-Scan_AC,2022.2.5,None,
37,First_Order,7.0,viswhere,stimulus/viswhere_stim/blank_white.png,stimulus/viswhere_stim/blank_white.png,stimulus/viswhere_stim/120-deg_dot-right_turquoise.png,stimulus/viswhere_stim/120-deg_dot-left_slateblue.png,stimulus/viswhere_stim/blank_white.png,stimulus/viswhere_stim/line_box.png,stimulus/viswhere_stim/line_yes.png,stimulus/viswhere_stim/line_no.png,None,Line,None,Line,1,0.0,0,5.125,0,5.125,0,5.125,0,0.0,0.625,0,0.0,0,0.0,1,0.5,1,2.125,0,0,0,0,0,0,0,0,0,,,,,0,49,49,49,,,,,,,,,450.4264629169993,450.4264629169993,450.4264629169993,450.4264629169993,450.4264629169993,450.4264629169993,450.4264629169993,450.4264629169993,450.406346083672,450.4264629169993,450.4264629169993,450.4264629169993,450.406346083672,450.4264629169993,450.4264629169993,450.4264629169993,452.53008583400515,456.4910316250025,450.4264629169993,450.4264629169993,455.56091729200125,450.9054164170011,451.91994820900436,452.53008583400515,453.5522322500037,450.4264629169993,450.4264629169993,450.4230127503387,450.4264629169993,450.4264629169993,450.4264629169993,450.4230127503387,450.4264629169993,450.4264629169993,455.56091729200125,450.4264629169993,455.56091729200125,455.648611042001,456.2733186250043,450.4264629169993,1,1,0.7769671659989399,reldom2_s018,001,2025-02-21_12h07.06.962,Vis-A-Scan_AC,2022.2.5,None,
38,First_Order,7.0,viswhere,stimulus/viswhere_stim/blank_white.png,stimulus/viswhere_stim/blank_white.png,stimulus/viswhere_stim/30-deg_dot-right_royalblue.png,stimulus/viswhere_stim/30-deg_dot-left_royalblue.png,stimulus/viswhere_stim/blank_white.png,stimulus/viswhere_stim/dot_box.png,stimulus/viswhere_stim/dot_yes.png,stimulus/viswhere_stim/dot_no.png,None,Dot,None,Line,2,0.0,0,5.125,0,5.125,0,5.125,0,0.0,0.625,0,0.0,0,0.0,1,0.5,1,2.125,0,0,0,0,0,0,0,0,0,,,,,0,50,50,50,,,,,,,,,456.4910316250025,456.4910316250025,456.4910316250025,456.4910316250025,456.4910316250025,456.4910316250025,456.4910316250025,456.4910316250025,456.4701210423348,456.4910316250025,456.4910316250025,456.4910316250025,456.4701210423348,456.4910316250025,456.4910316250025,456.4910316250025,458.5965883340032,462.55460329200287,456.4910316250025,456.4910316250025,461.6270552920032,456.9697809999998,457.9850713340056,458.5965883340032,459.60026458400534,456.4910316250025,456.4910316250025,456.4867877090015,456.4910316250025,456.4910316250025,456.4910316250025,456.4867877090015,456.4910316250025,456.4910316250025,461.6270552920032,456.4910316250025,461.6270552920032,461.70961974999955,462.33610870900156,456.4910316250025,2,1,0.8990827499947045,reldom2_s018,001,2025-02-21_12h07.06.962,Vis-A-Scan_AC,2022.2.5,None,
39,First_Order,7.0,viswhere,stimulus/viswhere_stim/blank_white.png,stimulus/viswhere_stim/blank_white.png,stimulus/viswhere_stim/150-deg_dot-left_peru.png,stimulus/viswhere_stim/30-deg_dot-left_goldenrod.png,stimulus/viswhere_stim/blank_white.png,stimulus/viswhere_stim/line_box.png,stimulus/viswhere_stim/line_yes.png,stimulus/viswhere_stim/line_no.png,None,Line,None,Dot,2,0.0,0,5.125,0,5.125,0,5.125,0,0.0,0.625,0,0.0,0,0.0,1,0.5,1,2.125,0,0,0,0,0,0,0,0,0,,,,,0,51,51,51,,,,,,,,,462.55460329200287,462.55460329200287,462.55460329200287,462.55460329200287,462.55460329200287,462.55460329200287,462.55460329200287,462.55460329200287,462.5337195833393,462.55460329200287,462.55460329200287,462.55460329200287,462.5337195833393,462.55460329200287,462.55460329200287,462.55460329200287,464.6584199170029,468.61809475000337,462.55460329200287,462.55460329200287,467.67909695900016,463.03695591699943,464.0419173340051,464.6584199170029,465.66814179200446,462.55460329200287,462.55460329200287,462.55038625000594,462.55460329200287,462.55460329200287,462.55460329200287,462.55038625000594,462.55460329200287,462.55460329200287,467.67909695900016,462.55460329200287,467.67909695900016,467.77640887500456,468.40251400000125,462.55460329200287,2,1,1.1429317079964676,reldom2_s018,001,2025-02-21_12h07.06.962,Vis-A-Scan_AC,2022.2.5,None,
40,First_Order,7.0,viswhere,stimulus/viswhere_stim/blank_white.png,stimulus/viswhere_stim/blank_white.png,stimulus/viswhere_stim/120-deg_dot-left_royalblue.png,stimulus/viswhere_stim/120-deg_dot-right_slateblue.png,stimulus/viswhere_stim/blank_white.png,stimulus/viswhere_stim/dot_box.png,stimulus/viswhere_stim/dot_yes.png,stimulus/viswhere_stim/dot_no.png,None,Dot,None,Line,2,0.0,0,5.125,0,5.125,0,5.125,0,0.0,0.625,0,0.0,0,0.0,1,0.5,1,2.125,0,0,0,0,0,0,0,0,0,,,,,0,52,52,52,,,,,,,,,468.61809475000337,468.61809475000337,468.61809475000337,468.61809475000337,468.61809475000337,468.61809475000337,468.61809475000337,468.61809475000337,468.5976379173347,468.61809475000337,468.61809475000337,468.61809475000337,468.5976379173347,468.61809475000337,468.61809475000337,468.61809475000337,470.7199016250015,474.75950129200646,468.61809475000337,468.61809475000337,473.75014612499945,469.09547445900535,470.10956116700254,470.7199016250015,471.723089334002,468.61809475000337,468.61809475000337,468.61430458400133,468.61809475000337,468.61809475000337,468.61809475000337,468.61430458400133,468.61809475000337,468.61809475000337,473.75014612499945,468.61809475000337,473.75014612499945,473.8374062090006,474.4653162090035,468.61809475000337,2,1,0.7687632079978357,reldom2_s018,001,2025-02-21_12h07.06.962,Vis-A-Scan_AC,2022.2.5,None,
0,0.0,None,fixation,stimulus/viswhat_stim/blank_white.png,stimulus/viswhat_stim/blank_white.png,stimulus/viswhere_stim/blank_white.png,stimulus/viswhere_stim/blank_white.png,stimulus/viswhat_stim/blank_white.png,stimulus/viswhat_stim/blank_white.png,stimulus/viswhat_stim/blank_white.png,stimulus/viswhat_stim/blank_white.png,0.0,0.0,0.0,0.0,0,0.0,0,0.0,0,0.0,0,0.0,0,0.0,0.0,0,0.0,0,0.0,0,0.0,0,0.0,0,0,0,0,0,0,0,0,9,,,,,0,53,53,53,,,,,,,,,474.75950129200646,474.75950129200646,474.75950129200646,474.75950129200646,474.75950129200646,474.75950129200646,474.75950129200646,474.75950129200646,474.66177029233705,474.75950129200646,474.75950129200646,474.75950129200646,474.66177029233705,474.75950129200646,474.75950129200646,474.75950129200646,474.75950129200646,474.75950129200646,474.75950129200646,474.75950129200646,474.75950129200646,474.75950129200646,474.75950129200646,474.75950129200646,474.75950129200646,474.75950129200646,474.75950129200646,474.71177029233706,474.75950129200646,474.75950129200646,474.75950129200646,474.71177029233706,474.75950129200646,474.75950129200646,474.75950129200646,474.75950129200646,474.75950129200646,479.95468070900097,479.95468070900097,483.8803558340005,None,0,,reldom2_s018,001,2025-02-21_12h07.06.962,Vis-A-Scan_AC,2022.2.5,None,
41,Second_Order,7.0,viswhere,stimulus/viswhere_stim/90-deg_dot-right_seagreen.png,stimulus/viswhere_stim/90-deg_dot-left_salmon.png,stimulus/viswhere_stim/60-deg_dot-left_slateblue.png,stimulus/viswhere_stim/60-deg_dot-right_lightsseagreen.png,stimulus/viswhat_stim/match_blank.png,stimulus/viswhat_stim/match_box.png,stimulus/viswhat_stim/match_yes.png,stimulus/viswhat_stim/match_no.png,1.0,Match,Line,Line,1,5.125,0,5.125,0,5.125,0,5.125,0,0.75,0.75,1,0.5,1,2.125,1,0.5,1,2.125,0,0,0,0,0,0,0,0,0,,,,,0,54,54,54,,,,,,,,,483.8803558340005,488.9999609170045,484.3556050840052,485.35413466700265,485.98877383400395,486.9779606670054,483.8803558340005,483.8803558340005,483.8940201253373,483.8803558340005,483.8803558340005,483.8803558340005,483.8940201253373,483.8803558340005,488.9999609170045,489.79421650000586,491.8732302920034,495.73194887499994,489.79421650000586,489.79421650000586,494.9186856670058,490.2393030000021,491.2581697090063,491.8732302920034,492.8779250420048,489.79421650000586,489.79421650000586,489.78415558400303,489.79421650000586,489.79421650000586,489.79421650000586,489.78415558400303,489.79421650000586,489.79421650000586,494.9186856670058,489.79421650000586,494.9186856670058,494.98940158400364,495.76758254200104,489.79421650000586,1,1,1.0954277909986558,reldom2_s018,001,2025-02-21_12h07.06.962,Vis-A-Scan_AC,2022.2.5,None,
42,Second_Order,7.0,viswhere,stimulus/viswhere_stim/150-deg_dot-left_cyan.png,stimulus/viswhere_stim/60-deg_dot-left_royalblue.png,stimulus/viswhere_stim/30-deg_dot-right_mediumslateblue.png,stimulus/viswhere_stim/90-deg_dot-right_peru.png,stimulus/viswhat_stim/match_blank.png,stimulus/viswhat_stim/match_box.png,stimulus/viswhat_stim/match_yes.png,stimulus/viswhat_stim/match_no.png,1.0,Match,Dot,Dot,1,5.125,0,5.125,0,5.125,0,5.125,0,0.625,0.625,1,0.5,1,2.125,1,0.5,1,2.125,0,0,0,0,0,0,0,0,0,,,,,0,55,55,55,,,,,,,,,495.76758254200104,500.8905690840038,496.26260529200226,497.25155183400057,497.87085120900156,498.8688945000031,495.76758254200104,495.76758254200104,495.78194887499996,495.76758254200104,495.76758254200104,495.76758254200104,495.78194887499996,495.76758254200104,500.8905690840038,501.5654427920017,503.64827679200243,507.67943537500105,501.5654427920017,501.5654427920017,506.6988028340056,502.0111790840019,503.03156795900577,503.64827679200243,504.6568481670038,501.5654427920017,501.5654427920017,501.54170804233627,501.5654427920017,501.5654427920017,501.5654427920017,501.54170804233627,501.5654427920017,501.5654427920017,506.6988028340056,501.5654427920017,506.6988028340056,506.786381542006,507.4116584170042,501.5654427920017,1,1,0.77013070799876,reldom2_s018,001,2025-02-21_12h07.06.962,Vis-A-Scan_AC,2022.2.5,None,
0,0.0,None,fixation,stimulus/viswhat_stim/blank_white.png,stimulus/viswhat_stim/blank_white.png,stimulus/viswhere_stim/blank_white.png,stimulus/viswhere_stim/blank_white.png,stimulus/viswhat_stim/blank_white.png,stimulus/viswhat_stim/blank_white.png,stimulus/viswhat_stim/blank_white.png,stimulus/viswhat_stim/blank_white.png,0.0,0.0,0.0,0.0,0,0.0,0,0.0,0,0.0,0,0.0,0,0.0,0.0,0,0.0,0,0.0,0,0.0,0,0.0,0,0,0,0,0,0,0,0,8,,,,,0,56,56,56,,,,,,,,,507.67943537500105,507.67943537500105,507.67943537500105,507.67943537500105,507.67943537500105,507.67943537500105,507.67943537500105,507.67943537500105,507.5781626673391,507.67943537500105,507.67943537500105,507.67943537500105,507.5781626673391,507.67943537500105,507.67943537500105,507.67943537500105,507.67943537500105,507.67943537500105,507.67943537500105,507.67943537500105,507.67943537500105,507.67943537500105,507.67943537500105,507.67943537500105,507.67943537500105,507.67943537500105,507.67943537500105,507.6281626673391,507.67943537500105,507.67943537500105,507.67943537500105,507.6281626673391,507.67943537500105,507.67943537500105,507.67943537500105,507.67943537500105,507.67943537500105,512.8584809590029,512.8584809590029,515.8729281670021,None,0,,reldom2_s018,001,2025-02-21_12h07.06.962,Vis-A-Scan_AC,2022.2.5,None,
43,First_Order,8.0,viswhere,stimulus/viswhere_stim/blank_white.png,stimulus/viswhere_stim/blank_white.png,stimulus/viswhere_stim/150-deg_dot-left_lightsseagreen.png,stimulus/viswhere_stim/30-deg_dot-left_salmon.png,stimulus/viswhere_stim/blank_white.png,stimulus/viswhere_stim/dot_box.png,stimulus/viswhere_stim/dot_yes.png,stimulus/viswhere_stim/dot_no.png,None,Dot,None,Dot,1,0.0,0,5.125,0,5.125,0,5.125,0,0.0,0.625,0,0.0,0,0.0,1,0.5,1,2.125,0,0,0,0,0,0,0,0,0,,,,,0,57,57,57,,,,,,,,,515.8729281670021,515.8729281670021,515.8729281670021,515.8729281670021,515.8729281670021,515.8729281670021,515.8729281670021,515.8729281670021,515.8524690006694,515.8729281670021,515.8729281670021,515.8729281670021,515.8524690006694,515.8729281670021,515.8729281670021,515.8729281670021,517.9708703750002,521.9332863750024,515.8729281670021,515.8729281670021,520.9986344170029,516.3547515000027,517.3736009170025,517.9708703750002,518.9753366250006,515.8729281670021,515.8729281670021,515.8691356673361,515.8729281670021,515.8729281670021,515.8729281670021,515.8691356673361,515.8729281670021,515.8729281670021,520.9986344170029,515.8729281670021,520.9986344170029,521.0968227090052,521.7312502090062,515.8729281670021,1,1,1.12682862499787,reldom2_s018,001,2025-02-21_12h07.06.962,Vis-A-Scan_AC,2022.2.5,None,
44,First_Order,8.0,viswhere,stimulus/viswhere_stim/blank_white.png,stimulus/viswhere_stim/blank_white.png,stimulus/viswhere_stim/150-deg_dot-right_seagreen.png,stimulus/viswhere_stim/150-deg_dot-left_goldenrod.png,stimulus/viswhere_stim/blank_white.png,stimulus/viswhere_stim/line_box.png,stimulus/viswhere_stim/line_yes.png,stimulus/viswhere_stim/line_no.png,None,Line,None,Line,1,0.0,0,5.125,0,5.125,0,5.125,0,0.0,0.625,0,0.0,0,0.0,1,0.5,1,2.125,0,0,0,0,0,0,0,0,0,,,,,0,58,58,58,,,,,,,,,521.9332863750024,521.9332863750024,521.9332863750024,521.9332863750024,521.9332863750024,521.9332863750024,521.9332863750024,521.9332863750024,521.911279625337,521.9332863750024,521.9332863750024,521.9332863750024,521.911279625337,521.9332863750024,521.9332863750024,521.9332863750024,524.0457757920012,528.0003263750041,521.9332863750024,521.9332863750024,527.0569035000008,522.4180935420009,523.4261940840006,524.0457757920012,525.0596707090008,521.9332863750024,521.9332863750024,521.9279462920036,521.9332863750024,521.9332863750024,521.9332863750024,521.9279462920036,521.9332863750024,521.9332863750024,527.0569035000008,521.9332863750024,527.0569035000008,527.1552832920061,527.7845382920059,521.9332863750024,1,1,0.6772482500018668,reldom2_s018,001,2025-02-21_12h07.06.962,Vis-A-Scan_AC,2022.2.5,None,
45,First_Order,8.0,viswhere,stimulus/viswhere_stim/blank_white.png,stimulus/viswhere_stim/blank_white.png,stimulus/viswhere_stim/150-deg_dot-left_seagreen.png,stimulus/viswhere_stim/60-deg_dot-left_turquoise.png,stimulus/viswhere_stim/blank_white.png,stimulus/viswhere_stim/dot_box.png,stimulus/viswhere_stim/dot_yes.png,stimulus/viswhere_stim/dot_no.png,None,Dot,None,Dot,1,0.0,0,5.125,0,5.125,0,5.125,0,0.0,0.625,0,0.0,0,0.0,1,0.5,1,2.125,0,0,0,0,0,0,0,0,0,,,,,0,59,59,59,,,,,,,,,528.0003263750041,528.0003263750041,528.0003263750041,528.0003263750041,528.0003263750041,528.0003263750041,528.0003263750041,528.0003263750041,527.9791500833356,528.0003263750041,528.0003263750041,528.0003263750041,527.9791500833356,528.0003263750041,528.0003263750041,528.0003263750041,530.1143291670014,534.063111334006,528.0003263750041,528.0003263750041,533.1397157500032,528.4810627500046,529.4992316250064,530.1143291670014,531.1194900000046,528.0003263750041,528.0003263750041,527.9958167500023,528.0003263750041,528.0003263750041,528.0003263750041,527.9958167500023,528.0003263750041,528.0003263750041,533.1397157500032,528.0003263750041,533.1397157500032,533.2213622500058,533.8486186250011,528.0003263750041,1,1,0.7489724999977625,reldom2_s018,001,2025-02-21_12h07.06.962,Vis-A-Scan_AC,2022.2.5,None,
46,First_Order,8.0,viswhere,stimulus/viswhere_stim/blank_white.png,stimulus/viswhere_stim/blank_white.png,stimulus/viswhere_stim/150-deg_dot-left_lightsseagreen.png,stimulus/viswhere_stim/60-deg_dot-left_royalblue.png,stimulus/viswhere_stim/blank_white.png,stimulus/viswhere_stim/line_box.png,stimulus/viswhere_stim/line_yes.png,stimulus/viswhere_stim/line_no.png,None,Line,None,Dot,2,0.0,0,5.125,0,5.125,0,5.125,0,0.0,0.625,0,0.0,0,0.0,1,0.5,1,2.125,0,0,0,0,0,0,0,0,0,,,,,0,60,60,60,,,,,,,,,534.063111334006,534.063111334006,534.063111334006,534.063111334006,534.063111334006,534.063111334006,534.063111334006,534.063111334006,534.0425824583339,534.063111334006,534.063111334006,534.063111334006,534.0425824583339,534.063111334006,534.063111334006,534.063111334006,536.1664208750008,540.1988161670015,534.063111334006,534.063111334006,539.1998374169998,534.5456002499996,535.5500587500064,536.1664208750008,537.1757912920002,534.063111334006,534.063111334006,534.0592491250005,534.063111334006,534.063111334006,534.063111334006,534.0592491250005,534.063111334006,534.063111334006,539.1998374169998,534.063111334006,539.1998374169998,539.2889554590001,539.9204117500049,534.063111334006,2,1,0.5976319999972475,reldom2_s018,001,2025-02-21_12h07.06.962,Vis-A-Scan_AC,2022.2.5,None,
0,0.0,None,fixation,stimulus/viswhat_stim/blank_white.png,stimulus/viswhat_stim/blank_white.png,stimulus/viswhere_stim/blank_white.png,stimulus/viswhere_stim/blank_white.png,stimulus/viswhat_stim/blank_white.png,stimulus/viswhat_stim/blank_white.png,stimulus/viswhat_stim/blank_white.png,stimulus/viswhat_stim/blank_white.png,0.0,0.0,0.0,0.0,0,0.0,0,0.0,0,0.0,0,0.0,0,0.0,0.0,0,0.0,0,0.0,0,0.0,0,0.0,0,0,0,0,0,0,0,0,9,,,,,0,61,61,61,,,,,,,,,540.1988161670015,540.1988161670015,540.1988161670015,540.1988161670015,540.1988161670015,540.1988161670015,540.1988161670015,540.1988161670015,540.1004866673369,540.1988161670015,540.1988161670015,540.1988161670015,540.1004866673369,540.1988161670015,540.1988161670015,540.1988161670015,540.1988161670015,540.1988161670015,540.1988161670015,540.1988161670015,540.1988161670015,540.1988161670015,540.1988161670015,540.1988161670015,540.1988161670015,540.1988161670015,540.1988161670015,540.1504866673368,540.1988161670015,540.1988161670015,540.1988161670015,540.1504866673368,540.1988161670015,540.1988161670015,540.1988161670015,540.1988161670015,540.1988161670015,545.4001235420001,545.4001235420001,549.323693917002,None,0,,reldom2_s018,001,2025-02-21_12h07.06.962,Vis-A-Scan_AC,2022.2.5,None,
47,Second_Order,8.0,viswhere,stimulus/viswhere_stim/120-deg_dot-left_goldenrod.png,stimulus/viswhere_stim/120-deg_dot-right_seagreen.png,stimulus/viswhere_stim/90-deg_dot-left_peru.png,stimulus/viswhere_stim/90-deg_dot-right_turquoise.png,stimulus/viswhat_stim/match_blank.png,stimulus/viswhat_stim/match_box.png,stimulus/viswhat_stim/match_yes.png,stimulus/viswhat_stim/match_no.png,1.0,Match,Line,Line,1,5.125,0,5.125,0,5.125,0,5.125,0,0.75,0.75,1,0.5,1,2.125,1,0.5,1,2.125,0,0,0,0,0,0,0,0,0,,,,,0,62,62,62,,,,,,,,,549.323693917002,554.4469887500018,549.8070733750064,550.805331042,551.4278350840032,552.4258346670031,549.323693917002,549.323693917002,549.3380226253377,549.323693917002,549.323693917002,549.323693917002,549.3380226253377,549.323693917002,554.4469887500018,555.2425591670035,557.3168550000046,561.212291792006,555.2425591670035,555.2425591670035,560.382097917005,555.6928320840016,556.6990332090063,557.3168550000046,558.3329363750017,555.2425591670035,555.2425591670035,555.215696708336,555.2425591670035,555.2425591670035,555.2425591670035,555.215696708336,555.2425591670035,555.2425591670035,560.382097917005,555.2425591670035,560.382097917005,560.4376044170058,561.212291792006,555.2425591670035,1,1,0.752004041998589,reldom2_s018,001,2025-02-21_12h07.06.962,Vis-A-Scan_AC,2022.2.5,None,
48,Second_Order,8.0,viswhere,stimulus/viswhere_stim/150-deg_dot-right_salmon.png,stimulus/viswhere_stim/90-deg_dot-right_cyan.png,stimulus/viswhere_stim/60-deg_dot-left_mediumslateblue.png,stimulus/viswhere_stim/30-deg_dot-left_turquoise.png,stimulus/viswhat_stim/match_blank.png,stimulus/viswhat_stim/match_box.png,stimulus/viswhat_stim/match_yes.png,stimulus/viswhat_stim/match_no.png,1.0,Match,Dot,Dot,1,5.125,0,5.125,0,5.125,0,5.125,0,0.625,0.625,1,0.5,1,2.125,1,0.5,1,2.125,0,0,0,0,0,0,0,0,0,,,,,0,63,63,63,,,,,,,,,561.212291792006,566.3294540420029,561.6969001250036,562.6861633750013,563.3215856669995,564.3200248339999,561.212291792006,561.212291792006,561.2252824170034,561.212291792006,561.212291792006,561.212291792006,561.2252824170034,561.212291792006,566.3294540420029,566.9976677920058,569.075243875006,573.1106785420052,566.9976677920058,566.9976677920058,572.1240082090007,567.4622735420053,568.4820107500054,569.075243875006,570.0827516670033,566.9976677920058,566.9976677920058,566.9755774173395,566.9976677920058,566.9976677920058,566.9976677920058,566.9755774173395,566.9976677920058,566.9976677920058,572.1240082090007,566.9976677920058,572.1240082090007,572.1979571250049,572.8293586250002,566.9976677920058,1,1,0.750148083003296,reldom2_s018,001,2025-02-21_12h07.06.962,Vis-A-Scan_AC,2022.2.5,None,
0,0.0,None,fixation,stimulus/viswhat_stim/blank_white.png,stimulus/viswhat_stim/blank_white.png,stimulus/viswhere_stim/blank_white.png,stimulus/viswhere_stim/blank_white.png,stimulus/viswhat_stim/blank_white.png,stimulus/viswhat_stim/blank_white.png,stimulus/viswhat_stim/blank_white.png,stimulus/viswhat_stim/blank_white.png,0.0,0.0,0.0,0.0,0,0.0,0,0.0,0,0.0,0,0.0,0,0.0,0.0,0,0.0,0,0.0,0,0.0,0,0.0,0,0,0,0,0,0,0,0,16,,,,,0,64,64,64,,,,,,,,,573.1106785420052,573.1106785420052,573.1106785420052,573.1106785420052,573.1106785420052,573.1106785420052,573.1106785420052,573.1106785420052,573.0101013333382,573.1106785420052,573.1106785420052,573.1106785420052,573.0101013333382,573.1106785420052,573.1106785420052,573.1106785420052,573.1106785420052,573.1106785420052,573.1106785420052,573.1106785420052,573.1106785420052,573.1106785420052,573.1106785420052,573.1106785420052,573.1106785420052,573.1106785420052,573.1106785420052,573.0601013333381,573.1106785420052,573.1106785420052,573.1106785420052,573.0601013333381,573.1106785420052,573.1106785420052,573.1106785420052,573.1106785420052,573.1106785420052,578.2926336670062,578.2926336670062,589.2340164170018,None,0,,reldom2_s018,001,2025-02-21_12h07.06.962,Vis-A-Scan_AC,2022.2.5,None,
