Trial,Order,Block,Type,Stimuli_File1,Stimuli_File2,Stimuli_File3,Stimuli_File4,Cue_File1,Cue_File2,Response_File_Yes,Response_File_No,Match,Cue_Dimension,Pair1_Dimension,Pair2_Dimension,Key,Cue1_Duration,Cue1_Onset,Cue2_Duration,Cue2_Onset,ResponseYes_Duration,ResponseYes_Onset,ResponseNo_Duration,ResponseNo_Onset,ITI_Within,ITI_Between,Image1_Duration,Image1_Onset,Image2_Duration,Image2_Onset,Image3_Duration,Image3_Onset,Image4_Duration,Image4_Onset,Sound1_Duration,Sound1_Onset,Sound2_Duration,Sound2_Onset,Sound3_Duration,Sound3_Onset,Sound4_Duration,Sound4_Onset,Fixation_Duration,trials_2.thisRepN,trials_2.thisTrialN,trials_2.thisN,trials_2.thisIndex,trials.thisRepN,trials.thisTrialN,trials.thisN,trials.thisIndex,text_start.started,key_resp_start.started,key_resp_start.keys,key_resp_start.rt,text2.started,key_resp_2.started,key_resp_2.keys,key_resp_2.rt,cue_file1.started,cue_file1.stopped,image_1.started,image_1.stopped,image_2.started,image_2.stopped,sound_icon1.started,sound_icon1.stopped,sound_1.started,sound_1.stopped,sound_icon2.started,sound_icon2.stopped,sound_2.started,sound_2.stopped,image_blank_1.started,image_blank_1.stopped,key_press.started,key_press.stopped,fixation_text.started,cue_file2.started,cue_file2.stopped,image_3.started,image_3.stopped,image_4.started,image_4.stopped,sound_icon3.started,sound_icon3.stopped,sound_3.started,sound_3.stopped,sound_icon4.started,sound_icon4.stopped,sound_4.started,sound_4.stopped,response_yes.started,response_yes.stopped,response_no.started,response_no.stopped,iti_blank.started,iti_blank.stopped,fixation_text.stopped,key_press.keys,key_press.corr,key_press.rt,participant,session,date,expName,psychopyVersion,frameRate,
,,,,,,,,,,,,,,,,,,,,,,,,,,,,,,,,,,,,,,,,,,,,,,,,,,,,8.077273374998185,8.077273374998185,2,4.024492959004419,,,,,,,,,,,,,,,,,,,,,,,,,,,,,,,,,,,,,,,,,,,,,,,,reldom2_s018,001,2025-02-21_12h18.17.762,What-A-Scan_AC,2022.2.5,None,
,,,,,,,,,,,,,,,,,,,,,,,,,,,,,,,,,,,,,,,,,,,,0,0,0,0,,,,,,,,,12.143482708001102,12.143482708001102,5,17.758216166999773,,,,,,,,,,,,,,,,,,,,,,,,,,,,,,,,,,,,,,,,,,,,reldom2_s018,001,2025-02-21_12h18.17.762,What-A-Scan_AC,2022.2.5,None,
,,,,,,,,,,,,,,,,,,,,,,,,,,,,,,,,,,,,,,,,,,,,1,0,1,0,,,,,,,,,29.90879854100058,29.90879854100058,5,1.9929080419969978,,,,,,,,,,,,,,,,,,,,,,,,,,,,,,,,,,,,,,,,,,,,reldom2_s018,001,2025-02-21_12h18.17.762,What-A-Scan_AC,2022.2.5,None,
,,,,,,,,,,,,,,,,,,,,,,,,,,,,,,,,,,,,,,,,,,,,2,0,2,0,,,,,,,,,31.923338291002437,31.923338291002437,5,1.9772553750008228,,,,,,,,,,,,,,,,,,,,,,,,,,,,,,,,,,,,,,,,,,,,reldom2_s018,001,2025-02-21_12h18.17.762,What-A-Scan_AC,2022.2.5,None,
,,,,,,,,,,,,,,,,,,,,,,,,,,,,,,,,,,,,,,,,,,,,3,0,3,0,,,,,,,,,33.916460957996605,33.916460957996605,5,1.985993749993213,,,,,,,,,,,,,,,,,,,,,,,,,,,,,,,,,,,,,,,,,,,,reldom2_s018,001,2025-02-21_12h18.17.762,What-A-Scan_AC,2022.2.5,None,
0,0.0,None,fixation,stimulus/audwhat_stim/blank_white.png,stimulus/audwhat_stim/blank_white.png,stimulus/viswhat_stim/blank_white.png,stimulus/viswhat_stim/blank_white.png,stimulus/audwhat_stim/blank_white.png,stimulus/audwhat_stim/blank_white.png,stimulus/audwhat_stim/blank_white.png,stimulus/audwhat_stim/blank_white.png,0.0,0.0,0.0,0.0,0,0.0,0,0.0,0,0.0,0,0.0,0,0.0,0.0,0,0.0,0,0.0,0,0.0,0,0.0,0,0.0,0,0.0,0,0.0,0,0.0,16,,,,,0,0,0,0,,,,,,,,,36.11776637499861,36.11776637499861,36.11776637499861,36.11776637499861,36.11776637499861,36.11776637499861,36.11776637499861,36.11776637499861,36.02120487466697,36.11776637499861,36.11776637499861,36.11776637499861,36.02120487466697,36.11776637499861,36.11776637499861,36.11776637499861,36.11776637499861,36.11776637499861,36.11776637499861,36.11776637499861,36.11776637499861,36.11776637499861,36.11776637499861,36.11776637499861,36.11776637499861,36.11776637499861,36.11776637499861,36.07120487466697,36.11776637499861,36.11776637499861,36.11776637499861,36.07120487466697,36.11776637499861,36.11776637499861,36.11776637499861,36.11776637499861,36.11776637499861,41.326581583001825,41.326581583001825,52.337193874998775,None,0,,reldom2_s018,001,2025-02-21_12h18.17.762,What-A-Scan_AC,2022.2.5,None,
1,First_Order,1.0,audwhat,stimulus/audwhat_stim/dummy.wav,stimulus/audwhat_stim/dummy.wav,stimulus/audwhat_stim/percussion mallet_low-pitch_Dtri_loud.wav,stimulus/audwhat_stim/percussion xylophone_high-pitch_F_loud.wav,stimulus/audwhat_stim/blank_white.png,stimulus/audwhat_stim/pitch_box.png,stimulus/audwhat_stim/pitch_yes.png,stimulus/audwhat_stim/pitch_no.png,None,Pitch,None,Category,2,0.0,0,5.125,0,5.125,0,5.125,0,0.0,0.625,0,0.0,0,0.0,0,0.0,0,0.0,0,0.0,0,0.0,1,0.5,1,2.125,0,,,,,0,1,1,1,,,,,,,,,52.337193874998775,52.337193874998775,52.337193874998775,52.337193874998775,52.337193874998775,52.337193874998775,52.337193874998775,52.337193874998775,52.262991125002735,52.337193874998775,52.337193874998775,52.337193874998775,52.262991125002735,52.337193874998775,52.337193874998775,52.337193874998775,54.4352359159966,,52.337193874998775,52.337193874998775,57.50148645800073,52.337193874998775,52.337193874998775,52.337193874998775,52.337193874998775,52.79163558300206,53.8410795000018,52.76234816666353,,54.4352359159966,55.48847091600328,54.405899957670286,55.44258529099898,52.337193874998775,57.50148645800073,52.337193874998775,57.50148645800073,57.54228837499977,58.22584333299892,52.337193874998775,2,1,1.3234885839992785,reldom2_s018,001,2025-02-21_12h18.17.762,What-A-Scan_AC,2022.2.5,None,
2,First_Order,1.0,audwhat,stimulus/audwhat_stim/dummy.wav,stimulus/audwhat_stim/dummy.wav,stimulus/audwhat_stim/percussion xylophone_high-pitch_Dtri_loud.wav,stimulus/audwhat_stim/percussion mallet_low-pitch_D_loud.wav,stimulus/audwhat_stim/blank_white.png,stimulus/audwhat_stim/pitch_box.png,stimulus/audwhat_stim/pitch_yes.png,stimulus/audwhat_stim/pitch_no.png,None,Pitch,None,Category,2,0.0,0,5.125,0,5.125,0,5.125,0,0.0,0.625,0,0.0,0,0.0,0,0.0,0,0.0,0,0.0,0,0.0,1,0.5,1,2.125,0,,,,,0,2,2,2,,,,,,,,,58.438035416002094,58.438035416002094,58.438035416002094,58.438035416002094,58.438035416002094,58.438035416002094,58.438035416002094,58.438035416002094,58.35917666633225,58.438035416002094,58.438035416002094,58.438035416002094,58.35917666633225,58.438035416002094,58.438035416002094,58.438035416002094,60.54930208300357,,58.438035416002094,58.438035416002094,63.59531937500287,58.438035416002094,58.438035416002094,58.438035416002094,58.438035416002094,58.89831574999698,59.95468258299661,58.868869374670126,59.90820283300127,60.54930208300357,61.620018082998286,60.51988287466908,,58.438035416002094,63.59531937500287,58.438035416002094,63.59531937500287,63.63638499999797,64.2877894159974,58.438035416002094,2,1,0.6652565420008614,reldom2_s018,001,2025-02-21_12h18.17.762,What-A-Scan_AC,2022.2.5,None,
3,First_Order,1.0,audwhat,stimulus/audwhat_stim/dummy.wav,stimulus/audwhat_stim/dummy.wav,stimulus/audwhat_stim/percussion mallet_low-pitch_F_loud.wav,stimulus/audwhat_stim/percussion xylophone_high-pitch_Ftri_loud.wav,stimulus/audwhat_stim/blank_white.png,stimulus/audwhat_stim/category_box.png,stimulus/audwhat_stim/category_yes.png,stimulus/audwhat_stim/category_no.png,None,Category,None,Category,1,0.0,0,5.125,0,5.125,0,5.125,0,0.0,0.625,0,0.0,0,0.0,0,0.0,0,0.0,0,0.0,0,0.0,1,0.5,1,2.125,0,,,,,0,3,3,3,,,,,,,,,64.54138458299713,64.54138458299713,64.54138458299713,64.54138458299713,64.54138458299713,64.54138458299713,64.54138458299713,64.54138458299713,64.4614919583347,64.54138458299713,64.54138458299713,64.54138458299713,64.4614919583347,64.54138458299713,64.54138458299713,64.54138458299713,66.62335112500296,,64.54138458299713,64.54138458299713,69.7327300830002,64.54138458299713,64.54138458299713,64.54138458299713,64.54138458299713,65.00389791600173,66.06940900000336,64.97466954166545,,66.62335112500296,67.69225970799744,66.59268879166872,67.64527137499681,64.54138458299713,69.7327300830002,64.54138458299713,69.7327300830002,69.7327300830002,70.3860536659995,64.54138458299713,1,1,1.470222999996622,reldom2_s018,001,2025-02-21_12h18.17.762,What-A-Scan_AC,2022.2.5,None,
4,First_Order,1.0,audwhat,stimulus/audwhat_stim/dummy.wav,stimulus/audwhat_stim/dummy.wav,stimulus/audwhat_stim/percussion mallet_low-pitch_Dtri_loud.wav,stimulus/audwhat_stim/percussion mallet_high-pitch_F_loud.wav,stimulus/audwhat_stim/blank_white.png,stimulus/audwhat_stim/category_box.png,stimulus/audwhat_stim/category_yes.png,stimulus/audwhat_stim/category_no.png,None,Category,None,Category,1,0.0,0,5.125,0,5.125,0,5.125,0,0.0,0.625,0,0.0,0,0.0,0,0.0,0,0.0,0,0.0,0,0.0,1,0.5,1,2.125,0,,,,,0,4,4,4,,,,,,,,,70.63989720799873,70.63989720799873,70.63989720799873,70.63989720799873,70.63989720799873,70.63989720799873,70.63989720799873,70.63989720799873,70.56018729133405,70.63989720799873,70.63989720799873,70.63989720799873,70.56018729133405,70.63989720799873,70.63989720799873,70.63989720799873,72.73220004099858,,70.63989720799873,70.63989720799873,75.79645795800025,70.63989720799873,70.63989720799873,70.63989720799873,70.63989720799873,71.10592558299686,72.17545254099969,71.0759446246632,,72.73220004099858,73.8013130410036,72.70216237466617,,70.63989720799873,75.79645795800025,70.63989720799873,75.79645795800025,75.83746954100206,76.49095225000201,70.63989720799873,1,1,0.5618199590026052,reldom2_s018,001,2025-02-21_12h18.17.762,What-A-Scan_AC,2022.2.5,None,
0,0.0,None,fixation,stimulus/audwhat_stim/blank_white.png,stimulus/audwhat_stim/blank_white.png,stimulus/viswhat_stim/blank_white.png,stimulus/viswhat_stim/blank_white.png,stimulus/audwhat_stim/blank_white.png,stimulus/audwhat_stim/blank_white.png,stimulus/audwhat_stim/blank_white.png,stimulus/audwhat_stim/blank_white.png,0.0,0.0,0.0,0.0,0,0.0,0,0.0,0,0.0,0,0.0,0,0.0,0.0,0,0.0,0,0.0,0,0.0,0,0.0,0,0.0,0,0.0,0,0.0,0,0.0,10,,,,,0,5,5,5,,,,,,,,,76.76513958300347,76.76513958300347,76.76513958300347,76.76513958300347,76.76513958300347,76.76513958300347,76.76513958300347,76.76513958300347,76.6646558333324,76.76513958300347,76.76513958300347,76.76513958300347,76.6646558333324,76.76513958300347,76.76513958300347,76.76513958300347,76.76513958300347,76.76513958300347,76.76513958300347,76.76513958300347,76.76513958300347,76.76513958300347,76.76513958300347,76.76513958300347,76.76513958300347,76.76513958300347,76.76513958300347,76.71465583333242,76.76513958300347,76.76513958300347,76.76513958300347,76.71465583333242,76.76513958300347,76.76513958300347,76.76513958300347,76.76513958300347,76.76513958300347,81.9977079579985,81.9977079579985,86.89515133300301,None,0,,reldom2_s018,001,2025-02-21_12h18.17.762,What-A-Scan_AC,2022.2.5,None,
5,Second_Order,1.0,audwhat,stimulus/audwhat_stim/string cello_low-pitch_D_loud.wav,stimulus/audwhat_stim/string viola_high-pitch_Dtri_loud.wav,stimulus/audwhat_stim/percussion mallet_low-pitch_D_loud.wav,stimulus/audwhat_stim/string viola_low-pitch_D_loud.wav,stimulus/audwhat_stim/match_blank.png,stimulus/audwhat_stim/match_box.png,stimulus/audwhat_stim/match_yes.png,stimulus/audwhat_stim/match_no.png,2.0,Match,Category,Pitch,2,5.125,0,5.125,0,5.125,0,5.125,0,0.75,0.75,0,0.0,0,0.0,0,0.0,0,0.0,1,0.5,1,2.125,1,0.5,1,2.125,0,,,,,0,6,6,6,,,,,,,,,86.89515133300301,92.01866279100068,86.89515133300301,86.89515133300301,86.89515133300301,86.89515133300301,87.33963712499826,88.33795820800151,87.35281183266876,,88.97833258299943,89.97505337499751,88.99001358266493,,92.01866279100068,92.86961679100204,94.93342695799947,,92.86961679100204,92.86961679100204,98.03437016600219,92.86961679100204,92.86961679100204,92.86961679100204,92.86961679100204,93.32672379099677,94.38396758300223,93.29728316666684,,94.93342695799947,95.99586720800289,94.9037421666692,,92.86961679100204,98.03437016600219,92.86961679100204,98.03437016600219,98.03437016600219,,92.86961679100204,2,1,2.042856207997829,reldom2_s018,001,2025-02-21_12h18.17.762,What-A-Scan_AC,2022.2.5,None,
6,Second_Order,1.0,audwhat,stimulus/audwhat_stim/string cello_high-pitch_Dtri_loud.wav,stimulus/audwhat_stim/percussion mallet_high-pitch_Dtri_loud.wav,stimulus/audwhat_stim/percussion mallet_low-pitch_Ftri_loud.wav,stimulus/audwhat_stim/string cello_low-pitch_Ftri_loud.wav,stimulus/audwhat_stim/match_blank.png,stimulus/audwhat_stim/match_box.png,stimulus/audwhat_stim/match_yes.png,stimulus/audwhat_stim/match_no.png,1.0,Match,Pitch,Pitch,1,5.125,0,5.125,0,5.125,0,5.125,0,0.625,0.625,0,0.0,0,0.0,0,0.0,0,0.0,1,0.5,1,2.125,1,0.5,1,2.125,0,,,,,0,7,7,7,,,,,,,,,98.84169037499669,103.96213287499995,98.84169037499669,98.84169037499669,98.84169037499669,98.84169037499669,99.30109733300196,100.29896675000055,99.31317933266497,,100.92190850000043,101.91962858299667,100.93380495766566,,103.96213287499995,104.69280270799936,106.74845095800265,,104.69280270799936,104.69280270799936,109.86890487500204,104.69280270799936,104.69280270799936,104.69280270799936,104.69280270799936,105.14727316600329,106.19885704100307,105.11908516666541,,106.74845095800265,107.8036148750034,106.71949645766678,,104.69280270799936,109.86890487500204,104.69280270799936,109.86890487500204,109.86890487500204,110.51651962500182,104.69280270799936,1,1,1.712996916998236,reldom2_s018,001,2025-02-21_12h18.17.762,What-A-Scan_AC,2022.2.5,None,
0,0.0,None,fixation,stimulus/audwhat_stim/blank_white.png,stimulus/audwhat_stim/blank_white.png,stimulus/viswhat_stim/blank_white.png,stimulus/viswhat_stim/blank_white.png,stimulus/audwhat_stim/blank_white.png,stimulus/audwhat_stim/blank_white.png,stimulus/audwhat_stim/blank_white.png,stimulus/audwhat_stim/blank_white.png,0.0,0.0,0.0,0.0,0,0.0,0,0.0,0,0.0,0,0.0,0,0.0,0.0,0,0.0,0,0.0,0,0.0,0,0.0,0,0.0,0,0.0,0,0.0,0,0.0,9,,,,,0,8,8,8,,,,,,,,,110.78918879100092,110.78918879100092,110.78918879100092,110.78918879100092,110.78918879100092,110.78918879100092,110.78918879100092,110.78918879100092,110.69028679133237,110.78918879100092,110.78918879100092,110.78918879100092,110.69028679133237,110.78918879100092,110.78918879100092,110.78918879100092,110.78918879100092,110.78918879100092,110.78918879100092,110.78918879100092,110.78918879100092,110.78918879100092,110.78918879100092,110.78918879100092,110.78918879100092,110.78918879100092,110.78918879100092,110.74028679133238,110.78918879100092,110.78918879100092,110.78918879100092,110.74028679133238,110.78918879100092,110.78918879100092,110.78918879100092,110.78918879100092,110.78918879100092,115.9749782910003,115.9749782910003,120.02332279099937,None,0,,reldom2_s018,001,2025-02-21_12h18.17.762,What-A-Scan_AC,2022.2.5,None,
7,First_Order,2.0,audwhat,stimulus/audwhat_stim/dummy.wav,stimulus/audwhat_stim/dummy.wav,stimulus/audwhat_stim/string cello_low-pitch_F_loud.wav,stimulus/audwhat_stim/percussion mallet_low-pitch_F_loud.wav,stimulus/audwhat_stim/blank_white.png,stimulus/audwhat_stim/pitch_box.png,stimulus/audwhat_stim/pitch_yes.png,stimulus/audwhat_stim/pitch_no.png,None,Pitch,None,Pitch,1,0.0,0,5.125,0,5.125,0,5.125,0,0.0,0.625,0,0.0,0,0.0,0,0.0,0,0.0,0,0.0,0,0.0,1,0.5,1,2.125,0,,,,,0,9,9,9,,,,,,,,,120.02332279099937,120.02332279099937,120.02332279099937,120.02332279099937,120.02332279099937,120.02332279099937,120.02332279099937,120.02332279099937,119.9504246246676,120.02332279099937,120.02332279099937,120.02332279099937,119.9504246246676,120.02332279099937,120.02332279099937,120.02332279099937,122.10726870800136,,120.02332279099937,120.02332279099937,125.20914866599924,120.02332279099937,120.02332279099937,120.02332279099937,120.02332279099937,120.48788804100332,121.54979270799959,120.45789304166489,,122.10726870800136,123.17627175000234,122.07743574966686,,120.02332279099937,125.20914866599924,120.02332279099937,125.20914866599924,125.25026229100331,125.90299979099655,120.02332279099937,1,1,0.9288309589974233,reldom2_s018,001,2025-02-21_12h18.17.762,What-A-Scan_AC,2022.2.5,None,
8,First_Order,2.0,audwhat,stimulus/audwhat_stim/dummy.wav,stimulus/audwhat_stim/dummy.wav,stimulus/audwhat_stim/string cello_low-pitch_Dtri_loud.wav,stimulus/audwhat_stim/percussion mallet_low-pitch_Dtri_loud.wav,stimulus/audwhat_stim/blank_white.png,stimulus/audwhat_stim/category_box.png,stimulus/audwhat_stim/category_yes.png,stimulus/audwhat_stim/category_no.png,None,Category,None,Pitch,2,0.0,0,5.125,0,5.125,0,5.125,0,0.0,0.625,0,0.0,0,0.0,0,0.0,0,0.0,0,0.0,0,0.0,1,0.5,1,2.125,0,,,,,0,10,10,10,,,,,,,,,126.11903433300176,126.11903433300176,126.11903433300176,126.11903433300176,126.11903433300176,126.11903433300176,126.11903433300176,126.11903433300176,126.03633312432987,126.11903433300176,126.11903433300176,126.11903433300176,126.03633312432987,126.11903433300176,126.11903433300176,126.11903433300176,128.21479112499946,132.24101116599923,126.11903433300176,126.11903433300176,131.29114604100323,126.11903433300176,126.11903433300176,126.11903433300176,126.11903433300176,126.58311437499651,127.65456249999988,126.55312745766811,,128.21479112499946,129.2894225830023,128.18455841666972,,126.11903433300176,131.29114604100323,126.11903433300176,131.29114604100323,131.3323644580014,131.9860319579966,126.11903433300176,2,1,1.2367240419989685,reldom2_s018,001,2025-02-21_12h18.17.762,What-A-Scan_AC,2022.2.5,None,
9,First_Order,2.0,audwhat,stimulus/audwhat_stim/dummy.wav,stimulus/audwhat_stim/dummy.wav,stimulus/audwhat_stim/string cello_high-pitch_F_loud.wav,stimulus/audwhat_stim/percussion mallet_high-pitch_F_loud.wav,stimulus/audwhat_stim/blank_white.png,stimulus/audwhat_stim/pitch_box.png,stimulus/audwhat_stim/pitch_yes.png,stimulus/audwhat_stim/pitch_no.png,None,Pitch,None,Pitch,1,0.0,0,5.125,0,5.125,0,5.125,0,0.0,0.625,0,0.0,0,0.0,0,0.0,0,0.0,0,0.0,0,0.0,1,0.5,1,2.125,0,,,,,0,11,11,11,,,,,,,,,132.24101116599923,132.24101116599923,132.24101116599923,132.24101116599923,132.24101116599923,132.24101116599923,132.24101116599923,132.24101116599923,132.16035958333137,132.24101116599923,132.24101116599923,132.24101116599923,132.16035958333137,132.24101116599923,132.24101116599923,132.24101116599923,134.3300282909986,,132.24101116599923,132.24101116599923,137.39496970800246,132.24101116599923,132.24101116599923,132.24101116599923,132.24101116599923,132.7060506659982,133.77232450000156,132.67608995766594,,134.3300282909986,135.40222337500018,134.30002824966894,,132.24101116599923,137.39496970800246,132.24101116599923,137.39496970800246,137.4362590410019,138.09100045800005,132.24101116599923,1,1,0.7823277920033433,reldom2_s018,001,2025-02-21_12h18.17.762,What-A-Scan_AC,2022.2.5,None,
10,First_Order,2.0,audwhat,stimulus/audwhat_stim/dummy.wav,stimulus/audwhat_stim/dummy.wav,stimulus/audwhat_stim/percussion xylophone_high-pitch_D_loud.wav,stimulus/audwhat_stim/string cello_high-pitch_D_loud.wav,stimulus/audwhat_stim/blank_white.png,stimulus/audwhat_stim/category_box.png,stimulus/audwhat_stim/category_yes.png,stimulus/audwhat_stim/category_no.png,None,Category,None,Pitch,2,0.0,0,5.125,0,5.125,0,5.125,0,0.0,0.625,0,0.0,0,0.0,0,0.0,0,0.0,0,0.0,0,0.0,1,0.5,1,2.125,0,,,,,0,12,12,12,,,,,,,,,138.34493308299716,138.34493308299716,138.34493308299716,138.34493308299716,138.34493308299716,138.34493308299716,138.34493308299716,138.34493308299716,138.26454733333426,138.34493308299716,138.34493308299716,138.34493308299716,138.26454733333426,138.34493308299716,138.34493308299716,138.34493308299716,140.4442025410026,144.49632658300106,138.34493308299716,138.34493308299716,143.52231987500272,138.34493308299716,138.34493308299716,138.34493308299716,138.34493308299716,138.81247579099727,139.8839761249983,138.7821179576679,139.8374609579987,140.4442025410026,141.5200512079973,140.41409429166768,,138.34493308299716,143.52231987500272,138.34493308299716,143.52231987500272,143.56366200000048,144.22092862499994,138.34493308299716,2,1,1.0062562089951825,reldom2_s018,001,2025-02-21_12h18.17.762,What-A-Scan_AC,2022.2.5,None,
0,0.0,None,fixation,stimulus/audwhat_stim/blank_white.png,stimulus/audwhat_stim/blank_white.png,stimulus/viswhat_stim/blank_white.png,stimulus/viswhat_stim/blank_white.png,stimulus/audwhat_stim/blank_white.png,stimulus/audwhat_stim/blank_white.png,stimulus/audwhat_stim/blank_white.png,stimulus/audwhat_stim/blank_white.png,0.0,0.0,0.0,0.0,0,0.0,0,0.0,0,0.0,0,0.0,0,0.0,0.0,0,0.0,0,0.0,0,0.0,0,0.0,0,0.0,0,0.0,0,0.0,0,0.0,10,,,,,0,13,13,13,,,,,,,,,144.49632658300106,144.49632658300106,144.49632658300106,144.49632658300106,144.49632658300106,144.49632658300106,144.49632658300106,144.49632658300106,144.3953612913339,144.49632658300106,144.49632658300106,144.49632658300106,144.3953612913339,144.49632658300106,144.49632658300106,144.49632658300106,144.49632658300106,144.49632658300106,144.49632658300106,144.49632658300106,144.49632658300106,144.49632658300106,144.49632658300106,144.49632658300106,144.49632658300106,144.49632658300106,144.49632658300106,144.44536129133388,144.49632658300106,144.49632658300106,144.49632658300106,144.44536129133388,144.49632658300106,144.49632658300106,144.49632658300106,144.49632658300106,144.49632658300106,149.69596037500014,149.69596037500014,154.66488820799714,None,0,,reldom2_s018,001,2025-02-21_12h18.17.762,What-A-Scan_AC,2022.2.5,None,
11,Second_Order,2.0,audwhat,stimulus/audwhat_stim/string viola_high-pitch_D_loud.wav,stimulus/audwhat_stim/percussion xylophone_high-pitch_D_loud.wav,stimulus/audwhat_stim/percussion mallet_low-pitch_F_loud.wav,stimulus/audwhat_stim/string viola_low-pitch_F_loud.wav,stimulus/audwhat_stim/match_blank.png,stimulus/audwhat_stim/match_box.png,stimulus/audwhat_stim/match_yes.png,stimulus/audwhat_stim/match_no.png,1.0,Match,Pitch,Pitch,1,5.125,0,5.125,0,5.125,0,5.125,0,0.75,0.75,0,0.0,0,0.0,0,0.0,0,0.0,1,0.5,1,2.125,1,0.5,1,2.125,0,,,,,0,14,14,14,,,,,,,,,154.66488820799714,159.78664179099724,154.66488820799714,154.66488820799714,154.66488820799714,154.66488820799714,155.1116370410018,156.0982353750005,155.1252010826686,,156.7458574159973,157.73571850000008,156.74982654166914,157.74865424999734,159.78664179099724,160.64057479100302,162.67661149999913,,160.64057479100302,160.64057479100302,165.83260549999977,160.64057479100302,160.64057479100302,160.64057479100302,160.64057479100302,161.0548815410002,162.12017154099885,161.02499083266983,,162.67661149999913,163.74657833299716,162.646313999667,,160.64057479100302,165.83260549999977,160.64057479100302,165.83260549999977,165.83260549999977,,160.64057479100302,1,1,1.1740037919953465,reldom2_s018,001,2025-02-21_12h18.17.762,What-A-Scan_AC,2022.2.5,None,
12,Second_Order,2.0,audwhat,stimulus/audwhat_stim/percussion mallet_high-pitch_Dtri_loud.wav,stimulus/audwhat_stim/string viola_high-pitch_Dtri_loud.wav,stimulus/audwhat_stim/string viola_low-pitch_Dtri_loud.wav,stimulus/audwhat_stim/percussion mallet_low-pitch_Dtri_loud.wav,stimulus/audwhat_stim/match_blank.png,stimulus/audwhat_stim/match_box.png,stimulus/audwhat_stim/match_yes.png,stimulus/audwhat_stim/match_no.png,1.0,Match,Pitch,Pitch,1,5.125,0,5.125,0,5.125,0,5.125,0,0.625,0.625,0,0.0,0,0.0,0,0.0,0,0.0,1,0.5,1,2.125,1,0.5,1,2.125,0,,,,,0,15,15,15,,,,,,,,,166.6047682080025,171.71870866599784,166.6047682080025,166.6047682080025,166.6047682080025,166.6047682080025,167.05704533300013,168.05556587500178,167.06974608266708,,168.67824779100192,169.67603479100217,168.6903226666657,,171.71870866599784,172.4508802909986,174.51808175000042,,172.4508802909986,172.4508802909986,177.609643374999,172.4508802909986,172.4508802909986,172.4508802909986,172.4508802909986,172.90688537499955,173.96617516600236,172.87738720766745,,174.51808175000042,175.577966249999,174.48831595766777,,172.4508802909986,177.609643374999,172.4508802909986,177.609643374999,177.609643374999,178.2599514579997,172.4508802909986,1,1,0.6372210839981562,reldom2_s018,001,2025-02-21_12h18.17.762,What-A-Scan_AC,2022.2.5,None,
0,0.0,None,fixation,stimulus/audwhat_stim/blank_white.png,stimulus/audwhat_stim/blank_white.png,stimulus/viswhat_stim/blank_white.png,stimulus/viswhat_stim/blank_white.png,stimulus/audwhat_stim/blank_white.png,stimulus/audwhat_stim/blank_white.png,stimulus/audwhat_stim/blank_white.png,stimulus/audwhat_stim/blank_white.png,0.0,0.0,0.0,0.0,0,0.0,0,0.0,0,0.0,0,0.0,0,0.0,0.0,0,0.0,0,0.0,0,0.0,0,0.0,0,0.0,0,0.0,0,0.0,0,0.0,8,,,,,0,16,16,16,,,,,,,,,178.5339557499974,178.5339557499974,178.5339557499974,178.5339557499974,178.5339557499974,178.5339557499974,178.5339557499974,178.5339557499974,178.43361424933588,178.5339557499974,178.5339557499974,178.5339557499974,178.43361424933588,178.5339557499974,178.5339557499974,178.5339557499974,178.5339557499974,178.5339557499974,178.5339557499974,178.5339557499974,178.5339557499974,178.5339557499974,178.5339557499974,178.5339557499974,178.5339557499974,178.5339557499974,178.5339557499974,178.48361424933586,178.5339557499974,178.5339557499974,178.5339557499974,178.48361424933586,178.5339557499974,178.5339557499974,178.5339557499974,178.5339557499974,178.5339557499974,183.74392633300158,183.74392633300158,186.8797082500023,None,0,,reldom2_s018,001,2025-02-21_12h18.17.762,What-A-Scan_AC,2022.2.5,None,
13,First_Order,3.0,viswhat,stimulus/viswhat_stim/blank_white.png,stimulus/viswhat_stim/blank_white.png,stimulus/viswhat_stim/water_vehicle-cruiseship.png,stimulus/viswhat_stim/land_vehicle-pickuptruck.png,stimulus/viswhat_stim/blank_white.png,stimulus/viswhat_stim/type_box.png,stimulus/viswhat_stim/type_yes.png,stimulus/viswhat_stim/type_no.png,None,Type,None,Type,1,0.0,0,5.125,0,5.125,0,5.125,0,0.0,0.625,0,0.0,0,0.0,1,0.5,1,2.125,0,0.0,0,0.0,0,0.0,0,0.0,0,,,,,0,17,17,17,,,,,,,,,186.8797082500023,186.8797082500023,186.8797082500023,186.8797082500023,186.8797082500023,186.8797082500023,186.8797082500023,186.8797082500023,186.68361937466642,186.8797082500023,186.8797082500023,186.8797082500023,186.68361937466642,186.8797082500023,186.8797082500023,186.8797082500023,188.91558695799904,193.33264266599872,186.8797082500023,186.8797082500023,192.11106891599775,187.2673477080025,188.43148170800123,188.91558695799904,190.08038929099712,186.8797082500023,186.8797082500023,186.78361937466642,186.8797082500023,186.8797082500023,186.8797082500023,186.78361937466642,186.8797082500023,186.8797082500023,192.11106891599775,186.8797082500023,192.11106891599775,192.01963550000073,193.33264266599872,186.8797082500023,1,1,1.1393362919989158,reldom2_s018,001,2025-02-21_12h18.17.762,What-A-Scan_AC,2022.2.5,None,
14,First_Order,3.0,viswhat,stimulus/viswhat_stim/blank_white.png,stimulus/viswhat_stim/blank_white.png,stimulus/viswhat_stim/water_animal-lobster.png,stimulus/viswhat_stim/water_vehicle-cruiseship.png,stimulus/viswhat_stim/blank_white.png,stimulus/viswhat_stim/location_box.png,stimulus/viswhat_stim/location_yes.png,stimulus/viswhat_stim/location_no.png,None,Location,None,Location,1,0.0,0,5.125,0,5.125,0,5.125,0,0.0,0.625,0,0.0,0,0.0,1,0.5,1,2.125,0,0.0,0,0.0,0,0.0,0,0.0,0,,,,,0,18,18,18,,,,,,,,,193.33264266599872,193.33264266599872,193.33264266599872,193.33264266599872,193.33264266599872,193.33264266599872,193.33264266599872,193.33264266599872,192.8908938333368,193.33264266599872,193.33264266599872,193.33264266599872,192.8908938333368,193.33264266599872,193.33264266599872,193.33264266599872,195.32577733299695,,193.33264266599872,193.33264266599872,198.85913270799938,193.77535316599824,195.1047747909979,195.32577733299695,196.6544808749968,193.33264266599872,193.33264266599872,193.10756050000347,193.33264266599872,193.33264266599872,193.33264266599872,193.10756050000347,193.33264266599872,193.33264266599872,198.85913270799938,193.33264266599872,198.85913270799938,198.42409070800204,,193.33264266599872,1,1,0.5525956249912269,reldom2_s018,001,2025-02-21_12h18.17.762,What-A-Scan_AC,2022.2.5,None,
15,First_Order,3.0,viswhat,stimulus/viswhat_stim/blank_white.png,stimulus/viswhat_stim/blank_white.png,stimulus/viswhat_stim/water_vehicle-cruiseship.png,stimulus/viswhat_stim/land_vehicle-bus.png,stimulus/viswhat_stim/blank_white.png,stimulus/viswhat_stim/location_box.png,stimulus/viswhat_stim/location_yes.png,stimulus/viswhat_stim/location_no.png,None,Location,None,Type,2,0.0,0,5.125,0,5.125,0,5.125,0,0.0,0.625,0,0.0,0,0.0,1,0.5,1,2.125,0,0.0,0,0.0,0,0.0,0,0.0,0,,,,,0,19,19,19,,,,,,,,,199.54026787500334,199.54026787500334,199.54026787500334,199.54026787500334,199.54026787500334,199.54026787500334,199.54026787500334,199.54026787500334,199.34246604133273,199.54026787500334,199.54026787500334,199.54026787500334,199.34246604133273,199.54026787500334,199.54026787500334,199.54026787500334,201.56812275000266,,199.54026787500334,199.54026787500334,204.80914658300026,199.9469503750006,201.06172729100217,201.56812275000266,202.68582500000048,199.54026787500334,199.54026787500334,199.44246604133272,199.54026787500334,199.54026787500334,199.54026787500334,199.44246604133272,199.54026787500334,199.54026787500334,204.80914658300026,199.54026787500334,204.80914658300026,204.7137610409991,,199.54026787500334,2,1,0.8522155009923154,reldom2_s018,001,2025-02-21_12h18.17.762,What-A-Scan_AC,2022.2.5,None,
16,First_Order,3.0,viswhat,stimulus/viswhat_stim/blank_white.png,stimulus/viswhat_stim/blank_white.png,stimulus/viswhat_stim/land_vehicle-oldcar.png,stimulus/viswhat_stim/water_vehicle-pirateship.png,stimulus/viswhat_stim/blank_white.png,stimulus/viswhat_stim/type_box.png,stimulus/viswhat_stim/type_yes.png,stimulus/viswhat_stim/type_no.png,None,Type,None,Type,1,0.0,0,5.125,0,5.125,0,5.125,0,0.0,0.625,0,0.0,0,0.0,1,0.5,1,2.125,0,0.0,0,0.0,0,0.0,0,0.0,0,,,,,0,20,20,20,,,,,,,,,205.60684841599868,205.60684841599868,205.60684841599868,205.60684841599868,205.60684841599868,205.60684841599868,205.60684841599868,205.60684841599868,205.53841841599933,205.60684841599868,205.60684841599868,205.60684841599868,205.53841841599933,205.60684841599868,205.60684841599868,205.60684841599868,207.71839916599856,211.75557287500123,205.60684841599868,205.60684841599868,210.77605849999964,206.08096037500218,207.1155930829991,207.71839916599856,208.7583786250034,205.60684841599868,205.60684841599868,205.5717517493327,205.60684841599868,205.60684841599868,205.60684841599868,205.5717517493327,205.60684841599868,205.60684841599868,210.77605849999964,205.60684841599868,210.77605849999964,210.81392374999996,211.4888601249986,205.60684841599868,1,1,0.7999579169991193,reldom2_s018,001,2025-02-21_12h18.17.762,What-A-Scan_AC,2022.2.5,None,
0,0.0,None,fixation,stimulus/audwhat_stim/blank_white.png,stimulus/audwhat_stim/blank_white.png,stimulus/viswhat_stim/blank_white.png,stimulus/viswhat_stim/blank_white.png,stimulus/audwhat_stim/blank_white.png,stimulus/audwhat_stim/blank_white.png,stimulus/audwhat_stim/blank_white.png,stimulus/audwhat_stim/blank_white.png,0.0,0.0,0.0,0.0,0,0.0,0,0.0,0,0.0,0,0.0,0,0.0,0.0,0,0.0,0,0.0,0,0.0,0,0.0,0,0.0,0,0.0,0,0.0,0,0.0,9,,,,,0,21,21,21,,,,,,,,,211.75557287500123,211.75557287500123,211.75557287500123,211.75557287500123,211.75557287500123,211.75557287500123,211.75557287500123,211.75557287500123,211.65953770833053,211.75557287500123,211.75557287500123,211.75557287500123,211.65953770833053,211.75557287500123,211.75557287500123,211.75557287500123,211.75557287500123,211.75557287500123,211.75557287500123,211.75557287500123,211.75557287500123,211.75557287500123,211.75557287500123,211.75557287500123,211.75557287500123,211.75557287500123,211.75557287500123,211.70953770833052,211.75557287500123,211.75557287500123,211.75557287500123,211.70953770833052,211.75557287500123,211.75557287500123,211.75557287500123,211.75557287500123,211.75557287500123,216.95792904099653,216.95792904099653,220.90248958300072,None,0,,reldom2_s018,001,2025-02-21_12h18.17.762,What-A-Scan_AC,2022.2.5,None,
17,Second_Order,3.0,viswhat,stimulus/viswhat_stim/water_animal-shark.png,stimulus/viswhat_stim/water_vehicle-pirateship.png,stimulus/viswhat_stim/water_animal-squid.png,stimulus/viswhat_stim/land_animal-elephant.png,stimulus/audwhat_stim/match_blank.png,stimulus/audwhat_stim/match_box.png,stimulus/audwhat_stim/match_yes.png,stimulus/audwhat_stim/match_no.png,2.0,Match,Location,Type,2,5.125,0,5.125,0,5.125,0,5.125,0,0.75,0.75,1,0.5,1,2.125,1,0.5,1,2.125,0,0.0,0,0.0,0,0.0,0,0.0,0,,,,,0,22,22,22,,,,,,,,,220.90248958300072,226.0229855409998,221.36373304099834,222.35125900000276,222.9871498749999,223.98485737499868,220.90248958300072,220.90248958300072,220.91256933299738,220.90248958300072,220.90248958300072,220.90248958300072,220.91256933299738,220.90248958300072,226.0229855409998,226.91666375000204,228.99761845800094,,226.91666375000204,226.91666375000204,232.0910217080018,227.31973720800306,228.39278583299892,228.99761845800094,230.07833354100148,226.91666375000204,226.91666375000204,226.85772437499838,226.91666375000204,226.91666375000204,226.91666375000204,226.85772437499838,226.91666375000204,226.91666375000204,232.0910217080018,226.91666375000204,232.0910217080018,232.0910217080018,,226.91666375000204,2,1,1.0118195830000332,reldom2_s018,001,2025-02-21_12h18.17.762,What-A-Scan_AC,2022.2.5,None,
18,Second_Order,3.0,viswhat,stimulus/viswhat_stim/land_vehicle-pickuptruck.png,stimulus/viswhat_stim/water_vehicle-pirateship.png,stimulus/viswhat_stim/water_animal-jellyfish.png,stimulus/viswhat_stim/land_animal-snake.png,stimulus/audwhat_stim/match_blank.png,stimulus/audwhat_stim/match_box.png,stimulus/audwhat_stim/match_yes.png,stimulus/audwhat_stim/match_no.png,1.0,Match,Type,Type,1,5.125,0,5.125,0,5.125,0,5.125,0,0.625,0.625,1,0.5,1,2.125,1,0.5,1,2.125,0,0.0,0,0.0,0,0.0,0,0.0,0,,,,,0,23,23,23,,,,,,,,,232.84573074999935,237.96678016600345,233.34004304099653,234.32899533300224,234.94831141600298,235.94581070799904,232.84573074999935,232.84573074999935,232.85724316599809,232.84573074999935,232.84573074999935,232.84573074999935,232.85724316599809,232.84573074999935,237.96678016600345,238.66652291599894,240.7404991250005,244.7880482909968,238.66652291599894,238.66652291599894,243.81569762500294,239.10708583299856,240.1317318750007,240.7404991250005,241.76609458299936,238.66652291599894,238.66652291599894,238.63521674999794,238.66652291599894,238.66652291599894,238.66652291599894,238.63521674999794,238.66652291599894,238.66652291599894,243.81569762500294,238.66652291599894,243.81569762500294,243.85952470800112,244.49964750000072,238.66652291599894,1,1,0.7672425419950741,reldom2_s018,001,2025-02-21_12h18.17.762,What-A-Scan_AC,2022.2.5,None,
0,0.0,None,fixation,stimulus/audwhat_stim/blank_white.png,stimulus/audwhat_stim/blank_white.png,stimulus/viswhat_stim/blank_white.png,stimulus/viswhat_stim/blank_white.png,stimulus/audwhat_stim/blank_white.png,stimulus/audwhat_stim/blank_white.png,stimulus/audwhat_stim/blank_white.png,stimulus/audwhat_stim/blank_white.png,0.0,0.0,0.0,0.0,0,0.0,0,0.0,0,0.0,0,0.0,0,0.0,0.0,0,0.0,0,0.0,0,0.0,0,0.0,0,0.0,0,0.0,0,0.0,0,0.0,8,,,,,0,24,24,24,,,,,,,,,244.7880482909968,244.7880482909968,244.7880482909968,244.7880482909968,244.7880482909968,244.7880482909968,244.7880482909968,244.7880482909968,244.6872420829983,244.7880482909968,244.7880482909968,244.7880482909968,244.6872420829983,244.7880482909968,244.7880482909968,244.7880482909968,244.7880482909968,244.7880482909968,244.7880482909968,244.7880482909968,244.7880482909968,244.7880482909968,244.7880482909968,244.7880482909968,244.7880482909968,244.7880482909968,244.7880482909968,244.73724208299828,244.7880482909968,244.7880482909968,244.7880482909968,244.73724208299828,244.7880482909968,244.7880482909968,244.7880482909968,244.7880482909968,244.7880482909968,250.01343199999974,250.01343199999974,253.00329249999777,None,0,,reldom2_s018,001,2025-02-21_12h18.17.762,What-A-Scan_AC,2022.2.5,None,
19,First_Order,4.0,viswhat,stimulus/viswhat_stim/blank_white.png,stimulus/viswhat_stim/blank_white.png,stimulus/viswhat_stim/land_animal-wolf.png,stimulus/viswhat_stim/water_animal-squid.png,stimulus/viswhat_stim/blank_white.png,stimulus/viswhat_stim/location_box.png,stimulus/viswhat_stim/location_yes.png,stimulus/viswhat_stim/location_no.png,None,Location,None,Type,2,0.0,0,5.125,0,5.125,0,5.125,0,0.0,0.625,0,0.0,0,0.0,1,0.5,1,2.125,0,0.0,0,0.0,0,0.0,0,0.0,0,,,,,0,25,25,25,,,,,,,,,253.00329249999777,253.00329249999777,253.00329249999777,253.00329249999777,253.00329249999777,253.00329249999777,253.00329249999777,253.00329249999777,252.96018458266434,253.00329249999777,253.00329249999777,253.00329249999777,252.96018458266434,253.00329249999777,253.00329249999777,253.00329249999777,255.1151402500036,259.0892418329968,253.00329249999777,253.00329249999777,258.14918820800085,253.46262970800308,254.5038905409965,255.1151402500036,256.128732707999,253.00329249999777,253.00329249999777,252.976851249331,253.00329249999777,253.00329249999777,253.00329249999777,252.976851249331,253.00329249999777,253.00329249999777,258.14918820800085,253.00329249999777,258.14918820800085,258.22412483300286,258.87064287500107,253.00329249999777,2,1,2.121395333997498,reldom2_s018,001,2025-02-21_12h18.17.762,What-A-Scan_AC,2022.2.5,None,
20,First_Order,4.0,viswhat,stimulus/viswhat_stim/blank_white.png,stimulus/viswhat_stim/blank_white.png,stimulus/viswhat_stim/water_animal-jellyfish.png,stimulus/viswhat_stim/water_vehicle-motorboatraft.png,stimulus/viswhat_stim/blank_white.png,stimulus/viswhat_stim/location_box.png,stimulus/viswhat_stim/location_yes.png,stimulus/viswhat_stim/location_no.png,None,Location,None,Location,1,0.0,0,5.125,0,5.125,0,5.125,0,0.0,0.625,0,0.0,0,0.0,1,0.5,1,2.125,0,0.0,0,0.0,0,0.0,0,0.0,0,,,,,0,26,26,26,,,,,,,,,259.0892418329968,259.0892418329968,259.0892418329968,259.0892418329968,259.0892418329968,259.0892418329968,259.0892418329968,259.0892418329968,259.0451829160025,259.0892418329968,259.0892418329968,259.0892418329968,259.0451829160025,259.0892418329968,259.0892418329968,259.0892418329968,261.20067137500155,,259.0892418329968,259.0892418329968,264.2254905000009,259.5547607080007,260.57164091600134,261.20067137500155,262.2221669999999,259.0892418329968,259.0892418329968,259.0618495826692,259.0892418329968,259.0892418329968,259.0892418329968,259.0618495826692,259.0892418329968,259.0892418329968,264.2254905000009,259.0892418329968,264.2254905000009,264.3117798329986,264.9606775409993,259.0892418329968,1,1,0.7684771249987534,reldom2_s018,001,2025-02-21_12h18.17.762,What-A-Scan_AC,2022.2.5,None,
21,First_Order,4.0,viswhat,stimulus/viswhat_stim/blank_white.png,stimulus/viswhat_stim/blank_white.png,stimulus/viswhat_stim/land_animal-elephant.png,stimulus/viswhat_stim/land_vehicle-buldozer.png,stimulus/viswhat_stim/blank_white.png,stimulus/viswhat_stim/type_box.png,stimulus/viswhat_stim/type_yes.png,stimulus/viswhat_stim/type_no.png,None,Type,None,Location,2,0.0,0,5.125,0,5.125,0,5.125,0,0.0,0.625,0,0.0,0,0.0,1,0.5,1,2.125,0,0.0,0,0.0,0,0.0,0,0.0,0,,,,,0,27,27,27,,,,,,,,,265.248620958002,265.248620958002,265.248620958002,265.248620958002,265.248620958002,265.248620958002,265.248620958002,265.248620958002,265.1252137080024,265.248620958002,265.248620958002,265.248620958002,265.1252137080024,265.248620958002,265.248620958002,265.248620958002,267.35244195799896,,265.248620958002,265.248620958002,270.43437537499995,265.7381638329971,266.7924122080003,267.35244195799896,268.4085361250036,265.248620958002,265.248620958002,265.19188037466904,265.248620958002,265.248620958002,265.248620958002,265.19188037466904,265.248620958002,265.248620958002,270.43437537499995,265.248620958002,270.43437537499995,270.43437537499995,271.3450521659979,265.248620958002,2,1,0.6765782089933055,reldom2_s018,001,2025-02-21_12h18.17.762,What-A-Scan_AC,2022.2.5,None,
22,First_Order,4.0,viswhat,stimulus/viswhat_stim/blank_white.png,stimulus/viswhat_stim/blank_white.png,stimulus/viswhat_stim/water_animal-shark.png,stimulus/viswhat_stim/water_vehicle-cabincruiser.png,stimulus/viswhat_stim/blank_white.png,stimulus/viswhat_stim/type_box.png,stimulus/viswhat_stim/type_yes.png,stimulus/viswhat_stim/type_no.png,None,Type,None,Location,2,0.0,0,5.125,0,5.125,0,5.125,0,0.0,0.625,0,0.0,0,0.0,1,0.5,1,2.125,0,0.0,0,0.0,0,0.0,0,0.0,0,,,,,0,28,28,28,,,,,,,,,271.3450521659979,271.3450521659979,271.3450521659979,271.3450521659979,271.3450521659979,271.3450521659979,271.3450521659979,271.3450521659979,271.2621074163316,271.3450521659979,271.3450521659979,271.3450521659979,271.2621074163316,271.3450521659979,271.3450521659979,271.3450521659979,273.4512196249998,,271.3450521659979,271.3450521659979,276.5184482909972,271.8234339999981,272.8791607910025,273.4512196249998,274.5085432909982,271.3450521659979,271.3450521659979,271.31210741633157,271.3450521659979,271.3450521659979,271.3450521659979,271.31210741633157,271.3450521659979,271.3450521659979,276.5184482909972,271.3450521659979,276.5184482909972,276.56087545800256,277.23461916600354,271.3450521659979,2,1,1.3960847919952357,reldom2_s018,001,2025-02-21_12h18.17.762,What-A-Scan_AC,2022.2.5,None,
0,0.0,None,fixation,stimulus/audwhat_stim/blank_white.png,stimulus/audwhat_stim/blank_white.png,stimulus/viswhat_stim/blank_white.png,stimulus/viswhat_stim/blank_white.png,stimulus/audwhat_stim/blank_white.png,stimulus/audwhat_stim/blank_white.png,stimulus/audwhat_stim/blank_white.png,stimulus/audwhat_stim/blank_white.png,0.0,0.0,0.0,0.0,0,0.0,0,0.0,0,0.0,0,0.0,0,0.0,0.0,0,0.0,0,0.0,0,0.0,0,0.0,0,0.0,0,0.0,0,0.0,0,0.0,9,,,,,0,29,29,29,,,,,,,,,277.4744458330024,277.4744458330024,277.4744458330024,277.4744458330024,277.4744458330024,277.4744458330024,277.4744458330024,277.4744458330024,277.36795249933687,277.4744458330024,277.4744458330024,277.4744458330024,277.36795249933687,277.4744458330024,277.4744458330024,277.4744458330024,277.4744458330024,277.4744458330024,277.4744458330024,277.4744458330024,277.4744458330024,277.4744458330024,277.4744458330024,277.4744458330024,277.4744458330024,277.4744458330024,277.4744458330024,277.43461916600353,277.4744458330024,277.4744458330024,277.4744458330024,277.43461916600353,277.4744458330024,277.4744458330024,277.4744458330024,277.4744458330024,277.4744458330024,282.6795490000004,282.6795490000004,286.61755404099677,None,0,,reldom2_s018,001,2025-02-21_12h18.17.762,What-A-Scan_AC,2022.2.5,None,
23,Second_Order,4.0,viswhat,stimulus/viswhat_stim/water_vehicle-canoe(1).png,stimulus/viswhat_stim/land_vehicle-vespa.png,stimulus/viswhat_stim/land_animal-dog.png,stimulus/viswhat_stim/water_animal-jellyfish.png,stimulus/audwhat_stim/match_blank.png,stimulus/audwhat_stim/match_box.png,stimulus/audwhat_stim/match_yes.png,stimulus/audwhat_stim/match_no.png,1.0,Match,Type,Type,1,5.125,0,5.125,0,5.125,0,5.125,0,0.75,0.75,1,0.5,1,2.125,1,0.5,1,2.125,0,0.0,0,0.0,0,0.0,0,0.0,0,,,,,0,30,30,30,,,,,,,,,286.61755404099677,291.74143175000063,287.0845232499996,288.08281608299876,288.7057787500016,289.7029275410023,286.61755404099677,286.61755404099677,286.61807820833394,286.61755404099677,286.61755404099677,286.61755404099677,286.61807820833394,286.61755404099677,291.74143175000063,292.55872120799904,294.62698808300047,,292.55872120799904,292.55872120799904,297.7002127500018,292.98924620800244,294.02582791599707,294.62698808300047,295.6661176659982,292.55872120799904,292.55872120799904,292.5268007910025,292.55872120799904,292.55872120799904,292.55872120799904,292.5268007910025,292.55872120799904,292.55872120799904,297.7002127500018,292.55872120799904,297.7002127500018,297.7464711249995,,292.55872120799904,1,1,0.6702733339989209,reldom2_s018,001,2025-02-21_12h18.17.762,What-A-Scan_AC,2022.2.5,None,
24,Second_Order,4.0,viswhat,stimulus/viswhat_stim/land_vehicle-tank.png,stimulus/viswhat_stim/water_vehicle-canoe(1).png,stimulus/viswhat_stim/water_animal-orka.png,stimulus/viswhat_stim/water_vehicle-cabincruiser.png,stimulus/audwhat_stim/match_blank.png,stimulus/audwhat_stim/match_box.png,stimulus/audwhat_stim/match_yes.png,stimulus/audwhat_stim/match_no.png,2.0,Match,Type,Location,2,5.125,0,5.125,0,5.125,0,5.125,0,0.625,0.625,1,0.5,1,2.125,1,0.5,1,2.125,0,0.0,0,0.0,0,0.0,0,0.0,0,,,,,0,31,31,31,,,,,,,,,298.5161715830036,303.63984020800126,298.9950188750008,299.9935911249995,300.6168424999996,301.6144728750005,298.5161715830036,298.5161715830036,298.52641791666343,298.5161715830036,298.5161715830036,298.5161715830036,298.52641791666343,298.5161715830036,303.63984020800126,304.4346861660015,306.4621755830012,310.54784204099997,304.4346861660015,304.4346861660015,309.66402779099735,304.82206304099964,305.9155941659992,306.4621755830012,307.55754400000296,304.4346861660015,304.4346861660015,304.37043820766655,304.4346861660015,304.4346861660015,304.4346861660015,304.37043820766655,304.4346861660015,304.4346861660015,309.66402779099735,304.4346861660015,309.66402779099735,309.5917212080021,310.54784204099997,304.4346861660015,2,1,0.5669479580028565,reldom2_s018,001,2025-02-21_12h18.17.762,What-A-Scan_AC,2022.2.5,None,
0,0.0,None,fixation,stimulus/audwhat_stim/blank_white.png,stimulus/audwhat_stim/blank_white.png,stimulus/viswhat_stim/blank_white.png,stimulus/viswhat_stim/blank_white.png,stimulus/audwhat_stim/blank_white.png,stimulus/audwhat_stim/blank_white.png,stimulus/audwhat_stim/blank_white.png,stimulus/audwhat_stim/blank_white.png,0.0,0.0,0.0,0.0,0,0.0,0,0.0,0,0.0,0,0.0,0,0.0,0.0,0,0.0,0,0.0,0,0.0,0,0.0,0,0.0,0,0.0,0,0.0,0,0.0,9,,,,,0,32,32,32,,,,,,,,,310.54784204099997,310.54784204099997,310.54784204099997,310.54784204099997,310.54784204099997,310.54784204099997,310.54784204099997,310.54784204099997,310.4447347909983,310.54784204099997,310.54784204099997,310.54784204099997,310.4447347909983,310.54784204099997,310.54784204099997,310.54784204099997,310.54784204099997,310.54784204099997,310.54784204099997,310.54784204099997,310.54784204099997,310.54784204099997,310.54784204099997,310.54784204099997,310.54784204099997,310.54784204099997,310.54784204099997,310.49473479099834,310.54784204099997,310.54784204099997,310.54784204099997,310.49473479099834,310.54784204099997,310.54784204099997,310.54784204099997,310.54784204099997,310.54784204099997,315.77919004100113,315.77919004100113,319.8141050409977,None,0,,reldom2_s018,001,2025-02-21_12h18.17.762,What-A-Scan_AC,2022.2.5,None,
25,First_Order,5.0,audwhat,stimulus/audwhat_stim/dummy.wav,stimulus/audwhat_stim/dummy.wav,stimulus/audwhat_stim/string cello_low-pitch_Dtri_loud.wav,stimulus/audwhat_stim/percussion mallet_low-pitch_Dtri_loud.wav,stimulus/audwhat_stim/blank_white.png,stimulus/audwhat_stim/pitch_box.png,stimulus/audwhat_stim/pitch_yes.png,stimulus/audwhat_stim/pitch_no.png,None,Pitch,None,Pitch,1,0.0,0,5.125,0,5.125,0,5.125,0,0.0,0.625,0,0.0,0,0.0,0,0.0,0,0.0,0,0.0,0,0.0,1,0.5,1,2.125,0,,,,,0,33,33,33,,,,,,,,,319.8141050409977,319.8141050409977,319.8141050409977,319.8141050409977,319.8141050409977,319.8141050409977,319.8141050409977,319.8141050409977,319.74080108266446,319.8141050409977,319.8141050409977,319.8141050409977,319.74080108266446,319.8141050409977,319.8141050409977,319.8141050409977,321.9115907500018,325.93076141599886,319.8141050409977,319.8141050409977,324.98045429099875,319.8141050409977,319.8141050409977,319.8141050409977,319.8141050409977,320.2812072079978,321.3518445410009,320.2512678746682,,321.9115907500018,322.98312520799664,321.8803879166701,,319.8141050409977,324.98045429099875,319.8141050409977,324.98045429099875,325.0214492910018,325.67660912500287,319.8141050409977,1,1,1.3088203339939355,reldom2_s018,001,2025-02-21_12h18.17.762,What-A-Scan_AC,2022.2.5,None,
26,First_Order,5.0,audwhat,stimulus/audwhat_stim/dummy.wav,stimulus/audwhat_stim/dummy.wav,stimulus/audwhat_stim/string cello_low-pitch_F_loud.wav,stimulus/audwhat_stim/percussion mallet_low-pitch_F_loud.wav,stimulus/audwhat_stim/blank_white.png,stimulus/audwhat_stim/pitch_box.png,stimulus/audwhat_stim/pitch_yes.png,stimulus/audwhat_stim/pitch_no.png,None,Pitch,None,Pitch,1,0.0,0,5.125,0,5.125,0,5.125,0,0.0,0.625,0,0.0,0,0.0,0,0.0,0,0.0,0,0.0,0,0.0,1,0.5,1,2.125,0,,,,,0,34,34,34,,,,,,,,,325.93076141599886,325.93076141599886,325.93076141599886,325.93076141599886,325.93076141599886,325.93076141599886,325.93076141599886,325.93076141599886,325.85026924933675,325.93076141599886,325.93076141599886,325.93076141599886,325.85026924933675,325.93076141599886,325.93076141599886,325.93076141599886,328.02397912499873,,325.93076141599886,325.93076141599886,331.0899219580024,325.93076141599886,325.93076141599886,325.93076141599886,325.93076141599886,326.39681766599824,327.4659631250033,326.36623962466933,,328.02397912499873,329.0957800410033,327.99389670766345,,325.93076141599886,331.0899219580024,325.93076141599886,331.0899219580024,331.1309562079987,331.78506149999885,325.93076141599886,1,1,0.7619092500026454,reldom2_s018,001,2025-02-21_12h18.17.762,What-A-Scan_AC,2022.2.5,None,
27,First_Order,5.0,audwhat,stimulus/audwhat_stim/dummy.wav,stimulus/audwhat_stim/dummy.wav,stimulus/audwhat_stim/string cello_high-pitch_D_loud.wav,stimulus/audwhat_stim/percussion mallet_high-pitch_D_loud.wav,stimulus/audwhat_stim/blank_white.png,stimulus/audwhat_stim/category_box.png,stimulus/audwhat_stim/category_yes.png,stimulus/audwhat_stim/category_no.png,None,Category,None,Pitch,2,0.0,0,5.125,0,5.125,0,5.125,0,0.0,0.625,0,0.0,0,0.0,0,0.0,0,0.0,0,0.0,0,0.0,1,0.5,1,2.125,0,,,,,0,35,35,35,,,,,,,,,332.0438044160037,332.0438044160037,332.0438044160037,332.0438044160037,332.0438044160037,332.0438044160037,332.0438044160037,332.0438044160037,331.95893916633406,332.0438044160037,332.0438044160037,332.0438044160037,331.95893916633406,332.0438044160037,332.0438044160037,332.0438044160037,334.1488623749974,,332.0438044160037,332.0438044160037,337.23853241599863,332.0438044160037,332.0438044160037,332.0438044160037,332.0438044160037,332.5112870410012,333.58610779100127,332.48111258266385,,334.1488623749974,335.18226233300084,334.11876599966877,,332.0438044160037,337.23853241599863,332.0438044160037,337.23853241599863,337.23853241599863,337.8943440410003,332.0438044160037,2,1,0.8031495839968557,reldom2_s018,001,2025-02-21_12h18.17.762,What-A-Scan_AC,2022.2.5,None,
28,First_Order,5.0,audwhat,stimulus/audwhat_stim/dummy.wav,stimulus/audwhat_stim/dummy.wav,stimulus/audwhat_stim/percussion mallet_low-pitch_Ftri_loud.wav,stimulus/audwhat_stim/percussion mallet_high-pitch_F_loud.wav,stimulus/audwhat_stim/blank_white.png,stimulus/audwhat_stim/category_box.png,stimulus/audwhat_stim/category_yes.png,stimulus/audwhat_stim/category_no.png,None,Category,None,Category,1,0.0,0,5.125,0,5.125,0,5.125,0,0.0,0.625,0,0.0,0,0.0,0,0.0,0,0.0,0,0.0,0,0.0,1,0.5,1,2.125,0,,,,,0,36,36,36,,,,,,,,,338.1516814580027,338.1516814580027,338.1516814580027,338.1516814580027,338.1516814580027,338.1516814580027,338.1516814580027,338.1516814580027,338.07008120833245,338.1516814580027,338.1516814580027,338.1516814580027,338.07008120833245,338.1516814580027,338.1516814580027,338.1516814580027,340.25527149999834,,338.1516814580027,338.1516814580027,343.30135458300356,338.1516814580027,338.1516814580027,338.1516814580027,338.1516814580027,338.61795933300164,339.69227091599896,338.5879830416636,,340.25527149999834,341.29002583299734,340.2249670416679,,338.1516814580027,343.30135458300356,338.1516814580027,343.30135458300356,343.3425119579988,344.0019856250001,338.1516814580027,1,1,0.7571723329965607,reldom2_s018,001,2025-02-21_12h18.17.762,What-A-Scan_AC,2022.2.5,None,
0,0.0,None,fixation,stimulus/audwhat_stim/blank_white.png,stimulus/audwhat_stim/blank_white.png,stimulus/viswhat_stim/blank_white.png,stimulus/viswhat_stim/blank_white.png,stimulus/audwhat_stim/blank_white.png,stimulus/audwhat_stim/blank_white.png,stimulus/audwhat_stim/blank_white.png,stimulus/audwhat_stim/blank_white.png,0.0,0.0,0.0,0.0,0,0.0,0,0.0,0,0.0,0,0.0,0,0.0,0.0,0,0.0,0,0.0,0,0.0,0,0.0,0,0.0,0,0.0,0,0.0,0,0.0,8,,,,,0,37,37,37,,,,,,,,,344.2782701660035,344.2782701660035,344.2782701660035,344.2782701660035,344.2782701660035,344.2782701660035,344.2782701660035,344.2782701660035,344.1765367913341,344.2782701660035,344.2782701660035,344.2782701660035,344.1765367913341,344.2782701660035,344.2782701660035,344.2782701660035,344.2782701660035,344.2782701660035,344.2782701660035,344.2782701660035,344.2782701660035,344.2782701660035,344.2782701660035,344.2782701660035,344.2782701660035,344.2782701660035,344.2782701660035,344.2265367913341,344.2782701660035,344.2782701660035,344.2782701660035,344.2265367913341,344.2782701660035,344.2782701660035,344.2782701660035,344.2782701660035,344.2782701660035,349.4838434159974,349.4838434159974,352.42533762499806,None,0,,reldom2_s018,001,2025-02-21_12h18.17.762,What-A-Scan_AC,2022.2.5,None,
29,Second_Order,5.0,audwhat,stimulus/audwhat_stim/percussion xylophone_high-pitch_Dtri_loud.wav,stimulus/audwhat_stim/percussion mallet_low-pitch_Ftri_loud.wav,stimulus/audwhat_stim/string viola_high-pitch_Ftri_loud.wav,stimulus/audwhat_stim/string viola_low-pitch_Dtri_loud.wav,stimulus/audwhat_stim/match_blank.png,stimulus/audwhat_stim/match_box.png,stimulus/audwhat_stim/match_yes.png,stimulus/audwhat_stim/match_no.png,1.0,Match,Category,Category,1,5.125,0,5.125,0,5.125,0,5.125,0,0.75,0.75,0,0.0,0,0.0,0,0.0,0,0.0,1,0.5,1,2.125,1,0.5,1,2.125,0,,,,,0,38,38,38,,,,,,,,,352.42533762499806,357.5486820829974,352.42533762499806,352.42533762499806,352.42533762499806,352.42533762499806,352.88253629099927,353.8717108749988,352.8861028326685,353.8850278329992,354.50886433300184,355.50559679100115,354.51975858266474,,357.5486820829974,358.3992017080018,360.4395961249975,,358.3992017080018,358.3992017080018,363.5547975829977,358.3992017080018,358.3992017080018,358.3992017080018,358.3992017080018,358.8141237500022,359.8791082910029,358.78480387466357,,360.4395961249975,361.5131658329992,360.40934649966607,,358.3992017080018,363.5547975829977,358.3992017080018,363.5547975829977,363.59605100000044,,358.3992017080018,1,1,0.5708885419953731,reldom2_s018,001,2025-02-21_12h18.17.762,What-A-Scan_AC,2022.2.5,None,
30,Second_Order,5.0,audwhat,stimulus/audwhat_stim/percussion mallet_low-pitch_F_loud.wav,stimulus/audwhat_stim/percussion mallet_high-pitch_Ftri_loud.wav,stimulus/audwhat_stim/string viola_low-pitch_F_loud.wav,stimulus/audwhat_stim/string viola_high-pitch_Ftri_loud.wav,stimulus/audwhat_stim/match_blank.png,stimulus/audwhat_stim/match_box.png,stimulus/audwhat_stim/match_yes.png,stimulus/audwhat_stim/match_no.png,1.0,Match,Category,Category,1,5.125,0,5.125,0,5.125,0,5.125,0,0.625,0.625,0,0.0,0,0.0,0,0.0,0,0.0,1,0.5,1,2.125,1,0.5,1,2.125,0,,,,,0,39,39,39,,,,,,,,,364.37041829100053,369.49218079099956,364.37041829100053,364.37041829100053,364.37041829100053,364.37041829100053,364.83085525000206,365.8289417499982,364.84368670766366,,366.4517619160033,367.44923179099715,366.4640454996663,,369.49218079099956,370.2219095410037,372.3017408329979,376.3390981659977,370.2219095410037,370.2219095410037,375.41255304100196,370.2219095410037,370.2219095410037,370.2219095410037,370.2219095410037,370.6356295000005,371.69814870799746,370.60584779166334,,372.3017408329979,373.37232758299797,372.27217983266405,,370.2219095410037,375.41255304100196,370.2219095410037,375.41255304100196,375.41255304100196,376.06439116600086,370.2219095410037,1,1,0.7630273339964333,reldom2_s018,001,2025-02-21_12h18.17.762,What-A-Scan_AC,2022.2.5,None,
0,0.0,None,fixation,stimulus/audwhat_stim/blank_white.png,stimulus/audwhat_stim/blank_white.png,stimulus/viswhat_stim/blank_white.png,stimulus/viswhat_stim/blank_white.png,stimulus/audwhat_stim/blank_white.png,stimulus/audwhat_stim/blank_white.png,stimulus/audwhat_stim/blank_white.png,stimulus/audwhat_stim/blank_white.png,0.0,0.0,0.0,0.0,0,0.0,0,0.0,0,0.0,0,0.0,0,0.0,0.0,0,0.0,0,0.0,0,0.0,0,0.0,0,0.0,0,0.0,0,0.0,0,0.0,9,,,,,0,40,40,40,,,,,,,,,376.3390981659977,376.3390981659977,376.3390981659977,376.3390981659977,376.3390981659977,376.3390981659977,376.3390981659977,376.3390981659977,376.2386650833306,376.3390981659977,376.3390981659977,376.3390981659977,376.2386650833306,376.3390981659977,376.3390981659977,376.3390981659977,376.3390981659977,376.3390981659977,376.3390981659977,376.3390981659977,376.3390981659977,376.3390981659977,376.3390981659977,376.3390981659977,376.3390981659977,376.3390981659977,376.3390981659977,376.2886650833306,376.3390981659977,376.3390981659977,376.3390981659977,376.2886650833306,376.3390981659977,376.3390981659977,376.3390981659977,376.3390981659977,376.3390981659977,381.57294720799837,381.57294720799837,385.6094050410029,None,0,,reldom2_s018,001,2025-02-21_12h18.17.762,What-A-Scan_AC,2022.2.5,None,
31,First_Order,6.0,audwhat,stimulus/audwhat_stim/dummy.wav,stimulus/audwhat_stim/dummy.wav,stimulus/audwhat_stim/string viola_high-pitch_F_loud.wav,stimulus/audwhat_stim/percussion xylophone_high-pitch_F_loud.wav,stimulus/audwhat_stim/blank_white.png,stimulus/audwhat_stim/category_box.png,stimulus/audwhat_stim/category_yes.png,stimulus/audwhat_stim/category_no.png,None,Category,None,Pitch,2,0.0,0,5.125,0,5.125,0,5.125,0,0.0,0.625,0,0.0,0,0.0,0,0.0,0,0.0,0,0.0,0,0.0,1,0.5,1,2.125,0,,,,,0,41,41,41,,,,,,,,,385.6094050410029,385.6094050410029,385.6094050410029,385.6094050410029,385.6094050410029,385.6094050410029,385.6094050410029,385.6094050410029,385.53694295767,385.6094050410029,385.6094050410029,385.6094050410029,385.53694295767,385.6094050410029,385.6094050410029,385.6094050410029,387.71236483300163,,385.6094050410029,385.6094050410029,390.78887833299814,385.6094050410029,385.6094050410029,385.6094050410029,385.6094050410029,386.07774866600084,387.15226495800016,386.0474580416669,,387.71236483300163,388.7423294580003,387.6821002916661,388.7423294580003,385.6094050410029,390.78887833299814,385.6094050410029,390.78887833299814,390.8303978749973,391.4875739159979,385.6094050410029,2,1,0.9120350419980241,reldom2_s018,001,2025-02-21_12h18.17.762,What-A-Scan_AC,2022.2.5,None,
32,First_Order,6.0,audwhat,stimulus/audwhat_stim/dummy.wav,stimulus/audwhat_stim/dummy.wav,stimulus/audwhat_stim/percussion mallet_high-pitch_F_loud.wav,stimulus/audwhat_stim/percussion mallet_low-pitch_D_loud.wav,stimulus/audwhat_stim/blank_white.png,stimulus/audwhat_stim/pitch_box.png,stimulus/audwhat_stim/pitch_yes.png,stimulus/audwhat_stim/pitch_no.png,None,Pitch,None,Category,2,0.0,0,5.125,0,5.125,0,5.125,0,0.0,0.625,0,0.0,0,0.0,0,0.0,0,0.0,0,0.0,0,0.0,1,0.5,1,2.125,0,,,,,0,42,42,42,,,,,,,,,391.7009915410017,391.7009915410017,391.7009915410017,391.7009915410017,391.7009915410017,391.7009915410017,391.7009915410017,391.7009915410017,391.62090724933125,391.7009915410017,391.7009915410017,391.7009915410017,391.62090724933125,391.7009915410017,391.7009915410017,391.7009915410017,393.79473591600254,397.8165802910007,391.7009915410017,391.7009915410017,396.8663125000021,391.7009915410017,391.7009915410017,391.7009915410017,391.7009915410017,392.16911275000166,393.2386562910033,392.1391197496671,,393.79473591600254,394.8677738749975,393.7653591246674,,391.7009915410017,396.8663125000021,391.7009915410017,396.8663125000021,396.90768599999865,397.56190787500236,391.7009915410017,2,1,1.2974972499941941,reldom2_s018,001,2025-02-21_12h18.17.762,What-A-Scan_AC,2022.2.5,None,
33,First_Order,6.0,audwhat,stimulus/audwhat_stim/dummy.wav,stimulus/audwhat_stim/dummy.wav,stimulus/audwhat_stim/string cello_high-pitch_D_loud.wav,stimulus/audwhat_stim/string cello_low-pitch_Dtri_loud.wav,stimulus/audwhat_stim/blank_white.png,stimulus/audwhat_stim/category_box.png,stimulus/audwhat_stim/category_yes.png,stimulus/audwhat_stim/category_no.png,None,Category,None,Category,1,0.0,0,5.125,0,5.125,0,5.125,0,0.0,0.625,0,0.0,0,0.0,0,0.0,0,0.0,0,0.0,0,0.0,1,0.5,1,2.125,0,,,,,0,43,43,43,,,,,,,,,397.8165802910007,397.8165802910007,397.8165802910007,397.8165802910007,397.8165802910007,397.8165802910007,397.8165802910007,397.8165802910007,397.7363457493358,397.8165802910007,397.8165802910007,397.8165802910007,397.7363457493358,397.8165802910007,397.8165802910007,397.8165802910007,399.92757366599835,,397.8165802910007,397.8165802910007,402.97088383299706,397.8165802910007,397.8165802910007,397.8165802910007,397.8165802910007,398.28586504099803,399.31801833299687,398.25541579166406,,399.92757366599835,400.95982741600164,399.8960938746643,,397.8165802910007,402.97088383299706,397.8165802910007,402.97088383299706,403.01212987500185,403.6690085829978,397.8165802910007,1,1,1.0776464999944437,reldom2_s018,001,2025-02-21_12h18.17.762,What-A-Scan_AC,2022.2.5,None,
34,First_Order,6.0,audwhat,stimulus/audwhat_stim/dummy.wav,stimulus/audwhat_stim/dummy.wav,stimulus/audwhat_stim/string cello_high-pitch_F_loud.wav,stimulus/audwhat_stim/string viola_low-pitch_Ftri_loud.wav,stimulus/audwhat_stim/blank_white.png,stimulus/audwhat_stim/pitch_box.png,stimulus/audwhat_stim/pitch_yes.png,stimulus/audwhat_stim/pitch_no.png,None,Pitch,None,Category,2,0.0,0,5.125,0,5.125,0,5.125,0,0.0,0.625,0,0.0,0,0.0,0,0.0,0,0.0,0,0.0,0,0.0,1,0.5,1,2.125,0,,,,,0,44,44,44,,,,,,,,,403.9248727910017,403.9248727910017,403.9248727910017,403.9248727910017,403.9248727910017,403.9248727910017,403.9248727910017,403.9248727910017,403.84345062433033,403.9248727910017,403.9248727910017,403.9248727910017,403.84345062433033,403.9248727910017,403.9248727910017,403.9248727910017,406.02729399999953,410.0757160830035,403.9248727910017,403.9248727910017,409.10184195799957,403.9248727910017,403.9248727910017,403.9248727910017,403.9248727910017,404.3924427910024,405.4653007079978,404.36218416666475,,406.02729399999953,407.10190495799907,405.9966860416646,,403.9248727910017,409.10184195799957,403.9248727910017,409.10184195799957,409.1426613329968,409.79933070800325,403.9248727910017,2,1,1.0428035000004456,reldom2_s018,001,2025-02-21_12h18.17.762,What-A-Scan_AC,2022.2.5,None,
0,0.0,None,fixation,stimulus/audwhat_stim/blank_white.png,stimulus/audwhat_stim/blank_white.png,stimulus/viswhat_stim/blank_white.png,stimulus/viswhat_stim/blank_white.png,stimulus/audwhat_stim/blank_white.png,stimulus/audwhat_stim/blank_white.png,stimulus/audwhat_stim/blank_white.png,stimulus/audwhat_stim/blank_white.png,0.0,0.0,0.0,0.0,0,0.0,0,0.0,0,0.0,0,0.0,0,0.0,0.0,0,0.0,0,0.0,0,0.0,0,0.0,0,0.0,0,0.0,0,0.0,0,0.0,10,,,,,0,45,45,45,,,,,,,,,410.0757160830035,410.0757160830035,410.0757160830035,410.0757160830035,410.0757160830035,410.0757160830035,410.0757160830035,410.0757160830035,409.9736917083302,410.0757160830035,410.0757160830035,410.0757160830035,409.9736917083302,410.0757160830035,410.0757160830035,410.0757160830035,410.0757160830035,410.0757160830035,410.0757160830035,410.0757160830035,410.0757160830035,410.0757160830035,410.0757160830035,410.0757160830035,410.0757160830035,410.0757160830035,410.0757160830035,410.0236917083302,410.0757160830035,410.0757160830035,410.0757160830035,410.0236917083302,410.0757160830035,410.0757160830035,410.0757160830035,410.0757160830035,410.0757160830035,415.2794642079971,415.2794642079971,420.25539616600145,None,0,,reldom2_s018,001,2025-02-21_12h18.17.762,What-A-Scan_AC,2022.2.5,None,
35,Second_Order,6.0,audwhat,stimulus/audwhat_stim/percussion xylophone_high-pitch_D_loud.wav,stimulus/audwhat_stim/string viola_high-pitch_D_loud.wav,stimulus/audwhat_stim/percussion mallet_high-pitch_Dtri_loud.wav,stimulus/audwhat_stim/percussion mallet_low-pitch_D_loud.wav,stimulus/audwhat_stim/match_blank.png,stimulus/audwhat_stim/match_box.png,stimulus/audwhat_stim/match_yes.png,stimulus/audwhat_stim/match_no.png,2.0,Match,Pitch,Category,2,5.125,0,5.125,0,5.125,0,5.125,0,0.75,0.75,0,0.0,0,0.0,0,0.0,0,0.0,1,0.5,1,2.125,1,0.5,1,2.125,0,,,,,0,46,46,46,,,,,,,,,420.25539616600145,425.3711340410009,420.25539616600145,420.25539616600145,420.25539616600145,420.25539616600145,420.70973237499857,421.70868220800185,420.722393749664,421.71250300000247,422.33083158299996,423.32835350000096,422.34310599966943,,425.3711340410009,426.22083583300264,428.2670434160027,,426.22083583300264,426.22083583300264,431.37593133300106,426.22083583300264,426.22083583300264,426.22083583300264,426.22083583300264,426.63890512500075,427.7066964159967,426.6082121246693,,428.2670434160027,429.3392441660035,428.2369224576653,,426.22083583300264,431.37593133300106,426.22083583300264,431.37593133300106,431.41709833299683,,426.22083583300264,2,1,0.5819151250034338,reldom2_s018,001,2025-02-21_12h18.17.762,What-A-Scan_AC,2022.2.5,None,
36,Second_Order,6.0,audwhat,stimulus/audwhat_stim/percussion mallet_high-pitch_Dtri_loud.wav,stimulus/audwhat_stim/string viola_high-pitch_Dtri_loud.wav,stimulus/audwhat_stim/string cello_high-pitch_Dtri_loud.wav,stimulus/audwhat_stim/string viola_low-pitch_F_loud.wav,stimulus/audwhat_stim/match_blank.png,stimulus/audwhat_stim/match_box.png,stimulus/audwhat_stim/match_yes.png,stimulus/audwhat_stim/match_no.png,2.0,Match,Pitch,Category,2,5.125,0,5.125,0,5.125,0,5.125,0,0.625,0.625,0,0.0,0,0.0,0,0.0,0,0.0,1,0.5,1,2.125,1,0.5,1,2.125,0,,,,,0,47,47,47,,,,,,,,,432.1913175410009,437.3154591249986,432.1913175410009,432.1913175410009,432.1913175410009,432.1913175410009,432.6549295829973,433.65226745799737,432.66751033266723,433.6557945829991,434.2752172499968,435.27272775000165,434.28738154166444,,437.3154591249986,438.0445537909982,440.1249588330029,444.16504412500217,438.0445537909982,438.0445537909982,443.23708491599973,438.0445537909982,438.0445537909982,438.0445537909982,438.0445537909982,438.50422641600017,439.567991625001,438.47437529166587,,440.1249588330029,441.1979987079976,440.09493858266455,,438.0445537909982,443.23708491599973,438.0445537909982,443.23708491599973,443.23708491599973,443.89027191600326,438.0445537909982,2,1,0.6359719169995515,reldom2_s018,001,2025-02-21_12h18.17.762,What-A-Scan_AC,2022.2.5,None,
0,0.0,None,fixation,stimulus/audwhat_stim/blank_white.png,stimulus/audwhat_stim/blank_white.png,stimulus/viswhat_stim/blank_white.png,stimulus/viswhat_stim/blank_white.png,stimulus/audwhat_stim/blank_white.png,stimulus/audwhat_stim/blank_white.png,stimulus/audwhat_stim/blank_white.png,stimulus/audwhat_stim/blank_white.png,0.0,0.0,0.0,0.0,0,0.0,0,0.0,0,0.0,0,0.0,0,0.0,0.0,0,0.0,0,0.0,0,0.0,0,0.0,0,0.0,0,0.0,0,0.0,0,0.0,8,,,,,0,48,48,48,,,,,,,,,444.16504412500217,444.16504412500217,444.16504412500217,444.16504412500217,444.16504412500217,444.16504412500217,444.16504412500217,444.16504412500217,444.0648699583345,444.16504412500217,444.16504412500217,444.16504412500217,444.0648699583345,444.16504412500217,444.16504412500217,444.16504412500217,444.16504412500217,444.16504412500217,444.16504412500217,444.16504412500217,444.16504412500217,444.16504412500217,444.16504412500217,444.16504412500217,444.16504412500217,444.16504412500217,444.16504412500217,444.1148699583345,444.16504412500217,444.16504412500217,444.16504412500217,444.1148699583345,444.16504412500217,444.16504412500217,444.16504412500217,444.16504412500217,444.16504412500217,449.39219383300224,449.39219383300224,452.38249866599654,None,0,,reldom2_s018,001,2025-02-21_12h18.17.762,What-A-Scan_AC,2022.2.5,None,
37,First_Order,7.0,viswhat,stimulus/viswhat_stim/blank_white.png,stimulus/viswhat_stim/blank_white.png,stimulus/viswhat_stim/land_animal-zebra.png,stimulus/viswhat_stim/water_animal-squid.png,stimulus/viswhat_stim/blank_white.png,stimulus/viswhat_stim/type_box.png,stimulus/viswhat_stim/type_yes.png,stimulus/viswhat_stim/type_no.png,None,Type,None,Type,1,0.0,0,5.125,0,5.125,0,5.125,0,0.0,0.625,0,0.0,0,0.0,1,0.5,1,2.125,0,0.0,0,0.0,0,0.0,0,0.0,0,,,,,0,49,49,49,,,,,,,,,452.38249866599654,452.38249866599654,452.38249866599654,452.38249866599654,452.38249866599654,452.38249866599654,452.38249866599654,452.38249866599654,452.33576091666566,452.38249866599654,452.38249866599654,452.38249866599654,452.33576091666566,452.38249866599654,452.38249866599654,452.38249866599654,454.49256379099825,458.7122880829993,452.38249866599654,452.38249866599654,457.54085874999873,452.8698115410007,453.909840332999,454.49256379099825,455.53265850000025,452.38249866599654,452.38249866599654,452.35242758333237,452.38249866599654,452.38249866599654,452.38249866599654,452.35242758333237,452.38249866599654,452.38249866599654,457.54085874999873,452.38249866599654,457.54085874999873,457.59391954100283,458.2364072499986,452.38249866599654,1,1,1.1092563339989283,reldom2_s018,001,2025-02-21_12h18.17.762,What-A-Scan_AC,2022.2.5,None,
38,First_Order,7.0,viswhat,stimulus/viswhat_stim/blank_white.png,stimulus/viswhat_stim/blank_white.png,stimulus/viswhat_stim/water_vehicle-submarine.png,stimulus/viswhat_stim/water_animal-lobster.png,stimulus/viswhat_stim/blank_white.png,stimulus/viswhat_stim/location_box.png,stimulus/viswhat_stim/location_yes.png,stimulus/viswhat_stim/location_no.png,None,Location,None,Location,1,0.0,0,5.125,0,5.125,0,5.125,0,0.0,0.625,0,0.0,0,0.0,1,0.5,1,2.125,0,0.0,0,0.0,0,0.0,0,0.0,0,,,,,0,50,50,50,,,,,,,,,458.7122880829993,458.7122880829993,458.7122880829993,458.7122880829993,458.7122880829993,458.7122880829993,458.7122880829993,458.7122880829993,458.43262004166706,458.7122880829993,458.7122880829993,458.7122880829993,458.43262004166706,458.7122880829993,458.7122880829993,458.7122880829993,460.82338845799677,,458.7122880829993,458.7122880829993,463.9884260000035,459.1651465410032,460.37180191600055,460.82338845799677,462.03197004100366,458.7122880829993,458.7122880829993,458.5659533750004,458.7122880829993,458.7122880829993,458.7122880829993,458.5659533750004,458.7122880829993,458.7122880829993,463.9884260000035,458.7122880829993,463.9884260000035,463.84191487500357,,458.7122880829993,1,1,0.9591224589967169,reldom2_s018,001,2025-02-21_12h18.17.762,What-A-Scan_AC,2022.2.5,None,
39,First_Order,7.0,viswhat,stimulus/viswhat_stim/blank_white.png,stimulus/viswhat_stim/blank_white.png,stimulus/viswhat_stim/land_vehicle-vespa.png,stimulus/viswhat_stim/water_vehicle-yacht.png,stimulus/viswhat_stim/blank_white.png,stimulus/viswhat_stim/location_box.png,stimulus/viswhat_stim/location_yes.png,stimulus/viswhat_stim/location_no.png,None,Location,None,Type,2,0.0,0,5.125,0,5.125,0,5.125,0,0.0,0.625,0,0.0,0,0.0,1,0.5,1,2.125,0,0.0,0,0.0,0,0.0,0,0.0,0,,,,,0,51,51,51,,,,,,,,,464.6937508330011,464.6937508330011,464.6937508330011,464.6937508330011,464.6937508330011,464.6937508330011,464.6937508330011,464.6937508330011,464.628401208001,464.6937508330011,464.6937508330011,464.6937508330011,464.628401208001,464.6937508330011,464.6937508330011,464.6937508330011,466.80243770800007,470.7834549160034,464.6937508330011,464.6937508330011,469.84371187500074,465.1561696659992,466.21301816600317,466.80243770800007,467.86281966599927,464.6937508330011,464.6937508330011,464.66173454133434,464.6937508330011,464.6937508330011,464.6937508330011,464.66173454133434,464.6937508330011,464.6937508330011,469.84371187500074,464.6937508330011,469.84371187500074,469.9180064579996,470.57386579099693,464.6937508330011,2,1,0.8440987920039333,reldom2_s018,001,2025-02-21_12h18.17.762,What-A-Scan_AC,2022.2.5,None,
40,First_Order,7.0,viswhat,stimulus/viswhat_stim/blank_white.png,stimulus/viswhat_stim/blank_white.png,stimulus/viswhat_stim/water_vehicle-canoe.png,stimulus/viswhat_stim/water_animal-whale (1).png,stimulus/viswhat_stim/blank_white.png,stimulus/viswhat_stim/location_box.png,stimulus/viswhat_stim/location_yes.png,stimulus/viswhat_stim/location_no.png,None,Location,None,Location,1,0.0,0,5.125,0,5.125,0,5.125,0,0.0,0.625,0,0.0,0,0.0,1,0.5,1,2.125,0,0.0,0,0.0,0,0.0,0,0.0,0,,,,,0,52,52,52,,,,,,,,,470.7834549160034,470.7834549160034,470.7834549160034,470.7834549160034,470.7834549160034,470.7834549160034,470.7834549160034,470.7834549160034,470.7437168333364,470.7834549160034,470.7834549160034,470.7834549160034,470.7437168333364,470.7834549160034,470.7834549160034,470.7834549160034,472.86844291599846,476.9166595409988,470.7834549160034,470.7834549160034,475.93336229099805,471.2527719999998,472.2812611249974,472.86844291599846,473.90434070800256,470.7834549160034,470.7834549160034,470.76038350000306,470.7834549160034,470.7834549160034,470.7834549160034,470.76038350000306,470.7834549160034,470.7834549160034,475.93336229099805,470.7834549160034,475.93336229099805,476.0048686250011,476.6438713750031,470.7834549160034,1,1,0.9544645419955486,reldom2_s018,001,2025-02-21_12h18.17.762,What-A-Scan_AC,2022.2.5,None,
0,0.0,None,fixation,stimulus/audwhat_stim/blank_white.png,stimulus/audwhat_stim/blank_white.png,stimulus/viswhat_stim/blank_white.png,stimulus/viswhat_stim/blank_white.png,stimulus/audwhat_stim/blank_white.png,stimulus/audwhat_stim/blank_white.png,stimulus/audwhat_stim/blank_white.png,stimulus/audwhat_stim/blank_white.png,0.0,0.0,0.0,0.0,0,0.0,0,0.0,0,0.0,0,0.0,0,0.0,0.0,0,0.0,0,0.0,0,0.0,0,0.0,0,0.0,0,0.0,0,0.0,0,0.0,10,,,,,0,53,53,53,,,,,,,,,476.9166595409988,476.9166595409988,476.9166595409988,476.9166595409988,476.9166595409988,476.9166595409988,476.9166595409988,476.9166595409988,476.8145867500003,476.9166595409988,476.9166595409988,476.9166595409988,476.8145867500003,476.9166595409988,476.9166595409988,476.9166595409988,476.9166595409988,476.9166595409988,476.9166595409988,476.9166595409988,476.9166595409988,476.9166595409988,476.9166595409988,476.9166595409988,476.9166595409988,476.9166595409988,476.9166595409988,476.8645867500003,476.9166595409988,476.9166595409988,476.9166595409988,476.8645867500003,476.9166595409988,476.9166595409988,476.9166595409988,476.9166595409988,476.9166595409988,482.12701237500005,482.12701237500005,487.0822622909982,None,0,,reldom2_s018,001,2025-02-21_12h18.17.762,What-A-Scan_AC,2022.2.5,None,
41,Second_Order,7.0,viswhat,stimulus/viswhat_stim/water_vehicle-cruiser.png,stimulus/viswhat_stim/land_vehicle-bus.png,stimulus/viswhat_stim/land_animal-fox.png,stimulus/viswhat_stim/water_animal-dolphin.png,stimulus/audwhat_stim/match_blank.png,stimulus/audwhat_stim/match_box.png,stimulus/audwhat_stim/match_yes.png,stimulus/audwhat_stim/match_no.png,1.0,Match,Type,Type,1,5.125,0,5.125,0,5.125,0,5.125,0,0.75,0.75,1,0.5,1,2.125,1,0.5,1,2.125,0,0.0,0,0.0,0,0.0,0,0.0,0,,,,,0,54,54,54,,,,,,,,,487.0822622909982,492.20469654099725,487.51202041599754,488.49986404099764,489.1359958750036,490.1332746249973,487.0822622909982,487.0822622909982,487.0944485833306,487.0822622909982,487.0822622909982,487.0822622909982,487.0944485833306,487.0822622909982,492.20469654099725,493.01520549999987,495.0972830410028,499.0003976250009,493.01520549999987,493.01520549999987,498.1645535409989,493.46335516600084,494.4918126659977,495.0972830410028,496.107895000001,493.01520549999987,493.01520549999987,492.9896910409996,493.01520549999987,493.01520549999987,493.01520549999987,492.9896910409996,493.01520549999987,493.01520549999987,498.1645535409989,493.01520549999987,498.1645535409989,498.20596233299875,,493.01520549999987,1,1,0.6880747089962824,reldom2_s018,001,2025-02-21_12h18.17.762,What-A-Scan_AC,2022.2.5,None,
42,Second_Order,7.0,viswhat,stimulus/viswhat_stim/water_animal-whale.png,stimulus/viswhat_stim/water_vehicle-ferryboat.png,stimulus/viswhat_stim/land_vehicle-tank.png,stimulus/viswhat_stim/land_animal-wolf.png,stimulus/audwhat_stim/match_blank.png,stimulus/audwhat_stim/match_box.png,stimulus/audwhat_stim/match_yes.png,stimulus/audwhat_stim/match_no.png,1.0,Match,Location,Location,1,5.125,0,5.125,0,5.125,0,5.125,0,0.625,0.625,1,0.5,1,2.125,1,0.5,1,2.125,0,0.0,0,0.0,0,0.0,0,0.0,0,,,,,0,55,55,55,,,,,,,,,499.0003976250009,504.12022770800104,499.4585667909996,500.4570383329992,501.09636758299894,502.0937483750022,499.0003976250009,499.0003976250009,499.00011687466855,499.0003976250009,499.0003976250009,499.0003976250009,499.00011687466855,499.0003976250009,504.12022770800104,504.7940609159996,506.87785620799696,510.920697708003,504.7940609159996,504.7940609159996,509.92095395799697,505.2416175410035,506.2633589160032,506.87785620799696,507.90293825000117,504.7940609159996,504.7940609159996,504.7668205833329,504.7940609159996,504.7940609159996,504.7940609159996,504.7668205833329,504.7940609159996,504.7940609159996,509.92095395799697,504.7940609159996,509.92095395799697,509.9841776250032,510.61640449999686,504.7940609159996,1,1,0.8637428329966497,reldom2_s018,001,2025-02-21_12h18.17.762,What-A-Scan_AC,2022.2.5,None,
0,0.0,None,fixation,stimulus/audwhat_stim/blank_white.png,stimulus/audwhat_stim/blank_white.png,stimulus/viswhat_stim/blank_white.png,stimulus/viswhat_stim/blank_white.png,stimulus/audwhat_stim/blank_white.png,stimulus/audwhat_stim/blank_white.png,stimulus/audwhat_stim/blank_white.png,stimulus/audwhat_stim/blank_white.png,0.0,0.0,0.0,0.0,0,0.0,0,0.0,0,0.0,0,0.0,0,0.0,0.0,0,0.0,0,0.0,0,0.0,0,0.0,0,0.0,0,0.0,0,0.0,0,0.0,9,,,,,0,56,56,56,,,,,,,,,510.920697708003,510.920697708003,510.920697708003,510.920697708003,510.920697708003,510.920697708003,510.920697708003,510.920697708003,510.8155709163305,510.920697708003,510.920697708003,510.920697708003,510.8155709163305,510.920697708003,510.920697708003,510.920697708003,510.920697708003,510.920697708003,510.920697708003,510.920697708003,510.920697708003,510.920697708003,510.920697708003,510.920697708003,510.920697708003,510.920697708003,510.920697708003,510.88223758299716,510.920697708003,510.920697708003,510.920697708003,510.88223758299716,510.920697708003,510.920697708003,510.920697708003,510.920697708003,510.920697708003,516.1126424160029,516.1126424160029,520.1304120409986,None,0,,reldom2_s018,001,2025-02-21_12h18.17.762,What-A-Scan_AC,2022.2.5,None,
43,First_Order,8.0,viswhat,stimulus/viswhat_stim/blank_white.png,stimulus/viswhat_stim/blank_white.png,stimulus/viswhat_stim/water_vehicle-canoe.png,stimulus/viswhat_stim/water_animal-octopus.png,stimulus/viswhat_stim/blank_white.png,stimulus/viswhat_stim/type_box.png,stimulus/viswhat_stim/type_yes.png,stimulus/viswhat_stim/type_no.png,None,Type,None,Location,2,0.0,0,5.125,0,5.125,0,5.125,0,0.0,0.625,0,0.0,0,0.0,1,0.5,1,2.125,0,0.0,0,0.0,0,0.0,0,0.0,0,,,,,0,57,57,57,,,,,,,,,520.1304120409986,520.1304120409986,520.1304120409986,520.1304120409986,520.1304120409986,520.1304120409986,520.1304120409986,520.1304120409986,520.0782854996675,520.1304120409986,520.1304120409986,520.1304120409986,520.0782854996675,520.1304120409986,520.1304120409986,520.1304120409986,522.2233129579981,526.2124688330005,520.1304120409986,520.1304120409986,525.2780421659991,520.6105758749982,521.6393306660029,522.2233129579981,523.2563807499973,520.1304120409986,520.1304120409986,520.1116188330008,520.1304120409986,520.1304120409986,520.1304120409986,520.1116188330008,520.1304120409986,520.1304120409986,525.2780421659991,520.1304120409986,525.2780421659991,525.3354398750016,525.9959226659994,520.1304120409986,2,1,0.6805879579987959,reldom2_s018,001,2025-02-21_12h18.17.762,What-A-Scan_AC,2022.2.5,None,
44,First_Order,8.0,viswhat,stimulus/viswhat_stim/blank_white.png,stimulus/viswhat_stim/blank_white.png,stimulus/viswhat_stim/water_animal-octopus.png,stimulus/viswhat_stim/land_animal-snake.png,stimulus/viswhat_stim/blank_white.png,stimulus/viswhat_stim/type_box.png,stimulus/viswhat_stim/type_yes.png,stimulus/viswhat_stim/type_no.png,None,Type,None,Type,1,0.0,0,5.125,0,5.125,0,5.125,0,0.0,0.625,0,0.0,0,0.0,1,0.5,1,2.125,0,0.0,0,0.0,0,0.0,0,0.0,0,,,,,0,58,58,58,,,,,,,,,526.2124688330005,526.2124688330005,526.2124688330005,526.2124688330005,526.2124688330005,526.2124688330005,526.2124688330005,526.2124688330005,526.1696267076676,526.2124688330005,526.2124688330005,526.2124688330005,526.1696267076676,526.2124688330005,526.2124688330005,526.2124688330005,528.308715500003,532.2861740410008,526.2124688330005,526.2124688330005,531.3469925000027,526.6817982499997,527.7136959580021,528.308715500003,529.3453135829986,526.2124688330005,526.2124688330005,526.1862933743342,526.2124688330005,526.2124688330005,526.2124688330005,526.1862933743342,526.2124688330005,526.2124688330005,531.3469925000027,526.2124688330005,531.3469925000027,531.4233488750033,532.066004458,526.2124688330005,1,1,0.639913250997779,reldom2_s018,001,2025-02-21_12h18.17.762,What-A-Scan_AC,2022.2.5,None,
45,First_Order,8.0,viswhat,stimulus/viswhat_stim/blank_white.png,stimulus/viswhat_stim/blank_white.png,stimulus/viswhat_stim/land_vehicle-schoolbus.png,stimulus/viswhat_stim/land_animal-pig.png,stimulus/viswhat_stim/blank_white.png,stimulus/viswhat_stim/type_box.png,stimulus/viswhat_stim/type_yes.png,stimulus/viswhat_stim/type_no.png,None,Type,None,Location,2,0.0,0,5.125,0,5.125,0,5.125,0,0.0,0.625,0,0.0,0,0.0,1,0.5,1,2.125,0,0.0,0,0.0,0,0.0,0,0.0,0,,,,,0,59,59,59,,,,,,,,,532.2861740410008,532.2861740410008,532.2861740410008,532.2861740410008,532.2861740410008,532.2861740410008,532.2861740410008,532.2861740410008,532.2425840000011,532.2861740410008,532.2861740410008,532.2861740410008,532.2425840000011,532.2861740410008,532.2861740410008,532.2861740410008,534.3843384159991,538.4015771659979,532.2861740410008,532.2861740410008,537.4200632080028,532.7624617499969,533.7728866250036,534.3843384159991,535.4003853329996,532.2861740410008,532.2861740410008,532.2592506666678,532.2861740410008,532.2861740410008,532.2861740410008,532.2592506666678,532.2861740410008,532.2861740410008,537.4200632080028,532.2861740410008,537.4200632080028,537.504093083,538.1333799159984,532.2861740410008,2,1,0.6627287509982125,reldom2_s018,001,2025-02-21_12h18.17.762,What-A-Scan_AC,2022.2.5,None,
46,First_Order,8.0,viswhat,stimulus/viswhat_stim/blank_white.png,stimulus/viswhat_stim/blank_white.png,stimulus/viswhat_stim/land_vehicle-oldcar.png,stimulus/viswhat_stim/water_vehicle-powercruiser.png,stimulus/viswhat_stim/blank_white.png,stimulus/viswhat_stim/location_box.png,stimulus/viswhat_stim/location_yes.png,stimulus/viswhat_stim/location_no.png,None,Location,None,Type,2,0.0,0,5.125,0,5.125,0,5.125,0,0.0,0.625,0,0.0,0,0.0,1,0.5,1,2.125,0,0.0,0,0.0,0,0.0,0,0.0,0,,,,,0,60,60,60,,,,,,,,,538.4015771659979,538.4015771659979,538.4015771659979,538.4015771659979,538.4015771659979,538.4015771659979,538.4015771659979,538.4015771659979,538.3376884999976,538.4015771659979,538.4015771659979,538.4015771659979,538.3376884999976,538.4015771659979,538.4015771659979,538.4015771659979,540.5145925410034,,538.4015771659979,538.4015771659979,543.580171708003,538.856290165997,539.8921451249989,540.5145925410034,541.5543352079985,538.4015771659979,538.4015771659979,538.3710218333309,538.4015771659979,538.4015771659979,538.4015771659979,538.3710218333309,538.4015771659979,538.4015771659979,543.580171708003,538.4015771659979,543.580171708003,543.6160176249978,544.2596201659981,538.4015771659979,2,1,0.921589416997449,reldom2_s018,001,2025-02-21_12h18.17.762,What-A-Scan_AC,2022.2.5,None,
0,0.0,None,fixation,stimulus/audwhat_stim/blank_white.png,stimulus/audwhat_stim/blank_white.png,stimulus/viswhat_stim/blank_white.png,stimulus/viswhat_stim/blank_white.png,stimulus/audwhat_stim/blank_white.png,stimulus/audwhat_stim/blank_white.png,stimulus/audwhat_stim/blank_white.png,stimulus/audwhat_stim/blank_white.png,0.0,0.0,0.0,0.0,0,0.0,0,0.0,0,0.0,0,0.0,0,0.0,0.0,0,0.0,0,0.0,0,0.0,0,0.0,0,0.0,0,0.0,0,0.0,0,0.0,9,,,,,0,61,61,61,,,,,,,,,544.5213704580019,544.5213704580019,544.5213704580019,544.5213704580019,544.5213704580019,544.5213704580019,544.5213704580019,544.5213704580019,544.4282301243312,544.5213704580019,544.5213704580019,544.5213704580019,544.4282301243312,544.5213704580019,544.5213704580019,544.5213704580019,544.5213704580019,544.5213704580019,544.5213704580019,544.5213704580019,544.5213704580019,544.5213704580019,544.5213704580019,544.5213704580019,544.5213704580019,544.5213704580019,544.5213704580019,544.4782301243312,544.5213704580019,544.5213704580019,544.5213704580019,544.4782301243312,544.5213704580019,544.5213704580019,544.5213704580019,544.5213704580019,544.5213704580019,549.7427331660001,549.7427331660001,553.712553874997,None,0,,reldom2_s018,001,2025-02-21_12h18.17.762,What-A-Scan_AC,2022.2.5,None,
47,Second_Order,8.0,viswhat,stimulus/viswhat_stim/water_animal-dolphin.png,stimulus/viswhat_stim/water_vehicle-cruiseship.png,stimulus/viswhat_stim/land_vehicle-oldcar.png,stimulus/viswhat_stim/land_animal-giraffe.png,stimulus/audwhat_stim/match_blank.png,stimulus/audwhat_stim/match_box.png,stimulus/audwhat_stim/match_yes.png,stimulus/audwhat_stim/match_no.png,1.0,Match,Location,Location,1,5.125,0,5.125,0,5.125,0,5.125,0,0.75,0.75,1,0.5,1,2.125,1,0.5,1,2.125,0,0.0,0,0.0,0,0.0,0,0.0,0,,,,,0,62,62,62,,,,,,,,,553.712553874997,558.8294459579993,554.1135363330031,555.1036583329987,555.7403223750007,556.7368893329985,553.712553874997,553.712553874997,553.7267990416653,553.712553874997,553.712553874997,553.712553874997,553.7267990416653,553.712553874997,558.8294459579993,559.7212104159989,561.7881682079969,,559.7212104159989,559.7212104159989,564.932027916002,560.121945040999,561.1893056249974,561.7881682079969,562.8650542910036,559.7212104159989,559.7212104159989,559.6635553329994,559.7212104159989,559.7212104159989,559.7212104159989,559.6635553329994,559.7212104159989,559.7212104159989,564.932027916002,559.7212104159989,564.932027916002,564.8705281250004,,559.7212104159989,1,1,1.05849766699248,reldom2_s018,001,2025-02-21_12h18.17.762,What-A-Scan_AC,2022.2.5,None,
48,Second_Order,8.0,viswhat,stimulus/viswhat_stim/land_animal-ostrich.png,stimulus/viswhat_stim/water_animal-shark.png,stimulus/viswhat_stim/water_animal-whale.png,stimulus/viswhat_stim/water_vehicle-cargoboat.png,stimulus/audwhat_stim/match_blank.png,stimulus/audwhat_stim/match_box.png,stimulus/audwhat_stim/match_yes.png,stimulus/audwhat_stim/match_no.png,2.0,Match,Type,Location,2,5.125,0,5.125,0,5.125,0,5.125,0,0.625,0.625,1,0.5,1,2.125,1,0.5,1,2.125,0,0.0,0,0.0,0,0.0,0,0.0,0,,,,,0,63,63,63,,,,,,,,,565.694707583003,570.8072898329992,566.1590281250028,567.1472169999979,567.7846350000036,568.7813275410008,565.694707583003,565.694707583003,565.7084204996669,565.694707583003,565.694707583003,565.694707583003,565.7084204996669,565.694707583003,570.8072898329992,571.4984813330011,573.5569840000026,577.6201158749973,571.4984813330011,571.4984813330011,576.6381862499984,571.9553294580037,572.9725092500012,573.5569840000026,574.5802055410022,571.4984813330011,571.4984813330011,571.4707939159969,571.4984813330011,571.4984813330011,571.4984813330011,571.4707939159969,571.4984813330011,571.4984813330011,576.6381862499984,571.4984813330011,576.6381862499984,576.6805092499999,577.312963999997,571.4984813330011,2,1,0.7323994589969516,reldom2_s018,001,2025-02-21_12h18.17.762,What-A-Scan_AC,2022.2.5,None,
0,0.0,None,fixation,stimulus/audwhat_stim/blank_white.png,stimulus/audwhat_stim/blank_white.png,stimulus/viswhat_stim/blank_white.png,stimulus/viswhat_stim/blank_white.png,stimulus/audwhat_stim/blank_white.png,stimulus/audwhat_stim/blank_white.png,stimulus/audwhat_stim/blank_white.png,stimulus/audwhat_stim/blank_white.png,0.0,0.0,0.0,0.0,0,0.0,0,0.0,0,0.0,0,0.0,0,0.0,0.0,0,0.0,0,0.0,0,0.0,0,0.0,0,0.0,0,0.0,0,0.0,0,0.0,16,,,,,0,64,64,64,,,,,,,,,577.6201158749973,577.6201158749973,577.6201158749973,577.6201158749973,577.6201158749973,577.6201158749973,577.6201158749973,577.6201158749973,577.5181192079996,577.6201158749973,577.6201158749973,577.6201158749973,577.5181192079996,577.6201158749973,577.6201158749973,577.6201158749973,577.6201158749973,577.6201158749973,577.6201158749973,577.6201158749973,577.6201158749973,577.6201158749973,577.6201158749973,577.6201158749973,577.6201158749973,577.6201158749973,577.6201158749973,577.5681192079995,577.6201158749973,577.6201158749973,577.6201158749973,577.5681192079995,577.6201158749973,577.6201158749973,577.6201158749973,577.6201158749973,577.6201158749973,582.8158639579997,582.8158639579997,593.7836265000005,None,0,,reldom2_s018,001,2025-02-21_12h18.17.762,What-A-Scan_AC,2022.2.5,None,
