Trial,Order,Block,Type,Stimuli_File1,Stimuli_File2,Stimuli_File3,Stimuli_File4,Cue_File1,Cue_File2,Response_File_Yes,Response_File_No,Match,Cue_Dimension,Pair1_Dimension,Pair2_Dimension,Key,Cue1_Duration,Cue1_Onset,Cue2_Duration,Cue2_Onset,ResponseYes_Duration,ResponseYes_Onset,ResponseNo_Duration,ResponseNo_Onset,ITI_Within,ITI_Between,Image1_Duration,Image1_Onset,Image2_Duration,Image2_Onset,Image3_Duration,Image3_Onset,Image4_Duration,Image4_Onset,Sound1_Duration,Sound1_Onset,Sound2_Duration,Sound2_Onset,Sound3_Duration,Sound3_Onset,Sound4_Duration,Sound4_Onset,Fixation_Duration,trials_2.thisRepN,trials_2.thisTrialN,trials_2.thisN,trials_2.thisIndex,trials.thisRepN,trials.thisTrialN,trials.thisN,trials.thisIndex,text_start.started,key_resp_start.started,key_resp_start.keys,key_resp_start.rt,text2.started,key_resp_2.started,key_resp_2.keys,key_resp_2.rt,cue_file1.started,cue_file1.stopped,image_1.started,image_1.stopped,image_2.started,image_2.stopped,sound_icon1.started,sound_icon1.stopped,sound_1.started,sound_1.stopped,sound_icon2.started,sound_icon2.stopped,sound_2.started,sound_2.stopped,image_blank_1.started,image_blank_1.stopped,key_press.started,key_press.stopped,fixation_text.started,cue_file2.started,cue_file2.stopped,image_3.started,image_3.stopped,image_4.started,image_4.stopped,sound_icon3.started,sound_icon3.stopped,sound_3.started,sound_3.stopped,sound_icon4.started,sound_icon4.stopped,sound_4.started,sound_4.stopped,response_yes.started,response_yes.stopped,response_no.started,response_no.stopped,iti_blank.started,iti_blank.stopped,fixation_text.stopped,key_press.keys,key_press.corr,key_press.rt,participant,session,date,expName,psychopyVersion,frameRate,
,,,,,,,,,,,,,,,,,,,,,,,,,,,,,,,,,,,,,,,,,,,,,,,,,,,,7.893875957997807,7.893875957997807,2,1.3703824170006556,,,,,,,,,,,,,,,,,,,,,,,,,,,,,,,,,,,,,,,,,,,,,,,,reldom2_s018,001,2025-02-21_12h29.32.705,Where-A-Scan_AC,2022.2.5,None,
,,,,,,,,,,,,,,,,,,,,,,,,,,,,,,,,,,,,,,,,,,,,0,0,0,0,,,,,,,,,9.305858832995,9.305858832995,5,17.57156045800366,,,,,,,,,,,,,,,,,,,,,,,,,,,,,,,,,,,,,,,,,,,,reldom2_s018,001,2025-02-21_12h29.32.705,Where-A-Scan_AC,2022.2.5,None,
,,,,,,,,,,,,,,,,,,,,,,,,,,,,,,,,,,,,,,,,,,,,1,0,1,0,,,,,,,,,26.89480745799665,26.89480745799665,5,1.982616749999579,,,,,,,,,,,,,,,,,,,,,,,,,,,,,,,,,,,,,,,,,,,,reldom2_s018,001,2025-02-21_12h29.32.705,Where-A-Scan_AC,2022.2.5,None,
,,,,,,,,,,,,,,,,,,,,,,,,,,,,,,,,,,,,,,,,,,,,2,0,2,0,,,,,,,,,28.89341141699697,28.89341141699697,5,1.9842462500018883,,,,,,,,,,,,,,,,,,,,,,,,,,,,,,,,,,,,,,,,,,,,reldom2_s018,001,2025-02-21_12h29.32.705,Where-A-Scan_AC,2022.2.5,None,
,,,,,,,,,,,,,,,,,,,,,,,,,,,,,,,,,,,,,,,,,,,,3,0,3,0,,,,,,,,,30.88374416699662,30.88374416699662,5,1.9925339160035946,,,,,,,,,,,,,,,,,,,,,,,,,,,,,,,,,,,,,,,,,,,,reldom2_s018,001,2025-02-21_12h29.32.705,Where-A-Scan_AC,2022.2.5,None,
0,0.0,None,fixation,stimulus/viswhere_stim/blank_white.png,stimulus/viswhere_stim/blank_white.png,stimulus/audwhere_stim/blank_white.png,stimulus/audwhere_stim/blank_white.png,stimulus/viswhere_stim/blank_white.png,stimulus/viswhere_stim/blank_white.png,stimulus/viswhere_stim/blank_white.png,stimulus/viswhere_stim/blank_white.png,0.0,0.0,0.0,0.0,0,0.0,0,0.0,0,0.0,0,0.0,0,0.0,0.0,0,0.0,0,0.0,0,0.0,0,0.0,0,0.0,0,0.0,0,0.0,0,0.0,16,,,,,0,0,0,0,,,,,,,,,33.09705566699995,33.09705566699995,33.09705566699995,33.09705566699995,33.09705566699995,33.09705566699995,33.09705566699995,33.09705566699995,32.99983216666248,33.09705566699995,33.09705566699995,33.09705566699995,32.99983216666248,33.09705566699995,33.09705566699995,33.09705566699995,33.09705566699995,33.09705566699995,33.09705566699995,33.09705566699995,33.09705566699995,33.09705566699995,33.09705566699995,33.09705566699995,33.09705566699995,33.09705566699995,33.09705566699995,33.049832166662476,33.09705566699995,33.09705566699995,33.09705566699995,33.049832166662476,33.09705566699995,33.09705566699995,33.09705566699995,33.09705566699995,33.09705566699995,38.292715416995634,38.292715416995634,49.25758187499741,None,0,,reldom2_s018,001,2025-02-21_12h29.32.705,Where-A-Scan_AC,2022.2.5,None,
1,First_Order,1.0,viswhere,stimulus/viswhere_stim/blank_white.png,stimulus/viswhere_stim/blank_white.png,stimulus/viswhere_stim/60-deg_dot-left_peru.png,stimulus/viswhere_stim/60-deg_dot-right_turquoise.png,stimulus/viswhere_stim/blank_white.png,stimulus/viswhere_stim/dot_box.png,stimulus/viswhere_stim/dot_yes.png,stimulus/viswhere_stim/dot_no.png,None,Dot,None,Line,2,0.0,0,5.125,0,5.125,0,5.125,0,0.0,0.625,0,0.0,0,0.0,1,0.5,1,2.125,0,0.0,0,0.0,0,0.0,0,0.0,0,,,,,0,1,1,1,,,,,,,,,49.25758187499741,49.25758187499741,49.25758187499741,49.25758187499741,49.25758187499741,49.25758187499741,49.25758187499741,49.25758187499741,49.23366916699742,49.25758187499741,49.25758187499741,49.25758187499741,49.23366916699742,49.25758187499741,49.25758187499741,49.25758187499741,51.36692949999997,55.33733187499456,49.25758187499741,49.25758187499741,54.39895129199431,49.73291037499439,50.73955808299797,51.36692949999997,52.37850483299553,49.25758187499741,49.25758187499741,49.25033583366409,49.25758187499741,49.25758187499741,49.25758187499741,49.25033583366409,49.25758187499741,49.25758187499741,54.39895129199431,49.25758187499741,54.39895129199431,54.48213720799686,55.10366283299663,49.25758187499741,2,1,0.857579291005095,reldom2_s018,001,2025-02-21_12h29.32.705,Where-A-Scan_AC,2022.2.5,None,
2,First_Order,1.0,viswhere,stimulus/viswhere_stim/blank_white.png,stimulus/viswhere_stim/blank_white.png,stimulus/viswhere_stim/60-deg_dot-right_turquoise.png,stimulus/viswhere_stim/60-deg_dot-left_turquoise.png,stimulus/viswhere_stim/blank_white.png,stimulus/viswhere_stim/line_box.png,stimulus/viswhere_stim/line_yes.png,stimulus/viswhere_stim/line_no.png,None,Line,None,Line,1,0.0,0,5.125,0,5.125,0,5.125,0,0.0,0.625,0,0.0,0,0.0,1,0.5,1,2.125,0,0.0,0,0.0,0,0.0,0,0.0,0,,,,,0,2,2,2,,,,,,,,,55.33733187499456,55.33733187499456,55.33733187499456,55.33733187499456,55.33733187499456,55.33733187499456,55.33733187499456,55.33733187499456,55.31723470832852,55.33733187499456,55.33733187499456,55.33733187499456,55.31723470832852,55.33733187499456,55.33733187499456,55.33733187499456,57.43547329199646,61.41766174999793,55.33733187499456,55.33733187499456,60.46279683299508,55.81415108299552,56.825850291999814,57.43547329199646,58.45375141699333,55.33733187499456,55.33733187499456,55.333901374995186,55.33733187499456,55.33733187499456,55.33733187499456,55.333901374995186,55.33733187499456,55.33733187499456,60.46279683299508,55.33733187499456,60.46279683299508,60.55975899999612,61.18803666699387,55.33733187499456,1,1,0.7665143750054995,reldom2_s018,001,2025-02-21_12h29.32.705,Where-A-Scan_AC,2022.2.5,None,
3,First_Order,1.0,viswhere,stimulus/viswhere_stim/blank_white.png,stimulus/viswhere_stim/blank_white.png,stimulus/viswhere_stim/30-deg_dot-left_salmon.png,stimulus/viswhere_stim/120-deg_dot-left_royalblue.png,stimulus/viswhere_stim/blank_white.png,stimulus/viswhere_stim/line_box.png,stimulus/viswhere_stim/line_yes.png,stimulus/viswhere_stim/line_no.png,None,Line,None,Dot,2,0.0,0,5.125,0,5.125,0,5.125,0,0.0,0.625,0,0.0,0,0.0,1,0.5,1,2.125,0,0.0,0,0.0,0,0.0,0,0.0,0,,,,,0,3,3,3,,,,,,,,,61.41766174999793,61.41766174999793,61.41766174999793,61.41766174999793,61.41766174999793,61.41766174999793,61.41766174999793,61.41766174999793,61.39795916632769,61.41766174999793,61.41766174999793,61.41766174999793,61.39795916632769,61.41766174999793,61.41766174999793,61.41766174999793,63.52301983299549,67.47733429199434,61.41766174999793,61.41766174999793,66.55168724999385,61.89621599999373,62.91193591699994,63.52301983299549,64.54261949999636,61.41766174999793,61.41766174999793,61.39795916632769,61.41766174999793,61.41766174999793,61.41766174999793,61.39795916632769,61.41766174999793,61.41766174999793,66.55168724999385,61.41766174999793,66.55168724999385,66.64797133299726,67.27496674999566,61.41766174999793,2,1,0.6314467080010218,reldom2_s018,001,2025-02-21_12h29.32.705,Where-A-Scan_AC,2022.2.5,None,
4,First_Order,1.0,viswhere,stimulus/viswhere_stim/blank_white.png,stimulus/viswhere_stim/blank_white.png,stimulus/viswhere_stim/150-deg_dot-right_salmon.png,stimulus/viswhere_stim/90-deg_dot-right_goldenrod.png,stimulus/viswhere_stim/blank_white.png,stimulus/viswhere_stim/line_box.png,stimulus/viswhere_stim/line_yes.png,stimulus/viswhere_stim/line_no.png,None,Line,None,Dot,2,0.0,0,5.125,0,5.125,0,5.125,0,0.0,0.625,0,0.0,0,0.0,1,0.5,1,2.125,0,0.0,0,0.0,0,0.0,0,0.0,0,,,,,0,4,4,4,,,,,,,,,67.47733429199434,67.47733429199434,67.47733429199434,67.47733429199434,67.47733429199434,67.47733429199434,67.47733429199434,67.47733429199434,67.45555737532898,67.47733429199434,67.47733429199434,67.47733429199434,67.45555737532898,67.47733429199434,67.47733429199434,67.47733429199434,69.57672329199704,73.62501649999467,67.47733429199434,67.47733429199434,72.61062824999681,67.95905112499895,68.97987062500033,69.57672329199704,70.58449170799577,67.47733429199434,67.47733429199434,67.47222404199564,67.47733429199434,67.47733429199434,67.47733429199434,67.47222404199564,67.47733429199434,67.47733429199434,72.61062824999681,67.47733429199434,72.61062824999681,72.69911333299387,73.33030399999552,67.47733429199434,2,1,0.8614487500090036,reldom2_s018,001,2025-02-21_12h29.32.705,Where-A-Scan_AC,2022.2.5,None,
0,0.0,None,fixation,stimulus/viswhere_stim/blank_white.png,stimulus/viswhere_stim/blank_white.png,stimulus/audwhere_stim/blank_white.png,stimulus/audwhere_stim/blank_white.png,stimulus/viswhere_stim/blank_white.png,stimulus/viswhere_stim/blank_white.png,stimulus/viswhere_stim/blank_white.png,stimulus/viswhere_stim/blank_white.png,0.0,0.0,0.0,0.0,0,0.0,0,0.0,0,0.0,0,0.0,0,0.0,0.0,0,0.0,0,0.0,0,0.0,0,0.0,0,0.0,0,0.0,0,0.0,0,0.0,9,,,,,0,5,5,5,,,,,,,,,73.62501649999467,73.62501649999467,73.62501649999467,73.62501649999467,73.62501649999467,73.62501649999467,73.62501649999467,73.62501649999467,73.52576287532914,73.62501649999467,73.62501649999467,73.62501649999467,73.52576287532914,73.62501649999467,73.62501649999467,73.62501649999467,73.62501649999467,73.62501649999467,73.62501649999467,73.62501649999467,73.62501649999467,73.62501649999467,73.62501649999467,73.62501649999467,73.62501649999467,73.62501649999467,73.62501649999467,73.57576287532913,73.62501649999467,73.62501649999467,73.62501649999467,73.57576287532913,73.62501649999467,73.62501649999467,73.62501649999467,73.62501649999467,73.62501649999467,78.81007787499402,78.81007787499402,82.7775106669942,None,0,,reldom2_s018,001,2025-02-21_12h29.32.705,Where-A-Scan_AC,2022.2.5,None,
5,Second_Order,1.0,viswhere,stimulus/viswhere_stim/90-deg_dot-right_mediumslateblue.png,stimulus/viswhere_stim/90-deg_dot-left_peru.png,stimulus/viswhere_stim/150-deg_dot-left_seagreen.png,stimulus/viswhere_stim/120-deg_dot-left_mediumslateblue.png,stimulus/viswhere_stim/match_blank.png,stimulus/viswhere_stim/match_box.png,stimulus/viswhere_stim/match_yes.png,stimulus/viswhere_stim/match_no.png,2.0,Match,Line,Dot,2,5.125,0,5.125,0,5.125,0,5.125,0,0.75,0.75,1,0.5,1,2.125,1,0.5,1,2.125,0,0.0,0,0.0,0,0.0,0,0.0,0,,,,,0,6,6,6,,,,,,,,,82.7775106669942,87.89884637499927,83.25309983299667,84.2519012499979,84.88722649999545,85.87596225000016,82.7775106669942,82.7775106669942,82.79155716632715,82.7775106669942,82.7775106669942,82.7775106669942,82.79155716632715,82.7775106669942,87.89884637499927,88.69294416699995,90.75980091699603,94.6582101669992,88.69294416699995,88.69294416699995,93.82311045799725,89.14216387499619,90.14457566700003,90.75980091699603,91.7728290419982,88.69294416699995,88.69294416699995,88.68156045799405,88.69294416699995,88.69294416699995,88.69294416699995,88.68156045799405,88.69294416699995,88.69294416699995,93.82311045799725,88.69294416699995,93.82311045799725,93.89209762499377,,88.69294416699995,2,1,0.7938749170061783,reldom2_s018,001,2025-02-21_12h29.32.705,Where-A-Scan_AC,2022.2.5,None,
6,Second_Order,1.0,viswhere,stimulus/viswhere_stim/60-deg_dot-right_salmon.png,stimulus/viswhere_stim/150-deg_dot-right_cyan.png,stimulus/viswhere_stim/120-deg_dot-left_lightsseagreen.png,stimulus/viswhere_stim/90-deg_dot-left_goldenrod.png,stimulus/viswhere_stim/match_blank.png,stimulus/viswhere_stim/match_box.png,stimulus/viswhere_stim/match_yes.png,stimulus/viswhere_stim/match_no.png,1.0,Match,Dot,Dot,1,5.125,0,5.125,0,5.125,0,5.125,0,0.625,0.625,1,0.5,1,2.125,1,0.5,1,2.125,0,0.0,0,0.0,0,0.0,0,0.0,0,,,,,0,7,7,7,,,,,,,,,94.6582101669992,99.77546395799436,95.14336070799618,96.13333120799507,96.76866329199402,97.76632220799365,94.6582101669992,94.6582101669992,94.67168470799952,94.6582101669992,94.6582101669992,94.6582101669992,94.67168470799952,94.6582101669992,99.77546395799436,100.4479163329961,102.52188666699658,106.55996975000016,100.4479163329961,100.4479163329961,105.58348562500032,100.89289462499437,101.90951762499753,102.52188666699658,103.52794179199554,100.4479163329961,100.4479163329961,100.42246754132842,100.4479163329961,100.4479163329961,100.4479163329961,100.42246754132842,100.4479163329961,100.4479163329961,105.58348562500032,100.4479163329961,105.58348562500032,105.6378434579965,106.26560383299511,100.4479163329961,1,1,0.6153034590097377,reldom2_s018,001,2025-02-21_12h29.32.705,Where-A-Scan_AC,2022.2.5,None,
0,0.0,None,fixation,stimulus/viswhere_stim/blank_white.png,stimulus/viswhere_stim/blank_white.png,stimulus/audwhere_stim/blank_white.png,stimulus/audwhere_stim/blank_white.png,stimulus/viswhere_stim/blank_white.png,stimulus/viswhere_stim/blank_white.png,stimulus/viswhere_stim/blank_white.png,stimulus/viswhere_stim/blank_white.png,0.0,0.0,0.0,0.0,0,0.0,0,0.0,0,0.0,0,0.0,0,0.0,0.0,0,0.0,0,0.0,0,0.0,0,0.0,0,0.0,0,0.0,0,0.0,0,0.0,8,,,,,0,8,8,8,,,,,,,,,106.55996975000016,106.55996975000016,106.55996975000016,106.55996975000016,106.55996975000016,106.55996975000016,106.55996975000016,106.55996975000016,106.45901479133074,106.55996975000016,106.55996975000016,106.55996975000016,106.45901479133074,106.55996975000016,106.55996975000016,106.55996975000016,106.55996975000016,106.55996975000016,106.55996975000016,106.55996975000016,106.55996975000016,106.55996975000016,106.55996975000016,106.55996975000016,106.55996975000016,106.55996975000016,106.55996975000016,106.50901479133074,106.55996975000016,106.55996975000016,106.55996975000016,106.50901479133074,106.55996975000016,106.55996975000016,106.55996975000016,106.55996975000016,106.55996975000016,111.78276020799967,111.78276020799967,114.73934412499511,None,0,,reldom2_s018,001,2025-02-21_12h29.32.705,Where-A-Scan_AC,2022.2.5,None,
7,First_Order,2.0,viswhere,stimulus/viswhere_stim/blank_white.png,stimulus/viswhere_stim/blank_white.png,stimulus/viswhere_stim/30-deg_dot-right_cyan.png,stimulus/viswhere_stim/30-deg_dot-left_cyan.png,stimulus/viswhere_stim/blank_white.png,stimulus/viswhere_stim/line_box.png,stimulus/viswhere_stim/line_yes.png,stimulus/viswhere_stim/line_no.png,None,Line,None,Line,1,0.0,0,5.125,0,5.125,0,5.125,0,0.0,0.625,0,0.0,0,0.0,1,0.5,1,2.125,0,0.0,0,0.0,0,0.0,0,0.0,0,,,,,0,9,9,9,,,,,,,,,114.73934412499511,114.73934412499511,114.73934412499511,114.73934412499511,114.73934412499511,114.73934412499511,114.73934412499511,114.73934412499511,114.71907895866268,114.73934412499511,114.73934412499511,114.73934412499511,114.71907895866268,114.73934412499511,114.73934412499511,114.73934412499511,116.84641279199423,120.80306616699818,114.73934412499511,114.73934412499511,119.88323224999476,115.22103120799875,116.23513595799886,116.84641279199423,117.85163033299614,114.73934412499511,114.73934412499511,114.73574562532934,114.73934412499511,114.73934412499511,114.73934412499511,114.73574562532934,114.73934412499511,114.73934412499511,119.88323224999476,114.73934412499511,119.88323224999476,119.9550339999987,120.58734108299541,114.73934412499511,1,1,0.7093097920078435,reldom2_s018,001,2025-02-21_12h29.32.705,Where-A-Scan_AC,2022.2.5,None,
8,First_Order,2.0,viswhere,stimulus/viswhere_stim/blank_white.png,stimulus/viswhere_stim/blank_white.png,stimulus/viswhere_stim/60-deg_dot-right_slateblue.png,stimulus/viswhere_stim/60-deg_dot-left_goldenrod.png,stimulus/viswhere_stim/blank_white.png,stimulus/viswhere_stim/dot_box.png,stimulus/viswhere_stim/dot_yes.png,stimulus/viswhere_stim/dot_no.png,None,Dot,None,Line,2,0.0,0,5.125,0,5.125,0,5.125,0,0.0,0.625,0,0.0,0,0.0,1,0.5,1,2.125,0,0.0,0,0.0,0,0.0,0,0.0,0,,,,,0,10,10,10,,,,,,,,,120.80306616699818,120.80306616699818,120.80306616699818,120.80306616699818,120.80306616699818,120.80306616699818,120.80306616699818,120.80306616699818,120.78171641633283,120.80306616699818,120.80306616699818,120.80306616699818,120.78171641633283,120.80306616699818,120.80306616699818,120.80306616699818,122.90598095799942,126.86012670799391,120.80306616699818,120.80306616699818,125.93306495799334,121.2830645829963,122.29427416699764,122.90598095799942,123.92228654199425,120.80306616699818,120.80306616699818,120.7983830829995,120.80306616699818,120.80306616699818,120.80306616699818,120.7983830829995,120.80306616699818,120.80306616699818,125.93306495799334,120.80306616699818,125.93306495799334,126.03057687499677,126.65937637499883,120.80306616699818,2,1,1.1518765000073472,reldom2_s018,001,2025-02-21_12h29.32.705,Where-A-Scan_AC,2022.2.5,None,
9,First_Order,2.0,viswhere,stimulus/viswhere_stim/blank_white.png,stimulus/viswhere_stim/blank_white.png,stimulus/viswhere_stim/90-deg_dot-right_cyan.png,stimulus/viswhere_stim/60-deg_dot-right_slateblue.png,stimulus/viswhere_stim/blank_white.png,stimulus/viswhere_stim/dot_box.png,stimulus/viswhere_stim/dot_yes.png,stimulus/viswhere_stim/dot_no.png,None,Dot,None,Dot,1,0.0,0,5.125,0,5.125,0,5.125,0,0.0,0.625,0,0.0,0,0.0,1,0.5,1,2.125,0,0.0,0,0.0,0,0.0,0,0.0,0,,,,,0,11,11,11,,,,,,,,,126.86012670799391,126.86012670799391,126.86012670799391,126.86012670799391,126.86012670799391,126.86012670799391,126.86012670799391,126.86012670799391,126.83973829132931,126.86012670799391,126.86012670799391,126.86012670799391,126.83973829132931,126.86012670799391,126.86012670799391,126.86012670799391,128.9664788749942,132.92287450000003,126.86012670799391,126.86012670799391,131.9967885829974,127.33930754199537,128.35440754199954,128.9664788749942,129.98603145800007,126.86012670799391,126.86012670799391,126.85640495799598,126.86012670799391,126.86012670799391,126.86012670799391,126.85640495799598,126.86012670799391,126.86012670799391,131.9967885829974,126.86012670799391,131.9967885829974,132.08030887499626,132.70641283299483,126.86012670799391,1,1,0.8261696670087986,reldom2_s018,001,2025-02-21_12h29.32.705,Where-A-Scan_AC,2022.2.5,None,
10,First_Order,2.0,viswhere,stimulus/viswhere_stim/blank_white.png,stimulus/viswhere_stim/blank_white.png,stimulus/viswhere_stim/60-deg_dot-left_mediumslateblue.png,stimulus/viswhere_stim/150-deg_dot-left_peru.png,stimulus/viswhere_stim/blank_white.png,stimulus/viswhere_stim/dot_box.png,stimulus/viswhere_stim/dot_yes.png,stimulus/viswhere_stim/dot_no.png,None,Dot,None,Dot,1,0.0,0,5.125,0,5.125,0,5.125,0,0.0,0.625,0,0.0,0,0.0,1,0.5,1,2.125,0,0.0,0,0.0,0,0.0,0,0.0,0,,,,,0,12,12,12,,,,,,,,,132.92287450000003,132.92287450000003,132.92287450000003,132.92287450000003,132.92287450000003,132.92287450000003,132.92287450000003,132.92287450000003,132.90064141632806,132.92287450000003,132.92287450000003,132.92287450000003,132.90064141632806,132.92287450000003,132.92287450000003,132.92287450000003,135.03687883299426,139.07169845799945,132.92287450000003,132.92287450000003,138.06093312499434,133.40363995799999,134.42108495799766,135.03687883299426,136.04262308299803,132.92287450000003,132.92287450000003,132.91730808299474,132.92287450000003,132.92287450000003,132.92287450000003,132.91730808299474,132.92287450000003,132.92287450000003,138.06093312499434,132.92287450000003,138.06093312499434,138.1447106669948,138.7767466249934,132.92287450000003,1,1,0.7538419170086854,reldom2_s018,001,2025-02-21_12h29.32.705,Where-A-Scan_AC,2022.2.5,None,
0,0.0,None,fixation,stimulus/viswhere_stim/blank_white.png,stimulus/viswhere_stim/blank_white.png,stimulus/audwhere_stim/blank_white.png,stimulus/audwhere_stim/blank_white.png,stimulus/viswhere_stim/blank_white.png,stimulus/viswhere_stim/blank_white.png,stimulus/viswhere_stim/blank_white.png,stimulus/viswhere_stim/blank_white.png,0.0,0.0,0.0,0.0,0,0.0,0,0.0,0,0.0,0,0.0,0,0.0,0.0,0,0.0,0,0.0,0,0.0,0,0.0,0,0.0,0,0.0,0,0.0,0,0.0,10,,,,,0,13,13,13,,,,,,,,,139.07169845799945,139.07169845799945,139.07169845799945,139.07169845799945,139.07169845799945,139.07169845799945,139.07169845799945,139.07169845799945,138.97184212533224,139.07169845799945,139.07169845799945,139.07169845799945,138.97184212533224,139.07169845799945,139.07169845799945,139.07169845799945,139.07169845799945,139.07169845799945,139.07169845799945,139.07169845799945,139.07169845799945,139.07169845799945,139.07169845799945,139.07169845799945,139.07169845799945,139.07169845799945,139.07169845799945,139.02184212533226,139.07169845799945,139.07169845799945,139.07169845799945,139.02184212533226,139.07169845799945,139.07169845799945,139.07169845799945,139.07169845799945,139.07169845799945,144.2743589169986,144.2743589169986,149.22132299999794,None,0,,reldom2_s018,001,2025-02-21_12h29.32.705,Where-A-Scan_AC,2022.2.5,None,
11,Second_Order,2.0,viswhere,stimulus/viswhere_stim/120-deg_dot-right_turquoise.png,stimulus/viswhere_stim/120-deg_dot-left_goldenrod.png,stimulus/viswhere_stim/60-deg_dot-left_turquoise.png,stimulus/viswhere_stim/150-deg_dot-left_seagreen.png,stimulus/viswhere_stim/match_blank.png,stimulus/viswhere_stim/match_box.png,stimulus/viswhere_stim/match_yes.png,stimulus/viswhere_stim/match_no.png,2.0,Match,Line,Dot,2,5.125,0,5.125,0,5.125,0,5.125,0,0.75,0.75,1,0.5,1,2.125,1,0.5,1,2.125,0,0.0,0,0.0,0,0.0,0,0.0,0,,,,,0,14,14,14,,,,,,,,,149.22132299999794,154.33477966699866,149.70605358299508,150.7050524169972,151.32814508299634,152.3258195419985,149.22132299999794,149.22132299999794,149.23572304132736,149.22132299999794,149.22132299999794,149.22132299999794,149.23572304132736,149.22132299999794,154.33477966699866,155.12725724999473,157.19959962499706,161.09859545799554,155.12725724999473,155.12725724999473,160.26357258299686,155.5755342919947,156.58064008299698,157.19959962499706,158.2116609999939,155.12725724999473,155.12725724999473,155.10256558332964,155.12725724999473,155.12725724999473,155.12725724999473,155.10256558332964,155.12725724999473,155.12725724999473,160.26357258299686,155.12725724999473,160.26357258299686,160.32082362499932,161.09859545799554,155.12725724999473,2,1,0.6643779580044793,reldom2_s018,001,2025-02-21_12h29.32.705,Where-A-Scan_AC,2022.2.5,None,
12,Second_Order,2.0,viswhere,stimulus/viswhere_stim/30-deg_dot-right_mediumslateblue.png,stimulus/viswhere_stim/30-deg_dot-left_seagreen.png,stimulus/viswhere_stim/120-deg_dot-right_goldenrod.png,stimulus/viswhere_stim/120-deg_dot-left_salmon.png,stimulus/viswhere_stim/match_blank.png,stimulus/viswhere_stim/match_box.png,stimulus/viswhere_stim/match_yes.png,stimulus/viswhere_stim/match_no.png,1.0,Match,Line,Line,1,5.125,0,5.125,0,5.125,0,5.125,0,0.625,0.625,1,0.5,1,2.125,1,0.5,1,2.125,0,0.0,0,0.0,0,0.0,0,0.0,0,,,,,0,15,15,15,,,,,,,,,161.09859545799554,166.2133236249938,161.58377808299701,162.58317254199937,163.20565816699673,164.2031834579975,161.09859545799554,161.09859545799554,161.1117069999935,161.09859545799554,161.09859545799554,161.09859545799554,161.1117069999935,161.09859545799554,166.2133236249938,166.8834339169989,168.960640624995,173.0045101249998,166.8834339169989,166.8834339169989,172.0369856249963,167.32883966699592,168.34491695799807,168.960640624995,169.9650734579991,166.8834339169989,166.8834339169989,166.85932387533154,166.8834339169989,166.8834339169989,166.8834339169989,166.85932387533154,166.8834339169989,166.8834339169989,172.0369856249963,166.8834339169989,172.0369856249963,172.08136554199882,172.7074169579937,166.8834339169989,1,1,0.5687660410039825,reldom2_s018,001,2025-02-21_12h29.32.705,Where-A-Scan_AC,2022.2.5,None,
0,0.0,None,fixation,stimulus/viswhere_stim/blank_white.png,stimulus/viswhere_stim/blank_white.png,stimulus/audwhere_stim/blank_white.png,stimulus/audwhere_stim/blank_white.png,stimulus/viswhere_stim/blank_white.png,stimulus/viswhere_stim/blank_white.png,stimulus/viswhere_stim/blank_white.png,stimulus/viswhere_stim/blank_white.png,0.0,0.0,0.0,0.0,0,0.0,0,0.0,0,0.0,0,0.0,0,0.0,0.0,0,0.0,0,0.0,0,0.0,0,0.0,0,0.0,0,0.0,0,0.0,0,0.0,8,,,,,0,16,16,16,,,,,,,,,173.0045101249998,173.0045101249998,173.0045101249998,173.0045101249998,173.0045101249998,173.0045101249998,173.0045101249998,173.0045101249998,172.90227466632982,173.0045101249998,173.0045101249998,173.0045101249998,172.90227466632982,173.0045101249998,173.0045101249998,173.0045101249998,173.0045101249998,173.0045101249998,173.0045101249998,173.0045101249998,173.0045101249998,173.0045101249998,173.0045101249998,173.0045101249998,173.0045101249998,173.0045101249998,173.0045101249998,172.95227466632983,173.0045101249998,173.0045101249998,173.0045101249998,172.95227466632983,173.0045101249998,173.0045101249998,173.0045101249998,173.0045101249998,173.0045101249998,178.1934794169938,178.1934794169938,181.2636293329997,None,0,,reldom2_s018,001,2025-02-21_12h29.32.705,Where-A-Scan_AC,2022.2.5,None,
13,First_Order,3.0,audwhere,stimulus/audwhere_stim/dummy.wav,stimulus/audwhere_stim/dummy.wav,stimulus/audwhere_stim/right_away_290h.wav,stimulus/audwhere_stim/right_toward_280h.wav,stimulus/audwhere_stim/blank_white.png,stimulus/audwhere_stim/side_box.png,stimulus/audwhere_stim/side_yes.png,stimulus/audwhere_stim/side_no.png,None,Side,None,Side,1,0.0,0,5.125,0,5.125,0,5.125,0,0.0,0.625,0,0.0,0,0.0,0,0.0,0,0.0,0,0.0,0,0.0,1,0.5,1,2.125,0,,,,,0,17,17,17,,,,,,,,,181.2636293329997,181.2636293329997,181.2636293329997,181.2636293329997,181.2636293329997,181.2636293329997,181.2636293329997,181.2636293329997,181.1907374166646,181.2636293329997,181.2636293329997,181.2636293329997,181.1907374166646,181.2636293329997,181.2636293329997,181.2636293329997,183.35806133299775,187.37940837499627,181.2636293329997,181.2636293329997,186.42803120799363,181.2636293329997,181.2636293329997,181.2636293329997,181.2636293329997,181.7281632499944,182.79960254199977,181.69799608366546,,183.35806133299775,184.4299137919952,183.32791504166042,,181.2636293329997,186.42803120799363,181.2636293329997,186.42803120799363,186.4691152919986,187.1259477919957,181.2636293329997,1,1,1.3151877500058617,reldom2_s018,001,2025-02-21_12h29.32.705,Where-A-Scan_AC,2022.2.5,None,
14,First_Order,3.0,audwhere,stimulus/audwhere_stim/dummy.wav,stimulus/audwhere_stim/dummy.wav,stimulus/audwhere_stim/right_away_300h.wav,stimulus/audwhere_stim/left_away_300h.wav,stimulus/audwhere_stim/blank_white.png,stimulus/audwhere_stim/side_box.png,stimulus/audwhere_stim/side_yes.png,stimulus/audwhere_stim/side_no.png,None,Side,None,Direction,2,0.0,0,5.125,0,5.125,0,5.125,0,0.0,0.625,0,0.0,0,0.0,0,0.0,0,0.0,0,0.0,0,0.0,1,0.5,1,2.125,0,,,,,0,18,18,18,,,,,,,,,187.37940837499627,187.37940837499627,187.37940837499627,187.37940837499627,187.37940837499627,187.37940837499627,187.37940837499627,187.37940837499627,187.30011000033315,187.37940837499627,187.37940837499627,187.37940837499627,187.30011000033315,187.37940837499627,187.37940837499627,187.37940837499627,189.47254149999935,193.49564799999644,187.37940837499627,187.37940837499627,192.54386520799744,187.37940837499627,187.37940837499627,187.37940837499627,187.37940837499627,187.8462045829947,188.91551541700028,187.8161236666604,,189.47254149999935,190.54339466699457,189.44235179166233,,187.37940837499627,192.54386520799744,187.37940837499627,192.54386520799744,192.58483679199708,193.2406369579985,187.37940837499627,2,1,1.2952645830082474,reldom2_s018,001,2025-02-21_12h29.32.705,Where-A-Scan_AC,2022.2.5,None,
15,First_Order,3.0,audwhere,stimulus/audwhere_stim/dummy.wav,stimulus/audwhere_stim/dummy.wav,stimulus/audwhere_stim/left_away_290h.wav,stimulus/audwhere_stim/right_away_280h.wav,stimulus/audwhere_stim/blank_white.png,stimulus/audwhere_stim/direction_box.png,stimulus/audwhere_stim/direction_yes.png,stimulus/audwhere_stim/direction_no.png,None,Direction,None,Direction,1,0.0,0,5.125,0,5.125,0,5.125,0,0.0,0.625,0,0.0,0,0.0,0,0.0,0,0.0,0,0.0,0,0.0,1,0.5,1,2.125,0,,,,,0,19,19,19,,,,,,,,,193.49564799999644,193.49564799999644,193.49564799999644,193.49564799999644,193.49564799999644,193.49564799999644,193.49564799999644,193.49564799999644,193.41492150032914,193.49564799999644,193.49564799999644,193.49564799999644,193.41492150032914,193.49564799999644,193.49564799999644,193.49564799999644,195.6032008330003,,193.49564799999644,193.49564799999644,198.68878199999745,193.49564799999644,193.49564799999644,193.49564799999644,193.49564799999644,193.96454204199836,194.99543062500015,193.93440554166253,,195.6032008330003,196.6343220419949,195.57306299966538,,193.49564799999644,198.68878199999745,193.49564799999644,198.68878199999745,198.68878199999745,199.3480483329986,193.49564799999644,1,1,1.701802667004813,reldom2_s018,001,2025-02-21_12h29.32.705,Where-A-Scan_AC,2022.2.5,None,
16,First_Order,3.0,audwhere,stimulus/audwhere_stim/dummy.wav,stimulus/audwhere_stim/dummy.wav,stimulus/audwhere_stim/right_toward_270h.wav,stimulus/audwhere_stim/right_away_300h.wav,stimulus/audwhere_stim/blank_white.png,stimulus/audwhere_stim/direction_box.png,stimulus/audwhere_stim/direction_yes.png,stimulus/audwhere_stim/direction_no.png,None,Direction,None,Side,2,0.0,0,5.125,0,5.125,0,5.125,0,0.0,0.625,0,0.0,0,0.0,0,0.0,0,0.0,0,0.0,0,0.0,1,0.5,1,2.125,0,,,,,0,20,20,20,,,,,,,,,199.6033336249966,199.6033336249966,199.6033336249966,199.6033336249966,199.6033336249966,199.6033336249966,199.6033336249966,199.6033336249966,199.52254579132764,199.6033336249966,199.6033336249966,199.6033336249966,199.52254579132764,199.6033336249966,199.6033336249966,199.6033336249966,201.71106841699657,,199.6033336249966,199.6033336249966,204.7538795829969,199.6033336249966,199.6033336249966,199.6033336249966,199.6033336249966,200.07369016699522,201.10395779199462,200.04334883366053,,201.71106841699657,202.74269541699323,201.68088283366185,,199.6033336249966,204.7538795829969,199.6033336249966,204.7538795829969,204.79538295800012,205.45475766699383,199.6033336249966,2,1,1.5046191670044209,reldom2_s018,001,2025-02-21_12h29.32.705,Where-A-Scan_AC,2022.2.5,None,
0,0.0,None,fixation,stimulus/viswhere_stim/blank_white.png,stimulus/viswhere_stim/blank_white.png,stimulus/audwhere_stim/blank_white.png,stimulus/audwhere_stim/blank_white.png,stimulus/viswhere_stim/blank_white.png,stimulus/viswhere_stim/blank_white.png,stimulus/viswhere_stim/blank_white.png,stimulus/viswhere_stim/blank_white.png,0.0,0.0,0.0,0.0,0,0.0,0,0.0,0,0.0,0,0.0,0,0.0,0.0,0,0.0,0,0.0,0,0.0,0,0.0,0,0.0,0,0.0,0,0.0,0,0.0,9,,,,,0,21,21,21,,,,,,,,,205.731904166998,205.731904166998,205.731904166998,205.731904166998,205.731904166998,205.731904166998,205.731904166998,205.731904166998,205.62903241632935,205.731904166998,205.731904166998,205.731904166998,205.62903241632935,205.731904166998,205.731904166998,205.731904166998,205.731904166998,205.731904166998,205.731904166998,205.731904166998,205.731904166998,205.731904166998,205.731904166998,205.731904166998,205.731904166998,205.731904166998,205.731904166998,205.67903241632933,205.731904166998,205.731904166998,205.731904166998,205.67903241632933,205.731904166998,205.731904166998,205.731904166998,205.731904166998,205.731904166998,210.94405291699513,210.94405291699513,214.91030966699327,None,0,,reldom2_s018,001,2025-02-21_12h29.32.705,Where-A-Scan_AC,2022.2.5,None,
17,Second_Order,3.0,audwhere,stimulus/audwhere_stim/right_away_270h.wav,stimulus/audwhere_stim/left_away_270h.wav,stimulus/audwhere_stim/right_toward_280h.wav,stimulus/audwhere_stim/left_toward_280h.wav,stimulus/viswhere_stim/match_blank.png,stimulus/audwhere_stim/match_box.png,stimulus/viswhere_stim/match_yes.png,stimulus/viswhere_stim/match_no.png,1.0,Match,Direction,Direction,1,5.125,0,5.125,0,5.125,0,5.125,0,0.75,0.75,0,0.0,0,0.0,0,0.0,0,0.0,1,0.5,1,2.125,1,0.5,1,2.125,0,,,,,0,22,22,22,,,,,,,,,214.91030966699327,220.03200841699436,214.91030966699327,214.91030966699327,214.91030966699327,214.91030966699327,215.35898916699807,216.35681879199547,215.3715731666637,,216.99181529199996,217.9806602919998,216.99528229166415,,220.03200841699436,220.8854643329978,222.92924845800007,,220.8854643329978,220.8854643329978,226.04519695799536,220.8854643329978,220.8854643329978,220.8854643329978,220.8854643329978,221.30190124999353,222.37131349999981,221.27310624966438,,222.92924845800007,224.00176037499477,222.89777066666673,,220.8854643329978,226.04519695799536,220.8854643329978,226.04519695799536,226.04519695799536,,220.8854643329978,1,1,1.0589242080022814,reldom2_s018,001,2025-02-21_12h29.32.705,Where-A-Scan_AC,2022.2.5,None,
18,Second_Order,3.0,audwhere,stimulus/audwhere_stim/left_away_300h.wav,stimulus/audwhere_stim/right_away_290h.wav,stimulus/audwhere_stim/left_toward_300h.wav,stimulus/audwhere_stim/left_away_290h.wav,stimulus/viswhere_stim/match_blank.png,stimulus/audwhere_stim/match_box.png,stimulus/viswhere_stim/match_yes.png,stimulus/viswhere_stim/match_no.png,2.0,Match,Direction,Side,2,5.125,0,5.125,0,5.125,0,5.125,0,0.625,0.625,0,0.0,0,0.0,0,0.0,0,0.0,1,0.5,1,2.125,1,0.5,1,2.125,0,,,,,0,23,23,23,,,,,,,,,226.85862162499689,231.98121754199383,226.85862162499689,226.85862162499689,226.85862162499689,226.85862162499689,227.31846299999597,228.30443529199692,227.33191687466413,,228.94002070799615,229.93807812500017,228.9524459996649,,231.98121754199383,232.71136920799472,234.79075554199517,238.82773620799708,232.71136920799472,232.71136920799472,237.9018392079961,232.71136920799472,232.71136920799472,232.71136920799472,232.71136920799472,233.12705187499523,234.18933724999806,233.09688620866316,,234.79075554199517,235.8640204169933,234.7608063746632,,232.71136920799472,237.9018392079961,232.71136920799472,237.9018392079961,237.9018392079961,238.5538806669938,232.71136920799472,2,1,0.9307450410051388,reldom2_s018,001,2025-02-21_12h29.32.705,Where-A-Scan_AC,2022.2.5,None,
0,0.0,None,fixation,stimulus/viswhere_stim/blank_white.png,stimulus/viswhere_stim/blank_white.png,stimulus/audwhere_stim/blank_white.png,stimulus/audwhere_stim/blank_white.png,stimulus/viswhere_stim/blank_white.png,stimulus/viswhere_stim/blank_white.png,stimulus/viswhere_stim/blank_white.png,stimulus/viswhere_stim/blank_white.png,0.0,0.0,0.0,0.0,0,0.0,0,0.0,0,0.0,0,0.0,0,0.0,0.0,0,0.0,0,0.0,0,0.0,0,0.0,0,0.0,0,0.0,0,0.0,0,0.0,9,,,,,0,24,24,24,,,,,,,,,238.82773620799708,238.82773620799708,238.82773620799708,238.82773620799708,238.82773620799708,238.82773620799708,238.82773620799708,238.82773620799708,238.72791616632654,238.82773620799708,238.82773620799708,238.82773620799708,238.72791616632654,238.82773620799708,238.82773620799708,238.82773620799708,238.82773620799708,238.82773620799708,238.82773620799708,238.82773620799708,238.82773620799708,238.82773620799708,238.82773620799708,238.82773620799708,238.82773620799708,238.82773620799708,238.82773620799708,238.77791616632652,238.82773620799708,238.82773620799708,238.82773620799708,238.77791616632652,238.82773620799708,238.82773620799708,238.82773620799708,238.82773620799708,238.82773620799708,244.0120312079962,244.0120312079962,248.09960804199363,None,0,,reldom2_s018,001,2025-02-21_12h29.32.705,Where-A-Scan_AC,2022.2.5,None,
19,First_Order,4.0,audwhere,stimulus/audwhere_stim/dummy.wav,stimulus/audwhere_stim/dummy.wav,stimulus/audwhere_stim/right_away_300h.wav,stimulus/audwhere_stim/left_away_280h.wav,stimulus/audwhere_stim/blank_white.png,stimulus/audwhere_stim/direction_box.png,stimulus/audwhere_stim/direction_yes.png,stimulus/audwhere_stim/direction_no.png,None,Direction,None,Direction,1,0.0,0,5.125,0,5.125,0,5.125,0,0.0,0.625,0,0.0,0,0.0,0,0.0,0,0.0,0,0.0,0,0.0,1,0.5,1,2.125,0,,,,,0,25,25,25,,,,,,,,,248.09960804199363,248.09960804199363,248.09960804199363,248.09960804199363,248.09960804199363,248.09960804199363,248.09960804199363,248.09960804199363,248.02794191666425,248.09960804199363,248.09960804199363,248.09960804199363,248.02794191666425,248.09960804199363,248.09960804199363,248.09960804199363,250.20340624999517,,248.09960804199363,248.09960804199363,253.289581291996,248.09960804199363,248.09960804199363,248.09960804199363,248.09960804199363,248.56680274999962,249.59638762499526,248.53656624966632,,250.20340624999517,251.23518574999616,250.1730756666623,,248.09960804199363,253.289581291996,248.09960804199363,253.289581291996,253.289581291996,253.9450912079992,248.09960804199363,1,1,1.3755510000046343,reldom2_s018,001,2025-02-21_12h29.32.705,Where-A-Scan_AC,2022.2.5,None,
20,First_Order,4.0,audwhere,stimulus/audwhere_stim/dummy.wav,stimulus/audwhere_stim/dummy.wav,stimulus/audwhere_stim/right_toward_270h.wav,stimulus/audwhere_stim/right_away_280h.wav,stimulus/audwhere_stim/blank_white.png,stimulus/audwhere_stim/direction_box.png,stimulus/audwhere_stim/direction_yes.png,stimulus/audwhere_stim/direction_no.png,None,Direction,None,Side,2,0.0,0,5.125,0,5.125,0,5.125,0,0.0,0.625,0,0.0,0,0.0,0,0.0,0,0.0,0,0.0,0,0.0,1,0.5,1,2.125,0,,,,,0,26,26,26,,,,,,,,,254.19927658300003,254.19927658300003,254.19927658300003,254.19927658300003,254.19927658300003,254.19927658300003,254.19927658300003,254.19927658300003,254.11960962532808,254.19927658300003,254.19927658300003,254.19927658300003,254.11960962532808,254.19927658300003,254.19927658300003,254.19927658300003,256.30114370799856,,254.19927658300003,254.19927658300003,259.38679366699944,254.19927658300003,254.19927658300003,254.19927658300003,254.19927658300003,254.66741720799473,255.7420676249967,254.63715845866344,,256.30114370799856,257.3325935419998,256.2709669586659,,254.19927658300003,259.38679366699944,254.19927658300003,259.38679366699944,259.4284199579997,260.08507099999406,254.19927658300003,2,1,1.2694488330016611,reldom2_s018,001,2025-02-21_12h29.32.705,Where-A-Scan_AC,2022.2.5,None,
21,First_Order,4.0,audwhere,stimulus/audwhere_stim/dummy.wav,stimulus/audwhere_stim/dummy.wav,stimulus/audwhere_stim/left_toward_300h.wav,stimulus/audwhere_stim/left_away_300h.wav,stimulus/audwhere_stim/blank_white.png,stimulus/audwhere_stim/side_box.png,stimulus/audwhere_stim/side_yes.png,stimulus/audwhere_stim/side_no.png,None,Side,None,Side,1,0.0,0,5.125,0,5.125,0,5.125,0,0.0,0.625,0,0.0,0,0.0,0,0.0,0,0.0,0,0.0,0,0.0,1,0.5,1,2.125,0,,,,,0,27,27,27,,,,,,,,,260.2975182079972,260.2975182079972,260.2975182079972,260.2975182079972,260.2975182079972,260.2975182079972,260.2975182079972,260.2975182079972,260.2184043333274,260.2975182079972,260.2975182079972,260.2975182079972,260.2184043333274,260.2975182079972,260.2975182079972,260.2975182079972,262.3937260829989,266.41661849999946,260.2975182079972,260.2975182079972,265.4674143749944,260.2975182079972,260.2975182079972,260.2975182079972,260.2975182079972,260.76322070799506,261.83601420799823,260.73319424966417,,262.3937260829989,263.4690350419987,262.3637680416616,,260.2975182079972,265.4674143749944,260.2975182079972,265.4674143749944,265.5087083749968,266.16347283299547,260.2975182079972,1,1,0.94266404100199,reldom2_s018,001,2025-02-21_12h29.32.705,Where-A-Scan_AC,2022.2.5,None,
22,First_Order,4.0,audwhere,stimulus/audwhere_stim/dummy.wav,stimulus/audwhere_stim/dummy.wav,stimulus/audwhere_stim/right_away_270h.wav,stimulus/audwhere_stim/left_away_300h.wav,stimulus/audwhere_stim/blank_white.png,stimulus/audwhere_stim/side_box.png,stimulus/audwhere_stim/side_yes.png,stimulus/audwhere_stim/side_no.png,None,Side,None,Direction,2,0.0,0,5.125,0,5.125,0,5.125,0,0.0,0.625,0,0.0,0,0.0,0,0.0,0,0.0,0,0.0,0,0.0,1,0.5,1,2.125,0,,,,,0,28,28,28,,,,,,,,,266.41661849999946,266.41661849999946,266.41661849999946,266.41661849999946,266.41661849999946,266.41661849999946,266.41661849999946,266.41661849999946,266.3374599163309,266.41661849999946,266.41661849999946,266.41661849999946,266.3374599163309,266.41661849999946,266.41661849999946,266.41661849999946,268.50892208299774,272.55375024999375,266.41661849999946,266.41661849999946,271.58270662499854,266.41661849999946,266.41661849999946,266.41661849999946,266.41661849999946,266.88237949999893,267.9508677079939,266.8513881246656,,268.50892208299774,269.538489999999,268.47851712466604,,266.41661849999946,271.58270662499854,266.41661849999946,271.58270662499854,271.6237506670004,272.2796359999993,266.41661849999946,2,1,0.8975892500020564,reldom2_s018,001,2025-02-21_12h29.32.705,Where-A-Scan_AC,2022.2.5,None,
0,0.0,None,fixation,stimulus/viswhere_stim/blank_white.png,stimulus/viswhere_stim/blank_white.png,stimulus/audwhere_stim/blank_white.png,stimulus/audwhere_stim/blank_white.png,stimulus/viswhere_stim/blank_white.png,stimulus/viswhere_stim/blank_white.png,stimulus/viswhere_stim/blank_white.png,stimulus/viswhere_stim/blank_white.png,0.0,0.0,0.0,0.0,0,0.0,0,0.0,0,0.0,0,0.0,0,0.0,0.0,0,0.0,0,0.0,0,0.0,0,0.0,0,0.0,0,0.0,0,0.0,0,0.0,9,,,,,0,29,29,29,,,,,,,,,272.55375024999375,272.55375024999375,272.55375024999375,272.55375024999375,272.55375024999375,272.55375024999375,272.55375024999375,272.55375024999375,272.45397770832835,272.55375024999375,272.55375024999375,272.55375024999375,272.45397770832835,272.55375024999375,272.55375024999375,272.55375024999375,272.55375024999375,272.55375024999375,272.55375024999375,272.55375024999375,272.55375024999375,272.55375024999375,272.55375024999375,272.55375024999375,272.55375024999375,272.55375024999375,272.55375024999375,272.50397770832836,272.55375024999375,272.55375024999375,272.55375024999375,272.50397770832836,272.55375024999375,272.55375024999375,272.55375024999375,272.55375024999375,272.55375024999375,277.75916383299773,277.75916383299773,281.7129132919945,None,0,,reldom2_s018,001,2025-02-21_12h29.32.705,Where-A-Scan_AC,2022.2.5,None,
23,Second_Order,4.0,audwhere,stimulus/audwhere_stim/left_away_270h.wav,stimulus/audwhere_stim/left_toward_290h.wav,stimulus/audwhere_stim/left_toward_300h.wav,stimulus/audwhere_stim/right_toward_280h.wav,stimulus/viswhere_stim/match_blank.png,stimulus/audwhere_stim/match_box.png,stimulus/viswhere_stim/match_yes.png,stimulus/viswhere_stim/match_no.png,2.0,Match,Side,Direction,2,5.125,0,5.125,0,5.125,0,5.125,0,0.75,0.75,0,0.0,0,0.0,0,0.0,0,0.0,1,0.5,1,2.125,1,0.5,1,2.125,0,,,,,0,30,30,30,,,,,,,,,281.7129132919945,286.8365124579941,281.7129132919945,281.7129132919945,281.7129132919945,281.7129132919945,282.16284774999804,283.1618011249957,282.17574633366553,,283.79610354199394,284.7856589169969,283.79945058366525,,286.8365124579941,287.6884393749933,289.7355593749962,,287.6884393749933,287.6884393749933,292.85123962499347,287.6884393749933,287.6884393749933,287.6884393749933,287.6884393749933,288.1066791669946,289.1768469999952,288.0767232916662,,289.7355593749962,290.81054087499797,289.70541487466494,,287.6884393749933,292.85123962499347,287.6884393749933,292.85123962499347,292.85123962499347,,287.6884393749933,2,1,0.6238663340045605,reldom2_s018,001,2025-02-21_12h29.32.705,Where-A-Scan_AC,2022.2.5,None,
24,Second_Order,4.0,audwhere,stimulus/audwhere_stim/right_toward_290h.wav,stimulus/audwhere_stim/right_away_290h.wav,stimulus/audwhere_stim/left_away_300h.wav,stimulus/audwhere_stim/left_toward_270h.wav,stimulus/viswhere_stim/match_blank.png,stimulus/audwhere_stim/match_box.png,stimulus/viswhere_stim/match_yes.png,stimulus/viswhere_stim/match_no.png,1.0,Match,Side,Side,1,5.125,0,5.125,0,5.125,0,5.125,0,0.625,0.625,0,0.0,0,0.0,0,0.0,0,0.0,1,0.5,1,2.125,1,0.5,1,2.125,0,,,,,0,31,31,31,,,,,,,,,293.6666472919969,298.78462383299484,293.6666472919969,293.6666472919969,293.6666472919969,293.6666472919969,294.1242564169952,295.12217858299846,294.13710599966385,,295.74423737499455,296.7427479170001,295.75684620866036,,298.78462383299484,299.5168439169938,301.59600487499847,305.6256163329963,299.5168439169938,299.5168439169938,304.69756804200006,299.5168439169938,299.5168439169938,299.5168439169938,299.5168439169938,299.9289869999993,300.99363208299474,299.89973437466347,,301.59600487499847,302.6613079999952,301.5658763336653,,299.5168439169938,304.69756804200006,299.5168439169938,304.69756804200006,304.69756804200006,305.3503148749951,299.5168439169938,1,1,0.7044041250046575,reldom2_s018,001,2025-02-21_12h29.32.705,Where-A-Scan_AC,2022.2.5,None,
0,0.0,None,fixation,stimulus/viswhere_stim/blank_white.png,stimulus/viswhere_stim/blank_white.png,stimulus/audwhere_stim/blank_white.png,stimulus/audwhere_stim/blank_white.png,stimulus/viswhere_stim/blank_white.png,stimulus/viswhere_stim/blank_white.png,stimulus/viswhere_stim/blank_white.png,stimulus/viswhere_stim/blank_white.png,0.0,0.0,0.0,0.0,0,0.0,0,0.0,0,0.0,0,0.0,0,0.0,0.0,0,0.0,0,0.0,0,0.0,0,0.0,0,0.0,0,0.0,0,0.0,0,0.0,10,,,,,0,32,32,32,,,,,,,,,305.6256163329963,305.6256163329963,305.6256163329963,305.6256163329963,305.6256163329963,305.6256163329963,305.6256163329963,305.6256163329963,305.52469275032684,305.6256163329963,305.6256163329963,305.6256163329963,305.52469275032684,305.6256163329963,305.6256163329963,305.6256163329963,305.6256163329963,305.6256163329963,305.6256163329963,305.6256163329963,305.6256163329963,305.6256163329963,305.6256163329963,305.6256163329963,305.6256163329963,305.6256163329963,305.6256163329963,305.57469275032685,305.6256163329963,305.6256163329963,305.6256163329963,305.57469275032685,305.6256163329963,305.6256163329963,305.6256163329963,305.6256163329963,305.6256163329963,310.85722633299883,310.85722633299883,315.8010589999976,None,0,,reldom2_s018,001,2025-02-21_12h29.32.705,Where-A-Scan_AC,2022.2.5,None,
25,First_Order,5.0,viswhere,stimulus/viswhere_stim/blank_white.png,stimulus/viswhere_stim/blank_white.png,stimulus/viswhere_stim/120-deg_dot-right_goldenrod.png,stimulus/viswhere_stim/150-deg_dot-right_turquoise.png,stimulus/viswhere_stim/blank_white.png,stimulus/viswhere_stim/dot_box.png,stimulus/viswhere_stim/dot_yes.png,stimulus/viswhere_stim/dot_no.png,None,Dot,None,Dot,1,0.0,0,5.125,0,5.125,0,5.125,0,0.0,0.625,0,0.0,0,0.0,1,0.5,1,2.125,0,0.0,0,0.0,0,0.0,0,0.0,0,,,,,0,33,33,33,,,,,,,,,315.8010589999976,315.8010589999976,315.8010589999976,315.8010589999976,315.8010589999976,315.8010589999976,315.8010589999976,315.8010589999976,315.7801868746634,315.8010589999976,315.8010589999976,315.8010589999976,315.7801868746634,315.8010589999976,315.8010589999976,315.8010589999976,317.8962369169967,321.8555822499984,315.8010589999976,315.8010589999976,320.9246457079935,316.28129995799827,317.30138887499925,317.8962369169967,318.9039463329973,315.8010589999976,315.8010589999976,315.7968535413301,315.8010589999976,315.8010589999976,315.8010589999976,315.7968535413301,315.8010589999976,315.8010589999976,320.9246457079935,315.8010589999976,320.9246457079935,321.02253824999934,321.653974957997,315.8010589999976,1,1,0.822878209008195,reldom2_s018,001,2025-02-21_12h29.32.705,Where-A-Scan_AC,2022.2.5,None,
26,First_Order,5.0,viswhere,stimulus/viswhere_stim/blank_white.png,stimulus/viswhere_stim/blank_white.png,stimulus/viswhere_stim/90-deg_dot-right_royalblue.png,stimulus/viswhere_stim/120-deg_dot-right_seagreen.png,stimulus/viswhere_stim/blank_white.png,stimulus/viswhere_stim/line_box.png,stimulus/viswhere_stim/line_yes.png,stimulus/viswhere_stim/line_no.png,None,Line,None,Dot,2,0.0,0,5.125,0,5.125,0,5.125,0,0.0,0.625,0,0.0,0,0.0,1,0.5,1,2.125,0,0.0,0,0.0,0,0.0,0,0.0,0,,,,,0,34,34,34,,,,,,,,,321.8555822499984,321.8555822499984,321.8555822499984,321.8555822499984,321.8555822499984,321.8555822499984,321.8555822499984,321.8555822499984,321.83542983333365,321.8555822499984,321.8555822499984,321.8555822499984,321.83542983333365,321.8555822499984,321.8555822499984,321.8555822499984,323.9703480829994,327.92856579199724,321.8555822499984,321.8555822499984,326.9976335419997,322.33645208300004,323.3567953749953,323.9703480829994,324.9784418329946,321.8555822499984,321.8555822499984,321.8520965000003,321.8555822499984,321.8555822499984,321.8555822499984,321.8520965000003,321.8555822499984,321.8555822499984,326.9976335419997,321.8555822499984,326.9976335419997,327.08082287499565,327.7071624169985,321.8555822499984,2,1,0.4975764170085313,reldom2_s018,001,2025-02-21_12h29.32.705,Where-A-Scan_AC,2022.2.5,None,
27,First_Order,5.0,viswhere,stimulus/viswhere_stim/blank_white.png,stimulus/viswhere_stim/blank_white.png,stimulus/viswhere_stim/60-deg_dot-left_lightsseagreen.png,stimulus/viswhere_stim/60-deg_dot-right_slateblue.png,stimulus/viswhere_stim/blank_white.png,stimulus/viswhere_stim/line_box.png,stimulus/viswhere_stim/line_yes.png,stimulus/viswhere_stim/line_no.png,None,Line,None,Line,1,0.0,0,5.125,0,5.125,0,5.125,0,0.0,0.625,0,0.0,0,0.0,1,0.5,1,2.125,0,0.0,0,0.0,0,0.0,0,0.0,0,,,,,0,35,35,35,,,,,,,,,327.92856579199724,327.92856579199724,327.92856579199724,327.92856579199724,327.92856579199724,327.92856579199724,327.92856579199724,327.92856579199724,327.9066683753311,327.92856579199724,327.92856579199724,327.92856579199724,327.9066683753311,327.92856579199724,327.92856579199724,327.92856579199724,330.0367135829947,333.9889099169959,327.92856579199724,327.92856579199724,333.0590882499964,328.40831829200033,329.4255924999961,330.0367135829947,331.0412343329954,327.92856579199724,327.92856579199724,327.92333504199775,327.92856579199724,327.92856579199724,327.92856579199724,327.92333504199775,327.92856579199724,327.92856579199724,333.0590882499964,327.92856579199724,333.0590882499964,333.1563209169981,333.78793237499485,327.92856579199724,1,1,0.709509167005308,reldom2_s018,001,2025-02-21_12h29.32.705,Where-A-Scan_AC,2022.2.5,None,
28,First_Order,5.0,viswhere,stimulus/viswhere_stim/blank_white.png,stimulus/viswhere_stim/blank_white.png,stimulus/viswhere_stim/120-deg_dot-right_slateblue.png,stimulus/viswhere_stim/90-deg_dot-right_cyan.png,stimulus/viswhere_stim/blank_white.png,stimulus/viswhere_stim/dot_box.png,stimulus/viswhere_stim/dot_yes.png,stimulus/viswhere_stim/dot_no.png,None,Dot,None,Dot,1,0.0,0,5.125,0,5.125,0,5.125,0,0.0,0.625,0,0.0,0,0.0,1,0.5,1,2.125,0,0.0,0,0.0,0,0.0,0,0.0,0,,,,,0,36,36,36,,,,,,,,,333.9889099169959,333.9889099169959,333.9889099169959,333.9889099169959,333.9889099169959,333.9889099169959,333.9889099169959,333.9889099169959,333.96816500033066,333.9889099169959,333.9889099169959,333.9889099169959,333.96816500033066,333.9889099169959,333.9889099169959,333.9889099169959,336.10005395799817,340.1371979999967,333.9889099169959,333.9889099169959,339.13988174999395,334.4688498749965,335.4873818329943,336.10005395799817,337.1060994169966,333.9889099169959,333.9889099169959,333.9848316669973,333.9889099169959,333.9889099169959,333.9889099169959,333.9848316669973,333.9889099169959,333.9889099169959,339.13988174999395,333.9889099169959,339.13988174999395,339.2112356669968,339.843942624997,333.9889099169959,1,1,0.5532112090004375,reldom2_s018,001,2025-02-21_12h29.32.705,Where-A-Scan_AC,2022.2.5,None,
0,0.0,None,fixation,stimulus/viswhere_stim/blank_white.png,stimulus/viswhere_stim/blank_white.png,stimulus/audwhere_stim/blank_white.png,stimulus/audwhere_stim/blank_white.png,stimulus/viswhere_stim/blank_white.png,stimulus/viswhere_stim/blank_white.png,stimulus/viswhere_stim/blank_white.png,stimulus/viswhere_stim/blank_white.png,0.0,0.0,0.0,0.0,0,0.0,0,0.0,0,0.0,0,0.0,0,0.0,0.0,0,0.0,0,0.0,0,0.0,0,0.0,0,0.0,0,0.0,0,0.0,0,0.0,9,,,,,0,37,37,37,,,,,,,,,340.1371979999967,340.1371979999967,340.1371979999967,340.1371979999967,340.1371979999967,340.1371979999967,340.1371979999967,340.1371979999967,340.0384142083324,340.1371979999967,340.1371979999967,340.1371979999967,340.0384142083324,340.1371979999967,340.1371979999967,340.1371979999967,340.1371979999967,340.1371979999967,340.1371979999967,340.1371979999967,340.1371979999967,340.1371979999967,340.1371979999967,340.1371979999967,340.1371979999967,340.1371979999967,340.1371979999967,340.08841420833244,340.1371979999967,340.1371979999967,340.1371979999967,340.08841420833244,340.1371979999967,340.1371979999967,340.1371979999967,340.1371979999967,340.1371979999967,345.3489989169975,345.3489989169975,349.2763279999999,None,0,,reldom2_s018,001,2025-02-21_12h29.32.705,Where-A-Scan_AC,2022.2.5,None,
29,Second_Order,5.0,viswhere,stimulus/viswhere_stim/150-deg_dot-right_cyan.png,stimulus/viswhere_stim/150-deg_dot-left_peru.png,stimulus/viswhere_stim/90-deg_dot-left_goldenrod.png,stimulus/viswhere_stim/90-deg_dot-right_mediumslateblue.png,stimulus/viswhere_stim/match_blank.png,stimulus/viswhere_stim/match_box.png,stimulus/viswhere_stim/match_yes.png,stimulus/viswhere_stim/match_no.png,1.0,Match,Line,Line,1,5.125,0,5.125,0,5.125,0,5.125,0,0.75,0.75,1,0.5,1,2.125,1,0.5,1,2.125,0,0.0,0,0.0,0,0.0,0,0.0,0,,,,,0,38,38,38,,,,,,,,,349.2763279999999,354.396920332998,349.7518867079998,350.750913166994,351.3854814169972,352.3742309579975,349.2763279999999,349.2763279999999,349.29075220832794,349.2763279999999,349.2763279999999,349.2763279999999,349.29075220832794,349.2763279999999,354.396920332998,355.18883612499485,357.2600229169984,361.1287590419961,355.18883612499485,355.18883612499485,360.3291728749973,355.6360668329944,356.6410396669962,357.2600229169984,358.2715382499955,355.18883612499485,355.18883612499485,355.1641967083274,355.18883612499485,355.18883612499485,355.18883612499485,355.1641967083274,355.18883612499485,355.18883612499485,360.3291728749973,355.18883612499485,360.3291728749973,360.386217457999,361.1654926669944,355.18883612499485,1,1,0.6558021660021041,reldom2_s018,001,2025-02-21_12h29.32.705,Where-A-Scan_AC,2022.2.5,None,
30,Second_Order,5.0,viswhere,stimulus/viswhere_stim/90-deg_dot-right_royalblue.png,stimulus/viswhere_stim/60-deg_dot-right_peru.png,stimulus/viswhere_stim/30-deg_dot-left_slateblue.png,stimulus/viswhere_stim/90-deg_dot-left_seagreen.png,stimulus/viswhere_stim/match_blank.png,stimulus/viswhere_stim/match_box.png,stimulus/viswhere_stim/match_yes.png,stimulus/viswhere_stim/match_no.png,1.0,Match,Dot,Dot,1,5.125,0,5.125,0,5.125,0,5.125,0,0.625,0.625,1,0.5,1,2.125,1,0.5,1,2.125,0,0.0,0,0.0,0,0.0,0,0.0,0,,,,,0,39,39,39,,,,,,,,,361.1654926669944,366.28680308299954,361.6461279169962,362.6448812919989,363.26808270799665,364.2653242499946,361.1654926669944,361.1654926669944,361.1787590419961,361.1654926669944,361.1654926669944,361.1654926669944,361.1787590419961,361.1654926669944,366.28680308299954,366.94655629199406,369.03163787499943,373.0644367079949,366.94655629199406,366.94655629199406,372.0703929579977,367.4140607079971,368.4157862919965,369.03163787499943,370.04487237499416,366.94655629199406,366.94655629199406,366.92833462532917,366.94655629199406,366.94655629199406,366.94655629199406,366.92833462532917,366.94655629199406,366.94655629199406,372.0703929579977,366.94655629199406,372.0703929579977,372.1545839169994,372.7809818329988,366.94655629199406,1,1,0.650526000004902,reldom2_s018,001,2025-02-21_12h29.32.705,Where-A-Scan_AC,2022.2.5,None,
0,0.0,None,fixation,stimulus/viswhere_stim/blank_white.png,stimulus/viswhere_stim/blank_white.png,stimulus/audwhere_stim/blank_white.png,stimulus/audwhere_stim/blank_white.png,stimulus/viswhere_stim/blank_white.png,stimulus/viswhere_stim/blank_white.png,stimulus/viswhere_stim/blank_white.png,stimulus/viswhere_stim/blank_white.png,0.0,0.0,0.0,0.0,0,0.0,0,0.0,0,0.0,0,0.0,0,0.0,0.0,0,0.0,0,0.0,0,0.0,0,0.0,0,0.0,0,0.0,0,0.0,0,0.0,8,,,,,0,40,40,40,,,,,,,,,373.0644367079949,373.0644367079949,373.0644367079949,373.0644367079949,373.0644367079949,373.0644367079949,373.0644367079949,373.0644367079949,372.9616002083324,373.0644367079949,373.0644367079949,373.0644367079949,372.9616002083324,373.0644367079949,373.0644367079949,373.0644367079949,373.0644367079949,373.0644367079949,373.0644367079949,373.0644367079949,373.0644367079949,373.0644367079949,373.0644367079949,373.0644367079949,373.0644367079949,373.0644367079949,373.0644367079949,373.0116002083324,373.0644367079949,373.0644367079949,373.0644367079949,373.0116002083324,373.0644367079949,373.0644367079949,373.0644367079949,373.0644367079949,373.0644367079949,378.261057124997,378.261057124997,381.2339382079954,None,0,,reldom2_s018,001,2025-02-21_12h29.32.705,Where-A-Scan_AC,2022.2.5,None,
31,First_Order,6.0,viswhere,stimulus/viswhere_stim/blank_white.png,stimulus/viswhere_stim/blank_white.png,stimulus/viswhere_stim/90-deg_dot-right_lightsseagreen.png,stimulus/viswhere_stim/90-deg_dot-left_turquoise.png,stimulus/viswhere_stim/blank_white.png,stimulus/viswhere_stim/line_box.png,stimulus/viswhere_stim/line_yes.png,stimulus/viswhere_stim/line_no.png,None,Line,None,Line,1,0.0,0,5.125,0,5.125,0,5.125,0,0.0,0.625,0,0.0,0,0.0,1,0.5,1,2.125,0,0.0,0,0.0,0,0.0,0,0.0,0,,,,,0,41,41,41,,,,,,,,,381.2339382079954,381.2339382079954,381.2339382079954,381.2339382079954,381.2339382079954,381.2339382079954,381.2339382079954,381.2339382079954,381.21417404166516,381.2339382079954,381.2339382079954,381.2339382079954,381.21417404166516,381.2339382079954,381.2339382079954,381.2339382079954,383.3336139999956,387.2962456669993,381.2339382079954,381.2339382079954,386.36578733299393,381.7152176249947,382.7168539169943,383.3336139999956,384.3407443749966,381.2339382079954,381.2339382079954,381.21417404166516,381.2339382079954,381.2339382079954,381.2339382079954,381.21417404166516,381.2339382079954,381.2339382079954,386.36578733299393,381.2339382079954,386.36578733299393,386.44902895799896,387.08062866699765,381.2339382079954,1,1,0.46903645900601987,reldom2_s018,001,2025-02-21_12h29.32.705,Where-A-Scan_AC,2022.2.5,None,
32,First_Order,6.0,viswhere,stimulus/viswhere_stim/blank_white.png,stimulus/viswhere_stim/blank_white.png,stimulus/viswhere_stim/30-deg_dot-right_goldenrod.png,stimulus/viswhere_stim/30-deg_dot-left_seagreen.png,stimulus/viswhere_stim/blank_white.png,stimulus/viswhere_stim/dot_box.png,stimulus/viswhere_stim/dot_yes.png,stimulus/viswhere_stim/dot_no.png,None,Dot,None,Line,2,0.0,0,5.125,0,5.125,0,5.125,0,0.0,0.625,0,0.0,0,0.0,1,0.5,1,2.125,0,0.0,0,0.0,0,0.0,0,0.0,0,,,,,0,42,42,42,,,,,,,,,387.2962456669993,387.2962456669993,387.2962456669993,387.2962456669993,387.2962456669993,387.2962456669993,387.2962456669993,387.2962456669993,387.27497816632723,387.2962456669993,387.2962456669993,387.2962456669993,387.27497816632723,387.2962456669993,387.2962456669993,387.2962456669993,389.40139083299437,393.3598319579978,387.2962456669993,387.2962456669993,392.4332828329934,387.7756264169948,388.7886342079946,389.40139083299437,390.4199905419955,387.2962456669993,387.2962456669993,387.2916448329939,387.2962456669993,387.2962456669993,387.2962456669993,387.2916448329939,387.2962456669993,387.2962456669993,392.4332828329934,387.2962456669993,392.4332828329934,392.5178550829951,393.1446993749996,387.2962456669993,2,1,1.6826483750046464,reldom2_s018,001,2025-02-21_12h29.32.705,Where-A-Scan_AC,2022.2.5,None,
33,First_Order,6.0,viswhere,stimulus/viswhere_stim/blank_white.png,stimulus/viswhere_stim/blank_white.png,stimulus/viswhere_stim/150-deg_dot-left_lightsseagreen.png,stimulus/viswhere_stim/150-deg_dot-right_royalblue.png,stimulus/viswhere_stim/blank_white.png,stimulus/viswhere_stim/dot_box.png,stimulus/viswhere_stim/dot_yes.png,stimulus/viswhere_stim/dot_no.png,None,Dot,None,Line,2,0.0,0,5.125,0,5.125,0,5.125,0,0.0,0.625,0,0.0,0,0.0,1,0.5,1,2.125,0,0.0,0,0.0,0,0.0,0,0.0,0,,,,,0,43,43,43,,,,,,,,,393.3598319579978,393.3598319579978,393.3598319579978,393.3598319579978,393.3598319579978,393.3598319579978,393.3598319579978,393.3598319579978,393.3388767913323,393.3598319579978,393.3598319579978,393.3598319579978,393.3388767913323,393.3598319579978,393.3598319579978,393.3598319579978,395.47218912499375,399.4316490419951,393.3598319579978,393.3598319579978,398.48245499999757,393.8447143749945,394.85209437499725,395.47218912499375,396.4843417499942,393.3598319579978,393.3598319579978,393.355543457999,393.3598319579978,393.3598319579978,393.3598319579978,393.355543457999,393.3598319579978,393.3598319579978,398.48245499999757,393.3598319579978,398.48245499999757,398.5797046669977,399.21425195799384,393.3598319579978,2,1,1.580806833000679,reldom2_s018,001,2025-02-21_12h29.32.705,Where-A-Scan_AC,2022.2.5,None,
34,First_Order,6.0,viswhere,stimulus/viswhere_stim/blank_white.png,stimulus/viswhere_stim/blank_white.png,stimulus/viswhere_stim/120-deg_dot-left_peru.png,stimulus/viswhere_stim/90-deg_dot-left_royalblue.png,stimulus/viswhere_stim/blank_white.png,stimulus/viswhere_stim/line_box.png,stimulus/viswhere_stim/line_yes.png,stimulus/viswhere_stim/line_no.png,None,Line,None,Dot,2,0.0,0,5.125,0,5.125,0,5.125,0,0.0,0.625,0,0.0,0,0.0,1,0.5,1,2.125,0,0.0,0,0.0,0,0.0,0,0.0,0,,,,,0,44,44,44,,,,,,,,,399.4316490419951,399.4316490419951,399.4316490419951,399.4316490419951,399.4316490419951,399.4316490419951,399.4316490419951,399.4316490419951,399.40929262533365,399.4316490419951,399.4316490419951,399.4316490419951,399.40929262533365,399.4316490419951,399.4316490419951,399.4316490419951,401.53100170799735,405.57903645799524,399.4316490419951,399.4316490419951,404.55779137499485,399.91390249999677,400.91675766699336,401.53100170799735,402.53633270799764,399.4316490419951,399.4316490419951,399.4259592920003,399.4316490419951,399.4316490419951,399.4316490419951,399.4259592920003,399.4316490419951,399.4316490419951,404.55779137499485,399.4316490419951,404.55779137499485,404.65474204199563,405.28634699999384,399.4316490419951,2,1,1.086618917004671,reldom2_s018,001,2025-02-21_12h29.32.705,Where-A-Scan_AC,2022.2.5,None,
0,0.0,None,fixation,stimulus/viswhere_stim/blank_white.png,stimulus/viswhere_stim/blank_white.png,stimulus/audwhere_stim/blank_white.png,stimulus/audwhere_stim/blank_white.png,stimulus/viswhere_stim/blank_white.png,stimulus/viswhere_stim/blank_white.png,stimulus/viswhere_stim/blank_white.png,stimulus/viswhere_stim/blank_white.png,0.0,0.0,0.0,0.0,0,0.0,0,0.0,0,0.0,0,0.0,0,0.0,0.0,0,0.0,0,0.0,0,0.0,0,0.0,0,0.0,0,0.0,0,0.0,0,0.0,10,,,,,0,45,45,45,,,,,,,,,405.57903645799524,405.57903645799524,405.57903645799524,405.57903645799524,405.57903645799524,405.57903645799524,405.57903645799524,405.57903645799524,405.480379958329,405.57903645799524,405.57903645799524,405.57903645799524,405.480379958329,405.57903645799524,405.57903645799524,405.57903645799524,405.57903645799524,405.57903645799524,405.57903645799524,405.57903645799524,405.57903645799524,405.57903645799524,405.57903645799524,405.57903645799524,405.57903645799524,405.57903645799524,405.57903645799524,405.53037995832904,405.57903645799524,405.57903645799524,405.57903645799524,405.53037995832904,405.57903645799524,405.57903645799524,405.57903645799524,405.57903645799524,405.57903645799524,410.7860803329968,410.7860803329968,415.6846993329964,None,0,,reldom2_s018,001,2025-02-21_12h29.32.705,Where-A-Scan_AC,2022.2.5,None,
35,Second_Order,6.0,viswhere,stimulus/viswhere_stim/60-deg_dot-right_mediumslateblue.png,stimulus/viswhere_stim/150-deg_dot-right_turquoise.png,stimulus/viswhere_stim/90-deg_dot-right_slateblue.png,stimulus/viswhere_stim/90-deg_dot-left_seagreen.png,stimulus/viswhere_stim/match_blank.png,stimulus/viswhere_stim/match_box.png,stimulus/viswhere_stim/match_yes.png,stimulus/viswhere_stim/match_no.png,2.0,Match,Dot,Line,2,5.125,0,5.125,0,5.125,0,5.125,0,0.75,0.75,1,0.5,1,2.125,1,0.5,1,2.125,0,0.0,0,0.0,0,0.0,0,0.0,0,,,,,0,46,46,46,,,,,,,,,415.6846993329964,420.80073587499646,416.16804779199447,417.1571748749993,417.79374874999485,418.7914629999941,415.6846993329964,415.6846993329964,415.6980870413337,415.6846993329964,415.6846993329964,415.6846993329964,415.6980870413337,415.6846993329964,420.80073587499646,421.591676707998,423.6654276669942,427.56395620799594,421.591676707998,421.591676707998,426.7129990829999,422.03988599999866,423.04736412499915,423.6654276669942,424.678527666998,421.591676707998,421.591676707998,421.56763875032675,421.591676707998,421.591676707998,421.591676707998,421.56763875032675,421.591676707998,421.591676707998,426.7129990829999,421.591676707998,426.7129990829999,426.7837267079958,427.56395620799594,421.591676707998,2,1,0.6129241660019034,reldom2_s018,001,2025-02-21_12h29.32.705,Where-A-Scan_AC,2022.2.5,None,
36,Second_Order,6.0,viswhere,stimulus/viswhere_stim/120-deg_dot-left_royalblue.png,stimulus/viswhere_stim/120-deg_dot-right_cyan.png,stimulus/viswhere_stim/90-deg_dot-left_slateblue.png,stimulus/viswhere_stim/90-deg_dot-right_turquoise.png,stimulus/viswhere_stim/match_blank.png,stimulus/viswhere_stim/match_box.png,stimulus/viswhere_stim/match_yes.png,stimulus/viswhere_stim/match_no.png,1.0,Match,Line,Line,1,5.125,0,5.125,0,5.125,0,5.125,0,0.625,0.625,1,0.5,1,2.125,1,0.5,1,2.125,0,0.0,0,0.0,0,0.0,0,0.0,0,,,,,0,47,47,47,,,,,,,,,427.56395620799594,432.6790574169936,428.0498812079968,429.04855870799656,429.6708303329942,430.6685079579984,427.56395620799594,427.56395620799594,427.5777392079952,427.56395620799594,427.56395620799594,427.56395620799594,427.5777392079952,427.56395620799594,432.6790574169936,433.3471234999961,435.4366847919955,439.46014654199826,433.3471234999961,433.3471234999961,438.47715824999614,433.7947346669971,434.7993928329961,435.4366847919955,436.447333832999,433.3471234999961,433.3471234999961,433.3247157503288,433.3471234999961,433.3471234999961,433.3471234999961,433.3247157503288,433.3471234999961,433.3471234999961,438.47715824999614,433.3471234999961,438.47715824999614,438.5469543329964,439.17876054199587,433.3471234999961,1,1,0.7564136660075746,reldom2_s018,001,2025-02-21_12h29.32.705,Where-A-Scan_AC,2022.2.5,None,
0,0.0,None,fixation,stimulus/viswhere_stim/blank_white.png,stimulus/viswhere_stim/blank_white.png,stimulus/audwhere_stim/blank_white.png,stimulus/audwhere_stim/blank_white.png,stimulus/viswhere_stim/blank_white.png,stimulus/viswhere_stim/blank_white.png,stimulus/viswhere_stim/blank_white.png,stimulus/viswhere_stim/blank_white.png,0.0,0.0,0.0,0.0,0,0.0,0,0.0,0,0.0,0,0.0,0,0.0,0.0,0,0.0,0,0.0,0,0.0,0,0.0,0,0.0,0,0.0,0,0.0,0,0.0,9,,,,,0,48,48,48,,,,,,,,,439.46014654199826,439.46014654199826,439.46014654199826,439.46014654199826,439.46014654199826,439.46014654199826,439.46014654199826,439.46014654199826,439.3590705003274,439.46014654199826,439.46014654199826,439.46014654199826,439.3590705003274,439.46014654199826,439.46014654199826,439.46014654199826,439.46014654199826,439.46014654199826,439.46014654199826,439.46014654199826,439.46014654199826,439.46014654199826,439.46014654199826,439.46014654199826,439.46014654199826,439.46014654199826,439.46014654199826,439.4090705003274,439.46014654199826,439.46014654199826,439.46014654199826,439.4090705003274,439.46014654199826,439.46014654199826,439.46014654199826,439.46014654199826,439.46014654199826,444.65978533299494,444.65978533299494,448.70388520799315,None,0,,reldom2_s018,001,2025-02-21_12h29.32.705,Where-A-Scan_AC,2022.2.5,None,
37,First_Order,7.0,audwhere,stimulus/audwhere_stim/dummy.wav,stimulus/audwhere_stim/dummy.wav,stimulus/audwhere_stim/left_toward_280h.wav,stimulus/audwhere_stim/left_away_290h.wav,stimulus/audwhere_stim/blank_white.png,stimulus/audwhere_stim/direction_box.png,stimulus/audwhere_stim/direction_yes.png,stimulus/audwhere_stim/direction_no.png,None,Direction,None,Side,2,0.0,0,5.125,0,5.125,0,5.125,0,0.0,0.625,0,0.0,0,0.0,0,0.0,0,0.0,0,0.0,0,0.0,1,0.5,1,2.125,0,,,,,0,49,49,49,,,,,,,,,448.70388520799315,448.70388520799315,448.70388520799315,448.70388520799315,448.70388520799315,448.70388520799315,448.70388520799315,448.70388520799315,448.6311340836643,448.70388520799315,448.70388520799315,448.70388520799315,448.6311340836643,448.70388520799315,448.70388520799315,448.70388520799315,450.813477124997,,448.70388520799315,448.70388520799315,453.8588544999948,448.70388520799315,448.70388520799315,448.70388520799315,448.70388520799315,449.1758574579944,450.2518428330004,449.1453264996637,,450.813477124997,451.8484481669948,450.78293054166375,,448.70388520799315,453.8588544999948,448.70388520799315,453.8588544999948,453.9001379170004,454.5586644169962,448.70388520799315,2,1,0.902837500005262,reldom2_s018,001,2025-02-21_12h29.32.705,Where-A-Scan_AC,2022.2.5,None,
38,First_Order,7.0,audwhere,stimulus/audwhere_stim/dummy.wav,stimulus/audwhere_stim/dummy.wav,stimulus/audwhere_stim/left_away_300h.wav,stimulus/audwhere_stim/right_away_280h.wav,stimulus/audwhere_stim/blank_white.png,stimulus/audwhere_stim/side_box.png,stimulus/audwhere_stim/side_yes.png,stimulus/audwhere_stim/side_no.png,None,Side,None,Direction,2,0.0,0,5.125,0,5.125,0,5.125,0,0.0,0.625,0,0.0,0,0.0,0,0.0,0,0.0,0,0.0,0,0.0,1,0.5,1,2.125,0,,,,,0,50,50,50,,,,,,,,,454.81398279199493,454.81398279199493,454.81398279199493,454.81398279199493,454.81398279199493,454.81398279199493,454.81398279199493,454.81398279199493,454.7333772503281,454.81398279199493,454.81398279199493,454.81398279199493,454.7333772503281,454.81398279199493,454.81398279199493,454.81398279199493,456.9120913329971,460.9363331249988,454.81398279199493,454.81398279199493,459.98295712499385,454.81398279199493,454.81398279199493,454.81398279199493,454.81398279199493,455.28208212499885,456.3523296249987,455.25186116666396,,456.9120913329971,457.98598724999465,456.8803484996645,,454.81398279199493,459.98295712499385,454.81398279199493,459.98295712499385,460.02426029199705,460.6809403329971,454.81398279199493,2,1,0.46579662500153063,reldom2_s018,001,2025-02-21_12h29.32.705,Where-A-Scan_AC,2022.2.5,None,
39,First_Order,7.0,audwhere,stimulus/audwhere_stim/dummy.wav,stimulus/audwhere_stim/dummy.wav,stimulus/audwhere_stim/right_toward_280h.wav,stimulus/audwhere_stim/right_away_300h.wav,stimulus/audwhere_stim/blank_white.png,stimulus/audwhere_stim/side_box.png,stimulus/audwhere_stim/side_yes.png,stimulus/audwhere_stim/side_no.png,None,Side,None,Side,1,0.0,0,5.125,0,5.125,0,5.125,0,0.0,0.625,0,0.0,0,0.0,0,0.0,0,0.0,0,0.0,0,0.0,1,0.5,1,2.125,0,,,,,0,51,51,51,,,,,,,,,460.9363331249988,460.9363331249988,460.9363331249988,460.9363331249988,460.9363331249988,460.9363331249988,460.9363331249988,460.9363331249988,460.85529875033,460.9363331249988,460.9363331249988,460.9363331249988,460.85529875033,460.9363331249988,460.9363331249988,460.9363331249988,463.0312669579944,467.05820737499744,460.9363331249988,460.9363331249988,466.10619920799945,460.9363331249988,460.9363331249988,460.9363331249988,460.9363331249988,461.40157641699625,462.47107333299937,461.3720807086613,,463.0312669579944,464.0610574999955,463.0010633746608,,460.9363331249988,466.10619920799945,460.9363331249988,466.10619920799945,466.148047374998,466.8025767500003,460.9363331249988,1,1,0.5559769160026917,reldom2_s018,001,2025-02-21_12h29.32.705,Where-A-Scan_AC,2022.2.5,None,
40,First_Order,7.0,audwhere,stimulus/audwhere_stim/dummy.wav,stimulus/audwhere_stim/dummy.wav,stimulus/audwhere_stim/left_away_280h.wav,stimulus/audwhere_stim/left_toward_300h.wav,stimulus/audwhere_stim/blank_white.png,stimulus/audwhere_stim/side_box.png,stimulus/audwhere_stim/side_yes.png,stimulus/audwhere_stim/side_no.png,None,Side,None,Side,1,0.0,0,5.125,0,5.125,0,5.125,0,0.0,0.625,0,0.0,0,0.0,0,0.0,0,0.0,0,0.0,0,0.0,1,0.5,1,2.125,0,,,,,0,52,52,52,,,,,,,,,467.05820737499744,467.05820737499744,467.05820737499744,467.05820737499744,467.05820737499744,467.05820737499744,467.05820737499744,467.05820737499744,466.9767400413276,467.05820737499744,467.05820737499744,467.05820737499744,466.9767400413276,467.05820737499744,467.05820737499744,467.05820737499744,469.1548299579954,473.2067054579966,467.05820737499744,467.05820737499744,472.23302720799984,467.05820737499744,467.05820737499744,467.05820737499744,467.05820737499744,467.52371033300005,468.5951752499968,467.49394195866284,,469.1548299579954,470.1847078329956,469.12420954166396,,467.05820737499744,472.23302720799984,467.05820737499744,472.23302720799984,472.27439537499595,472.93275683299726,467.05820737499744,1,1,1.0818920000019716,reldom2_s018,001,2025-02-21_12h29.32.705,Where-A-Scan_AC,2022.2.5,None,
0,0.0,None,fixation,stimulus/viswhere_stim/blank_white.png,stimulus/viswhere_stim/blank_white.png,stimulus/audwhere_stim/blank_white.png,stimulus/audwhere_stim/blank_white.png,stimulus/viswhere_stim/blank_white.png,stimulus/viswhere_stim/blank_white.png,stimulus/viswhere_stim/blank_white.png,stimulus/viswhere_stim/blank_white.png,0.0,0.0,0.0,0.0,0,0.0,0,0.0,0,0.0,0,0.0,0,0.0,0.0,0,0.0,0,0.0,0,0.0,0,0.0,0,0.0,0,0.0,0,0.0,0,0.0,8,,,,,0,53,53,53,,,,,,,,,473.2067054579966,473.2067054579966,473.2067054579966,473.2067054579966,473.2067054579966,473.2067054579966,473.2067054579966,473.2067054579966,473.10680412533304,473.2067054579966,473.2067054579966,473.2067054579966,473.10680412533304,473.2067054579966,473.2067054579966,473.2067054579966,473.2067054579966,473.2067054579966,473.2067054579966,473.2067054579966,473.2067054579966,473.2067054579966,473.2067054579966,473.2067054579966,473.2067054579966,473.2067054579966,473.2067054579966,473.15680412533305,473.2067054579966,473.2067054579966,473.2067054579966,473.15680412533305,473.2067054579966,473.2067054579966,473.2067054579966,473.2067054579966,473.2067054579966,478.41203554199456,478.41203554199456,481.35035737499857,None,0,,reldom2_s018,001,2025-02-21_12h29.32.705,Where-A-Scan_AC,2022.2.5,None,
41,Second_Order,7.0,audwhere,stimulus/audwhere_stim/left_away_300h.wav,stimulus/audwhere_stim/left_toward_300h.wav,stimulus/audwhere_stim/right_away_290h.wav,stimulus/audwhere_stim/right_toward_290h.wav,stimulus/viswhere_stim/match_blank.png,stimulus/audwhere_stim/match_box.png,stimulus/viswhere_stim/match_yes.png,stimulus/viswhere_stim/match_no.png,1.0,Match,Side,Side,1,5.125,0,5.125,0,5.125,0,5.125,0,0.75,0.75,0,0.0,0,0.0,0,0.0,0,0.0,1,0.5,1,2.125,1,0.5,1,2.125,0,,,,,0,54,54,54,,,,,,,,,481.35035737499857,486.4704885829997,481.35035737499857,481.35035737499857,481.35035737499857,481.35035737499857,481.80719799999497,482.805655791999,481.8201398746644,,483.42856195799686,484.42604179199407,483.4407673746648,,486.4704885829997,487.3200006249972,489.3706357919946,493.30673470799957,487.3200006249972,487.3200006249972,492.4895689999976,487.3200006249972,487.3200006249972,487.3200006249972,487.3200006249972,487.7396672499963,488.81022370799474,487.70966824966695,,489.3706357919946,490.44400929199765,489.3404617086601,,487.3200006249972,492.4895689999976,487.3200006249972,492.4895689999976,492.4895689999976,,487.3200006249972,1,1,0.6457958750033868,reldom2_s018,001,2025-02-21_12h29.32.705,Where-A-Scan_AC,2022.2.5,None,
42,Second_Order,7.0,audwhere,stimulus/audwhere_stim/left_away_280h.wav,stimulus/audwhere_stim/right_away_270h.wav,stimulus/audwhere_stim/right_toward_270h.wav,stimulus/audwhere_stim/left_toward_280h.wav,stimulus/viswhere_stim/match_blank.png,stimulus/audwhere_stim/match_box.png,stimulus/viswhere_stim/match_yes.png,stimulus/viswhere_stim/match_no.png,1.0,Match,Direction,Direction,1,5.125,0,5.125,0,5.125,0,5.125,0,0.625,0.625,0,0.0,0,0.0,0,0.0,0,0.0,1,0.5,1,2.125,1,0.5,1,2.125,0,,,,,0,55,55,55,,,,,,,,,493.30673470799957,498.4300400419961,493.30673470799957,493.30673470799957,493.30673470799957,493.30673470799957,493.76438616700034,494.7535165829977,493.7674853746614,494.7535165829977,495.38924266699905,496.3870101249995,495.4014602916616,,498.4300400419961,499.15805220799666,501.19906029199774,,499.15805220799666,499.15805220799666,504.31208537499333,499.15805220799666,499.15805220799666,499.15805220799666,499.15805220799666,499.5750342079991,500.6402988329937,499.5453672086626,,501.19906029199774,502.2682285829942,501.1689176246621,,499.15805220799666,504.31208537499333,499.15805220799666,504.31208537499333,504.35313949999545,505.0084518749936,499.15805220799666,1,1,1.015058750002936,reldom2_s018,001,2025-02-21_12h29.32.705,Where-A-Scan_AC,2022.2.5,None,
0,0.0,None,fixation,stimulus/viswhere_stim/blank_white.png,stimulus/viswhere_stim/blank_white.png,stimulus/audwhere_stim/blank_white.png,stimulus/audwhere_stim/blank_white.png,stimulus/viswhere_stim/blank_white.png,stimulus/viswhere_stim/blank_white.png,stimulus/viswhere_stim/blank_white.png,stimulus/viswhere_stim/blank_white.png,0.0,0.0,0.0,0.0,0,0.0,0,0.0,0,0.0,0,0.0,0,0.0,0.0,0,0.0,0,0.0,0,0.0,0,0.0,0,0.0,0,0.0,0,0.0,0,0.0,10,,,,,0,56,56,56,,,,,,,,,505.24231591699936,505.24231591699936,505.24231591699936,505.24231591699936,505.24231591699936,505.24231591699936,505.24231591699936,505.24231591699936,505.14178520832695,505.24231591699936,505.24231591699936,505.24231591699936,505.14178520832695,505.24231591699936,505.24231591699936,505.24231591699936,505.24231591699936,505.24231591699936,505.24231591699936,505.24231591699936,505.24231591699936,505.24231591699936,505.24231591699936,505.24231591699936,505.24231591699936,505.24231591699936,505.24231591699936,505.19178520832696,505.24231591699936,505.24231591699936,505.24231591699936,505.19178520832696,505.24231591699936,505.24231591699936,505.24231591699936,505.24231591699936,505.24231591699936,510.42993487499916,510.42993487499916,515.4897590419932,None,0,,reldom2_s018,001,2025-02-21_12h29.32.705,Where-A-Scan_AC,2022.2.5,None,
43,First_Order,8.0,audwhere,stimulus/audwhere_stim/dummy.wav,stimulus/audwhere_stim/dummy.wav,stimulus/audwhere_stim/left_away_270h.wav,stimulus/audwhere_stim/right_away_300h.wav,stimulus/audwhere_stim/blank_white.png,stimulus/audwhere_stim/direction_box.png,stimulus/audwhere_stim/direction_yes.png,stimulus/audwhere_stim/direction_no.png,None,Direction,None,Direction,1,0.0,0,5.125,0,5.125,0,5.125,0,0.0,0.625,0,0.0,0,0.0,0,0.0,0,0.0,0,0.0,0,0.0,1,0.5,1,2.125,0,,,,,0,57,57,57,,,,,,,,,515.4897590419932,515.4897590419932,515.4897590419932,515.4897590419932,515.4897590419932,515.4897590419932,515.4897590419932,515.4897590419932,515.4168444166668,515.4897590419932,515.4897590419932,515.4897590419932,515.4168444166668,515.4897590419932,515.4897590419932,515.4897590419932,517.5940954170001,,515.4897590419932,515.4897590419932,520.6384155829946,515.4897590419932,515.4897590419932,515.4897590419932,515.4897590419932,515.9574058750004,517.0331859999933,515.9273392496655,,517.5940954170001,518.6266825419953,517.563775166662,,515.4897590419932,520.6384155829946,515.4897590419932,520.6384155829946,520.6794933329948,521.3386996669942,515.4897590419932,1,1,1.1139168330046232,reldom2_s018,001,2025-02-21_12h29.32.705,Where-A-Scan_AC,2022.2.5,None,
44,First_Order,8.0,audwhere,stimulus/audwhere_stim/dummy.wav,stimulus/audwhere_stim/dummy.wav,stimulus/audwhere_stim/left_toward_300h.wav,stimulus/audwhere_stim/left_away_280h.wav,stimulus/audwhere_stim/blank_white.png,stimulus/audwhere_stim/direction_box.png,stimulus/audwhere_stim/direction_yes.png,stimulus/audwhere_stim/direction_no.png,None,Direction,None,Side,2,0.0,0,5.125,0,5.125,0,5.125,0,0.0,0.625,0,0.0,0,0.0,0,0.0,0,0.0,0,0.0,0,0.0,1,0.5,1,2.125,0,,,,,0,58,58,58,,,,,,,,,521.5936246249985,521.5936246249985,521.5936246249985,521.5936246249985,521.5936246249985,521.5936246249985,521.5936246249985,521.5936246249985,521.5129375003327,521.5936246249985,521.5936246249985,521.5936246249985,521.5129375003327,521.5936246249985,521.5936246249985,521.5936246249985,523.6989550829967,,521.5936246249985,521.5936246249985,526.7420157919987,521.5936246249985,521.5936246249985,521.5936246249985,521.5936246249985,522.0605428329945,523.0910931669932,522.0301704996639,,523.6989550829967,524.729741916999,523.6684422086657,,521.5936246249985,526.7420157919987,521.5936246249985,526.7420157919987,526.824761207994,527.4840334580003,521.5936246249985,2,1,1.2555127500090748,reldom2_s018,001,2025-02-21_12h29.32.705,Where-A-Scan_AC,2022.2.5,None,
45,First_Order,8.0,audwhere,stimulus/audwhere_stim/dummy.wav,stimulus/audwhere_stim/dummy.wav,stimulus/audwhere_stim/right_away_290h.wav,stimulus/audwhere_stim/left_away_280h.wav,stimulus/audwhere_stim/blank_white.png,stimulus/audwhere_stim/side_box.png,stimulus/audwhere_stim/side_yes.png,stimulus/audwhere_stim/side_no.png,None,Side,None,Direction,2,0.0,0,5.125,0,5.125,0,5.125,0,0.0,0.625,0,0.0,0,0.0,0,0.0,0,0.0,0,0.0,0,0.0,1,0.5,1,2.125,0,,,,,0,59,59,59,,,,,,,,,527.6978309579936,527.6978309579936,527.6978309579936,527.6978309579936,527.6978309579936,527.6978309579936,527.6978309579936,527.6978309579936,527.6173667913337,527.6978309579936,527.6978309579936,527.6978309579936,527.6173667913337,527.6978309579936,527.6978309579936,527.6978309579936,529.7929269579981,533.8171078749947,527.6978309579936,527.6978309579936,532.8657989999992,527.6978309579936,527.6978309579936,527.6978309579936,527.6978309579936,528.1638143749951,529.2354062919985,528.1337678336606,,529.7929269579981,530.8674908749963,529.7630199166636,,527.6978309579936,532.8657989999992,527.6978309579936,532.8657989999992,532.908533707996,533.5632102499949,527.6978309579936,2,1,0.8766050420090323,reldom2_s018,001,2025-02-21_12h29.32.705,Where-A-Scan_AC,2022.2.5,None,
46,First_Order,8.0,audwhere,stimulus/audwhere_stim/dummy.wav,stimulus/audwhere_stim/dummy.wav,stimulus/audwhere_stim/left_away_270h.wav,stimulus/audwhere_stim/right_away_290h.wav,stimulus/audwhere_stim/blank_white.png,stimulus/audwhere_stim/direction_box.png,stimulus/audwhere_stim/direction_yes.png,stimulus/audwhere_stim/direction_no.png,None,Direction,None,Direction,1,0.0,0,5.125,0,5.125,0,5.125,0,0.0,0.625,0,0.0,0,0.0,0,0.0,0,0.0,0,0.0,0,0.0,1,0.5,1,2.125,0,,,,,0,60,60,60,,,,,,,,,533.8171078749947,533.8171078749947,533.8171078749947,533.8171078749947,533.8171078749947,533.8171078749947,533.8171078749947,533.8171078749947,533.7376240833274,533.8171078749947,533.8171078749947,533.8171078749947,533.7376240833274,533.8171078749947,533.8171078749947,533.8171078749947,535.9294391249932,,533.8171078749947,533.8171078749947,538.9743521249984,533.8171078749947,533.8171078749947,533.8171078749947,533.8171078749947,534.2856830829987,535.3201909169948,534.2553277086665,,535.9294391249932,536.9620162919964,535.8988975836658,,533.8171078749947,538.9743521249984,533.8171078749947,538.9743521249984,539.0156134999997,539.6732839169999,533.8171078749947,1,1,1.2300726250032312,reldom2_s018,001,2025-02-21_12h29.32.705,Where-A-Scan_AC,2022.2.5,None,
0,0.0,None,fixation,stimulus/viswhere_stim/blank_white.png,stimulus/viswhere_stim/blank_white.png,stimulus/audwhere_stim/blank_white.png,stimulus/audwhere_stim/blank_white.png,stimulus/viswhere_stim/blank_white.png,stimulus/viswhere_stim/blank_white.png,stimulus/viswhere_stim/blank_white.png,stimulus/viswhere_stim/blank_white.png,0.0,0.0,0.0,0.0,0,0.0,0,0.0,0,0.0,0,0.0,0,0.0,0.0,0,0.0,0,0.0,0,0.0,0,0.0,0,0.0,0,0.0,0,0.0,0,0.0,9,,,,,0,61,61,61,,,,,,,,,539.948850582994,539.948850582994,539.948850582994,539.948850582994,539.948850582994,539.948850582994,539.948850582994,539.948850582994,539.8477292503322,539.948850582994,539.948850582994,539.948850582994,539.8477292503322,539.948850582994,539.948850582994,539.948850582994,539.948850582994,539.948850582994,539.948850582994,539.948850582994,539.948850582994,539.948850582994,539.948850582994,539.948850582994,539.948850582994,539.948850582994,539.948850582994,539.8977292503322,539.948850582994,539.948850582994,539.948850582994,539.8977292503322,539.948850582994,539.948850582994,539.948850582994,539.948850582994,539.948850582994,545.1682827499972,545.1682827499972,549.1280263329973,None,0,,reldom2_s018,001,2025-02-21_12h29.32.705,Where-A-Scan_AC,2022.2.5,None,
47,Second_Order,8.0,audwhere,stimulus/audwhere_stim/right_away_280h.wav,stimulus/audwhere_stim/left_away_290h.wav,stimulus/audwhere_stim/right_toward_300h.wav,stimulus/audwhere_stim/right_away_300h.wav,stimulus/viswhere_stim/match_blank.png,stimulus/audwhere_stim/match_box.png,stimulus/viswhere_stim/match_yes.png,stimulus/viswhere_stim/match_no.png,2.0,Match,Direction,Side,2,5.125,0,5.125,0,5.125,0,5.125,0,0.75,0.75,0,0.0,0,0.0,0,0.0,0,0.0,1,0.5,1,2.125,1,0.5,1,2.125,0,,,,,0,62,62,62,,,,,,,,,549.1280263329973,554.2418825829955,549.1280263329973,549.1280263329973,549.1280263329973,549.1280263329973,549.5784344999993,550.5665766249949,549.5928129586648,,551.2024714999934,552.1994242499932,551.2137271666618,,554.2418825829955,555.0918668749946,557.1416710829944,,555.0918668749946,555.0918668749946,560.2520417079941,555.0918668749946,555.0918668749946,555.0918668749946,555.0918668749946,555.510801999997,556.5819554169939,555.4806761246621,,557.1416710829944,558.2124125829941,557.1121918336614,,555.0918668749946,560.2520417079941,555.0918668749946,560.2520417079941,560.2520417079941,,555.0918668749946,2,1,1.1275544580057613,reldom2_s018,001,2025-02-21_12h29.32.705,Where-A-Scan_AC,2022.2.5,None,
48,Second_Order,8.0,audwhere,stimulus/audwhere_stim/left_away_280h.wav,stimulus/audwhere_stim/right_away_290h.wav,stimulus/audwhere_stim/left_toward_280h.wav,stimulus/audwhere_stim/right_toward_300h.wav,stimulus/viswhere_stim/match_blank.png,stimulus/audwhere_stim/match_box.png,stimulus/viswhere_stim/match_yes.png,stimulus/viswhere_stim/match_no.png,1.0,Match,Direction,Direction,1,5.125,0,5.125,0,5.125,0,5.125,0,0.625,0.625,0,0.0,0,0.0,0,0.0,0,0.0,1,0.5,1,2.125,1,0.5,1,2.125,0,,,,,0,63,63,63,,,,,,,,,561.068817249994,566.1861200419953,561.068817249994,561.068817249994,561.068817249994,561.068817249994,561.5229859169995,562.5106188749996,561.5371323746624,,563.1461752079995,564.1438352499972,563.1581102496605,,566.1861200419953,566.9166438329994,568.9987985419939,,566.9166438329994,566.9166438329994,572.0656251249966,566.9166438329994,566.9166438329994,566.9166438329994,566.9166438329994,567.3302550829976,568.3952019999997,567.3011953746648,,568.9987985419939,570.0681359999944,568.9687866666611,,566.9166438329994,572.0656251249966,566.9166438329994,572.0656251249966,572.106502249997,572.7614686249944,566.9166438329994,1,1,1.0940688750051777,reldom2_s018,001,2025-02-21_12h29.32.705,Where-A-Scan_AC,2022.2.5,None,
0,0.0,None,fixation,stimulus/viswhere_stim/blank_white.png,stimulus/viswhere_stim/blank_white.png,stimulus/audwhere_stim/blank_white.png,stimulus/audwhere_stim/blank_white.png,stimulus/viswhere_stim/blank_white.png,stimulus/viswhere_stim/blank_white.png,stimulus/viswhere_stim/blank_white.png,stimulus/viswhere_stim/blank_white.png,0.0,0.0,0.0,0.0,0,0.0,0,0.0,0,0.0,0,0.0,0,0.0,0.0,0,0.0,0,0.0,0,0.0,0,0.0,0,0.0,0,0.0,0,0.0,0,0.0,16,,,,,0,64,64,64,,,,,,,,,572.9965803749947,572.9965803749947,572.9965803749947,572.9965803749947,572.9965803749947,572.9965803749947,572.9965803749947,572.9965803749947,572.8948019583278,572.9965803749947,572.9965803749947,572.9965803749947,572.8948019583278,572.9965803749947,572.9965803749947,572.9965803749947,572.9965803749947,572.9965803749947,572.9965803749947,572.9965803749947,572.9965803749947,572.9965803749947,572.9965803749947,572.9965803749947,572.9965803749947,572.9965803749947,572.9965803749947,572.9448019583277,572.9965803749947,572.9965803749947,572.9965803749947,572.9448019583277,572.9965803749947,572.9965803749947,572.9965803749947,572.9965803749947,572.9965803749947,578.1798078749998,578.1798078749998,589.1368647499985,None,0,,reldom2_s018,001,2025-02-21_12h29.32.705,Where-A-Scan_AC,2022.2.5,None,
