Trial,Order,Block,Type,Stimuli_File1,Stimuli_File2,Stimuli_File3,Stimuli_File4,Cue_File1,Cue_File2,Response_File_Yes,Response_File_No,Match,Cue_Dimension,Pair1_Dimension,Pair2_Dimension,Key,Cue1_Duration,Cue1_Onset,Cue2_Duration,Cue2_Onset,ResponseYes_Duration,ResponseYes_Onset,ResponseNo_Duration,ResponseNo_Onset,ITI_Within,ITI_Between,Image1_Duration,Image1_Onset,Image2_Duration,Image2_Onset,Image3_Duration,Image3_Onset,Image4_Duration,Image4_Onset,Sound1_Duration,Sound1_Onset,Sound2_Duration,Sound2_Onset,Sound3_Duration,Sound3_Onset,Sound4_Duration,Sound4_Onset,Fixation_Duration,trials_2.thisRepN,trials_2.thisTrialN,trials_2.thisN,trials_2.thisIndex,trials.thisRepN,trials.thisTrialN,trials.thisN,trials.thisIndex,text_start.started,key_resp_start.started,key_resp_start.keys,key_resp_start.rt,text2.started,key_resp_2.started,key_resp_2.keys,key_resp_2.rt,cue_file1.started,cue_file1.stopped,image_1.started,image_1.stopped,image_2.started,image_2.stopped,sound_icon1.started,sound_icon1.stopped,sound_1.started,sound_1.stopped,sound_icon2.started,sound_icon2.stopped,sound_2.started,sound_2.stopped,image_blank_1.started,image_blank_1.stopped,key_press.started,key_press.stopped,fixation_text.started,cue_file2.started,cue_file2.stopped,image_3.started,image_3.stopped,image_4.started,image_4.stopped,sound_icon3.started,sound_icon3.stopped,sound_3.started,sound_3.stopped,sound_icon4.started,sound_icon4.stopped,sound_4.started,sound_4.stopped,response_yes.started,response_yes.stopped,response_no.started,response_no.stopped,iti_blank.started,iti_blank.stopped,fixation_text.stopped,key_press.keys,key_press.corr,key_press.rt,participant,session,date,expName,psychopyVersion,frameRate,
,,,,,,,,,,,,,,,,,,,,,,,,,,,,,,,,,,,,,,,,,,,,,,,,,,,,7.939334624999901,7.939334624999901,2,1.75004374999844,,,,,,,,,,,,,,,,,,,,,,,,,,,,,,,,,,,,,,,,,,,,,,,,reldom2_s018,001,2025-02-21_11h55.52.944,Aud-A-Scan_AC,2022.2.5,None,
,,,,,,,,,,,,,,,,,,,,,,,,,,,,,,,,,,,,,,,,,,,,0,0,0,0,,,,,,,,,9.726499582997349,9.726499582997349,5,17.083776250001392,,,,,,,,,,,,,,,,,,,,,,,,,,,,,,,,,,,,,,,,,,,,reldom2_s018,001,2025-02-21_11h55.52.944,Aud-A-Scan_AC,2022.2.5,None,
,,,,,,,,,,,,,,,,,,,,,,,,,,,,,,,,,,,,,,,,,,,,1,0,1,0,,,,,,,,,26.831120041999384,26.831120041999384,5,1.9811414169962518,,,,,,,,,,,,,,,,,,,,,,,,,,,,,,,,,,,,,,,,,,,,reldom2_s018,001,2025-02-21_11h55.52.944,Aud-A-Scan_AC,2022.2.5,None,
,,,,,,,,,,,,,,,,,,,,,,,,,,,,,,,,,,,,,,,,,,,,2,0,2,0,,,,,,,,,28.829307958003483,28.829307958003483,5,1.9812172499950975,,,,,,,,,,,,,,,,,,,,,,,,,,,,,,,,,,,,,,,,,,,,reldom2_s018,001,2025-02-21_11h55.52.944,Aud-A-Scan_AC,2022.2.5,None,
,,,,,,,,,,,,,,,,,,,,,,,,,,,,,,,,,,,,,,,,,,,,3,0,3,0,,,,,,,,,30.82344779199775,30.82344779199775,5,1.9873154169908958,,,,,,,,,,,,,,,,,,,,,,,,,,,,,,,,,,,,,,,,,,,,reldom2_s018,001,2025-02-21_11h55.52.944,Aud-A-Scan_AC,2022.2.5,None,
0,0.0,None,fixation,stimulus/audwhere_stim/blank_white.png,stimulus/audwhere_stim/blank_white.png,stimulus/audwhat_stim/blank_white.png,stimulus/audwhat_stim/blank_white.png,stimulus/audwhere_stim/blank_white.png,stimulus/audwhere_stim/blank_white.png,stimulus/audwhere_stim/blank_white.png,stimulus/audwhere_stim/blank_white.png,0.0,0.0,0.0,0.0,0,0.0,0,0.0,0,0.0,0,0.0,0,0.0,0.0,0,0,0,0,0,0,0,0,0,0.0,0,0.0,0,0.0,0,0.0,16,,,,,0,0,0,0,,,,,,,,,33.03284487500059,33.03284487500059,33.03284487500059,33.03284487500059,33.03284487500059,33.03284487500059,33.03284487500059,33.03284487500059,32.93556491666629,33.03284487500059,33.03284487500059,33.03284487500059,32.93556491666629,33.03284487500059,33.03284487500059,33.03284487500059,33.03284487500059,33.03284487500059,33.03284487500059,33.03284487500059,33.03284487500059,33.03284487500059,33.03284487500059,33.03284487500059,33.03284487500059,33.03284487500059,33.03284487500059,32.985564916666284,33.03284487500059,33.03284487500059,33.03284487500059,32.985564916666284,33.03284487500059,33.03284487500059,33.03284487500059,33.03284487500059,33.03284487500059,38.21735170800093,38.21735170800093,49.238893207999354,None,0,,reldom2_s018,001,2025-02-21_11h55.52.944,Aud-A-Scan_AC,2022.2.5,None,
1,First_Order,1.0,audwhere,stimulus/audwhere_stim/dummy.wav,stimulus/audwhere_stim/dummy.wav,stimulus/audwhere_stim/left_away_280h.wav,stimulus/audwhere_stim/right_away_290h.wav,stimulus/audwhere_stim/blank_white.png,stimulus/audwhere_stim/direction_box.png,stimulus/audwhere_stim/direction_yes.png,stimulus/audwhere_stim/direction_no.png,None,Direction,None,Direction,1,0.0,0,5.125,0,5.125,0,5.125,0,0.0,0.625,0,0,0,0,0,0,0,0,0,0.0,0,0.0,1,0.5,1,2.125,0,,,,,0,1,1,1,,,,,,,,,49.238893207999354,49.238893207999354,49.238893207999354,49.238893207999354,49.238893207999354,49.238893207999354,49.238893207999354,49.238893207999354,49.170467583002754,49.238893207999354,49.238893207999354,49.238893207999354,49.170467583002754,49.238893207999354,49.238893207999354,49.238893207999354,51.3257178749991,,49.238893207999354,49.238893207999354,54.396307041999535,49.238893207999354,49.238893207999354,49.238893207999354,49.238893207999354,49.72747062500275,50.792010707999,49.69953299966825,,51.3257178749991,52.395304541998485,51.29765187466934,,49.238893207999354,54.396307041999535,49.238893207999354,54.396307041999535,54.43582037500164,55.1005398749985,49.238893207999354,2,0,0.9547992919979151,reldom2_s018,001,2025-02-21_11h55.52.944,Aud-A-Scan_AC,2022.2.5,None,
2,First_Order,1.0,audwhere,stimulus/audwhere_stim/dummy.wav,stimulus/audwhere_stim/dummy.wav,stimulus/audwhere_stim/left_away_270h.wav,stimulus/audwhere_stim/left_toward_270h.wav,stimulus/audwhere_stim/blank_white.png,stimulus/audwhere_stim/direction_box.png,stimulus/audwhere_stim/direction_yes.png,stimulus/audwhere_stim/direction_no.png,None,Direction,None,Side,2,0.0,0,5.125,0,5.125,0,5.125,0,0.0,0.625,0,0,0,0,0,0,0,0,0,0.0,0,0.0,1,0.5,1,2.125,0,,,,,0,2,2,2,,,,,,,,,55.34125433299778,55.34125433299778,55.34125433299778,55.34125433299778,55.34125433299778,55.34125433299778,55.34125433299778,55.34125433299778,55.27288700033581,55.34125433299778,55.34125433299778,55.34125433299778,55.27288700033581,55.34125433299778,55.34125433299778,55.34125433299778,57.435610417000134,61.46253554199939,55.34125433299778,55.34125433299778,60.51581216700288,55.34125433299778,55.34125433299778,55.34125433299778,55.34125433299778,55.832329791999655,56.90095816700341,55.80447383366506,,57.435610417000134,58.50635837500158,57.40757279166816,,55.34125433299778,60.51581216700288,55.34125433299778,60.51581216700288,60.555241417001525,61.22189533300116,55.34125433299778,1,0,1.8438955000019632,reldom2_s018,001,2025-02-21_11h55.52.944,Aud-A-Scan_AC,2022.2.5,None,
3,First_Order,1.0,audwhere,stimulus/audwhere_stim/dummy.wav,stimulus/audwhere_stim/dummy.wav,stimulus/audwhere_stim/left_toward_300h.wav,stimulus/audwhere_stim/left_away_280h.wav,stimulus/audwhere_stim/blank_white.png,stimulus/audwhere_stim/direction_box.png,stimulus/audwhere_stim/direction_yes.png,stimulus/audwhere_stim/direction_no.png,None,Direction,None,Side,2,0.0,0,5.125,0,5.125,0,5.125,0,0.0,0.625,0,0,0,0,0,0,0,0,0,0.0,0,0.0,1,0.5,1,2.125,0,,,,,0,3,3,3,,,,,,,,,61.46253554199939,61.46253554199939,61.46253554199939,61.46253554199939,61.46253554199939,61.46253554199939,61.46253554199939,61.46253554199939,61.394105500332564,61.46253554199939,61.46253554199939,61.46253554199939,61.394105500332564,61.46253554199939,61.46253554199939,61.46253554199939,63.56198500000028,,61.46253554199939,61.46253554199939,66.65118591699866,61.46253554199939,61.46253554199939,61.46253554199939,61.46253554199939,61.9538253330029,63.02526450000005,61.925725791665414,,63.56198500000028,64.59121270800097,63.53370666666548,,61.46253554199939,66.65118591699866,61.46253554199939,66.65118591699866,66.69085508299759,67.35946687500109,61.46253554199939,2,1,1.0751628339930903,reldom2_s018,001,2025-02-21_11h55.52.944,Aud-A-Scan_AC,2022.2.5,None,
4,First_Order,1.0,audwhere,stimulus/audwhere_stim/dummy.wav,stimulus/audwhere_stim/dummy.wav,stimulus/audwhere_stim/left_away_270h.wav,stimulus/audwhere_stim/left_toward_290h.wav,stimulus/audwhere_stim/blank_white.png,stimulus/audwhere_stim/side_box.png,stimulus/audwhere_stim/side_yes.png,stimulus/audwhere_stim/side_no.png,None,Side,None,Side,1,0.0,0,5.125,0,5.125,0,5.125,0,0.0,0.625,0,0,0,0,0,0,0,0,0,0.0,0,0.0,1,0.5,1,2.125,0,,,,,0,4,4,4,,,,,,,,,67.56533354199928,67.56533354199928,67.56533354199928,67.56533354199928,67.56533354199928,67.56533354199928,67.56533354199928,67.56533354199928,67.49280020833442,67.56533354199928,67.56533354199928,67.56533354199928,67.49280020833442,67.56533354199928,67.56533354199928,67.56533354199928,69.66035612500127,,67.56533354199928,67.56533354199928,72.73759495800186,67.56533354199928,67.56533354199928,67.56533354199928,67.56533354199928,68.01144100000238,69.08045508299983,67.98330041666874,,69.66035612500127,70.68753404200106,69.6320402916647,,67.56533354199928,72.73759495800186,67.56533354199928,72.73759495800186,72.7770292080022,73.44614966699737,67.56533354199928,1,1,1.3158704589950503,reldom2_s018,001,2025-02-21_11h55.52.944,Aud-A-Scan_AC,2022.2.5,None,
0,0.0,None,fixation,stimulus/audwhere_stim/blank_white.png,stimulus/audwhere_stim/blank_white.png,stimulus/audwhat_stim/blank_white.png,stimulus/audwhat_stim/blank_white.png,stimulus/audwhere_stim/blank_white.png,stimulus/audwhere_stim/blank_white.png,stimulus/audwhere_stim/blank_white.png,stimulus/audwhere_stim/blank_white.png,0.0,0.0,0.0,0.0,0,0.0,0,0.0,0,0.0,0,0.0,0,0.0,0.0,0,0,0,0,0,0,0,0,0,0.0,0,0.0,0,0.0,0,0.0,9,,,,,0,5,5,5,,,,,,,,,73.66969275000156,73.66969275000156,73.66969275000156,73.66969275000156,73.66969275000156,73.66969275000156,73.66969275000156,73.66969275000156,73.5794830003307,73.66969275000156,73.66969275000156,73.66969275000156,73.5794830003307,73.66969275000156,73.66969275000156,73.66969275000156,73.66969275000156,73.66969275000156,73.66969275000156,73.66969275000156,73.66969275000156,73.66969275000156,73.66969275000156,73.66969275000156,73.66969275000156,73.66969275000156,73.66969275000156,73.62948300033071,73.66969275000156,73.66969275000156,73.66969275000156,73.62948300033071,73.66969275000156,73.66969275000156,73.66969275000156,73.66969275000156,73.66969275000156,78.90388354199968,78.90388354199968,82.80260841699783,None,0,,reldom2_s018,001,2025-02-21_11h55.52.944,Aud-A-Scan_AC,2022.2.5,None,
5,Second_Order,1.0,audwhere,stimulus/audwhere_stim/left_away_290h.wav,stimulus/audwhere_stim/right_away_300h.wav,stimulus/audwhere_stim/right_toward_290h.wav,stimulus/audwhere_stim/left_toward_300h.wav,stimulus/audwhere_stim/match_blank.png,stimulus/audwhere_stim/match_box.png,stimulus/audwhere_stim/match_yes.png,stimulus/audwhere_stim/match_no.png,1.0,Match,Direction,Direction,1,5.125,0,5.125,0,5.125,0,5.125,0,0.75,0.75,0,0,0,0,0,0,0,0,1,0.5,1,2.125,1,0.5,1,2.125,0,,,,,0,6,6,6,,,,,,,,,82.80260841699783,87.91724004199932,82.80260841699783,82.80260841699783,82.80260841699783,82.80260841699783,83.26876366700162,84.25779645799776,83.26888545867065,,84.87642970799789,85.87442762499995,84.88889687466532,,87.91724004199932,88.76894637499936,90.82297537499835,,88.76894637499936,88.76894637499936,93.91622945800191,88.76894637499936,88.76894637499936,88.76894637499936,88.76894637499936,89.21628091700404,90.28557949999959,89.18822266666781,,90.82297537499835,91.85541554199881,90.79342795866638,,88.76894637499936,93.91622945800191,88.76894637499936,93.91622945800191,93.95564216699859,,88.76894637499936,1,1,1.2804702919966076,reldom2_s018,001,2025-02-21_11h55.52.944,Aud-A-Scan_AC,2022.2.5,None,
6,Second_Order,1.0,audwhere,stimulus/audwhere_stim/left_away_280h.wav,stimulus/audwhere_stim/right_away_280h.wav,stimulus/audwhere_stim/left_away_300h.wav,stimulus/audwhere_stim/left_toward_280h.wav,stimulus/audwhere_stim/match_blank.png,stimulus/audwhere_stim/match_box.png,stimulus/audwhere_stim/match_yes.png,stimulus/audwhere_stim/match_no.png,2.0,Match,Direction,Side,2,5.125,0,5.125,0,5.125,0,5.125,0,0.625,0.625,0,0,0,0,0,0,0,0,1,0.5,1,2.125,1,0.5,1,2.125,0,,,,,0,7,7,7,,,,,,,,,94.73492141700262,99.856760708004,94.73492141700262,94.73492141700262,94.73492141700262,94.73492141700262,95.19557291700039,96.1848004170024,95.19899466666926,96.1848004170024,96.82527270800347,97.82244437500049,96.83310558366453,,99.856760708004,100.5899694999971,102.64332683300017,,100.5899694999971,100.5899694999971,105.77529758300079,100.5899694999971,100.5899694999971,100.5899694999971,100.5899694999971,101.03602312500152,102.06337450000137,101.00822266666752,,102.64332683300017,103.67415266700118,102.61500366666975,,100.5899694999971,105.77529758300079,100.5899694999971,105.77529758300079,105.77529758300079,106.44006312500278,100.5899694999971,2,1,1.0706270829978166,reldom2_s018,001,2025-02-21_11h55.52.944,Aud-A-Scan_AC,2022.2.5,None,
0,0.0,None,fixation,stimulus/audwhere_stim/blank_white.png,stimulus/audwhere_stim/blank_white.png,stimulus/audwhat_stim/blank_white.png,stimulus/audwhat_stim/blank_white.png,stimulus/audwhere_stim/blank_white.png,stimulus/audwhere_stim/blank_white.png,stimulus/audwhere_stim/blank_white.png,stimulus/audwhere_stim/blank_white.png,0.0,0.0,0.0,0.0,0,0.0,0,0.0,0,0.0,0,0.0,0,0.0,0.0,0,0,0,0,0,0,0,0,0,0.0,0,0.0,0,0.0,0,0.0,10,,,,,0,8,8,8,,,,,,,,,106.6638737079993,106.6638737079993,106.6638737079993,106.6638737079993,106.6638737079993,106.6638737079993,106.6638737079993,106.6638737079993,106.5733964583361,106.6638737079993,106.6638737079993,106.6638737079993,106.5733964583361,106.6638737079993,106.6638737079993,106.6638737079993,106.6638737079993,106.6638737079993,106.6638737079993,106.6638737079993,106.6638737079993,106.6638737079993,106.6638737079993,106.6638737079993,106.6638737079993,106.6638737079993,106.6638737079993,106.62339645833612,106.6638737079993,106.6638737079993,106.6638737079993,106.62339645833612,106.6638737079993,106.6638737079993,106.6638737079993,106.6638737079993,106.6638737079993,111.85238237500016,111.85238237500016,116.91373970799759,None,0,,reldom2_s018,001,2025-02-21_11h55.52.944,Aud-A-Scan_AC,2022.2.5,None,
7,First_Order,2.0,audwhere,stimulus/audwhere_stim/dummy.wav,stimulus/audwhere_stim/dummy.wav,stimulus/audwhere_stim/left_away_300h.wav,stimulus/audwhere_stim/right_away_300h.wav,stimulus/audwhere_stim/blank_white.png,stimulus/audwhere_stim/side_box.png,stimulus/audwhere_stim/side_yes.png,stimulus/audwhere_stim/side_no.png,None,Side,None,Direction,2,0.0,0,5.125,0,5.125,0,5.125,0,0.0,0.625,0,0,0,0,0,0,0,0,0,0.0,0,0.0,1,0.5,1,2.125,0,,,,,0,9,9,9,,,,,,,,,116.91373970799759,116.91373970799759,116.91373970799759,116.91373970799759,116.91373970799759,116.91373970799759,116.91373970799759,116.91373970799759,116.83127233300038,116.91373970799759,116.91373970799759,116.91373970799759,116.83127233300038,116.91373970799759,116.91373970799759,116.91373970799759,118.98813058299856,123.02948220800317,116.91373970799759,116.91373970799759,122.1049517499996,116.91373970799759,116.91373970799759,116.91373970799759,116.91373970799759,117.36320637499739,118.40013958299824,117.33495058367068,,118.98813058299856,120.02726841699769,118.95942537466568,,116.91373970799759,122.1049517499996,116.91373970799759,122.1049517499996,122.1049517499996,122.78153008299705,116.91373970799759,2,1,2.202819541998906,reldom2_s018,001,2025-02-21_11h55.52.944,Aud-A-Scan_AC,2022.2.5,None,
8,First_Order,2.0,audwhere,stimulus/audwhere_stim/dummy.wav,stimulus/audwhere_stim/dummy.wav,stimulus/audwhere_stim/left_away_280h.wav,stimulus/audwhere_stim/right_away_270h.wav,stimulus/audwhere_stim/blank_white.png,stimulus/audwhere_stim/side_box.png,stimulus/audwhere_stim/side_yes.png,stimulus/audwhere_stim/side_no.png,None,Side,None,Direction,2,0.0,0,5.125,0,5.125,0,5.125,0,0.0,0.625,0,0,0,0,0,0,0,0,0,0.0,0,0.0,1,0.5,1,2.125,0,,,,,0,10,10,10,,,,,,,,,123.02948220800317,123.02948220800317,123.02948220800317,123.02948220800317,123.02948220800317,123.02948220800317,123.02948220800317,123.02948220800317,122.95559612533737,123.02948220800317,123.02948220800317,123.02948220800317,122.95559612533737,123.02948220800317,123.02948220800317,123.02948220800317,125.11438666700269,,123.02948220800317,123.02948220800317,128.1961172079973,123.02948220800317,123.02948220800317,123.02948220800317,123.02948220800317,123.48171687500144,124.52446824999788,123.45302129166909,,125.11438666700269,126.15765570799704,125.08552191666628,,123.02948220800317,128.1961172079973,123.02948220800317,128.1961172079973,128.23623220800073,128.91621016700083,123.02948220800317,2,1,2.5552143750028335,reldom2_s018,001,2025-02-21_11h55.52.944,Aud-A-Scan_AC,2022.2.5,None,
9,First_Order,2.0,audwhere,stimulus/audwhere_stim/dummy.wav,stimulus/audwhere_stim/dummy.wav,stimulus/audwhere_stim/left_away_280h.wav,stimulus/audwhere_stim/right_away_300h.wav,stimulus/audwhere_stim/blank_white.png,stimulus/audwhere_stim/direction_box.png,stimulus/audwhere_stim/direction_yes.png,stimulus/audwhere_stim/direction_no.png,None,Direction,None,Direction,1,0.0,0,5.125,0,5.125,0,5.125,0,0.0,0.625,0,0,0,0,0,0,0,0,0,0.0,0,0.0,1,0.5,1,2.125,0,,,,,0,11,11,11,,,,,,,,,129.12435545799963,129.12435545799963,129.12435545799963,129.12435545799963,129.12435545799963,129.12435545799963,129.12435545799963,129.12435545799963,129.04954350033418,129.12435545799963,129.12435545799963,129.12435545799963,129.04954350033418,129.12435545799963,129.12435545799963,129.12435545799963,131.22641100000328,,129.12435545799963,129.12435545799963,134.2905430000028,129.12435545799963,129.12435545799963,129.12435545799963,129.12435545799963,129.5815472500035,130.6310922499979,129.55264891666982,,131.22641100000328,132.27793774999736,131.1974298336684,,129.12435545799963,134.2905430000028,129.12435545799963,134.2905430000028,134.33095516700268,135.01527145800355,129.12435545799963,1,1,2.090086333002546,reldom2_s018,001,2025-02-21_11h55.52.944,Aud-A-Scan_AC,2022.2.5,None,
10,First_Order,2.0,audwhere,stimulus/audwhere_stim/dummy.wav,stimulus/audwhere_stim/dummy.wav,stimulus/audwhere_stim/right_away_270h.wav,stimulus/audwhere_stim/right_toward_300h.wav,stimulus/audwhere_stim/blank_white.png,stimulus/audwhere_stim/side_box.png,stimulus/audwhere_stim/side_yes.png,stimulus/audwhere_stim/side_no.png,None,Side,None,Side,1,0.0,0,5.125,0,5.125,0,5.125,0,0.0,0.625,0,0,0,0,0,0,0,0,0,0.0,0,0.0,1,0.5,1,2.125,0,,,,,0,12,12,12,,,,,,,,,135.2227222080037,135.2227222080037,135.2227222080037,135.2227222080037,135.2227222080037,135.2227222080037,135.2227222080037,135.2227222080037,135.1486047913369,135.2227222080037,135.2227222080037,135.2227222080037,135.1486047913369,135.2227222080037,135.2227222080037,135.2227222080037,137.31870729199727,141.36513108300278,135.2227222080037,135.2227222080037,140.37193200000183,135.2227222080037,135.2227222080037,135.2227222080037,135.2227222080037,135.67798312500236,136.72626287500316,135.64868433366453,,137.31870729199727,138.3672059169985,137.29029474966617,,135.2227222080037,140.37193200000183,135.2227222080037,140.37193200000183,140.45244441700197,141.1367726669996,135.2227222080037,1,1,1.467270916000416,reldom2_s018,001,2025-02-21_11h55.52.944,Aud-A-Scan_AC,2022.2.5,None,
0,0.0,None,fixation,stimulus/audwhere_stim/blank_white.png,stimulus/audwhere_stim/blank_white.png,stimulus/audwhat_stim/blank_white.png,stimulus/audwhat_stim/blank_white.png,stimulus/audwhere_stim/blank_white.png,stimulus/audwhere_stim/blank_white.png,stimulus/audwhere_stim/blank_white.png,stimulus/audwhere_stim/blank_white.png,0.0,0.0,0.0,0.0,0,0.0,0,0.0,0,0.0,0,0.0,0,0.0,0.0,0,0,0,0,0,0,0,0,0,0.0,0,0.0,0,0.0,0,0.0,8,,,,,0,13,13,13,,,,,,,,,141.36513108300278,141.36513108300278,141.36513108300278,141.36513108300278,141.36513108300278,141.36513108300278,141.36513108300278,141.36513108300278,141.27010600033296,141.36513108300278,141.36513108300278,141.36513108300278,141.27010600033296,141.36513108300278,141.36513108300278,141.36513108300278,141.36513108300278,141.36513108300278,141.36513108300278,141.36513108300278,141.36513108300278,141.36513108300278,141.36513108300278,141.36513108300278,141.36513108300278,141.36513108300278,141.36513108300278,141.32010600033294,141.36513108300278,141.36513108300278,141.36513108300278,141.32010600033294,141.36513108300278,141.36513108300278,141.36513108300278,141.36513108300278,141.36513108300278,146.56181008300337,146.56181008300337,149.53579937500035,None,0,,reldom2_s018,001,2025-02-21_11h55.52.944,Aud-A-Scan_AC,2022.2.5,None,
11,Second_Order,2.0,audwhere,stimulus/audwhere_stim/left_away_280h.wav,stimulus/audwhere_stim/left_toward_280h.wav,stimulus/audwhere_stim/right_toward_280h.wav,stimulus/audwhere_stim/left_toward_270h.wav,stimulus/audwhere_stim/match_blank.png,stimulus/audwhere_stim/match_box.png,stimulus/audwhere_stim/match_yes.png,stimulus/audwhere_stim/match_no.png,2.0,Match,Side,Direction,2,5.125,0,5.125,0,5.125,0,5.125,0,0.75,0.75,0,0,0,0,0,0,0,0,1,0.5,1,2.125,1,0.5,1,2.125,0,,,,,0,14,14,14,,,,,,,,,149.53579937500035,154.65437424999982,149.53579937500035,149.53579937500035,149.53579937500035,149.53579937500035,149.99322983300226,150.99153937499796,150.00594474966445,,151.6144794580032,152.61179404200084,151.62659287466911,152.61556070799998,154.65437424999982,155.5035360000038,157.58553658299934,161.50305050000316,155.5035360000038,155.5035360000038,160.66805304199806,155.5035360000038,155.5035360000038,155.5035360000038,155.5035360000038,155.9539317919989,156.99609516700002,155.92531820866523,,157.58553658299934,158.6278181250018,157.55655929166485,,155.5035360000038,160.66805304199806,155.5035360000038,160.66805304199806,160.66805304199806,,155.5035360000038,2,1,1.9101500839969958,reldom2_s018,001,2025-02-21_11h55.52.944,Aud-A-Scan_AC,2022.2.5,None,
12,Second_Order,2.0,audwhere,stimulus/audwhere_stim/left_away_300h.wav,stimulus/audwhere_stim/right_away_270h.wav,stimulus/audwhere_stim/left_toward_280h.wav,stimulus/audwhere_stim/right_toward_280h.wav,stimulus/audwhere_stim/match_blank.png,stimulus/audwhere_stim/match_box.png,stimulus/audwhere_stim/match_yes.png,stimulus/audwhere_stim/match_no.png,1.0,Match,Direction,Direction,1,5.125,0,5.125,0,5.125,0,5.125,0,0.625,0.625,0,0,0,0,0,0,0,0,1,0.5,1,2.125,1,0.5,1,2.125,0,,,,,0,15,15,15,,,,,,,,,161.50305050000316,166.61529116699967,161.50305050000316,161.50305050000316,161.50305050000316,161.50305050000316,161.95373487500183,162.95248549999815,161.9668300836677,,163.58707379199768,164.5764743749969,163.58986608366493,,166.61529116699967,167.34589612499985,169.4129473330031,,167.34589612499985,167.34589612499985,172.52714808299788,167.34589612499985,167.34589612499985,167.34589612499985,167.34589612499985,167.79334175000258,168.8270072919986,167.76539724966668,,169.4129473330031,170.4521769999992,169.38458287466736,,167.34589612499985,172.52714808299788,167.34589612499985,172.52714808299788,172.52714808299788,173.20364416699886,167.34589612499985,2,0,1.9342587499995716,reldom2_s018,001,2025-02-21_11h55.52.944,Aud-A-Scan_AC,2022.2.5,None,
0,0.0,None,fixation,stimulus/audwhere_stim/blank_white.png,stimulus/audwhere_stim/blank_white.png,stimulus/audwhat_stim/blank_white.png,stimulus/audwhat_stim/blank_white.png,stimulus/audwhere_stim/blank_white.png,stimulus/audwhere_stim/blank_white.png,stimulus/audwhere_stim/blank_white.png,stimulus/audwhere_stim/blank_white.png,0.0,0.0,0.0,0.0,0,0.0,0,0.0,0,0.0,0,0.0,0,0.0,0.0,0,0,0,0,0,0,0,0,0,0.0,0,0.0,0,0.0,0,0.0,8,,,,,0,16,16,16,,,,,,,,,173.4298451249997,173.4298451249997,173.4298451249997,173.4298451249997,173.4298451249997,173.4298451249997,173.4298451249997,173.4298451249997,173.3369775003322,173.4298451249997,173.4298451249997,173.4298451249997,173.3369775003322,173.4298451249997,173.4298451249997,173.4298451249997,173.4298451249997,173.4298451249997,173.4298451249997,173.4298451249997,173.4298451249997,173.4298451249997,173.4298451249997,173.4298451249997,173.4298451249997,173.4298451249997,173.4298451249997,173.3869775003322,173.4298451249997,173.4298451249997,173.4298451249997,173.3869775003322,173.4298451249997,173.4298451249997,173.4298451249997,173.4298451249997,173.4298451249997,178.62094904200057,178.62094904200057,181.6689790829987,None,0,,reldom2_s018,001,2025-02-21_11h55.52.944,Aud-A-Scan_AC,2022.2.5,None,
13,First_Order,3.0,audwhat,stimulus/audwhat_stim/dummy.wav,stimulus/audwhat_stim/dummy.wav,stimulus/audwhat_stim/percussion xylophone_high-pitch_F_loud.wav,stimulus/audwhat_stim/percussion mallet_low-pitch_Dtri_loud.wav,stimulus/audwhat_stim/blank_white.png,stimulus/audwhat_stim/category_box.png,stimulus/audwhat_stim/category_yes.png,stimulus/audwhat_stim/category_no.png,None,Category,None,Category,1,0.0,0,5.125,0,5.125,0,5.125,0,0.0,0.625,0,0,0,0,0,0,0,0,0,0.0,0,0.0,1,0.5,1,2.125,0,,,,,0,17,17,17,,,,,,,,,181.6689790829987,181.6689790829987,181.6689790829987,181.6689790829987,181.6689790829987,181.6689790829987,181.6689790829987,181.6689790829987,181.6012403336669,181.6689790829987,181.6689790829987,181.6689790829987,181.6012403336669,181.6689790829987,181.6689790829987,181.6689790829987,183.77572458299983,,181.6689790829987,181.6689790829987,186.84370562500408,181.6689790829987,181.6689790829987,181.6689790829987,181.6689790829987,182.12786695799878,183.18274566699984,182.0985826666695,183.13672037499782,183.77572458299983,184.8302052500003,183.74652787466428,,181.6689790829987,186.84370562500408,181.6689790829987,186.84370562500408,186.88451029200223,187.5641740830033,181.6689790829987,2,0,2.0269349169975612,reldom2_s018,001,2025-02-21_11h55.52.944,Aud-A-Scan_AC,2022.2.5,None,
14,First_Order,3.0,audwhat,stimulus/audwhat_stim/dummy.wav,stimulus/audwhat_stim/dummy.wav,stimulus/audwhat_stim/string cello_low-pitch_Ftri_loud.wav,stimulus/audwhat_stim/string viola_high-pitch_F_loud.wav,stimulus/audwhat_stim/blank_white.png,stimulus/audwhat_stim/category_box.png,stimulus/audwhat_stim/category_yes.png,stimulus/audwhat_stim/category_no.png,None,Category,None,Category,1,0.0,0,5.125,0,5.125,0,5.125,0,0.0,0.625,0,0,0,0,0,0,0,0,0,0.0,0,0.0,1,0.5,1,2.125,0,,,,,0,18,18,18,,,,,,,,,187.7765517500011,187.7765517500011,187.7765517500011,187.7765517500011,187.7765517500011,187.7765517500011,187.7765517500011,187.7765517500011,187.69750741633666,187.7765517500011,187.7765517500011,187.7765517500011,187.69750741633666,187.7765517500011,187.7765517500011,187.7765517500011,189.88648800000374,193.9019925829998,187.7765517500011,187.7765517500011,192.96223666700098,187.7765517500011,187.7765517500011,187.7765517500011,187.7765517500011,188.23388741700182,189.29028954199748,188.20518974966788,,189.88648800000374,190.94762212500063,189.85691929166595,,187.7765517500011,192.96223666700098,187.7765517500011,192.96223666700098,193.00288645800174,193.68993958299689,187.7765517500011,1,1,0.9142216659965925,reldom2_s018,001,2025-02-21_11h55.52.944,Aud-A-Scan_AC,2022.2.5,None,
15,First_Order,3.0,audwhat,stimulus/audwhat_stim/dummy.wav,stimulus/audwhat_stim/dummy.wav,stimulus/audwhat_stim/string viola_low-pitch_D_loud.wav,stimulus/audwhat_stim/percussion mallet_low-pitch_D_loud.wav,stimulus/audwhat_stim/blank_white.png,stimulus/audwhat_stim/pitch_box.png,stimulus/audwhat_stim/pitch_yes.png,stimulus/audwhat_stim/pitch_no.png,None,Pitch,None,Pitch,1,0.0,0,5.125,0,5.125,0,5.125,0,0.0,0.625,0,0,0,0,0,0,0,0,0,0.0,0,0.0,1,0.5,1,2.125,0,,,,,0,19,19,19,,,,,,,,,193.9019925829998,193.9019925829998,193.9019925829998,193.9019925829998,193.9019925829998,193.9019925829998,193.9019925829998,193.9019925829998,193.82327291633024,193.9019925829998,193.9019925829998,193.9019925829998,193.82327291633024,193.9019925829998,193.9019925829998,193.9019925829998,196.00712645800377,200.01734325000143,193.9019925829998,193.9019925829998,199.0795572499992,193.9019925829998,193.9019925829998,193.9019925829998,193.9019925829998,194.35987216699868,195.41258195800037,194.33013129167037,,196.00712645800377,197.06077741699846,195.97843204166955,,193.9019925829998,199.0795572499992,193.9019925829998,199.0795572499992,199.12007583300147,199.80596816699835,193.9019925829998,1,1,1.375421249998908,reldom2_s018,001,2025-02-21_11h55.52.944,Aud-A-Scan_AC,2022.2.5,None,
16,First_Order,3.0,audwhat,stimulus/audwhat_stim/dummy.wav,stimulus/audwhat_stim/dummy.wav,stimulus/audwhat_stim/string cello_low-pitch_D_loud.wav,stimulus/audwhat_stim/string viola_high-pitch_Dtri_loud.wav,stimulus/audwhat_stim/blank_white.png,stimulus/audwhat_stim/pitch_box.png,stimulus/audwhat_stim/pitch_yes.png,stimulus/audwhat_stim/pitch_no.png,None,Pitch,None,Category,2,0.0,0,5.125,0,5.125,0,5.125,0,0.0,0.625,0,0,0,0,0,0,0,0,0,0.0,0,0.0,1,0.5,1,2.125,0,,,,,0,20,20,20,,,,,,,,,200.01734325000143,200.01734325000143,200.01734325000143,200.01734325000143,200.01734325000143,200.01734325000143,200.01734325000143,200.01734325000143,199.9393015003317,200.01734325000143,200.01734325000143,200.01734325000143,199.9393015003317,200.01734325000143,200.01734325000143,200.01734325000143,202.12982266699692,206.16594800000166,200.01734325000143,200.01734325000143,205.2102226670031,200.01734325000143,200.01734325000143,200.01734325000143,200.01734325000143,200.4771063750013,201.53276920800272,200.4479952916702,,202.12982266699692,203.1909070000038,202.100228041669,,200.01734325000143,205.2102226670031,200.01734325000143,205.2102226670031,205.2102226670031,205.89559349999763,200.01734325000143,2,1,0.9636051249981392,reldom2_s018,001,2025-02-21_11h55.52.944,Aud-A-Scan_AC,2022.2.5,None,
0,0.0,None,fixation,stimulus/audwhere_stim/blank_white.png,stimulus/audwhere_stim/blank_white.png,stimulus/audwhat_stim/blank_white.png,stimulus/audwhat_stim/blank_white.png,stimulus/audwhere_stim/blank_white.png,stimulus/audwhere_stim/blank_white.png,stimulus/audwhere_stim/blank_white.png,stimulus/audwhere_stim/blank_white.png,0.0,0.0,0.0,0.0,0,0.0,0,0.0,0,0.0,0,0.0,0,0.0,0.0,0,0,0,0,0,0,0,0,0,0.0,0,0.0,0,0.0,0,0.0,8,,,,,0,21,21,21,,,,,,,,,206.16594800000166,206.16594800000166,206.16594800000166,206.16594800000166,206.16594800000166,206.16594800000166,206.16594800000166,206.16594800000166,206.06835979133226,206.16594800000166,206.16594800000166,206.16594800000166,206.06835979133226,206.16594800000166,206.16594800000166,206.16594800000166,206.16594800000166,206.16594800000166,206.16594800000166,206.16594800000166,206.16594800000166,206.16594800000166,206.16594800000166,206.16594800000166,206.16594800000166,206.16594800000166,206.16594800000166,206.11835979133224,206.16594800000166,206.16594800000166,206.16594800000166,206.11835979133224,206.16594800000166,206.16594800000166,206.16594800000166,206.16594800000166,206.16594800000166,211.3983242079994,211.3983242079994,214.33879233300104,None,0,,reldom2_s018,001,2025-02-21_11h55.52.944,Aud-A-Scan_AC,2022.2.5,None,
17,Second_Order,3.0,audwhat,stimulus/audwhat_stim/percussion mallet_high-pitch_F_loud.wav,stimulus/audwhat_stim/string viola_high-pitch_F_loud.wav,stimulus/audwhat_stim/string cello_low-pitch_Ftri_loud.wav,stimulus/audwhat_stim/string cello_high-pitch_Dtri_loud.wav,stimulus/audwhere_stim/match_blank.png,stimulus/audwhat_stim/match_box.png,stimulus/audwhere_stim/match_yes.png,stimulus/audwhere_stim/match_no.png,2.0,Match,Pitch,Category,2,5.125,0,5.125,0,5.125,0,5.125,0,0.75,0.75,0,0,0,0,0,0,0,0,1,0.5,1,2.125,1,0.5,1,2.125,0,,,,,0,22,22,22,,,,,,,,,214.33879233300104,219.45461016699846,214.33879233300104,214.33879233300104,214.33879233300104,214.33879233300104,214.79177720800362,215.77851058299711,214.8054169166683,,216.41412654200394,217.41166099999828,216.42629354166664,,219.45461016699846,220.3053826250034,222.35059437499876,226.2962333329997,220.3053826250034,220.3053826250034,225.45725429199956,220.3053826250034,220.3053826250034,220.3053826250034,220.3053826250034,220.75843075000012,221.80395979199966,220.72974712466774,,222.35059437499876,223.40304687499884,222.321654708667,,220.3053826250034,225.45725429199956,220.3053826250034,225.45725429199956,225.49776683300297,,220.3053826250034,1,0,1.390208166994853,reldom2_s018,001,2025-02-21_11h55.52.944,Aud-A-Scan_AC,2022.2.5,None,
18,Second_Order,3.0,audwhat,stimulus/audwhat_stim/string viola_low-pitch_F_loud.wav,stimulus/audwhat_stim/percussion mallet_low-pitch_F_loud.wav,stimulus/audwhat_stim/percussion mallet_high-pitch_Ftri_loud.wav,stimulus/audwhat_stim/string cello_high-pitch_Ftri_loud.wav,stimulus/audwhere_stim/match_blank.png,stimulus/audwhat_stim/match_box.png,stimulus/audwhere_stim/match_yes.png,stimulus/audwhere_stim/match_no.png,1.0,Match,Pitch,Pitch,1,5.125,0,5.125,0,5.125,0,5.125,0,0.625,0.625,0,0,0,0,0,0,0,0,1,0.5,1,2.125,1,0.5,1,2.125,0,,,,,0,23,23,23,,,,,,,,,226.2962333329997,231.41487845800293,226.2962333329997,226.2962333329997,226.2962333329997,226.2962333329997,226.75326245799806,227.75205899999855,226.7663396246683,,228.37542979200225,229.3724716249999,228.38705008366767,,231.41487845800293,232.14636825000343,234.18304708300275,,232.14636825000343,232.14636825000343,237.3181384999989,232.14636825000343,232.14636825000343,232.14636825000343,232.14636825000343,232.59638329200243,233.63943095799914,232.56781929166416,,234.18304708300275,235.2306857500007,234.15406445866782,,232.14636825000343,237.3181384999989,232.14636825000343,237.3181384999989,237.3181384999989,237.99585449999722,232.14636825000343,1,1,1.218965375002881,reldom2_s018,001,2025-02-21_11h55.52.944,Aud-A-Scan_AC,2022.2.5,None,
0,0.0,None,fixation,stimulus/audwhere_stim/blank_white.png,stimulus/audwhere_stim/blank_white.png,stimulus/audwhat_stim/blank_white.png,stimulus/audwhat_stim/blank_white.png,stimulus/audwhere_stim/blank_white.png,stimulus/audwhere_stim/blank_white.png,stimulus/audwhere_stim/blank_white.png,stimulus/audwhere_stim/blank_white.png,0.0,0.0,0.0,0.0,0,0.0,0,0.0,0,0.0,0,0.0,0,0.0,0.0,0,0,0,0,0,0,0,0,0,0.0,0,0.0,0,0.0,0,0.0,9,,,,,0,24,24,24,,,,,,,,,238.22403116700298,238.22403116700298,238.22403116700298,238.22403116700298,238.22403116700298,238.22403116700298,238.22403116700298,238.22403116700298,238.12918783333058,238.22403116700298,238.22403116700298,238.22403116700298,238.12918783333058,238.22403116700298,238.22403116700298,238.22403116700298,238.22403116700298,238.22403116700298,238.22403116700298,238.22403116700298,238.22403116700298,238.22403116700298,238.22403116700298,238.22403116700298,238.22403116700298,238.22403116700298,238.22403116700298,238.17918783333056,238.22403116700298,238.22403116700298,238.22403116700298,238.17918783333056,238.22403116700298,238.22403116700298,238.22403116700298,238.22403116700298,238.22403116700298,243.4445034169985,243.4445034169985,247.45464224999887,None,0,,reldom2_s018,001,2025-02-21_11h55.52.944,Aud-A-Scan_AC,2022.2.5,None,
19,First_Order,4.0,audwhat,stimulus/audwhat_stim/dummy.wav,stimulus/audwhat_stim/dummy.wav,stimulus/audwhat_stim/percussion mallet_low-pitch_D_loud.wav,stimulus/audwhat_stim/string viola_low-pitch_D_loud.wav,stimulus/audwhat_stim/blank_white.png,stimulus/audwhat_stim/category_box.png,stimulus/audwhat_stim/category_yes.png,stimulus/audwhat_stim/category_no.png,None,Category,None,Pitch,2,0.0,0,5.125,0,5.125,0,5.125,0,0.0,0.625,0,0,0,0,0,0,0,0,0,0.0,0,0.0,1,0.5,1,2.125,0,,,,,0,25,25,25,,,,,,,,,247.45464224999887,247.45464224999887,247.45464224999887,247.45464224999887,247.45464224999887,247.45464224999887,247.45464224999887,247.45464224999887,247.3863676246644,247.45464224999887,247.45464224999887,247.45464224999887,247.3863676246644,247.45464224999887,247.45464224999887,247.45464224999887,249.52625295799953,,247.45464224999887,247.45464224999887,252.6136610829999,247.45464224999887,247.45464224999887,247.45464224999887,247.45464224999887,247.9141189170041,248.97416050000174,247.88519624966673,,249.52625295799953,250.58688450000045,249.49706712466676,,247.45464224999887,252.6136610829999,247.45464224999887,252.6136610829999,252.65411141700315,253.30326149999746,247.45464224999887,2,1,1.9023249159945408,reldom2_s018,001,2025-02-21_11h55.52.944,Aud-A-Scan_AC,2022.2.5,None,
20,First_Order,4.0,audwhat,stimulus/audwhat_stim/dummy.wav,stimulus/audwhat_stim/dummy.wav,stimulus/audwhat_stim/percussion xylophone_high-pitch_Dtri_loud.wav,stimulus/audwhat_stim/string cello_high-pitch_Dtri_loud.wav,stimulus/audwhat_stim/blank_white.png,stimulus/audwhat_stim/pitch_box.png,stimulus/audwhat_stim/pitch_yes.png,stimulus/audwhat_stim/pitch_no.png,None,Pitch,None,Pitch,1,0.0,0,5.125,0,5.125,0,5.125,0,0.0,0.625,0,0,0,0,0,0,0,0,0,0.0,0,0.0,1,0.5,1,2.125,0,,,,,0,26,26,26,,,,,,,,,253.55516412499856,253.55516412499856,253.55516412499856,253.55516412499856,253.55516412499856,253.55516412499856,253.55516412499856,253.55516412499856,253.47712650033114,253.55516412499856,253.55516412499856,253.55516412499856,253.47712650033114,253.55516412499856,253.55516412499856,253.55516412499856,255.66694799999823,259.68390454199834,253.55516412499856,253.55516412499856,258.7431439580032,253.55516412499856,253.55516412499856,253.55516412499856,253.55516412499856,254.01440533300047,255.07291995800188,253.9852731666654,255.0272685000018,255.66694799999823,256.7260951670032,255.63820583366422,,253.55516412499856,258.7431439580032,253.55516412499856,258.7431439580032,258.78360858299857,259.43262583300384,253.55516412499856,1,1,0.901712958002463,reldom2_s018,001,2025-02-21_11h55.52.944,Aud-A-Scan_AC,2022.2.5,None,
21,First_Order,4.0,audwhat,stimulus/audwhat_stim/dummy.wav,stimulus/audwhat_stim/dummy.wav,stimulus/audwhat_stim/string viola_low-pitch_D_loud.wav,stimulus/audwhat_stim/percussion mallet_low-pitch_D_loud.wav,stimulus/audwhat_stim/blank_white.png,stimulus/audwhat_stim/category_box.png,stimulus/audwhat_stim/category_yes.png,stimulus/audwhat_stim/category_no.png,None,Category,None,Pitch,2,0.0,0,5.125,0,5.125,0,5.125,0,0.0,0.625,0,0,0,0,0,0,0,0,0,0.0,0,0.0,1,0.5,1,2.125,0,,,,,0,27,27,27,,,,,,,,,259.68390454199834,259.68390454199834,259.68390454199834,259.68390454199834,259.68390454199834,259.68390454199834,259.68390454199834,259.68390454199834,259.60603858333536,259.68390454199834,259.68390454199834,259.68390454199834,259.60603858333536,259.68390454199834,259.68390454199834,259.68390454199834,261.7607775420038,265.8121857080041,259.68390454199834,259.68390454199834,264.86797166700126,259.68390454199834,259.68390454199834,259.68390454199834,259.68390454199834,260.14396300000226,261.2086072500024,260.11494979166696,,261.7607775420038,262.8330839580012,261.7313144586699,,259.68390454199834,264.86797166700126,259.68390454199834,264.86797166700126,264.9087172080035,265.5606730830041,259.68390454199834,2,1,0.5935102499934146,reldom2_s018,001,2025-02-21_11h55.52.944,Aud-A-Scan_AC,2022.2.5,None,
22,First_Order,4.0,audwhat,stimulus/audwhat_stim/dummy.wav,stimulus/audwhat_stim/dummy.wav,stimulus/audwhat_stim/string viola_low-pitch_Ftri_loud.wav,stimulus/audwhat_stim/string cello_high-pitch_D_loud.wav,stimulus/audwhat_stim/blank_white.png,stimulus/audwhat_stim/pitch_box.png,stimulus/audwhat_stim/pitch_yes.png,stimulus/audwhat_stim/pitch_no.png,None,Pitch,None,Category,2,0.0,0,5.125,0,5.125,0,5.125,0,0.0,0.625,0,0,0,0,0,0,0,0,0,0.0,0,0.0,1,0.5,1,2.125,0,,,,,0,28,28,28,,,,,,,,,265.8121857080041,265.8121857080041,265.8121857080041,265.8121857080041,265.8121857080041,265.8121857080041,265.8121857080041,265.8121857080041,265.73387900033606,265.8121857080041,265.8121857080041,265.8121857080041,265.73387900033606,265.8121857080041,265.8121857080041,265.8121857080041,267.8881757499985,,265.8121857080041,265.8121857080041,270.9775664999979,265.8121857080041,265.8121857080041,265.8121857080041,265.8121857080041,266.2755943750017,267.3359424579976,266.2457398746667,,267.8881757499985,268.9484615420006,267.8583767496641,,265.8121857080041,270.9775664999979,265.8121857080041,270.9775664999979,271.017812625003,271.6674108750012,265.8121857080041,1,0,1.7406431669951417,reldom2_s018,001,2025-02-21_11h55.52.944,Aud-A-Scan_AC,2022.2.5,None,
0,0.0,None,fixation,stimulus/audwhere_stim/blank_white.png,stimulus/audwhere_stim/blank_white.png,stimulus/audwhat_stim/blank_white.png,stimulus/audwhat_stim/blank_white.png,stimulus/audwhere_stim/blank_white.png,stimulus/audwhere_stim/blank_white.png,stimulus/audwhere_stim/blank_white.png,stimulus/audwhere_stim/blank_white.png,0.0,0.0,0.0,0.0,0,0.0,0,0.0,0,0.0,0,0.0,0,0.0,0.0,0,0,0,0,0,0,0,0,0,0.0,0,0.0,0,0.0,0,0.0,10,,,,,0,29,29,29,,,,,,,,,271.9401735420033,271.9401735420033,271.9401735420033,271.9401735420033,271.9401735420033,271.9401735420033,271.9401735420033,271.9401735420033,271.84130133333576,271.9401735420033,271.9401735420033,271.9401735420033,271.84130133333576,271.9401735420033,271.9401735420033,271.9401735420033,271.9401735420033,271.9401735420033,271.9401735420033,271.9401735420033,271.9401735420033,271.9401735420033,271.9401735420033,271.9401735420033,271.9401735420033,271.9401735420033,271.9401735420033,271.8913013333358,271.9401735420033,271.9401735420033,271.9401735420033,271.8913013333358,271.9401735420033,271.9401735420033,271.9401735420033,271.9401735420033,271.9401735420033,277.14513279200037,277.14513279200037,282.07931929200276,None,0,,reldom2_s018,001,2025-02-21_11h55.52.944,Aud-A-Scan_AC,2022.2.5,None,
23,Second_Order,4.0,audwhat,stimulus/audwhat_stim/string cello_low-pitch_F_loud.wav,stimulus/audwhat_stim/string cello_high-pitch_Ftri_loud.wav,stimulus/audwhat_stim/percussion mallet_high-pitch_Ftri_loud.wav,stimulus/audwhat_stim/percussion mallet_low-pitch_F_loud.wav,stimulus/audwhere_stim/match_blank.png,stimulus/audwhat_stim/match_box.png,stimulus/audwhere_stim/match_yes.png,stimulus/audwhere_stim/match_no.png,1.0,Match,Category,Category,1,5.125,0,5.125,0,5.125,0,5.125,0,0.75,0.75,0,0,0,0,0,0,0,0,1,0.5,1,2.125,1,0.5,1,2.125,0,,,,,0,30,30,30,,,,,,,,,282.07931929200276,287.19395695799903,282.07931929200276,282.07931929200276,282.07931929200276,282.07931929200276,282.5326849580015,283.5312072079978,282.54544883366566,,284.15354070800095,285.15139170800103,284.1655751246692,,287.19395695799903,288.0456897080003,290.1041631670014,,288.0456897080003,288.0456897080003,293.2236607079976,288.0456897080003,288.0456897080003,288.0456897080003,288.0456897080003,288.49931862499943,289.55327874999784,288.4705007496707,,290.1041631670014,291.1631322500034,290.0748102496693,,288.0456897080003,293.2236607079976,288.0456897080003,293.2236607079976,293.2236607079976,,288.0456897080003,1,1,0.8814815829973668,reldom2_s018,001,2025-02-21_11h55.52.944,Aud-A-Scan_AC,2022.2.5,None,
24,Second_Order,4.0,audwhat,stimulus/audwhat_stim/percussion xylophone_high-pitch_Dtri_loud.wav,stimulus/audwhat_stim/percussion mallet_low-pitch_D_loud.wav,stimulus/audwhat_stim/string cello_low-pitch_Ftri_loud.wav,stimulus/audwhat_stim/string viola_high-pitch_D_loud.wav,stimulus/audwhere_stim/match_blank.png,stimulus/audwhat_stim/match_box.png,stimulus/audwhere_stim/match_yes.png,stimulus/audwhere_stim/match_no.png,1.0,Match,Category,Category,1,5.125,0,5.125,0,5.125,0,5.125,0,0.625,0.625,0,0,0,0,0,0,0,0,1,0.5,1,2.125,1,0.5,1,2.125,0,,,,,0,31,31,31,,,,,,,,,294.02582475000236,299.13867225000286,294.02582475000236,294.02582475000236,294.02582475000236,294.02582475000236,294.47490991700033,295.462297625003,294.489046416664,295.4792311249985,296.10998041700077,297.1009117920039,296.114345958664,,299.13867225000286,299.8690319169982,301.91423779199977,305.9663535830041,299.8690319169982,299.8690319169982,305.06146637500206,299.8690319169982,299.8690319169982,299.8690319169982,299.8690319169982,300.32190224999795,301.36933904200123,300.2928730416645,,301.91423779199977,302.9665329999989,301.88496137466814,,299.8690319169982,305.06146637500206,299.8690319169982,305.06146637500206,305.06146637500206,305.73712866700225,299.8690319169982,1,1,0.594887833998655,reldom2_s018,001,2025-02-21_11h55.52.944,Aud-A-Scan_AC,2022.2.5,None,
0,0.0,None,fixation,stimulus/audwhere_stim/blank_white.png,stimulus/audwhere_stim/blank_white.png,stimulus/audwhat_stim/blank_white.png,stimulus/audwhat_stim/blank_white.png,stimulus/audwhere_stim/blank_white.png,stimulus/audwhere_stim/blank_white.png,stimulus/audwhere_stim/blank_white.png,stimulus/audwhere_stim/blank_white.png,0.0,0.0,0.0,0.0,0,0.0,0,0.0,0,0.0,0,0.0,0,0.0,0.0,0,0,0,0,0,0,0,0,0,0.0,0,0.0,0,0.0,0,0.0,9,,,,,0,32,32,32,,,,,,,,,305.9663535830041,305.9663535830041,305.9663535830041,305.9663535830041,305.9663535830041,305.9663535830041,305.9663535830041,305.9663535830041,305.8704620003356,305.9663535830041,305.9663535830041,305.9663535830041,305.8704620003356,305.9663535830041,305.9663535830041,305.9663535830041,305.9663535830041,305.9663535830041,305.9663535830041,305.9663535830041,305.9663535830041,305.9663535830041,305.9663535830041,305.9663535830041,305.9663535830041,305.9663535830041,305.9663535830041,305.9204620003356,305.9663535830041,305.9663535830041,305.9663535830041,305.9204620003356,305.9663535830041,305.9663535830041,305.9663535830041,305.9663535830041,305.9663535830041,311.19886429199687,311.19886429199687,315.2411912500029,None,0,,reldom2_s018,001,2025-02-21_11h55.52.944,Aud-A-Scan_AC,2022.2.5,None,
25,First_Order,5.0,audwhere,stimulus/audwhere_stim/dummy.wav,stimulus/audwhere_stim/dummy.wav,stimulus/audwhere_stim/right_away_300h.wav,stimulus/audwhere_stim/right_toward_300h.wav,stimulus/audwhere_stim/blank_white.png,stimulus/audwhere_stim/direction_box.png,stimulus/audwhere_stim/direction_yes.png,stimulus/audwhere_stim/direction_no.png,None,Direction,None,Side,2,0.0,0,5.125,0,5.125,0,5.125,0,0.0,0.625,0,0,0,0,0,0,0,0,0,0.0,0,0.0,1,0.5,1,2.125,0,,,,,0,33,33,33,,,,,,,,,315.2411912500029,315.2411912500029,315.2411912500029,315.2411912500029,315.2411912500029,315.2411912500029,315.2411912500029,315.2411912500029,315.16781333367055,315.2411912500029,315.2411912500029,315.2411912500029,315.16781333367055,315.2411912500029,315.2411912500029,315.2411912500029,317.34763912500057,321.36428129200067,315.2411912500029,315.2411912500029,320.4152580000009,315.2411912500029,315.2411912500029,315.2411912500029,315.2411912500029,315.72097441700316,316.78587445800076,315.6884797086643,,317.34763912500057,318.41870670799835,317.3171541666636,,315.2411912500029,320.4152580000009,315.2411912500029,320.4152580000009,320.4556656670029,321.11155070800305,315.2411912500029,2,1,1.3090654169936897,reldom2_s018,001,2025-02-21_11h55.52.944,Aud-A-Scan_AC,2022.2.5,None,
26,First_Order,5.0,audwhere,stimulus/audwhere_stim/dummy.wav,stimulus/audwhere_stim/dummy.wav,stimulus/audwhere_stim/right_away_280h.wav,stimulus/audwhere_stim/left_away_270h.wav,stimulus/audwhere_stim/blank_white.png,stimulus/audwhere_stim/side_box.png,stimulus/audwhere_stim/side_yes.png,stimulus/audwhere_stim/side_no.png,None,Side,None,Direction,2,0.0,0,5.125,0,5.125,0,5.125,0,0.0,0.625,0,0,0,0,0,0,0,0,0,0.0,0,0.0,1,0.5,1,2.125,0,,,,,0,34,34,34,,,,,,,,,321.36428129200067,321.36428129200067,321.36428129200067,321.36428129200067,321.36428129200067,321.36428129200067,321.36428129200067,321.36428129200067,321.2854337083355,321.36428129200067,321.36428129200067,321.36428129200067,321.2854337083355,321.36428129200067,321.36428129200067,321.36428129200067,323.4407962080004,327.48689616699994,321.36428129200067,321.36428129200067,326.54344400000264,321.36428129200067,321.36428129200067,321.36428129200067,321.36428129200067,321.8257949580002,322.88813308299723,321.7958432496637,,323.4407962080004,324.51347045799776,323.41087858366905,,321.36428129200067,326.54344400000264,321.36428129200067,326.54344400000264,326.5842859580007,327.2349811669992,321.36428129200067,2,1,0.8148701249956503,reldom2_s018,001,2025-02-21_11h55.52.944,Aud-A-Scan_AC,2022.2.5,None,
27,First_Order,5.0,audwhere,stimulus/audwhere_stim/dummy.wav,stimulus/audwhere_stim/dummy.wav,stimulus/audwhere_stim/left_away_300h.wav,stimulus/audwhere_stim/right_away_290h.wav,stimulus/audwhere_stim/blank_white.png,stimulus/audwhere_stim/direction_box.png,stimulus/audwhere_stim/direction_yes.png,stimulus/audwhere_stim/direction_no.png,None,Direction,None,Direction,1,0.0,0,5.125,0,5.125,0,5.125,0,0.0,0.625,0,0,0,0,0,0,0,0,0,0.0,0,0.0,1,0.5,1,2.125,0,,,,,0,35,35,35,,,,,,,,,327.48689616699994,327.48689616699994,327.48689616699994,327.48689616699994,327.48689616699994,327.48689616699994,327.48689616699994,327.48689616699994,327.4085831253343,327.48689616699994,327.48689616699994,327.48689616699994,327.4085831253343,327.48689616699994,327.48689616699994,327.48689616699994,329.5812147500037,,327.48689616699994,327.48689616699994,332.64851629199984,327.48689616699994,327.48689616699994,327.48689616699994,327.48689616699994,327.95228266699996,329.02368187499815,327.9228896666648,,329.5812147500037,330.6522354999979,329.5509477496637,,327.48689616699994,332.64851629199984,327.48689616699994,332.64851629199984,332.68977350000205,333.3437604999999,327.48689616699994,1,1,1.7517777920002118,reldom2_s018,001,2025-02-21_11h55.52.944,Aud-A-Scan_AC,2022.2.5,None,
28,First_Order,5.0,audwhere,stimulus/audwhere_stim/dummy.wav,stimulus/audwhere_stim/dummy.wav,stimulus/audwhere_stim/left_away_290h.wav,stimulus/audwhere_stim/right_away_280h.wav,stimulus/audwhere_stim/blank_white.png,stimulus/audwhere_stim/direction_box.png,stimulus/audwhere_stim/direction_yes.png,stimulus/audwhere_stim/direction_no.png,None,Direction,None,Direction,1,0.0,0,5.125,0,5.125,0,5.125,0,0.0,0.625,0,0,0,0,0,0,0,0,0,0.0,0,0.0,1,0.5,1,2.125,0,,,,,0,36,36,36,,,,,,,,,333.59738137500244,333.59738137500244,333.59738137500244,333.59738137500244,333.59738137500244,333.59738137500244,333.59738137500244,333.59738137500244,333.5181718753321,333.59738137500244,333.59738137500244,333.59738137500244,333.5181718753321,333.59738137500244,333.59738137500244,333.59738137500244,335.6904352080019,339.73539570799767,333.59738137500244,333.59738137500244,338.765061291997,333.59738137500244,333.59738137500244,333.59738137500244,333.59738137500244,334.06245441699866,335.1339477500005,334.0324627916673,,335.6904352080019,336.7618331249978,335.6609505836643,,333.59738137500244,338.765061291997,333.59738137500244,338.765061291997,338.8058357080008,339.46135770800174,333.59738137500244,1,1,1.4361224999956903,reldom2_s018,001,2025-02-21_11h55.52.944,Aud-A-Scan_AC,2022.2.5,None,
0,0.0,None,fixation,stimulus/audwhere_stim/blank_white.png,stimulus/audwhere_stim/blank_white.png,stimulus/audwhat_stim/blank_white.png,stimulus/audwhat_stim/blank_white.png,stimulus/audwhere_stim/blank_white.png,stimulus/audwhere_stim/blank_white.png,stimulus/audwhere_stim/blank_white.png,stimulus/audwhere_stim/blank_white.png,0.0,0.0,0.0,0.0,0,0.0,0,0.0,0,0.0,0,0.0,0,0.0,0.0,0,0,0,0,0,0,0,0,0,0.0,0,0.0,0,0.0,0,0.0,9,,,,,0,37,37,37,,,,,,,,,339.73539570799767,339.73539570799767,339.73539570799767,339.73539570799767,339.73539570799767,339.73539570799767,339.73539570799767,339.73539570799767,339.63570433333564,339.73539570799767,339.73539570799767,339.73539570799767,339.63570433333564,339.73539570799767,339.73539570799767,339.73539570799767,339.73539570799767,339.73539570799767,339.73539570799767,339.73539570799767,339.73539570799767,339.73539570799767,339.73539570799767,339.73539570799767,339.73539570799767,339.73539570799767,339.73539570799767,339.68570433333565,339.73539570799767,339.73539570799767,339.73539570799767,339.68570433333565,339.73539570799767,339.73539570799767,339.73539570799767,339.73539570799767,339.73539570799767,344.9605101249981,344.9605101249981,348.89559808299964,None,0,,reldom2_s018,001,2025-02-21_11h55.52.944,Aud-A-Scan_AC,2022.2.5,None,
29,Second_Order,5.0,audwhere,stimulus/audwhere_stim/right_toward_270h.wav,stimulus/audwhere_stim/right_away_280h.wav,stimulus/audwhere_stim/left_toward_290h.wav,stimulus/audwhere_stim/left_away_290h.wav,stimulus/audwhere_stim/match_blank.png,stimulus/audwhere_stim/match_box.png,stimulus/audwhere_stim/match_yes.png,stimulus/audwhere_stim/match_no.png,1.0,Match,Side,Side,1,5.125,0,5.125,0,5.125,0,5.125,0,0.75,0.75,0,0,0,0,0,0,0,0,1,0.5,1,2.125,1,0.5,1,2.125,0,,,,,0,38,38,38,,,,,,,,,348.89559808299964,354.01503166699695,348.89559808299964,348.89559808299964,348.89559808299964,348.89559808299964,349.3538474579982,350.35202729199955,349.3667602086682,,350.9747929579971,351.9723763330039,350.9868731246645,,354.01503166699695,354.8675102499983,356.9294568330006,360.8654922499991,354.8675102499983,354.8675102499983,360.01760029199795,354.8675102499983,354.8675102499983,354.8675102499983,354.8675102499983,355.32256229199993,356.3770047500002,355.29308491666984,,356.9294568330006,357.9904954169979,356.89978891666783,,354.8675102499983,360.01760029199795,354.8675102499983,360.01760029199795,360.05842962500174,,354.8675102499983,1,1,0.8553638750017853,reldom2_s018,001,2025-02-21_11h55.52.944,Aud-A-Scan_AC,2022.2.5,None,
30,Second_Order,5.0,audwhere,stimulus/audwhere_stim/left_toward_300h.wav,stimulus/audwhere_stim/left_away_290h.wav,stimulus/audwhere_stim/right_away_290h.wav,stimulus/audwhere_stim/right_toward_280h.wav,stimulus/audwhere_stim/match_blank.png,stimulus/audwhere_stim/match_box.png,stimulus/audwhere_stim/match_yes.png,stimulus/audwhere_stim/match_no.png,1.0,Match,Side,Side,1,5.125,0,5.125,0,5.125,0,5.125,0,0.625,0.625,0,0,0,0,0,0,0,0,1,0.5,1,2.125,1,0.5,1,2.125,0,,,,,0,39,39,39,,,,,,,,,360.8654922499991,365.9884672920016,360.8654922499991,360.8654922499991,360.8654922499991,360.8654922499991,361.3144486250021,362.30110804200376,361.3271724166664,,362.94764670800214,363.9375422919984,362.9511960416678,,365.9884672920016,366.7223727919991,368.7722374169971,372.83169241699943,366.7223727919991,366.7223727919991,371.88059562499984,366.7223727919991,366.7223727919991,366.7223727919991,366.7223727919991,367.17632587499975,368.22553887499816,367.14724579166455,,368.7722374169971,369.8239292500002,368.74362787466475,,366.7223727919991,371.88059562499984,366.7223727919991,371.88059562499984,371.88059562499984,372.5599155000018,366.7223727919991,1,1,0.7682988329979707,reldom2_s018,001,2025-02-21_11h55.52.944,Aud-A-Scan_AC,2022.2.5,None,
0,0.0,None,fixation,stimulus/audwhere_stim/blank_white.png,stimulus/audwhere_stim/blank_white.png,stimulus/audwhat_stim/blank_white.png,stimulus/audwhat_stim/blank_white.png,stimulus/audwhere_stim/blank_white.png,stimulus/audwhere_stim/blank_white.png,stimulus/audwhere_stim/blank_white.png,stimulus/audwhere_stim/blank_white.png,0.0,0.0,0.0,0.0,0,0.0,0,0.0,0,0.0,0,0.0,0,0.0,0.0,0,0,0,0,0,0,0,0,0,0.0,0,0.0,0,0.0,0,0.0,9,,,,,0,40,40,40,,,,,,,,,372.83169241699943,372.83169241699943,372.83169241699943,372.83169241699943,372.83169241699943,372.83169241699943,372.83169241699943,372.83169241699943,372.7334937503348,372.83169241699943,372.83169241699943,372.83169241699943,372.7334937503348,372.83169241699943,372.83169241699943,372.83169241699943,372.83169241699943,372.83169241699943,372.83169241699943,372.83169241699943,372.83169241699943,372.83169241699943,372.83169241699943,372.83169241699943,372.83169241699943,372.83169241699943,372.83169241699943,372.7834937503348,372.83169241699943,372.83169241699943,372.83169241699943,372.7834937503348,372.83169241699943,372.83169241699943,372.83169241699943,372.83169241699943,372.83169241699943,378.05868716700206,378.05868716700206,382.1024165420022,None,0,,reldom2_s018,001,2025-02-21_11h55.52.944,Aud-A-Scan_AC,2022.2.5,None,
31,First_Order,6.0,audwhere,stimulus/audwhere_stim/dummy.wav,stimulus/audwhere_stim/dummy.wav,stimulus/audwhere_stim/left_away_300h.wav,stimulus/audwhere_stim/left_toward_300h.wav,stimulus/audwhere_stim/blank_white.png,stimulus/audwhere_stim/side_box.png,stimulus/audwhere_stim/side_yes.png,stimulus/audwhere_stim/side_no.png,None,Side,None,Side,1,0.0,0,5.125,0,5.125,0,5.125,0,0.0,0.625,0,0,0,0,0,0,0,0,0,0.0,0,0.0,1,0.5,1,2.125,0,,,,,0,41,41,41,,,,,,,,,382.1024165420022,382.1024165420022,382.1024165420022,382.1024165420022,382.1024165420022,382.1024165420022,382.1024165420022,382.1024165420022,382.03292445867066,382.1024165420022,382.1024165420022,382.1024165420022,382.03292445867066,382.1024165420022,382.1024165420022,382.1024165420022,384.1756138749988,,382.1024165420022,382.1024165420022,387.26897437500156,382.1024165420022,382.1024165420022,382.1024165420022,382.1024165420022,382.56381245800003,383.6232600000003,382.5342223746668,,384.1756138749988,385.2414982499977,384.1458623746696,,382.1024165420022,387.26897437500156,382.1024165420022,387.26897437500156,387.30976295800065,387.995883333002,382.1024165420022,1,1,0.7939445410011103,reldom2_s018,001,2025-02-21_11h55.52.944,Aud-A-Scan_AC,2022.2.5,None,
32,First_Order,6.0,audwhere,stimulus/audwhere_stim/dummy.wav,stimulus/audwhere_stim/dummy.wav,stimulus/audwhere_stim/right_away_270h.wav,stimulus/audwhere_stim/left_away_280h.wav,stimulus/audwhere_stim/blank_white.png,stimulus/audwhere_stim/side_box.png,stimulus/audwhere_stim/side_yes.png,stimulus/audwhere_stim/side_no.png,None,Side,None,Direction,2,0.0,0,5.125,0,5.125,0,5.125,0,0.0,0.625,0,0,0,0,0,0,0,0,0,0.0,0,0.0,1,0.5,1,2.125,0,,,,,0,42,42,42,,,,,,,,,388.206339999997,388.206339999997,388.206339999997,388.206339999997,388.206339999997,388.206339999997,388.206339999997,388.206339999997,388.1292166663353,388.206339999997,388.206339999997,388.206339999997,388.1292166663353,388.206339999997,388.206339999997,388.206339999997,390.2841935000033,394.32509087499784,388.206339999997,388.206339999997,393.3817501250014,388.206339999997,388.206339999997,388.206339999997,388.206339999997,388.6676275420032,389.73067791700305,388.6382159586685,,390.2841935000033,391.3497654169987,390.25456558366955,,388.206339999997,393.3817501250014,388.206339999997,393.3817501250014,393.42264050000085,394.07241858300404,388.206339999997,2,1,1.1434404589963378,reldom2_s018,001,2025-02-21_11h55.52.944,Aud-A-Scan_AC,2022.2.5,None,
33,First_Order,6.0,audwhere,stimulus/audwhere_stim/dummy.wav,stimulus/audwhere_stim/dummy.wav,stimulus/audwhere_stim/left_toward_270h.wav,stimulus/audwhere_stim/left_away_270h.wav,stimulus/audwhere_stim/blank_white.png,stimulus/audwhere_stim/direction_box.png,stimulus/audwhere_stim/direction_yes.png,stimulus/audwhere_stim/direction_no.png,None,Direction,None,Side,2,0.0,0,5.125,0,5.125,0,5.125,0,0.0,0.625,0,0,0,0,0,0,0,0,0,0.0,0,0.0,1,0.5,1,2.125,0,,,,,0,43,43,43,,,,,,,,,394.32509087499784,394.32509087499784,394.32509087499784,394.32509087499784,394.32509087499784,394.32509087499784,394.32509087499784,394.32509087499784,394.24653529133695,394.32509087499784,394.32509087499784,394.32509087499784,394.24653529133695,394.32509087499784,394.32509087499784,394.32509087499784,396.4195504169984,400.444894207998,394.32509087499784,394.32509087499784,399.4972967499998,394.32509087499784,394.32509087499784,394.32509087499784,394.32509087499784,394.7910581670003,395.861928792001,394.76120870866384,,396.4195504169984,397.4516639170033,396.3889123336669,,394.32509087499784,399.4972967499998,394.32509087499784,399.4972967499998,399.5386451669983,400.1921352499994,394.32509087499784,2,1,0.9870566669997061,reldom2_s018,001,2025-02-21_11h55.52.944,Aud-A-Scan_AC,2022.2.5,None,
34,First_Order,6.0,audwhere,stimulus/audwhere_stim/dummy.wav,stimulus/audwhere_stim/dummy.wav,stimulus/audwhere_stim/left_toward_300h.wav,stimulus/audwhere_stim/left_away_300h.wav,stimulus/audwhere_stim/blank_white.png,stimulus/audwhere_stim/side_box.png,stimulus/audwhere_stim/side_yes.png,stimulus/audwhere_stim/side_no.png,None,Side,None,Side,1,0.0,0,5.125,0,5.125,0,5.125,0,0.0,0.625,0,0,0,0,0,0,0,0,0,0.0,0,0.0,1,0.5,1,2.125,0,,,,,0,44,44,44,,,,,,,,,400.444894207998,400.444894207998,400.444894207998,400.444894207998,400.444894207998,400.444894207998,400.444894207998,400.444894207998,400.3665345833307,400.444894207998,400.444894207998,400.444894207998,400.3665345833307,400.444894207998,400.444894207998,400.444894207998,402.54051033299766,,400.444894207998,400.444894207998,405.60135275000357,400.444894207998,400.444894207998,400.444894207998,400.444894207998,400.91233195800305,401.9841730830012,400.88220741666396,,402.54051033299766,403.61381899999833,402.5107789996657,,400.444894207998,405.60135275000357,400.444894207998,405.60135275000357,405.6424134580011,406.29347608300304,400.444894207998,1,1,0.7881529169972055,reldom2_s018,001,2025-02-21_11h55.52.944,Aud-A-Scan_AC,2022.2.5,None,
0,0.0,None,fixation,stimulus/audwhere_stim/blank_white.png,stimulus/audwhere_stim/blank_white.png,stimulus/audwhat_stim/blank_white.png,stimulus/audwhat_stim/blank_white.png,stimulus/audwhere_stim/blank_white.png,stimulus/audwhere_stim/blank_white.png,stimulus/audwhere_stim/blank_white.png,stimulus/audwhere_stim/blank_white.png,0.0,0.0,0.0,0.0,0,0.0,0,0.0,0,0.0,0,0.0,0,0.0,0.0,0,0,0,0,0,0,0,0,0,0.0,0,0.0,0,0.0,0,0.0,10,,,,,0,45,45,45,,,,,,,,,406.5667032499987,406.5667032499987,406.5667032499987,406.5667032499987,406.5667032499987,406.5667032499987,406.5667032499987,406.5667032499987,406.4676631663334,406.5667032499987,406.5667032499987,406.5667032499987,406.4676631663334,406.5667032499987,406.5667032499987,406.5667032499987,406.5667032499987,406.5667032499987,406.5667032499987,406.5667032499987,406.5667032499987,406.5667032499987,406.5667032499987,406.5667032499987,406.5667032499987,406.5667032499987,406.5667032499987,406.5176631663334,406.5667032499987,406.5667032499987,406.5667032499987,406.5176631663334,406.5667032499987,406.5667032499987,406.5667032499987,406.5667032499987,406.5667032499987,411.79081308300374,411.79081308300374,416.73687979199894,None,0,,reldom2_s018,001,2025-02-21_11h55.52.944,Aud-A-Scan_AC,2022.2.5,None,
35,Second_Order,6.0,audwhere,stimulus/audwhere_stim/left_away_280h.wav,stimulus/audwhere_stim/left_toward_300h.wav,stimulus/audwhere_stim/right_away_280h.wav,stimulus/audwhere_stim/right_toward_300h.wav,stimulus/audwhere_stim/match_blank.png,stimulus/audwhere_stim/match_box.png,stimulus/audwhere_stim/match_yes.png,stimulus/audwhere_stim/match_no.png,1.0,Match,Side,Side,1,5.125,0,5.125,0,5.125,0,5.125,0,0.75,0.75,0,0,0,0,0,0,0,0,1,0.5,1,2.125,1,0.5,1,2.125,0,,,,,0,46,46,46,,,,,,,,,416.73687979199894,421.85504533300264,416.73687979199894,416.73687979199894,416.73687979199894,416.73687979199894,417.19446170800074,418.1922876250028,417.20662649966494,,418.8147890420005,419.81275145799736,418.82705045866555,,421.85504533300264,422.703814708002,424.76289825000276,428.7076958329999,422.703814708002,422.703814708002,427.8595636250029,422.703814708002,422.703814708002,422.703814708002,422.703814708002,423.15979883300315,424.2127478330003,423.13089499966395,,424.76289825000276,425.82823587500025,424.73336599966956,,422.703814708002,427.8595636250029,422.703814708002,427.8595636250029,427.9004524580014,,422.703814708002,1,1,1.0065503329969943,reldom2_s018,001,2025-02-21_11h55.52.944,Aud-A-Scan_AC,2022.2.5,None,
36,Second_Order,6.0,audwhere,stimulus/audwhere_stim/left_away_290h.wav,stimulus/audwhere_stim/left_toward_270h.wav,stimulus/audwhere_stim/left_toward_290h.wav,stimulus/audwhere_stim/right_toward_270h.wav,stimulus/audwhere_stim/match_blank.png,stimulus/audwhere_stim/match_box.png,stimulus/audwhere_stim/match_yes.png,stimulus/audwhere_stim/match_no.png,2.0,Match,Side,Direction,2,5.125,0,5.125,0,5.125,0,5.125,0,0.625,0.625,0,0,0,0,0,0,0,0,1,0.5,1,2.125,1,0.5,1,2.125,0,,,,,0,47,47,47,,,,,,,,,428.7076958329999,433.8328693750009,428.7076958329999,428.7076958329999,428.7076958329999,428.7076958329999,429.16763950000313,430.15637495800183,429.17090283366656,,430.7939804580019,431.79021074999764,430.80496108366447,,433.8328693750009,434.5603623749994,436.61704224999994,,434.5603623749994,434.5603623749994,439.7360222080024,434.5603623749994,434.5603623749994,434.5603623749994,434.5603623749994,435.0159782920018,436.067723250002,434.9868483336652,,436.61704224999994,437.6726265420002,436.58769424966545,,434.5603623749994,439.7360222080024,434.5603623749994,439.7360222080024,439.7360222080024,440.4190744169973,434.5603623749994,2,1,0.5415628749979078,reldom2_s018,001,2025-02-21_11h55.52.944,Aud-A-Scan_AC,2022.2.5,None,
0,0.0,None,fixation,stimulus/audwhere_stim/blank_white.png,stimulus/audwhere_stim/blank_white.png,stimulus/audwhat_stim/blank_white.png,stimulus/audwhat_stim/blank_white.png,stimulus/audwhere_stim/blank_white.png,stimulus/audwhere_stim/blank_white.png,stimulus/audwhere_stim/blank_white.png,stimulus/audwhere_stim/blank_white.png,0.0,0.0,0.0,0.0,0,0.0,0,0.0,0,0.0,0,0.0,0,0.0,0.0,0,0,0,0,0,0,0,0,0,0.0,0,0.0,0,0.0,0,0.0,9,,,,,0,48,48,48,,,,,,,,,440.65035866700055,440.65035866700055,440.65035866700055,440.65035866700055,440.65035866700055,440.65035866700055,440.65035866700055,440.65035866700055,440.55240775033064,440.65035866700055,440.65035866700055,440.65035866700055,440.55240775033064,440.65035866700055,440.65035866700055,440.65035866700055,440.65035866700055,440.65035866700055,440.65035866700055,440.65035866700055,440.65035866700055,440.65035866700055,440.65035866700055,440.65035866700055,440.65035866700055,440.65035866700055,440.65035866700055,440.60240775033066,440.65035866700055,440.65035866700055,440.65035866700055,440.60240775033066,440.65035866700055,440.65035866700055,440.65035866700055,440.65035866700055,440.65035866700055,445.88341791700077,445.88341791700077,449.87853470799746,None,0,,reldom2_s018,001,2025-02-21_11h55.52.944,Aud-A-Scan_AC,2022.2.5,None,
37,First_Order,7.0,audwhat,stimulus/audwhat_stim/dummy.wav,stimulus/audwhat_stim/dummy.wav,stimulus/audwhat_stim/string cello_low-pitch_Ftri_loud.wav,stimulus/audwhat_stim/string cello_high-pitch_D_loud.wav,stimulus/audwhat_stim/blank_white.png,stimulus/audwhat_stim/pitch_box.png,stimulus/audwhat_stim/pitch_yes.png,stimulus/audwhat_stim/pitch_no.png,None,Pitch,None,Category,2,0.0,0,5.125,0,5.125,0,5.125,0,0.0,0.625,0,0,0,0,0,0,0,0,0,0.0,0,0.0,1,0.5,1,2.125,0,,,,,0,49,49,49,,,,,,,,,449.87853470799746,449.87853470799746,449.87853470799746,449.87853470799746,449.87853470799746,449.87853470799746,449.87853470799746,449.87853470799746,449.80778387466364,449.87853470799746,449.87853470799746,449.87853470799746,449.80778387466364,449.87853470799746,449.87853470799746,449.87853470799746,451.96573795800214,,449.87853470799746,449.87853470799746,455.0727641249978,449.87853470799746,449.87853470799746,449.87853470799746,449.87853470799746,450.33972766700026,451.40986679199705,450.3099411666665,,451.96573795800214,453.04036520799855,451.9364923746655,,449.87853470799746,455.0727641249978,449.87853470799746,455.0727641249978,455.0727641249978,455.72431287499785,449.87853470799746,2,1,0.967709874996217,reldom2_s018,001,2025-02-21_11h55.52.944,Aud-A-Scan_AC,2022.2.5,None,
38,First_Order,7.0,audwhat,stimulus/audwhat_stim/dummy.wav,stimulus/audwhat_stim/dummy.wav,stimulus/audwhat_stim/string cello_low-pitch_D_loud.wav,stimulus/audwhat_stim/string cello_high-pitch_Ftri_loud.wav,stimulus/audwhat_stim/blank_white.png,stimulus/audwhat_stim/pitch_box.png,stimulus/audwhat_stim/pitch_yes.png,stimulus/audwhat_stim/pitch_no.png,None,Pitch,None,Category,2,0.0,0,5.125,0,5.125,0,5.125,0,0.0,0.625,0,0,0,0,0,0,0,0,0,0.0,0,0.0,1,0.5,1,2.125,0,,,,,0,50,50,50,,,,,,,,,455.9770335420035,455.9770335420035,455.9770335420035,455.9770335420035,455.9770335420035,455.9770335420035,455.9770335420035,455.9770335420035,455.89832700033196,455.9770335420035,455.9770335420035,455.9770335420035,455.89832700033196,455.9770335420035,455.9770335420035,455.9770335420035,458.05906262499775,462.10549883299973,455.9770335420035,455.9770335420035,461.16107566699793,455.9770335420035,455.9770335420035,455.9770335420035,455.9770335420035,456.43917804199737,457.5049741250041,456.40943379166515,,458.05906262499775,459.125875042002,458.0291477086687,,455.9770335420035,461.16107566699793,455.9770335420035,461.16107566699793,461.2021797920024,461.85148620799737,455.9770335420035,2,1,1.1090507499975502,reldom2_s018,001,2025-02-21_11h55.52.944,Aud-A-Scan_AC,2022.2.5,None,
39,First_Order,7.0,audwhat,stimulus/audwhat_stim/dummy.wav,stimulus/audwhat_stim/dummy.wav,stimulus/audwhat_stim/percussion xylophone_high-pitch_Dtri_loud.wav,stimulus/audwhat_stim/string cello_high-pitch_Dtri_loud.wav,stimulus/audwhat_stim/blank_white.png,stimulus/audwhat_stim/pitch_box.png,stimulus/audwhat_stim/pitch_yes.png,stimulus/audwhat_stim/pitch_no.png,None,Pitch,None,Pitch,1,0.0,0,5.125,0,5.125,0,5.125,0,0.0,0.625,0,0,0,0,0,0,0,0,0,0.0,0,0.0,1,0.5,1,2.125,0,,,,,0,51,51,51,,,,,,,,,462.10549883299973,462.10549883299973,462.10549883299973,462.10549883299973,462.10549883299973,462.10549883299973,462.10549883299973,462.10549883299973,462.02555962533563,462.10549883299973,462.10549883299973,462.10549883299973,462.02555962533563,462.10549883299973,462.10549883299973,462.10549883299973,464.1913580000037,,462.10549883299973,462.10549883299973,467.2992009169975,462.10549883299973,462.10549883299973,462.10549883299973,462.10549883299973,462.56824712500384,463.6345375419987,462.53870508366913,463.58772970800055,464.1913580000037,465.2623917919991,464.1613867916642,,462.10549883299973,467.2992009169975,462.10549883299973,467.2992009169975,467.2992009169975,467.950188625,462.10549883299973,1,1,0.6683928749916959,reldom2_s018,001,2025-02-21_11h55.52.944,Aud-A-Scan_AC,2022.2.5,None,
40,First_Order,7.0,audwhat,stimulus/audwhat_stim/dummy.wav,stimulus/audwhat_stim/dummy.wav,stimulus/audwhat_stim/string cello_low-pitch_D_loud.wav,stimulus/audwhat_stim/percussion mallet_low-pitch_D_loud.wav,stimulus/audwhat_stim/blank_white.png,stimulus/audwhat_stim/pitch_box.png,stimulus/audwhat_stim/pitch_yes.png,stimulus/audwhat_stim/pitch_no.png,None,Pitch,None,Pitch,1,0.0,0,5.125,0,5.125,0,5.125,0,0.0,0.625,0,0,0,0,0,0,0,0,0,0.0,0,0.0,1,0.5,1,2.125,0,,,,,0,52,52,52,,,,,,,,,468.20423912499973,468.20423912499973,468.20423912499973,468.20423912499973,468.20423912499973,468.20423912499973,468.20423912499973,468.20423912499973,468.12462133333077,468.20423912499973,468.20423912499973,468.20423912499973,468.12462133333077,468.20423912499973,468.20423912499973,468.20423912499973,470.2929318329989,,468.20423912499973,468.20423912499973,473.35535083300056,468.20423912499973,468.20423912499973,468.20423912499973,468.20423912499973,468.6687038329983,469.73729812500096,468.63864904166644,,470.2929318329989,471.36562120800227,470.2633712496647,,468.20423912499973,473.35535083300056,468.20423912499973,473.35535083300056,473.39664758300205,474.0490690000006,468.20423912499973,1,1,0.8658693329925882,reldom2_s018,001,2025-02-21_11h55.52.944,Aud-A-Scan_AC,2022.2.5,None,
0,0.0,None,fixation,stimulus/audwhere_stim/blank_white.png,stimulus/audwhere_stim/blank_white.png,stimulus/audwhat_stim/blank_white.png,stimulus/audwhat_stim/blank_white.png,stimulus/audwhere_stim/blank_white.png,stimulus/audwhere_stim/blank_white.png,stimulus/audwhere_stim/blank_white.png,stimulus/audwhere_stim/blank_white.png,0.0,0.0,0.0,0.0,0,0.0,0,0.0,0,0.0,0,0.0,0,0.0,0.0,0,0,0,0,0,0,0,0,0,0.0,0,0.0,0,0.0,0,0.0,10,,,,,0,53,53,53,,,,,,,,,474.3218546670032,474.3218546670032,474.3218546670032,474.3218546670032,474.3218546670032,474.3218546670032,474.3218546670032,474.3218546670032,474.22319808333316,474.3218546670032,474.3218546670032,474.3218546670032,474.22319808333316,474.3218546670032,474.3218546670032,474.3218546670032,474.3218546670032,474.3218546670032,474.3218546670032,474.3218546670032,474.3218546670032,474.3218546670032,474.3218546670032,474.3218546670032,474.3218546670032,474.3218546670032,474.3218546670032,474.27319808333317,474.3218546670032,474.3218546670032,474.3218546670032,474.27319808333317,474.3218546670032,474.3218546670032,474.3218546670032,474.3218546670032,474.3218546670032,479.55180924999877,479.55180924999877,484.49389741699997,None,0,,reldom2_s018,001,2025-02-21_11h55.52.944,Aud-A-Scan_AC,2022.2.5,None,
41,Second_Order,7.0,audwhat,stimulus/audwhat_stim/percussion xylophone_high-pitch_Ftri_loud.wav,stimulus/audwhat_stim/percussion mallet_low-pitch_Dtri_loud.wav,stimulus/audwhat_stim/string viola_low-pitch_Ftri_loud.wav,stimulus/audwhat_stim/percussion mallet_low-pitch_Ftri_loud.wav,stimulus/audwhere_stim/match_blank.png,stimulus/audwhat_stim/match_box.png,stimulus/audwhere_stim/match_yes.png,stimulus/audwhere_stim/match_no.png,2.0,Match,Category,Pitch,2,5.125,0,5.125,0,5.125,0,5.125,0,0.75,0.75,0,0,0,0,0,0,0,0,1,0.5,1,2.125,1,0.5,1,2.125,0,,,,,0,54,54,54,,,,,,,,,484.49389741699997,489.6120169170026,484.49389741699997,484.49389741699997,484.49389741699997,484.49389741699997,484.9498385420011,485.948852542002,484.9630635416654,485.95347995799966,486.5718720829973,487.56890170800034,486.5838524996691,,489.6120169170026,490.46081850000337,492.52414766699803,496.4552114170001,490.46081850000337,490.46081850000337,495.6086207920016,490.46081850000337,490.46081850000337,490.46081850000337,490.46081850000337,490.91899883300357,491.97307783299766,490.8898630836668,,492.52414766699803,493.5845892080033,492.4948259996638,,490.46081850000337,495.6086207920016,490.46081850000337,495.6086207920016,495.64942583299853,,490.46081850000337,1,0,0.6232016669964651,reldom2_s018,001,2025-02-21_11h55.52.944,Aud-A-Scan_AC,2022.2.5,None,
42,Second_Order,7.0,audwhat,stimulus/audwhat_stim/string cello_high-pitch_Dtri_loud.wav,stimulus/audwhat_stim/percussion mallet_high-pitch_Dtri_loud.wav,stimulus/audwhat_stim/percussion mallet_low-pitch_D_loud.wav,stimulus/audwhat_stim/string cello_low-pitch_D_loud.wav,stimulus/audwhere_stim/match_blank.png,stimulus/audwhat_stim/match_box.png,stimulus/audwhere_stim/match_yes.png,stimulus/audwhere_stim/match_no.png,1.0,Match,Pitch,Pitch,1,5.125,0,5.125,0,5.125,0,5.125,0,0.625,0.625,0,0,0,0,0,0,0,0,1,0.5,1,2.125,1,0.5,1,2.125,0,,,,,0,55,55,55,,,,,,,,,496.4552114170001,501.5731451669999,496.4552114170001,496.4552114170001,496.4552114170001,496.4552114170001,496.90990433299885,497.8969807500034,496.9236426246682,,498.5320661250007,499.53017379200173,498.54458766666744,,501.5731451669999,502.3039715420018,504.3573688750039,,502.3039715420018,502.3039715420018,507.47449466700346,502.3039715420018,502.3039715420018,502.3039715420018,502.3039715420018,502.75900374999765,503.8110281249974,502.7296172086683,,504.3573688750039,505.4122228330016,504.3279419996654,,502.3039715420018,507.47449466700346,502.3039715420018,507.47449466700346,507.47449466700346,508.1585032919975,502.3039715420018,1,1,1.1295020829929854,reldom2_s018,001,2025-02-21_11h55.52.944,Aud-A-Scan_AC,2022.2.5,None,
0,0.0,None,fixation,stimulus/audwhere_stim/blank_white.png,stimulus/audwhere_stim/blank_white.png,stimulus/audwhat_stim/blank_white.png,stimulus/audwhat_stim/blank_white.png,stimulus/audwhere_stim/blank_white.png,stimulus/audwhere_stim/blank_white.png,stimulus/audwhere_stim/blank_white.png,stimulus/audwhere_stim/blank_white.png,0.0,0.0,0.0,0.0,0,0.0,0,0.0,0,0.0,0,0.0,0,0.0,0.0,0,0,0,0,0,0,0,0,0,0.0,0,0.0,0,0.0,0,0.0,9,,,,,0,56,56,56,,,,,,,,,508.3898745830011,508.3898745830011,508.3898745830011,508.3898745830011,508.3898745830011,508.3898745830011,508.3898745830011,508.3898745830011,508.2918366253308,508.3898745830011,508.3898745830011,508.3898745830011,508.2918366253308,508.3898745830011,508.3898745830011,508.3898745830011,508.3898745830011,508.3898745830011,508.3898745830011,508.3898745830011,508.3898745830011,508.3898745830011,508.3898745830011,508.3898745830011,508.3898745830011,508.3898745830011,508.3898745830011,508.3418366253308,508.3898745830011,508.3898745830011,508.3898745830011,508.3418366253308,508.3898745830011,508.3898745830011,508.3898745830011,508.3898745830011,508.3898745830011,513.6124556249997,513.6124556249997,517.6582218330004,None,0,,reldom2_s018,001,2025-02-21_11h55.52.944,Aud-A-Scan_AC,2022.2.5,None,
43,First_Order,8.0,audwhat,stimulus/audwhat_stim/dummy.wav,stimulus/audwhat_stim/dummy.wav,stimulus/audwhat_stim/string viola_low-pitch_F_loud.wav,stimulus/audwhat_stim/percussion mallet_low-pitch_F_loud.wav,stimulus/audwhat_stim/blank_white.png,stimulus/audwhat_stim/category_box.png,stimulus/audwhat_stim/category_yes.png,stimulus/audwhat_stim/category_no.png,None,Category,None,Pitch,2,0.0,0,5.125,0,5.125,0,5.125,0,0.0,0.625,0,0,0,0,0,0,0,0,0,0.0,0,0.0,1,0.5,1,2.125,0,,,,,0,57,57,57,,,,,,,,,517.6582218330004,517.6582218330004,517.6582218330004,517.6582218330004,517.6582218330004,517.6582218330004,517.6582218330004,517.6582218330004,517.586644249665,517.6582218330004,517.6582218330004,517.6582218330004,517.586644249665,517.6582218330004,517.6582218330004,517.6582218330004,519.7442927919983,,517.6582218330004,517.6582218330004,522.8099514580026,517.6582218330004,517.6582218330004,517.6582218330004,517.6582218330004,518.1237552500024,519.1882677500034,518.0937358746708,,519.7442927919983,520.8160327080041,519.7146460836705,,517.6582218330004,522.8099514580026,517.6582218330004,522.8099514580026,522.8515238749969,523.502218667003,517.6582218330004,2,1,0.6144789159952779,reldom2_s018,001,2025-02-21_11h55.52.944,Aud-A-Scan_AC,2022.2.5,None,
44,First_Order,8.0,audwhat,stimulus/audwhat_stim/dummy.wav,stimulus/audwhat_stim/dummy.wav,stimulus/audwhat_stim/percussion mallet_low-pitch_Dtri_loud.wav,stimulus/audwhat_stim/percussion xylophone_high-pitch_F_loud.wav,stimulus/audwhat_stim/blank_white.png,stimulus/audwhat_stim/category_box.png,stimulus/audwhat_stim/category_yes.png,stimulus/audwhat_stim/category_no.png,None,Category,None,Category,1,0.0,0,5.125,0,5.125,0,5.125,0,0.0,0.625,0,0,0,0,0,0,0,0,0,0.0,0,0.0,1,0.5,1,2.125,0,,,,,0,58,58,58,,,,,,,,,523.7557700000034,523.7557700000034,523.7557700000034,523.7557700000034,523.7557700000034,523.7557700000034,523.7557700000034,523.7557700000034,523.6764382913335,523.7557700000034,523.7557700000034,523.7557700000034,523.6764382913335,523.7557700000034,523.7557700000034,523.7557700000034,525.8468796669986,,523.7557700000034,523.7557700000034,528.9172073329974,523.7557700000034,523.7557700000034,523.7557700000034,523.7557700000034,524.2207835419977,525.2899872080015,524.1909046246694,,525.8468796669986,526.9206299170037,525.8168190416657,526.8740120829971,523.7557700000034,528.9172073329974,523.7557700000034,528.9172073329974,528.9585888330039,529.6115764170027,523.7557700000034,1,1,1.0053292079974199,reldom2_s018,001,2025-02-21_11h55.52.944,Aud-A-Scan_AC,2022.2.5,None,
45,First_Order,8.0,audwhat,stimulus/audwhat_stim/dummy.wav,stimulus/audwhat_stim/dummy.wav,stimulus/audwhat_stim/string cello_high-pitch_Dtri_loud.wav,stimulus/audwhat_stim/percussion xylophone_high-pitch_Dtri_loud.wav,stimulus/audwhat_stim/blank_white.png,stimulus/audwhat_stim/category_box.png,stimulus/audwhat_stim/category_yes.png,stimulus/audwhat_stim/category_no.png,None,Category,None,Pitch,2,0.0,0,5.125,0,5.125,0,5.125,0,0.0,0.625,0,0,0,0,0,0,0,0,0,0.0,0,0.0,1,0.5,1,2.125,0,,,,,0,59,59,59,,,,,,,,,529.8655879580037,529.8655879580037,529.8655879580037,529.8655879580037,529.8655879580037,529.8655879580037,529.8655879580037,529.8655879580037,529.7861361253327,529.8655879580037,529.8655879580037,529.8655879580037,529.7861361253327,529.8655879580037,529.8655879580037,529.8655879580037,531.9601685000016,535.9815100830019,529.8655879580037,529.8655879580037,535.0316532500001,529.8655879580037,529.8655879580037,529.8655879580037,529.8655879580037,530.3289919579984,531.4027815829977,530.2990087086694,,531.9601685000016,533.035320666997,531.9301855416672,532.9894261669979,529.8655879580037,535.0316532500001,529.8655879580037,535.0316532500001,535.0727673750007,535.7276937080023,529.8655879580037,2,1,0.7643517079923186,reldom2_s018,001,2025-02-21_11h55.52.944,Aud-A-Scan_AC,2022.2.5,None,
46,First_Order,8.0,audwhat,stimulus/audwhat_stim/dummy.wav,stimulus/audwhat_stim/dummy.wav,stimulus/audwhat_stim/percussion mallet_low-pitch_Ftri_loud.wav,stimulus/audwhat_stim/percussion mallet_high-pitch_F_loud.wav,stimulus/audwhat_stim/blank_white.png,stimulus/audwhat_stim/category_box.png,stimulus/audwhat_stim/category_yes.png,stimulus/audwhat_stim/category_no.png,None,Category,None,Category,1,0.0,0,5.125,0,5.125,0,5.125,0,0.0,0.625,0,0,0,0,0,0,0,0,0,0.0,0,0.0,1,0.5,1,2.125,0,,,,,0,60,60,60,,,,,,,,,535.9815100830019,535.9815100830019,535.9815100830019,535.9815100830019,535.9815100830019,535.9815100830019,535.9815100830019,535.9815100830019,535.9017837503362,535.9815100830019,535.9815100830019,535.9815100830019,535.9017837503362,535.9815100830019,535.9815100830019,535.9815100830019,538.071509207999,,535.9815100830019,535.9815100830019,541.1440203329985,535.9815100830019,535.9815100830019,535.9815100830019,535.9815100830019,536.4448488749986,537.5118273749977,536.4144246666658,,538.071509207999,539.1462851670003,538.0416326666639,,535.9815100830019,541.1440203329985,535.9815100830019,541.1440203329985,541.1849277500005,541.8383792500026,535.9815100830019,1,1,0.6439300409983844,reldom2_s018,001,2025-02-21_11h55.52.944,Aud-A-Scan_AC,2022.2.5,None,
0,0.0,None,fixation,stimulus/audwhere_stim/blank_white.png,stimulus/audwhere_stim/blank_white.png,stimulus/audwhat_stim/blank_white.png,stimulus/audwhat_stim/blank_white.png,stimulus/audwhere_stim/blank_white.png,stimulus/audwhere_stim/blank_white.png,stimulus/audwhere_stim/blank_white.png,stimulus/audwhere_stim/blank_white.png,0.0,0.0,0.0,0.0,0,0.0,0,0.0,0,0.0,0,0.0,0,0.0,0.0,0,0,0,0,0,0,0,0,0,0.0,0,0.0,0,0.0,0,0.0,8,,,,,0,61,61,61,,,,,,,,,542.1124866669998,542.1124866669998,542.1124866669998,542.1124866669998,542.1124866669998,542.1124866669998,542.1124866669998,542.1124866669998,542.0125995003347,542.1124866669998,542.1124866669998,542.1124866669998,542.0125995003347,542.1124866669998,542.1124866669998,542.1124866669998,542.1124866669998,542.1124866669998,542.1124866669998,542.1124866669998,542.1124866669998,542.1124866669998,542.1124866669998,542.1124866669998,542.1124866669998,542.1124866669998,542.1124866669998,542.0625995003346,542.1124866669998,542.1124866669998,542.1124866669998,542.0625995003346,542.1124866669998,542.1124866669998,542.1124866669998,542.1124866669998,542.1124866669998,547.3445369580004,547.3445369580004,550.2654549580038,None,0,,reldom2_s018,001,2025-02-21_11h55.52.944,Aud-A-Scan_AC,2022.2.5,None,
47,Second_Order,8.0,audwhat,stimulus/audwhat_stim/string cello_high-pitch_F_loud.wav,stimulus/audwhat_stim/string viola_low-pitch_D_loud.wav,stimulus/audwhat_stim/percussion mallet_low-pitch_Ftri_loud.wav,stimulus/audwhat_stim/percussion xylophone_high-pitch_F_loud.wav,stimulus/audwhere_stim/match_blank.png,stimulus/audwhat_stim/match_box.png,stimulus/audwhere_stim/match_yes.png,stimulus/audwhere_stim/match_no.png,1.0,Match,Category,Category,1,5.125,0,5.125,0,5.125,0,5.125,0,0.75,0.75,0,0,0,0,0,0,0,0,1,0.5,1,2.125,1,0.5,1,2.125,0,,,,,0,62,62,62,,,,,,,,,550.2654549580038,555.3803351669994,550.2654549580038,550.2654549580038,550.2654549580038,550.2654549580038,550.7170162920011,551.7042413750023,550.7311182086671,,552.3397914579982,553.3376897080016,552.3520819166699,,555.3803351669994,556.2307016249979,558.300286208003,,556.2307016249979,556.2307016249979,561.3903368750034,556.2307016249979,556.2307016249979,556.2307016249979,556.2307016249979,556.6882872080023,557.7481180000032,556.6589505836639,,558.300286208003,559.3618816250018,558.2704767916696,559.3163137079973,556.2307016249979,561.3903368750034,556.2307016249979,561.3903368750034,561.3903368750034,,556.2307016249979,1,1,1.1516230829947744,reldom2_s018,001,2025-02-21_11h55.52.944,Aud-A-Scan_AC,2022.2.5,None,
48,Second_Order,8.0,audwhat,stimulus/audwhat_stim/percussion mallet_high-pitch_Ftri_loud.wav,stimulus/audwhat_stim/percussion mallet_low-pitch_D_loud.wav,stimulus/audwhat_stim/string cello_high-pitch_Ftri_loud.wav,stimulus/audwhat_stim/percussion xylophone_high-pitch_Ftri_loud.wav,stimulus/audwhere_stim/match_blank.png,stimulus/audwhat_stim/match_box.png,stimulus/audwhere_stim/match_yes.png,stimulus/audwhere_stim/match_no.png,2.0,Match,Category,Pitch,2,5.125,0,5.125,0,5.125,0,5.125,0,0.625,0.625,0,0,0,0,0,0,0,0,1,0.5,1,2.125,1,0.5,1,2.125,0,,,,,0,63,63,63,,,,,,,,,562.1953158750039,567.3089367080029,562.1953158750039,562.1953158750039,562.1953158750039,562.1953158750039,562.6444085420007,563.631495667003,562.6586766246658,,564.2799442920004,565.2691071669979,564.283271208664,,567.3089367080029,568.0384023750012,570.0909694170041,,568.0384023750012,568.0384023750012,573.208024624997,568.0384023750012,568.0384023750012,568.0384023750012,568.0384023750012,568.4925778750039,569.5416199169995,568.463433416666,,570.0909694170041,571.1476707499969,570.0613217496687,571.1016745000015,568.0384023750012,573.208024624997,568.0384023750012,573.208024624997,573.208024624997,573.8932082500032,568.0384023750012,2,1,0.8814107919970411,reldom2_s018,001,2025-02-21_11h55.52.944,Aud-A-Scan_AC,2022.2.5,None,
0,0.0,None,fixation,stimulus/audwhere_stim/blank_white.png,stimulus/audwhere_stim/blank_white.png,stimulus/audwhat_stim/blank_white.png,stimulus/audwhat_stim/blank_white.png,stimulus/audwhere_stim/blank_white.png,stimulus/audwhere_stim/blank_white.png,stimulus/audwhere_stim/blank_white.png,stimulus/audwhere_stim/blank_white.png,0.0,0.0,0.0,0.0,0,0.0,0,0.0,0,0.0,0,0.0,0,0.0,0.0,0,0,0,0,0,0,0,0,0,0.0,0,0.0,0,0.0,0,0.0,16,,,,,0,64,64,64,,,,,,,,,574.1233914170007,574.1233914170007,574.1233914170007,574.1233914170007,574.1233914170007,574.1233914170007,574.1233914170007,574.1233914170007,574.0265415833366,574.1233914170007,574.1233914170007,574.1233914170007,574.0265415833366,574.1233914170007,574.1233914170007,574.1233914170007,574.1233914170007,574.1233914170007,574.1233914170007,574.1233914170007,574.1233914170007,574.1233914170007,574.1233914170007,574.1233914170007,574.1233914170007,574.1233914170007,574.1233914170007,574.0765415833365,574.1233914170007,574.1233914170007,574.1233914170007,574.0765415833365,574.1233914170007,574.1233914170007,574.1233914170007,574.1233914170007,574.1233914170007,579.3485967919987,579.3485967919987,590.256349000003,None,0,,reldom2_s018,001,2025-02-21_11h55.52.944,Aud-A-Scan_AC,2022.2.5,None,
