Trial,Order,Block,Type,Stimuli_File1,Stimuli_File2,Stimuli_File3,Stimuli_File4,Cue_File1,Cue_File2,Response_File_Yes,Response_File_No,Match,Cue_Dimension,Pair1_Dimension,Pair2_Dimension,Key,Cue1_Duration,Cue1_Onset,Cue2_Duration,Cue2_Onset,ResponseYes_Duration,ResponseYes_Onset,ResponseNo_Duration,ResponseNo_Onset,ITI_Within,ITI_Between,Image1_Duration,Image1_Onset,Image2_Duration,Image2_Onset,Image3_Duration,Image3_Onset,Image4_Duration,Image4_Onset,Sound1_Duration,Sound1_Onset,Sound2_Duration,Sound2_Onset,Sound3_Duration,Sound3_Onset,Sound4_Duration,Sound4_Onset,Fixation_Duration,trials_2.thisRepN,trials_2.thisTrialN,trials_2.thisN,trials_2.thisIndex,trials.thisRepN,trials.thisTrialN,trials.thisN,trials.thisIndex,text_start.started,key_resp_start.started,key_resp_start.keys,key_resp_start.rt,cue_file1.started,cue_file1.stopped,image_1.started,image_1.stopped,image_2.started,image_2.stopped,sound_icon1.started,sound_icon1.stopped,sound_1.started,sound_1.stopped,sound_icon2.started,sound_icon2.stopped,sound_2.started,sound_2.stopped,image_blank_1.started,image_blank_1.stopped,key_press.started,key_press.stopped,fixation_text.started,cue_file2.started,cue_file2.stopped,image_3.started,image_3.stopped,image_4.started,image_4.stopped,sound_icon3.started,sound_icon3.stopped,sound_3.started,sound_3.stopped,sound_icon4.started,sound_icon4.stopped,sound_4.started,sound_4.stopped,response_yes.started,response_yes.stopped,response_no.started,response_no.stopped,iti_blank.started,iti_blank.stopped,fixation_text.stopped,key_press.keys,key_press.corr,key_press.rt,text_score.started,participant,session,date,expName,psychopyVersion,frameRate,
,,,,,,,,,,,,,,,,,,,,,,,,,,,,,,,,,,,,,,,,,,,,,,,,,,,,10.752342958992813,10.752342958992813,2,5.037135790975299,,,,,,,,,,,,,,,,,,,,,,,,,,,,,,,,,,,,,,,,,,,,,reldom2_s029,001,2025-03-03_13h22.44.736,practice_test1_AC,2022.2.5,None,
,,,,,,,,,,,,,,,,,,,,,,,,,,,,,,,,,,,,,,,,,,,,0,0,0,0,,,,,,,,,,,,,,,,,,,,,,,,,,,,,,,,,,,,,,,,,,,,,,,,,,,,,reldom2_s029,001,2025-03-03_13h22.44.736,practice_test1_AC,2022.2.5,None,
,,,,,,,,,,,,,,,,,,,,,,,,,,,,,,,,,,,,,,,,,,,,1,0,1,0,,,,,,,,,,,,,,,,,,,,,,,,,,,,,,,,,,,,,,,,,,,,,,,,,,,,,reldom2_s029,001,2025-03-03_13h22.44.736,practice_test1_AC,2022.2.5,None,
,,,,,,,,,,,,,,,,,,,,,,,,,,,,,,,,,,,,,,,,,,,,2,0,2,0,,,,,,,,,,,,,,,,,,,,,,,,,,,,,,,,,,,,,,,,,,,,,,,,,,,,,reldom2_s029,001,2025-03-03_13h22.44.736,practice_test1_AC,2022.2.5,None,
,,,,,,,,,,,,,,,,,,,,,,,,,,,,,,,,,,,,,,,,,,,,3,0,3,0,,,,,,,,,,,,,,,,,,,,,,,,,,,,,,,,,,,,,,,,,,,,,,,,,,,,,reldom2_s029,001,2025-03-03_13h22.44.736,practice_test1_AC,2022.2.5,None,
0,0.0,None,fixation,stimulus/viswhere_stim/blank_white.png,stimulus/viswhere_stim/blank_white.png,stimulus/audwhere_stim/blank_white.png,stimulus/audwhere_stim/blank_white.png,stimulus/viswhere_stim/blank_white.png,stimulus/viswhere_stim/blank_white.png,stimulus/viswhere_stim/blank_white.png,stimulus/viswhere_stim/blank_white.png,0.0,0.0,0.0,0.0,0,0.0,0,0.0,0,0.0,0,0.0,0,0.0,0.0,0,0.0,0,0.0,0,0.0,0,0.0,0,0.0,0,0.0,0,0.0,0,0.0,6,,,,,0,0,0,0,,,,,16.04443083400838,16.04443083400838,16.04443083400838,16.04443083400838,16.04443083400838,16.04443083400838,16.04443083400838,16.04443083400838,15.93726062498754,16.04443083400838,16.04443083400838,16.04443083400838,15.93726062498754,16.04443083400838,16.04443083400838,16.04443083400838,16.04443083400838,16.04443083400838,16.04443083400838,16.04443083400838,16.04443083400838,16.04443083400838,16.04443083400838,16.04443083400838,16.04443083400838,16.04443083400838,16.04443083400838,15.98726062498754,16.04443083400838,16.04443083400838,16.04443083400838,15.98726062498754,16.04443083400838,16.04443083400838,16.04443083400838,16.04443083400838,16.04443083400838,21.246542375010904,21.246542375010904,22.218599917017855,None,0,,,reldom2_s029,001,2025-03-03_13h22.44.736,practice_test1_AC,2022.2.5,None,
1,First_Order,1.0,viswhere,stimulus/viswhere_stim/blank_white.png,stimulus/viswhere_stim/blank_white.png,stimulus/viswhere_stim/90-deg_dot-right_peru.png,stimulus/viswhere_stim/120-deg_dot-right_slateblue.png,stimulus/viswhere_stim/blank_white.png,stimulus/viswhere_stim/dot_box.png,stimulus/viswhere_stim/dot_yes.png,stimulus/viswhere_stim/dot_no.png,None,Dot,None,Dot,1,0.0,0,5.25,0,5.25,0,5.25,0,0.0,0.75,0,0.0,0,0.0,1,0.5,1,2.125,0,0.0,0,0.0,0,0.0,0,0.0,0,,,,,0,1,1,1,,,,,22.218599917017855,22.218599917017855,22.218599917017855,22.218599917017855,22.218599917017855,22.218599917017855,22.218599917017855,22.218599917017855,22.193278875004033,22.218599917017855,22.218599917017855,22.218599917017855,22.193278875004033,22.218599917017855,22.218599917017855,22.218599917017855,24.316015292017255,28.29424795898376,22.218599917017855,22.218599917017855,27.489262208982836,22.711573417007457,23.716585709014907,24.316015292017255,25.329276542004663,22.218599917017855,22.218599917017855,22.2099455416707,22.218599917017855,22.218599917017855,22.218599917017855,22.2099455416707,22.218599917017855,22.218599917017855,27.489262208982836,22.218599917017855,27.489262208982836,27.45047695899848,28.29424795898376,22.218599917017855,1,1,1.736277040967252,,reldom2_s029,001,2025-03-03_13h22.44.736,practice_test1_AC,2022.2.5,None,
2,First_Order,1.0,viswhere,stimulus/viswhere_stim/blank_white.png,stimulus/viswhere_stim/blank_white.png,stimulus/viswhere_stim/30-deg_dot-right_turquoise.png,stimulus/viswhere_stim/60-deg_dot-right_seagreen.png,stimulus/viswhere_stim/blank_white.png,stimulus/viswhere_stim/line_box.png,stimulus/viswhere_stim/line_yes.png,stimulus/viswhere_stim/line_no.png,None,Line,None,Dot,2,0.0,0,5.25,0,5.25,0,5.25,0,0.0,0.75,0,0.0,0,0.0,1,0.5,1,2.125,0,0.0,0,0.0,0,0.0,0,0.0,0,,,,,0,2,2,2,,,,,28.29424795898376,28.29424795898376,28.29424795898376,28.29424795898376,28.29424795898376,28.29424795898376,28.29424795898376,28.29424795898376,28.269044292353403,28.29424795898376,28.29424795898376,28.29424795898376,28.269044292353403,28.29424795898376,28.29424795898376,28.29424795898376,30.409263291978277,34.27127783402102,28.29424795898376,28.29424795898376,33.545157708984334,28.76661420898745,29.777179999975488,30.409263291978277,31.426627166976687,28.29424795898376,28.29424795898376,28.28571095902007,28.29424795898376,28.29424795898376,28.29424795898376,28.28571095902007,28.29424795898376,28.29424795898376,33.545157708984334,28.29424795898376,33.545157708984334,33.52885549998609,34.37841649999609,28.29424795898376,1,0,1.6386205409653485,,reldom2_s029,001,2025-03-03_13h22.44.736,practice_test1_AC,2022.2.5,None,
3,First_Order,1.0,viswhere,stimulus/viswhere_stim/blank_white.png,stimulus/viswhere_stim/blank_white.png,stimulus/viswhere_stim/120-deg_dot-left_goldenrod.png,stimulus/viswhere_stim/90-deg_dot-left_seagreen.png,stimulus/viswhere_stim/blank_white.png,stimulus/viswhere_stim/line_box.png,stimulus/viswhere_stim/line_yes.png,stimulus/viswhere_stim/line_no.png,None,Line,None,Dot,2,0.0,0,5.25,0,5.25,0,5.25,0,0.0,0.75,0,0.0,0,0.0,1,0.5,1,2.125,0,0.0,0,0.0,0,0.0,0,0.0,0,,,,,0,3,3,3,,,,,34.37841649999609,34.37841649999609,34.37841649999609,34.37841649999609,34.37841649999609,34.37841649999609,34.37841649999609,34.37841649999609,34.354611167354356,34.37841649999609,34.37841649999609,34.37841649999609,34.354611167354356,34.37841649999609,34.37841649999609,34.37841649999609,36.49672512500547,40.3544382500113,34.37841649999609,34.37841649999609,39.63099375000456,34.85261800000444,35.869141625007614,36.49672512500547,37.51628662500298,34.37841649999609,34.37841649999609,34.37127783402102,34.37841649999609,34.37841649999609,34.37841649999609,34.37127783402102,34.37841649999609,34.37841649999609,39.63099375000456,34.37841649999609,39.63099375000456,39.614774041983765,40.46240004198626,34.37841649999609,1,0,1.738681707996875,,reldom2_s029,001,2025-03-03_13h22.44.736,practice_test1_AC,2022.2.5,None,
4,First_Order,1.0,viswhere,stimulus/viswhere_stim/blank_white.png,stimulus/viswhere_stim/blank_white.png,stimulus/viswhere_stim/150-deg_dot-right_royalblue.png,stimulus/viswhere_stim/150-deg_dot-left_slateblue.png,stimulus/viswhere_stim/blank_white.png,stimulus/viswhere_stim/dot_box.png,stimulus/viswhere_stim/dot_yes.png,stimulus/viswhere_stim/dot_no.png,None,Dot,None,Line,2,0.0,0,5.25,0,5.25,0,5.25,0,0.0,0.75,0,0.0,0,0.0,1,0.5,1,2.125,0,0.0,0,0.0,0,0.0,0,0.0,0,,,,,0,4,4,4,,,,,40.46240004198626,40.46240004198626,40.46240004198626,40.46240004198626,40.46240004198626,40.46240004198626,40.46240004198626,40.46240004198626,40.437771583344635,40.46240004198626,40.46240004198626,40.46240004198626,40.437771583344635,40.46240004198626,40.46240004198626,40.46240004198626,42.57335308397887,46.43912925000768,40.46240004198626,40.46240004198626,45.71573012502631,40.93840854201699,41.96309695899254,42.57335308397887,43.58199724997394,40.46240004198626,40.46240004198626,40.4544382500113,40.46240004198626,40.46240004198626,40.46240004198626,40.4544382500113,40.46240004198626,40.46240004198626,45.71573012502631,40.46240004198626,45.71573012502631,45.69923808402382,46.62920112500433,40.46240004198626,2,1,1.1949076659511775,,reldom2_s029,001,2025-03-03_13h22.44.736,practice_test1_AC,2022.2.5,None,
0,0.0,None,fixation,stimulus/viswhere_stim/blank_white.png,stimulus/viswhere_stim/blank_white.png,stimulus/audwhere_stim/blank_white.png,stimulus/audwhere_stim/blank_white.png,stimulus/viswhere_stim/blank_white.png,stimulus/viswhere_stim/blank_white.png,stimulus/viswhere_stim/blank_white.png,stimulus/viswhere_stim/blank_white.png,0.0,0.0,0.0,0.0,0,0.0,0,0.0,0,0.0,0,0.0,0,0.0,0.0,0,0.0,0,0.0,0,0.0,0,0.0,0,0.0,0,0.0,0,0.0,0,0.0,5,,,,,0,5,5,5,,,,,46.62920112500433,46.62920112500433,46.62920112500433,46.62920112500433,46.62920112500433,46.62920112500433,46.62920112500433,46.62920112500433,46.52246258334102,46.62920112500433,46.62920112500433,46.62920112500433,46.52246258334102,46.62920112500433,46.62920112500433,46.62920112500433,46.62920112500433,46.62920112500433,46.62920112500433,46.62920112500433,46.62920112500433,46.62920112500433,46.62920112500433,46.62920112500433,46.62920112500433,46.62920112500433,46.62920112500433,46.572462583341014,46.62920112500433,46.62920112500433,46.62920112500433,46.572462583341014,46.62920112500433,46.62920112500433,46.62920112500433,46.62920112500433,46.62920112500433,51.88459333399078,51.88459333399078,51.70700950000901,None,0,,,reldom2_s029,001,2025-03-03_13h22.44.736,practice_test1_AC,2022.2.5,None,
5,Second_Order,1.0,viswhere,stimulus/viswhere_stim/150-deg_dot-right_slateblue.png,stimulus/viswhere_stim/150-deg_dot-left_turquoise.png,stimulus/viswhere_stim/90-deg_dot-left_mediumslateblue.png,stimulus/viswhere_stim/90-deg_dot-right_peru.png,stimulus/viswhere_stim/match_blank.png,stimulus/viswhere_stim/match_box.png,stimulus/viswhere_stim/match_yes.png,stimulus/viswhere_stim/match_no.png,1.0,Match,Line,Line,1,5.25,0,5.25,0,5.25,0,5.25,0,0.75,0.75,1,0.5,1,2.125,1,0.5,1,2.125,0,0.0,0,0.0,0,0.0,0,0.0,0,,,,,0,6,6,6,,,,,51.88459333399078,57.12755320902215,52.35928762500407,53.35152270901017,53.9863459590124,54.98635966697475,51.88459333399078,51.88459333399078,51.879403666678506,51.88459333399078,51.88459333399078,51.88459333399078,51.879403666678506,51.88459333399078,57.12755320902215,57.93603087501833,60.01649366697529,63.87122737499885,57.93603087501833,57.93603087501833,63.192892874998506,58.38830220897216,59.40729183400981,60.01649366697529,61.022647792007774,57.93603087501833,57.93603087501833,57.91992195900529,57.93603087501833,57.93603087501833,57.93603087501833,57.91992195900529,57.93603087501833,57.93603087501833,63.192892874998506,57.93603087501833,63.192892874998506,63.13044454198098,63.91148366697598,57.93603087501833,2,0,1.548769540968351,,reldom2_s029,001,2025-03-03_13h22.44.736,practice_test1_AC,2022.2.5,None,
6,Second_Order,1.0,viswhere,stimulus/viswhere_stim/150-deg_dot-right_mediumslateblue.png,stimulus/viswhere_stim/30-deg_dot-right_salmon.png,stimulus/viswhere_stim/120-deg_dot-right_royalblue.png,stimulus/viswhere_stim/120-deg_dot-left_salmon.png,stimulus/viswhere_stim/match_blank.png,stimulus/viswhere_stim/match_box.png,stimulus/viswhere_stim/match_yes.png,stimulus/viswhere_stim/match_no.png,2.0,Match,Dot,Line,2,5.25,0,5.25,0,5.25,0,5.25,0,0.75,0.75,1,0.5,1,2.125,1,0.5,1,2.125,0,0.0,0,0.0,0,0.0,0,0.0,0,,,,,0,7,7,7,,,,,63.91148366697598,69.15210975002265,64.39466645900393,65.39194708399009,66.01858562498819,67.00842729199212,63.91148366697598,63.91148366697598,63.92122737499885,63.91148366697598,63.91148366697598,63.91148366697598,63.92122737499885,63.91148366697598,69.15210975002265,69.95085895899683,72.03048537502764,75.9024881250225,69.95085895899683,69.95085895899683,75.20249870902626,70.40617416700115,71.42321316699963,72.03048537502764,73.05380824999884,69.95085895899683,69.95085895899683,69.91977066733719,69.95085895899683,69.95085895899683,69.95085895899683,69.91977066733719,69.95085895899683,69.95085895899683,75.20249870902626,69.95085895899683,75.20249870902626,75.16268804197898,76.09124824998435,69.95085895899683,1,0,2.6257122079841793,,reldom2_s029,001,2025-03-03_13h22.44.736,practice_test1_AC,2022.2.5,None,
0,0.0,None,fixation,stimulus/viswhere_stim/blank_white.png,stimulus/viswhere_stim/blank_white.png,stimulus/audwhere_stim/blank_white.png,stimulus/audwhere_stim/blank_white.png,stimulus/viswhere_stim/blank_white.png,stimulus/viswhere_stim/blank_white.png,stimulus/viswhere_stim/blank_white.png,stimulus/viswhere_stim/blank_white.png,0.0,0.0,0.0,0.0,0,0.0,0,0.0,0,0.0,0,0.0,0,0.0,0.0,0,0.0,0,0.0,0,0.0,0,0.0,0,0.0,0,0.0,0,0.0,0,0.0,7,,,,,0,8,8,8,,,,,76.09124824998435,76.09124824998435,76.09124824998435,76.09124824998435,76.09124824998435,76.09124824998435,76.09124824998435,76.09124824998435,75.98582145835583,76.09124824998435,76.09124824998435,76.09124824998435,75.98582145835583,76.09124824998435,76.09124824998435,76.09124824998435,76.09124824998435,76.09124824998435,76.09124824998435,76.09124824998435,76.09124824998435,76.09124824998435,76.09124824998435,76.09124824998435,76.09124824998435,76.09124824998435,76.09124824998435,76.03582145835583,76.09124824998435,76.09124824998435,76.09124824998435,76.03582145835583,76.09124824998435,76.09124824998435,76.09124824998435,76.09124824998435,76.09124824998435,81.30166220897809,81.30166220897809,83.3391648340039,None,0,,,reldom2_s029,001,2025-03-03_13h22.44.736,practice_test1_AC,2022.2.5,None,
7,First_Order,2.0,audwhere,stimulus/audwhere_stim/dummy.wav,stimulus/audwhere_stim/dummy.wav,stimulus/audwhere_stim/left_toward_270h.wav,stimulus/audwhere_stim/right_toward_270h.wav,stimulus/audwhere_stim/blank_white.png,stimulus/audwhere_stim/direction_box.png,stimulus/audwhere_stim/direction_yes.png,stimulus/audwhere_stim/direction_no.png,None,Direction,None,Direction,1,0.0,0,5.25,0,5.25,0,5.25,0,0.0,0.75,0,0.0,0,0.0,0,0.0,0,0.0,0,0.0,0,0.0,1,0.5,1,2.125,0,,,,,0,9,9,9,,,,,83.3391648340039,83.3391648340039,83.3391648340039,83.3391648340039,83.3391648340039,83.3391648340039,83.3391648340039,83.3391648340039,83.25797866667078,83.3391648340039,83.3391648340039,83.3391648340039,83.25797866667078,83.3391648340039,83.3391648340039,83.3391648340039,85.43686137499753,89.29125750000821,83.3391648340039,83.3391648340039,88.63588549999986,83.3391648340039,83.3391648340039,83.3391648340039,83.3391648340039,83.78856637497665,84.83781858399743,83.75523329165686,84.78796654200414,85.43686137499753,86.48746729199775,85.40345708368501,,83.3391648340039,88.63588549999986,83.3391648340039,88.63588549999986,88.54190354200546,89.51127299998188,83.3391648340039,1,1,1.9537397079984657,,reldom2_s029,001,2025-03-03_13h22.44.736,practice_test1_AC,2022.2.5,None,
8,First_Order,2.0,audwhere,stimulus/audwhere_stim/dummy.wav,stimulus/audwhere_stim/dummy.wav,stimulus/audwhere_stim/right_away_280h.wav,stimulus/audwhere_stim/right_toward_290h.wav,stimulus/audwhere_stim/blank_white.png,stimulus/audwhere_stim/side_box.png,stimulus/audwhere_stim/side_yes.png,stimulus/audwhere_stim/side_no.png,None,Side,None,Side,1,0.0,0,5.25,0,5.25,0,5.25,0,0.0,0.75,0,0.0,0,0.0,0,0.0,0,0.0,0,0.0,0,0.0,1,0.5,1,2.125,0,,,,,0,10,10,10,,,,,89.51127299998188,89.51127299998188,89.51127299998188,89.51127299998188,89.51127299998188,89.51127299998188,89.51127299998188,89.51127299998188,89.42459083334154,89.51127299998188,89.51127299998188,89.51127299998188,89.42459083334154,89.51127299998188,89.51127299998188,89.51127299998188,91.60641895898152,95.45047649997286,89.51127299998188,89.51127299998188,94.79715891700471,89.51127299998188,89.51127299998188,89.51127299998188,89.51127299998188,89.96102412499022,91.01039995899191,89.92758233368319,90.96144250000361,91.60641895898152,92.65301975002512,91.57287725067387,,89.51127299998188,94.79715891700471,89.51127299998188,94.79715891700471,94.75374387501506,95.71171287499601,89.51127299998188,1,1,2.355107332987245,,reldom2_s029,001,2025-03-03_13h22.44.736,practice_test1_AC,2022.2.5,None,
9,First_Order,2.0,audwhere,stimulus/audwhere_stim/dummy.wav,stimulus/audwhere_stim/dummy.wav,stimulus/audwhere_stim/right_away_270h.wav,stimulus/audwhere_stim/right_toward_300h.wav,stimulus/audwhere_stim/blank_white.png,stimulus/audwhere_stim/side_box.png,stimulus/audwhere_stim/side_yes.png,stimulus/audwhere_stim/side_no.png,None,Side,None,Side,1,0.0,0,5.25,0,5.25,0,5.25,0,0.0,0.75,0,0.0,0,0.0,0,0.0,0,0.0,0,0.0,0,0.0,1,0.5,1,2.125,0,,,,,0,11,11,11,,,,,95.71171287499601,95.71171287499601,95.71171287499601,95.71171287499601,95.71171287499601,95.71171287499601,95.71171287499601,95.71171287499601,95.62692650032307,95.71171287499601,95.71171287499601,95.71171287499601,95.62692650032307,95.71171287499601,95.71171287499601,95.71171287499601,97.80433591699693,101.64968308398966,95.71171287499601,95.71171287499601,100.99724070902448,95.71171287499601,95.71171287499601,95.71171287499601,95.71171287499601,96.15950412501115,97.20337304199347,96.12652791664392,,97.80433591699693,98.85331220901571,97.77028012567122,98.80402329197386,95.71171287499601,100.99724070902448,95.71171287499601,100.99724070902448,100.9538255839725,101.91102754202439,95.71171287499601,1,1,1.5550752489943989,,reldom2_s029,001,2025-03-03_13h22.44.736,practice_test1_AC,2022.2.5,None,
10,First_Order,2.0,audwhere,stimulus/audwhere_stim/dummy.wav,stimulus/audwhere_stim/dummy.wav,stimulus/audwhere_stim/right_toward_300h.wav,stimulus/audwhere_stim/right_away_290h.wav,stimulus/audwhere_stim/blank_white.png,stimulus/audwhere_stim/direction_box.png,stimulus/audwhere_stim/direction_yes.png,stimulus/audwhere_stim/direction_no.png,None,Direction,None,Side,2,0.0,0,5.25,0,5.25,0,5.25,0,0.0,0.75,0,0.0,0,0.0,0,0.0,0,0.0,0,0.0,0,0.0,1,0.5,1,2.125,0,,,,,0,12,12,12,,,,,101.91102754202439,101.91102754202439,101.91102754202439,101.91102754202439,101.91102754202439,101.91102754202439,101.91102754202439,101.91102754202439,101.82683729232133,101.91102754202439,101.91102754202439,101.91102754202439,101.82683729232133,101.91102754202439,101.91102754202439,101.91102754202439,104.01147675001994,107.87465891701868,101.91102754202439,101.91102754202439,107.2148415420088,101.91102754202439,101.91102754202439,101.91102754202439,101.91102754202439,102.36142066697357,103.41336304199649,102.32821712567626,,104.01147675001994,105.06460966699524,103.97803325066731,,101.91102754202439,107.2148415420088,101.91102754202439,107.2148415420088,107.12116133398376,108.11312454199651,101.91102754202439,2,1,1.237581165973097,,reldom2_s029,001,2025-03-03_13h22.44.736,practice_test1_AC,2022.2.5,None,
0,0.0,None,fixation,stimulus/viswhere_stim/blank_white.png,stimulus/viswhere_stim/blank_white.png,stimulus/audwhere_stim/blank_white.png,stimulus/audwhere_stim/blank_white.png,stimulus/viswhere_stim/blank_white.png,stimulus/viswhere_stim/blank_white.png,stimulus/viswhere_stim/blank_white.png,stimulus/viswhere_stim/blank_white.png,0.0,0.0,0.0,0.0,0,0.0,0,0.0,0,0.0,0,0.0,0,0.0,0.0,0,0.0,0,0.0,0,0.0,0,0.0,0,0.0,0,0.0,0,0.0,0,0.0,5,,,,,0,13,13,13,,,,,108.11312454199651,108.11312454199651,108.11312454199651,108.11312454199651,108.11312454199651,108.11312454199651,108.11312454199651,108.11312454199651,108.007992250352,108.11312454199651,108.11312454199651,108.11312454199651,108.007992250352,108.11312454199651,108.11312454199651,108.11312454199651,108.11312454199651,108.11312454199651,108.11312454199651,108.11312454199651,108.11312454199651,108.11312454199651,108.11312454199651,108.11312454199651,108.11312454199651,108.11312454199651,108.11312454199651,108.05799225035202,108.11312454199651,108.11312454199651,108.11312454199651,108.05799225035202,108.11312454199651,108.11312454199651,108.11312454199651,108.11312454199651,108.11312454199651,113.42569166701287,113.42569166701287,113.16403508401709,None,0,,,reldom2_s029,001,2025-03-03_13h22.44.736,practice_test1_AC,2022.2.5,None,
11,Second_Order,2.0,audwhere,stimulus/audwhere_stim/right_toward_270h.wav,stimulus/audwhere_stim/left_toward_290h.wav,stimulus/audwhere_stim/left_away_270h.wav,stimulus/audwhere_stim/left_toward_290h.wav,stimulus/viswhere_stim/match_blank.png,stimulus/viswhere_stim/match_box.png,stimulus/viswhere_stim/match_yes.png,stimulus/viswhere_stim/match_no.png,2.0,Match,Direction,Side,2,5.25,0,5.25,0,5.25,0,5.25,0,0.75,0.75,0,0.0,0,0.0,0,0.0,0,0.0,1,0.5,1,2.125,1,0.5,1,2.125,0,,,,,0,14,14,14,,,,,113.42569166701287,118.66788512497442,113.42569166701287,113.42569166701287,113.42569166701287,113.42569166701287,113.87775795900961,114.86811137502082,113.88622437569235,,115.50292416702723,116.50299462501425,115.50788858364491,,118.66788512497442,119.53357374999905,121.56962795899017,125.46940254198853,119.53357374999905,119.53357374999905,124.81460216699634,119.53357374999905,119.53357374999905,119.53357374999905,119.53357374999905,119.97916024998995,121.01928487501573,119.94669029169405,,121.56962795899017,122.62087287497707,121.53605708363854,,119.53357374999905,124.81460216699634,119.53357374999905,124.81460216699634,124.7209439590224,125.59266374999424,119.53357374999905,2,1,1.9243069990188815,,reldom2_s029,001,2025-03-03_13h22.44.736,practice_test1_AC,2022.2.5,None,
12,Second_Order,2.0,audwhere,stimulus/audwhere_stim/left_toward_270h.wav,stimulus/audwhere_stim/right_toward_300h.wav,stimulus/audwhere_stim/right_toward_300h.wav,stimulus/audwhere_stim/right_away_270h.wav,stimulus/viswhere_stim/match_blank.png,stimulus/viswhere_stim/match_box.png,stimulus/viswhere_stim/match_yes.png,stimulus/viswhere_stim/match_no.png,2.0,Match,Direction,Side,2,5.25,0,5.25,0,5.25,0,5.25,0,0.75,0.75,0,0.0,0,0.0,0,0.0,0,0.0,1,0.5,1,2.125,1,0.5,1,2.125,0,,,,,0,15,15,15,,,,,125.59266374999424,130.83446749998257,125.59266374999424,125.59266374999424,125.59266374999424,125.59266374999424,126.0450812089839,127.04402566701174,126.05275700067092,,127.66829041700112,128.65932999999495,127.67692045867831,128.66927750001196,130.83446749998257,131.69351916701999,133.7740524589899,137.6284515419975,131.69351916701999,131.69351916701999,137.0150291249738,131.69351916701999,131.69351916701999,131.69351916701999,131.69351916701999,132.13579816697165,133.176451583975,132.10235991666949,,133.7740524589899,134.8206568339956,133.74080020864884,,131.69351916701999,137.0150291249738,131.69351916701999,137.0150291249738,136.87103020900395,137.86458362499252,131.69351916701999,2,1,1.486324582947418,,reldom2_s029,001,2025-03-03_13h22.44.736,practice_test1_AC,2022.2.5,None,
0,0.0,None,fixation,stimulus/viswhere_stim/blank_white.png,stimulus/viswhere_stim/blank_white.png,stimulus/audwhere_stim/blank_white.png,stimulus/audwhere_stim/blank_white.png,stimulus/viswhere_stim/blank_white.png,stimulus/viswhere_stim/blank_white.png,stimulus/viswhere_stim/blank_white.png,stimulus/viswhere_stim/blank_white.png,0.0,0.0,0.0,0.0,0,0.0,0,0.0,0,0.0,0,0.0,0,0.0,0.0,0,0.0,0,0.0,0,0.0,0,0.0,0,0.0,0,0.0,0,0.0,0,0.0,5,,,,,0,16,16,16,,,,,137.86458362499252,137.86458362499252,137.86458362499252,137.86458362499252,137.86458362499252,137.86458362499252,137.86458362499252,137.86458362499252,137.76178487533085,137.86458362499252,137.86458362499252,137.86458362499252,137.76178487533085,137.86458362499252,137.86458362499252,137.86458362499252,137.86458362499252,137.86458362499252,137.86458362499252,137.86458362499252,137.86458362499252,137.86458362499252,137.86458362499252,137.86458362499252,137.86458362499252,137.86458362499252,137.86458362499252,137.81178487533083,137.86458362499252,137.86458362499252,137.86458362499252,137.81178487533083,137.86458362499252,137.86458362499252,137.86458362499252,137.86458362499252,137.86458362499252,143.2339488340076,143.2339488340076,142.91965137497755,None,0,,,reldom2_s029,001,2025-03-03_13h22.44.736,practice_test1_AC,2022.2.5,None,
13,First_Order,3.0,viswhat,stimulus/viswhat_stim/blank_white.png,stimulus/viswhat_stim/blank_white.png,stimulus/viswhat_stim/land_animal-ostrich.png,stimulus/viswhat_stim/land_vehicle-trolley.png,stimulus/viswhat_stim/blank_white.png,stimulus/viswhat_stim/location_box.png,stimulus/viswhat_stim/location_yes.png,stimulus/viswhat_stim/location_no.png,None,Location,None,Location,1,0.0,0,5.25,0,5.25,0,5.25,0,0.0,0.75,0,0.0,0,0.0,1,0.5,1,2.125,0,0.0,0,0.0,0,0.0,0,0.0,0,,,,,0,17,17,17,,,,,143.2339488340076,143.2339488340076,143.2339488340076,143.2339488340076,143.2339488340076,143.2339488340076,143.2339488340076,143.2339488340076,143.19793804168393,143.2339488340076,143.2339488340076,143.2339488340076,143.19793804168393,143.2339488340076,143.2339488340076,143.2339488340076,145.34731774998363,149.1969495000085,143.2339488340076,143.2339488340076,148.4947152499808,143.70973862498067,144.73759229201823,145.34731774998363,146.384391708998,143.2339488340076,143.2339488340076,143.21460470835058,143.2339488340076,143.2339488340076,143.2339488340076,143.21460470835058,143.2339488340076,143.2339488340076,148.4947152499808,143.2339488340076,148.4947152499808,148.47315654199338,149.4381580419722,143.2339488340076,2,0,2.774733208003454,,reldom2_s029,001,2025-03-03_13h22.44.736,practice_test1_AC,2022.2.5,None,
14,First_Order,3.0,viswhat,stimulus/viswhat_stim/blank_white.png,stimulus/viswhat_stim/blank_white.png,stimulus/viswhat_stim/water_vehicle-cruiser.png,stimulus/viswhat_stim/water_animal-stingray.png,stimulus/viswhat_stim/blank_white.png,stimulus/viswhat_stim/location_box.png,stimulus/viswhat_stim/location_yes.png,stimulus/viswhat_stim/location_no.png,None,Location,None,Location,1,0.0,0,5.25,0,5.25,0,5.25,0,0.0,0.75,0,0.0,0,0.0,1,0.5,1,2.125,0,0.0,0,0.0,0,0.0,0,0.0,0,,,,,0,18,18,18,,,,,149.4381580419722,149.4381580419722,149.4381580419722,149.4381580419722,149.4381580419722,149.4381580419722,149.4381580419722,149.4381580419722,149.31867479197683,149.4381580419722,149.4381580419722,149.4381580419722,149.31867479197683,149.4381580419722,149.4381580419722,149.4381580419722,151.53771083400352,155.38702137500513,149.4381580419722,149.4381580419722,154.77431908401195,149.91133879200788,150.99634483398404,151.53771083400352,152.62064720899798,149.4381580419722,149.4381580419722,149.36867479197682,149.4381580419722,149.4381580419722,149.4381580419722,149.36867479197682,149.4381580419722,149.4381580419722,154.77431908401195,149.4381580419722,154.77431908401195,154.64579662500182,155.61260895902524,149.4381580419722,1,1,1.1746891659568064,,reldom2_s029,001,2025-03-03_13h22.44.736,practice_test1_AC,2022.2.5,None,
15,First_Order,3.0,viswhat,stimulus/viswhat_stim/blank_white.png,stimulus/viswhat_stim/blank_white.png,stimulus/viswhat_stim/water_vehicle-cargoboat.png,stimulus/viswhat_stim/water_animal-squid.png,stimulus/viswhat_stim/blank_white.png,stimulus/viswhat_stim/type_box.png,stimulus/viswhat_stim/type_yes.png,stimulus/viswhat_stim/type_no.png,None,Type,None,Location,2,0.0,0,5.25,0,5.25,0,5.25,0,0.0,0.75,0,0.0,0,0.0,1,0.5,1,2.125,0,0.0,0,0.0,0,0.0,0,0.0,0,,,,,0,19,19,19,,,,,155.61260895902524,155.61260895902524,155.61260895902524,155.61260895902524,155.61260895902524,155.61260895902524,155.61260895902524,155.61260895902524,155.55368804167182,155.61260895902524,155.61260895902524,155.61260895902524,155.55368804167182,155.61260895902524,155.61260895902524,155.61260895902524,157.70796291698935,161.58096416702028,155.61260895902524,155.61260895902524,160.9044344999711,156.09437241702108,157.12501483398955,157.70796291698935,158.74522804201115,155.61260895902524,155.61260895902524,155.58702137500515,155.61260895902524,155.61260895902524,155.61260895902524,155.58702137500515,155.61260895902524,155.61260895902524,160.9044344999711,155.61260895902524,160.9044344999711,160.84236208401853,161.74343708402012,155.61260895902524,2,1,3.4096204160014167,,reldom2_s029,001,2025-03-03_13h22.44.736,practice_test1_AC,2022.2.5,None,
16,First_Order,3.0,viswhat,stimulus/viswhat_stim/blank_white.png,stimulus/viswhat_stim/blank_white.png,stimulus/viswhat_stim/water_vehicle-ferryboat.png,stimulus/viswhat_stim/water_animal-seaturtle.png,stimulus/viswhat_stim/blank_white.png,stimulus/viswhat_stim/type_box.png,stimulus/viswhat_stim/type_yes.png,stimulus/viswhat_stim/type_no.png,None,Type,None,Location,2,0.0,0,5.25,0,5.25,0,5.25,0,0.0,0.75,0,0.0,0,0.0,1,0.5,1,2.125,0,0.0,0,0.0,0,0.0,0,0.0,0,,,,,0,20,20,20,,,,,161.74343708402012,161.74343708402012,161.74343708402012,161.74343708402012,161.74343708402012,161.74343708402012,161.74343708402012,161.74343708402012,161.6809641670203,161.74343708402012,161.74343708402012,161.74343708402012,161.6809641670203,161.74343708402012,161.74343708402012,161.74343708402012,163.84265091700945,167.69436933397083,161.74343708402012,161.74343708402012,167.0392428340274,162.22900662501343,163.28215933399042,163.84265091700945,164.86612220900133,161.74343708402012,161.74343708402012,161.71429750035364,161.74343708402012,161.74343708402012,161.74343708402012,161.71429750035364,161.74343708402012,161.74343708402012,167.0392428340274,161.74343708402012,167.0392428340274,166.97041933401488,167.941635959025,161.74343708402012,2,1,2.169282624963671,,reldom2_s029,001,2025-03-03_13h22.44.736,practice_test1_AC,2022.2.5,None,
0,0.0,None,fixation,stimulus/viswhat_stim/blank_white.png,stimulus/viswhat_stim/blank_white.png,stimulus/audwhat_stim/blank_white.png,stimulus/audwhat_stim/blank_white.png,stimulus/viswhat_stim/blank_white.png,stimulus/viswhat_stim/blank_white.png,stimulus/viswhere_stim/blank_white.png,stimulus/viswhere_stim/blank_white.png,0.0,0.0,0.0,0.0,0,0.0,0,0.0,0,0.0,0,0.0,0,0.0,0.0,0,0.0,0,0.0,0,0.0,0,0.0,0,0.0,0,0.0,0,0.0,0,0.0,5,,,,,0,21,21,21,,,,,167.941635959025,167.941635959025,167.941635959025,167.941635959025,167.941635959025,167.941635959025,167.941635959025,167.941635959025,167.84201112566905,167.941635959025,167.941635959025,167.941635959025,167.84201112566905,167.941635959025,167.941635959025,167.941635959025,167.941635959025,167.941635959025,167.941635959025,167.941635959025,167.941635959025,167.941635959025,167.941635959025,167.941635959025,167.941635959025,167.941635959025,167.941635959025,167.89201112566906,167.941635959025,167.941635959025,167.941635959025,167.89201112566906,167.941635959025,167.941635959025,167.941635959025,167.941635959025,167.941635959025,173.24567066697637,173.24567066697637,172.99828112497926,None,0,,,reldom2_s029,001,2025-03-03_13h22.44.736,practice_test1_AC,2022.2.5,None,
17,Second_Order,3.0,viswhat,stimulus/viswhat_stim/land_vehicle-motorcycle.png,stimulus/viswhat_stim/land_animal-dog.png,stimulus/viswhat_stim/water_animal-seahorse.png,stimulus/viswhat_stim/water_vehicle-cargoboat.png,stimulus/viswhere_stim/match_blank.png,stimulus/viswhere_stim/match_box.png,stimulus/viswhere_stim/match_yes.png,stimulus/viswhere_stim/match_no.png,1.0,Match,Location,Location,1,5.25,0,5.25,0,5.25,0,5.25,0,0.75,0.75,1,0.5,1,2.125,1,0.5,1,2.125,0,0.0,0,0.0,0,0.0,0,0.0,0,,,,,0,22,22,22,,,,,173.24567066697637,178.49247291701613,173.7100975419744,174.70918766700197,175.3353981670225,176.3247580419993,173.24567066697637,173.24567066697637,173.2434857083446,173.24567066697637,173.24567066697637,173.24567066697637,173.2434857083446,173.24567066697637,178.49247291701613,179.30105337500572,181.37323516700417,185.24182483402546,179.30105337500572,179.30105337500572,184.5764330420061,179.75897804199485,180.79180041700602,181.37323516700417,182.38463054201566,179.30105337500572,179.30105337500572,179.2752932499978,179.30105337500572,179.30105337500572,179.30105337500572,179.2752932499978,179.30105337500572,179.30105337500572,184.5764330420061,179.30105337500572,184.5764330420061,184.5027579999878,185.30062116699992,179.30105337500572,2,0,2.9831542499596253,,reldom2_s029,001,2025-03-03_13h22.44.736,practice_test1_AC,2022.2.5,None,
18,Second_Order,3.0,viswhat,stimulus/viswhat_stim/water_animal-squid.png,stimulus/viswhat_stim/land_animal-snake.png,stimulus/viswhat_stim/land_animal-fox.png,stimulus/viswhat_stim/land_vehicle-oldcar.png,stimulus/viswhere_stim/match_blank.png,stimulus/viswhere_stim/match_box.png,stimulus/viswhere_stim/match_yes.png,stimulus/viswhere_stim/match_no.png,2.0,Match,Type,Location,2,5.25,0,5.25,0,5.25,0,5.25,0,0.75,0.75,1,0.5,1,2.125,1,0.5,1,2.125,0,0.0,0,0.0,0,0.0,0,0.0,0,,,,,0,23,23,23,,,,,185.30062116699992,190.54295650002314,185.76879524998367,186.76033666700823,187.39392795902677,188.38568945898442,185.30062116699992,185.30062116699992,185.30849150069216,185.30062116699992,185.30062116699992,185.30062116699992,185.30849150069216,185.30062116699992,190.54295650002314,191.39188554201974,193.45420920901233,197.3012230839813,191.39188554201974,191.39188554201974,196.6855715420097,191.83764462498948,192.86948454199592,193.45420920901233,194.48842204199173,191.39188554201974,191.39188554201974,191.3592246673264,191.39188554201974,191.39188554201974,191.39188554201974,191.3592246673264,191.39188554201974,191.39188554201974,196.6855715420097,191.39188554201974,196.6855715420097,196.55621208401863,197.5375318750157,191.39188554201974,1,0,2.571288665989414,,reldom2_s029,001,2025-03-03_13h22.44.736,practice_test1_AC,2022.2.5,None,
0,0.0,None,fixation,stimulus/viswhat_stim/blank_white.png,stimulus/viswhat_stim/blank_white.png,stimulus/audwhat_stim/blank_white.png,stimulus/audwhat_stim/blank_white.png,stimulus/viswhat_stim/blank_white.png,stimulus/viswhat_stim/blank_white.png,stimulus/viswhere_stim/blank_white.png,stimulus/viswhere_stim/blank_white.png,0.0,0.0,0.0,0.0,0,0.0,0,0.0,0,0.0,0,0.0,0,0.0,0.0,0,0.0,0,0.0,0,0.0,0,0.0,0,0.0,0,0.0,0,0.0,0,0.0,6,,,,,0,24,24,24,,,,,197.5375318750157,197.5375318750157,197.5375318750157,197.5375318750157,197.5375318750157,197.5375318750157,197.5375318750157,197.5375318750157,197.43455641731467,197.5375318750157,197.5375318750157,197.5375318750157,197.43455641731467,197.5375318750157,197.5375318750157,197.5375318750157,197.5375318750157,197.5375318750157,197.5375318750157,197.5375318750157,197.5375318750157,197.5375318750157,197.5375318750157,197.5375318750157,197.5375318750157,197.5375318750157,197.5375318750157,197.48455641731465,197.5375318750157,197.5375318750157,197.5375318750157,197.48455641731465,197.5375318750157,197.5375318750157,197.5375318750157,197.5375318750157,197.5375318750157,202.76943945902167,202.76943945902167,203.80347104201792,None,0,,,reldom2_s029,001,2025-03-03_13h22.44.736,practice_test1_AC,2022.2.5,None,
19,First_Order,4.0,audwhat,stimulus/audwhat_stim/dummy.wav,stimulus/audwhat_stim/dummy.wav,stimulus/audwhat_stim/percussion xylophone_high-pitch_D_loud.wav,stimulus/audwhat_stim/string viola_high-pitch_D_loud.wav,stimulus/audwhat_stim/blank_white.png,stimulus/audwhat_stim/pitch_box.png,stimulus/audwhat_stim/pitch_yes.png,stimulus/audwhat_stim/pitch_no.png,None,Pitch,None,Pitch,1,0.0,0,5.25,0,5.25,0,5.25,0,0.0,0.75,0,0.0,0,0.0,0,0.0,0,0.0,0,0.0,0,0.0,1,0.5,1,2.125,0,,,,,0,25,25,25,,,,,203.80347104201792,203.80347104201792,203.80347104201792,203.80347104201792,203.80347104201792,203.80347104201792,203.80347104201792,203.80347104201792,203.72328479166998,203.80347104201792,203.80347104201792,203.80347104201792,203.72328479166998,203.80347104201792,203.80347104201792,203.80347104201792,205.9038090420072,209.75661716697505,203.80347104201792,203.80347104201792,209.09806549997302,203.80347104201792,203.80347104201792,203.80347104201792,203.80347104201792,204.25363649998326,205.30338825000217,204.22008250066236,205.25353979197098,205.9038090420072,206.95398970897077,205.8702069586764,,203.80347104201792,209.09806549997302,203.80347104201792,209.09806549997302,209.0041746670031,209.97570095898118,203.80347104201792,1,1,1.081396623980254,,reldom2_s029,001,2025-03-03_13h22.44.736,practice_test1_AC,2022.2.5,None,
20,First_Order,4.0,audwhat,stimulus/audwhat_stim/dummy.wav,stimulus/audwhat_stim/dummy.wav,stimulus/audwhat_stim/string cello_high-pitch_Ftri_loud.wav,stimulus/audwhat_stim/string viola_low-pitch_F_loud.wav,stimulus/audwhat_stim/blank_white.png,stimulus/audwhat_stim/pitch_box.png,stimulus/audwhat_stim/pitch_yes.png,stimulus/audwhat_stim/pitch_no.png,None,Pitch,None,Category,2,0.0,0,5.25,0,5.25,0,5.25,0,0.0,0.75,0,0.0,0,0.0,0,0.0,0,0.0,0,0.0,0,0.0,1,0.5,1,2.125,0,,,,,0,26,26,26,,,,,209.97570095898118,209.97570095898118,209.97570095898118,209.97570095898118,209.97570095898118,209.97570095898118,209.97570095898118,209.97570095898118,209.8899505003084,209.97570095898118,209.97570095898118,209.97570095898118,209.8899505003084,209.97570095898118,209.97570095898118,209.97570095898118,212.08693450002465,215.94242354197195,209.97570095898118,209.97570095898118,215.28196666698204,209.97570095898118,209.97570095898118,209.97570095898118,209.97570095898118,210.42982695897808,211.48208816698752,210.3959872086455,,212.08693450002465,213.13747458398575,212.05347054166876,,209.97570095898118,215.28196666698204,209.97570095898118,215.28196666698204,215.18744837498525,216.15992979198927,209.97570095898118,2,1,1.7508115820237435,,reldom2_s029,001,2025-03-03_13h22.44.736,practice_test1_AC,2022.2.5,None,
21,First_Order,4.0,audwhat,stimulus/audwhat_stim/dummy.wav,stimulus/audwhat_stim/dummy.wav,stimulus/audwhat_stim/string viola_high-pitch_D_loud.wav,stimulus/audwhat_stim/percussion xylophone_high-pitch_D_loud.wav,stimulus/audwhat_stim/blank_white.png,stimulus/audwhat_stim/pitch_box.png,stimulus/audwhat_stim/pitch_yes.png,stimulus/audwhat_stim/pitch_no.png,None,Pitch,None,Pitch,1,0.0,0,5.25,0,5.25,0,5.25,0,0.0,0.75,0,0.0,0,0.0,0,0.0,0,0.0,0,0.0,0,0.0,1,0.5,1,2.125,0,,,,,0,27,27,27,,,,,216.15992979198927,216.15992979198927,216.15992979198927,216.15992979198927,216.15992979198927,216.15992979198927,216.15992979198927,216.15992979198927,216.0757568753053,216.15992979198927,216.15992979198927,216.15992979198927,216.0757568753053,216.15992979198927,216.15992979198927,216.15992979198927,218.25968474999536,222.12312850001035,216.15992979198927,216.15992979198927,221.46464391698828,216.15992979198927,216.15992979198927,216.15992979198927,216.15992979198927,216.61099541699514,217.65991191699868,216.57752779167302,,218.25968474999536,219.3116368339979,218.22634366667288,219.26173870899947,216.15992979198927,221.46464391698828,216.15992979198927,221.46464391698828,221.37040383397834,222.34344000002602,216.15992979198927,1,1,1.2233328739530407,,reldom2_s029,001,2025-03-03_13h22.44.736,practice_test1_AC,2022.2.5,None,
22,First_Order,4.0,audwhat,stimulus/audwhat_stim/dummy.wav,stimulus/audwhat_stim/dummy.wav,stimulus/audwhat_stim/string cello_low-pitch_F_loud.wav,stimulus/audwhat_stim/string viola_high-pitch_Ftri_loud.wav,stimulus/audwhat_stim/blank_white.png,stimulus/audwhat_stim/category_box.png,stimulus/audwhat_stim/category_yes.png,stimulus/audwhat_stim/category_no.png,None,Category,None,Category,1,0.0,0,5.25,0,5.25,0,5.25,0,0.0,0.75,0,0.0,0,0.0,0,0.0,0,0.0,0,0.0,0,0.0,1,0.5,1,2.125,0,,,,,0,28,28,28,,,,,222.34344000002602,222.34344000002602,222.34344000002602,222.34344000002602,222.34344000002602,222.34344000002602,222.34344000002602,222.34344000002602,222.2564618333437,222.34344000002602,222.34344000002602,222.34344000002602,222.2564618333437,222.34344000002602,222.34344000002602,222.34344000002602,224.4538889999967,228.32040787499864,222.34344000002602,222.34344000002602,227.66098354198039,222.34344000002602,222.34344000002602,222.34344000002602,222.34344000002602,222.79641629202524,223.85387191700283,222.76250270865083,,224.4538889999967,225.5044861669885,224.42028433364274,,222.34344000002602,227.66098354198039,222.34344000002602,227.66098354198039,227.566572583979,228.55742162500974,222.34344000002602,1,1,2.216949124005623,,reldom2_s029,001,2025-03-03_13h22.44.736,practice_test1_AC,2022.2.5,None,
0,0.0,None,fixation,stimulus/viswhat_stim/blank_white.png,stimulus/viswhat_stim/blank_white.png,stimulus/audwhat_stim/blank_white.png,stimulus/audwhat_stim/blank_white.png,stimulus/viswhat_stim/blank_white.png,stimulus/viswhat_stim/blank_white.png,stimulus/viswhere_stim/blank_white.png,stimulus/viswhere_stim/blank_white.png,0.0,0.0,0.0,0.0,0,0.0,0,0.0,0,0.0,0,0.0,0,0.0,0.0,0,0.0,0,0.0,0,0.0,0,0.0,0,0.0,0,0.0,0,0.0,0,0.0,5,,,,,0,29,29,29,,,,,228.55742162500974,228.55742162500974,228.55742162500974,228.55742162500974,228.55742162500974,228.55742162500974,228.55742162500974,228.55742162500974,228.453741208332,228.55742162500974,228.55742162500974,228.55742162500974,228.453741208332,228.55742162500974,228.55742162500974,228.55742162500974,228.55742162500974,228.55742162500974,228.55742162500974,228.55742162500974,228.55742162500974,228.55742162500974,228.55742162500974,228.55742162500974,228.55742162500974,228.55742162500974,228.55742162500974,228.50374120833197,228.55742162500974,228.55742162500974,228.55742162500974,228.50374120833197,228.55742162500974,228.55742162500974,228.55742162500974,228.55742162500974,228.55742162500974,233.8832449169713,233.8832449169713,233.62025779200485,None,0,,,reldom2_s029,001,2025-03-03_13h22.44.736,practice_test1_AC,2022.2.5,None,
23,Second_Order,4.0,audwhat,stimulus/audwhat_stim/percussion mallet_high-pitch_D_loud.wav,stimulus/audwhat_stim/string cello_high-pitch_D_loud.wav,stimulus/audwhat_stim/percussion mallet_low-pitch_F_loud.wav,stimulus/audwhat_stim/percussion xylophone_high-pitch_Ftri_loud.wav,stimulus/viswhere_stim/match_blank.png,stimulus/viswhere_stim/match_box.png,stimulus/viswhere_stim/match_yes.png,stimulus/viswhere_stim/match_no.png,2.0,Match,Pitch,Category,2,5.25,0,5.25,0,5.25,0,5.25,0,0.75,0.75,0,0.0,0,0.0,0,0.0,0,0.0,1,0.5,1,2.125,1,0.5,1,2.125,0,,,,,0,30,30,30,,,,,233.8832449169713,239.12579870899208,233.8832449169713,233.8832449169713,233.8832449169713,233.8832449169713,234.33487924997462,235.32516641699476,234.34214045864454,,235.9598320000223,236.95082808402367,235.96756345866405,,239.12579870899208,239.98382033401867,242.03019083401887,245.89590433397098,239.98382033401867,239.98382033401867,245.28125212498708,239.98382033401867,239.98382033401867,239.98382033401867,239.98382033401867,240.43124958401313,241.47983258398017,240.3976830416398,,242.03019083401887,243.08257137500914,241.99691229168482,243.0324173750123,239.98382033401867,245.28125212498708,239.98382033401867,245.28125212498708,245.18732758401893,246.0634504170157,239.98382033401867,2,1,1.2044186249841005,,reldom2_s029,001,2025-03-03_13h22.44.736,practice_test1_AC,2022.2.5,None,
24,Second_Order,4.0,audwhat,stimulus/audwhat_stim/percussion mallet_low-pitch_Ftri_loud.wav,stimulus/audwhat_stim/percussion xylophone_high-pitch_F_loud.wav,stimulus/audwhat_stim/string cello_low-pitch_F_loud.wav,stimulus/audwhat_stim/string cello_high-pitch_Ftri_loud.wav,stimulus/viswhere_stim/match_blank.png,stimulus/viswhere_stim/match_box.png,stimulus/viswhere_stim/match_yes.png,stimulus/viswhere_stim/match_no.png,1.0,Match,Category,Category,1,5.25,0,5.25,0,5.25,0,5.25,0,0.75,0.75,0,0.0,0,0.0,0,0.0,0,0.0,1,0.5,1,2.125,1,0.5,1,2.125,0,,,,,0,31,31,31,,,,,246.0634504170157,251.31008849997306,246.0634504170157,246.0634504170157,246.0634504170157,246.0634504170157,246.50998358399374,247.5094758750056,246.5184749586663,247.5094758750056,248.1443326669978,249.14204349997453,248.15262908366665,249.15221400000155,251.31008849997306,252.1647577090189,254.22482858400326,258.08624904201133,252.1647577090189,252.1647577090189,257.4728688750183,252.1647577090189,252.1647577090189,252.1647577090189,252.1647577090189,252.60950304201106,253.67566554201767,252.57648529165115,,254.22482858400326,255.27851712499978,254.19178662565926,,252.1647577090189,257.4728688750183,252.1647577090189,257.4728688750183,257.3285897920141,258.3259288750123,252.1647577090189,2,0,1.4993631659308448,,reldom2_s029,001,2025-03-03_13h22.44.736,practice_test1_AC,2022.2.5,None,
0,0.0,None,fixation,stimulus/viswhat_stim/blank_white.png,stimulus/viswhat_stim/blank_white.png,stimulus/audwhat_stim/blank_white.png,stimulus/audwhat_stim/blank_white.png,stimulus/viswhat_stim/blank_white.png,stimulus/viswhat_stim/blank_white.png,stimulus/viswhere_stim/blank_white.png,stimulus/viswhere_stim/blank_white.png,0.0,0.0,0.0,0.0,0,0.0,0,0.0,0,0.0,0,0.0,0,0.0,0.0,0,0.0,0,0.0,0,0.0,0,0.0,0,0.0,0,0.0,0,0.0,0,0.0,5,,,,,0,32,32,32,,,,,258.3259288750123,258.3259288750123,258.3259288750123,258.3259288750123,258.3259288750123,258.3259288750123,258.3259288750123,258.3259288750123,258.21958237534466,258.3259288750123,258.3259288750123,258.3259288750123,258.21958237534466,258.3259288750123,258.3259288750123,258.3259288750123,258.3259288750123,258.3259288750123,258.3259288750123,258.3259288750123,258.3259288750123,258.3259288750123,258.3259288750123,258.3259288750123,258.3259288750123,258.3259288750123,258.3259288750123,258.26958237534467,258.3259288750123,258.3259288750123,258.3259288750123,258.26958237534467,258.3259288750123,258.3259288750123,258.3259288750123,258.3259288750123,258.3259288750123,263.646428417007,263.646428417007,263.3930034589721,None,0,,,reldom2_s029,001,2025-03-03_13h22.44.736,practice_test1_AC,2022.2.5,None,
,,,,,,,,,,,,,,,,,,,,,,,,,,,,,,,,,,,,,,,,,,,,,,,,,,,,,,,,,,,,,,,,,,,,,,,,,,,,,,,,,,,,,,,,,,,,,,,,,,,263.646428417007,,,,,,,
