Trial,Order,Block,Type,Stimuli_File1,Stimuli_File2,Stimuli_File3,Stimuli_File4,Cue_File1,Cue_File2,Response_File_Yes,Response_File_No,Match,Cue_Dimension,Pair1_Dimension,Pair2_Dimension,Key,Cue1_Duration,Cue1_Onset,Cue2_Duration,Cue2_Onset,ResponseYes_Duration,ResponseYes_Onset,ResponseNo_Duration,ResponseNo_Onset,ITI_Within,ITI_Between,Image1_Duration,Image1_Onset,Image2_Duration,Image2_Onset,Image3_Duration,Image3_Onset,Image4_Duration,Image4_Onset,Sound1_Duration,Sound1_Onset,Sound2_Duration,Sound2_Onset,Sound3_Duration,Sound3_Onset,Sound4_Duration,Sound4_Onset,Fixation_Duration,trials_2.thisRepN,trials_2.thisTrialN,trials_2.thisN,trials_2.thisIndex,trials.thisRepN,trials.thisTrialN,trials.thisN,trials.thisIndex,text_start.started,key_resp_start.started,key_resp_start.keys,key_resp_start.rt,text2.started,key_resp_2.started,key_resp_2.keys,key_resp_2.rt,cue_file1.started,cue_file1.stopped,image_1.started,image_1.stopped,image_2.started,image_2.stopped,sound_icon1.started,sound_icon1.stopped,sound_1.started,sound_1.stopped,sound_icon2.started,sound_icon2.stopped,sound_2.started,sound_2.stopped,image_blank_1.started,image_blank_1.stopped,key_press.started,key_press.stopped,fixation_text.started,cue_file2.started,cue_file2.stopped,image_3.started,image_3.stopped,image_4.started,image_4.stopped,sound_icon3.started,sound_icon3.stopped,sound_3.started,sound_3.stopped,sound_icon4.started,sound_icon4.stopped,sound_4.started,sound_4.stopped,response_yes.started,response_yes.stopped,response_no.started,response_no.stopped,iti_blank.started,iti_blank.stopped,fixation_text.stopped,key_press.keys,key_press.corr,key_press.rt,participant,session,date,expName,psychopyVersion,frameRate,
,,,,,,,,,,,,,,,,,,,,,,,,,,,,,,,,,,,,,,,,,,,,,,,,,,,,12.692466415988747,12.692466415988747,2,2.3173799999640323,,,,,,,,,,,,,,,,,,,,,,,,,,,,,,,,,,,,,,,,,,,,,,,,reldom2_s029,001,2025-03-03_13h48.37.818,Where-B-Scan_AC,2022.2.5,None,
,,,,,,,,,,,,,,,,,,,,,,,,,,,,,,,,,,,,,,,,,,,,0,0,0,0,,,,,,,,,15.051921290985774,15.051921290985774,5,17.938121041981503,,,,,,,,,,,,,,,,,,,,,,,,,,,,,,,,,,,,,,,,,,,,reldom2_s029,001,2025-03-03_13h48.37.818,Where-B-Scan_AC,2022.2.5,None,
,,,,,,,,,,,,,,,,,,,,,,,,,,,,,,,,,,,,,,,,,,,,1,0,1,0,,,,,,,,,33.004459624993615,33.004459624993615,5,1.9841940000187606,,,,,,,,,,,,,,,,,,,,,,,,,,,,,,,,,,,,,,,,,,,,reldom2_s029,001,2025-03-03_13h48.37.818,Where-B-Scan_AC,2022.2.5,None,
,,,,,,,,,,,,,,,,,,,,,,,,,,,,,,,,,,,,,,,,,,,,2,0,2,0,,,,,,,,,35.00902179098921,35.00902179098921,5,1.9807964169885963,,,,,,,,,,,,,,,,,,,,,,,,,,,,,,,,,,,,,,,,,,,,reldom2_s029,001,2025-03-03_13h48.37.818,Where-B-Scan_AC,2022.2.5,None,
,,,,,,,,,,,,,,,,,,,,,,,,,,,,,,,,,,,,,,,,,,,,3,0,3,0,,,,,,,,,37.005687707976904,37.005687707976904,5,1.9835362510057166,,,,,,,,,,,,,,,,,,,,,,,,,,,,,,,,,,,,,,,,,,,,reldom2_s029,001,2025-03-03_13h48.37.818,Where-B-Scan_AC,2022.2.5,None,
0,0.0,None,fixation,stimulus/audwhere_stim/blank_white.png,stimulus/audwhere_stim/blank_white.png,stimulus/viswhere_stim/blank_white.png,stimulus/viswhere_stim/blank_white.png,stimulus/audwhere_stim/blank_white.png,stimulus/audwhere_stim/blank_white.png,stimulus/audwhere_stim/blank_white.png,stimulus/audwhere_stim/blank_white.png,0.0,0.0,0.0,0.0,0,0.0,0,0.0,0,0.0,0,0.0,0,0.0,0.0,0,0.0,0,0.0,0,0.0,0,0.0,0,0.0,0,0.0,0,0.0,0,0.0,16,,,,,0,0,0,0,,,,,,,,,39.20825549995061,39.20825549995061,39.20825549995061,39.20825549995061,39.20825549995061,39.20825549995061,39.20825549995061,39.20825549995061,39.11808745763653,39.20825549995061,39.20825549995061,39.20825549995061,39.11808745763653,39.20825549995061,39.20825549995061,39.20825549995061,39.20825549995061,39.20825549995061,39.20825549995061,39.20825549995061,39.20825549995061,39.20825549995061,39.20825549995061,39.20825549995061,39.20825549995061,39.20825549995061,39.20825549995061,39.168087457636524,39.20825549995061,39.20825549995061,39.20825549995061,39.168087457636524,39.20825549995061,39.20825549995061,39.20825549995061,39.20825549995061,39.20825549995061,44.43010941596003,44.43010941596003,55.43610766599886,None,0,,reldom2_s029,001,2025-03-03_13h48.37.818,Where-B-Scan_AC,2022.2.5,None,
1,First_Order,1.0,audwhere,stimulus/audwhere_stim/dummy.wav,stimulus/audwhere_stim/dummy.wav,stimulus/audwhere_stim/right_away_290h.wav,stimulus/audwhere_stim/right_toward_300h.wav,stimulus/audwhere_stim/blank_white.png,stimulus/audwhere_stim/direction_box.png,stimulus/audwhere_stim/direction_yes.png,stimulus/audwhere_stim/direction_no.png,None,Direction,None,Side,2,0.0,0,5.125,0,5.125,0,5.125,0,0.0,0.625,0,0.0,0,0.0,0,0.0,0,0.0,0,0.0,0,0.0,1,0.5,1,2.125,0,,,,,0,1,1,1,,,,,,,,,55.43610766599886,55.43610766599886,55.43610766599886,55.43610766599886,55.43610766599886,55.43610766599886,55.43610766599886,55.43610766599886,55.36833354094997,55.43610766599886,55.43610766599886,55.43610766599886,55.36833354094997,55.43610766599886,55.43610766599886,55.43610766599886,57.50799704098608,,55.43610766599886,55.43610766599886,60.59277937497245,55.43610766599886,55.43610766599886,55.43610766599886,55.43610766599886,55.92245854099747,56.97859987500124,55.894712124664025,,57.50799704098608,58.56726554100169,57.48042887461294,,55.43610766599886,60.59277937497245,55.43610766599886,60.59277937497245,60.631868582975585,61.292925582965836,55.43610766599886,2,1,1.4508658759878017,reldom2_s029,001,2025-03-03_13h48.37.818,Where-B-Scan_AC,2022.2.5,None,
2,First_Order,1.0,audwhere,stimulus/audwhere_stim/dummy.wav,stimulus/audwhere_stim/dummy.wav,stimulus/audwhere_stim/left_toward_290h.wav,stimulus/audwhere_stim/right_toward_280h.wav,stimulus/audwhere_stim/blank_white.png,stimulus/audwhere_stim/side_box.png,stimulus/audwhere_stim/side_yes.png,stimulus/audwhere_stim/side_no.png,None,Side,None,Direction,2,0.0,0,5.125,0,5.125,0,5.125,0,0.0,0.625,0,0.0,0,0.0,0,0.0,0,0.0,0,0.0,0,0.0,1,0.5,1,2.125,0,,,,,0,2,2,2,,,,,,,,,61.53587412496563,61.53587412496563,61.53587412496563,61.53587412496563,61.53587412496563,61.53587412496563,61.53587412496563,61.53587412496563,61.46497241631926,61.53587412496563,61.53587412496563,61.53587412496563,61.46497241631926,61.53587412496563,61.53587412496563,61.53587412496563,63.64631849998841,,61.53587412496563,61.53587412496563,66.68927354097832,61.53587412496563,61.53587412496563,61.53587412496563,61.53587412496563,62.01895270799287,63.074934332980774,61.99158599961471,,63.64631849998841,64.70898179098731,63.61900554167029,,61.53587412496563,66.68927354097832,61.53587412496563,66.68927354097832,66.72816133295419,67.38683358294657,61.53587412496563,2,1,1.4668137499829754,reldom2_s029,001,2025-03-03_13h48.37.818,Where-B-Scan_AC,2022.2.5,None,
3,First_Order,1.0,audwhere,stimulus/audwhere_stim/dummy.wav,stimulus/audwhere_stim/dummy.wav,stimulus/audwhere_stim/right_toward_280h.wav,stimulus/audwhere_stim/right_away_300h.wav,stimulus/audwhere_stim/blank_white.png,stimulus/audwhere_stim/direction_box.png,stimulus/audwhere_stim/direction_yes.png,stimulus/audwhere_stim/direction_no.png,None,Direction,None,Side,2,0.0,0,5.125,0,5.125,0,5.125,0,0.0,0.625,0,0.0,0,0.0,0,0.0,0,0.0,0,0.0,0,0.0,1,0.5,1,2.125,0,,,,,0,3,3,3,,,,,,,,,67.62787904095603,67.62787904095603,67.62787904095603,67.62787904095603,67.62787904095603,67.62787904095603,67.62787904095603,67.62787904095603,67.55894416631975,67.62787904095603,67.62787904095603,67.62787904095603,67.55894416631975,67.62787904095603,67.62787904095603,67.62787904095603,69.7142882499611,,67.62787904095603,67.62787904095603,72.77798162499676,67.62787904095603,67.62787904095603,67.62787904095603,67.62787904095603,68.11588270799257,69.18280020798557,68.08799916663362,,69.7142882499611,70.78087704099016,69.68627966661394,,67.62787904095603,72.77798162499676,67.62787904095603,72.77798162499676,72.85593416600022,73.52072170795873,67.62787904095603,2,1,1.341616875026375,reldom2_s029,001,2025-03-03_13h48.37.818,Where-B-Scan_AC,2022.2.5,None,
4,First_Order,1.0,audwhere,stimulus/audwhere_stim/dummy.wav,stimulus/audwhere_stim/dummy.wav,stimulus/audwhere_stim/left_toward_270h.wav,stimulus/audwhere_stim/right_toward_300h.wav,stimulus/audwhere_stim/blank_white.png,stimulus/audwhere_stim/direction_box.png,stimulus/audwhere_stim/direction_yes.png,stimulus/audwhere_stim/direction_no.png,None,Direction,None,Direction,1,0.0,0,5.125,0,5.125,0,5.125,0,0.0,0.625,0,0.0,0,0.0,0,0.0,0,0.0,0,0.0,0,0.0,1,0.5,1,2.125,0,,,,,0,4,4,4,,,,,,,,,73.72189670795342,73.72189670795342,73.72189670795342,73.72189670795342,73.72189670795342,73.72189670795342,73.72189670795342,73.72189670795342,73.65405504129205,73.72189670795342,73.72189670795342,73.72189670795342,73.65405504129205,73.72189670795342,73.72189670795342,73.72189670795342,75.81164916598937,79.85002945800079,73.72189670795342,73.72189670795342,78.88470724999206,73.72189670795342,73.72189670795342,73.72189670795342,73.72189670795342,74.21069149998948,75.27805399999488,74.18285795761427,,75.81164916598937,76.88129504094832,75.78373754164592,,73.72189670795342,78.88470724999206,73.72189670795342,78.88470724999206,78.92408158298349,79.58987616596278,73.72189670795342,1,1,1.3965334169915877,reldom2_s029,001,2025-03-03_13h48.37.818,Where-B-Scan_AC,2022.2.5,None,
0,0.0,None,fixation,stimulus/audwhere_stim/blank_white.png,stimulus/audwhere_stim/blank_white.png,stimulus/viswhere_stim/blank_white.png,stimulus/viswhere_stim/blank_white.png,stimulus/audwhere_stim/blank_white.png,stimulus/audwhere_stim/blank_white.png,stimulus/audwhere_stim/blank_white.png,stimulus/audwhere_stim/blank_white.png,0.0,0.0,0.0,0.0,0,0.0,0,0.0,0,0.0,0,0.0,0,0.0,0.0,0,0.0,0,0.0,0,0.0,0,0.0,0,0.0,0,0.0,0,0.0,0,0.0,10,,,,,0,5,5,5,,,,,,,,,79.85002945800079,79.85002945800079,79.85002945800079,79.85002945800079,79.85002945800079,79.85002945800079,79.85002945800079,79.85002945800079,79.76228937428289,79.85002945800079,79.85002945800079,79.85002945800079,79.76228937428289,79.85002945800079,79.85002945800079,79.85002945800079,79.85002945800079,79.85002945800079,79.85002945800079,79.85002945800079,79.85002945800079,79.85002945800079,79.85002945800079,79.85002945800079,79.85002945800079,79.85002945800079,79.85002945800079,79.8122893742829,79.85002945800079,79.85002945800079,79.85002945800079,79.8122893742829,79.85002945800079,79.85002945800079,79.85002945800079,79.85002945800079,79.85002945800079,85.08346416597487,85.08346416597487,90.00269495794782,None,0,,reldom2_s029,001,2025-03-03_13h48.37.818,Where-B-Scan_AC,2022.2.5,None,
5,Second_Order,1.0,audwhere,stimulus/audwhere_stim/right_toward_300h.wav,stimulus/audwhere_stim/left_toward_280h.wav,stimulus/audwhere_stim/right_toward_280h.wav,stimulus/audwhere_stim/right_away_280h.wav,stimulus/audwhere_stim/match_blank.png,stimulus/audwhere_stim/match_box.png,stimulus/audwhere_stim/match_yes.png,stimulus/audwhere_stim/match_no.png,2.0,Match,Direction,Side,2,5.125,0,5.125,0,5.125,0,5.125,0,0.75,0.75,0,0.0,0,0.0,0,0.0,0,0.0,1,0.5,1,2.125,1,0.5,1,2.125,0,,,,,0,6,6,6,,,,,,,,,90.00269495794782,95.11930512497202,90.00269495794782,90.00269495794782,90.00269495794782,90.00269495794782,90.4561364579713,91.442359165987,90.4699690416494,,92.07961712498218,93.0763513330021,92.09079487465011,,95.11930512497202,95.96865649998654,98.04408020799747,,95.96865649998654,95.96865649998654,101.15465079096612,95.96865649998654,95.96865649998654,95.96865649998654,95.96865649998654,96.41026924998732,97.47464891598793,96.38266683265489,,98.04408020799747,99.11270508298185,98.01597166661328,,95.96865649998654,101.15465079096612,95.96865649998654,101.15465079096612,101.15465079096612,,95.96865649998654,2,1,1.3863873339723796,reldom2_s029,001,2025-03-03_13h48.37.818,Where-B-Scan_AC,2022.2.5,None,
6,Second_Order,1.0,audwhere,stimulus/audwhere_stim/right_toward_270h.wav,stimulus/audwhere_stim/right_away_290h.wav,stimulus/audwhere_stim/left_toward_300h.wav,stimulus/audwhere_stim/left_away_290h.wav,stimulus/audwhere_stim/match_blank.png,stimulus/audwhere_stim/match_box.png,stimulus/audwhere_stim/match_yes.png,stimulus/audwhere_stim/match_no.png,1.0,Match,Side,Side,1,5.125,0,5.125,0,5.125,0,5.125,0,0.625,0.625,0,0.0,0,0.0,0,0.0,0,0.0,1,0.5,1,2.125,1,0.5,1,2.125,0,,,,,0,7,7,7,,,,,,,,,101.92948679096298,107.04637662495952,101.92948679096298,101.92948679096298,101.92948679096298,101.92948679096298,102.38317495799856,103.37076233298285,102.39736962464328,,104.00594374997308,105.00445724994643,104.0184056246692,,107.04637662495952,107.77414770796895,109.85703966597794,,107.77414770796895,107.77414770796895,112.96457904099952,107.77414770796895,107.77414770796895,107.77414770796895,107.77414770796895,108.21623566595372,109.28141104098177,108.18834574963354,,109.85703966597794,110.92203012498794,109.8292392916667,,107.77414770796895,112.96457904099952,107.77414770796895,112.96457904099952,112.96457904099952,113.62870008294703,107.77414770796895,2,0,2.3478560840012506,reldom2_s029,001,2025-03-03_13h48.37.818,Where-B-Scan_AC,2022.2.5,None,
0,0.0,None,fixation,stimulus/audwhere_stim/blank_white.png,stimulus/audwhere_stim/blank_white.png,stimulus/viswhere_stim/blank_white.png,stimulus/viswhere_stim/blank_white.png,stimulus/audwhere_stim/blank_white.png,stimulus/audwhere_stim/blank_white.png,stimulus/audwhere_stim/blank_white.png,stimulus/audwhere_stim/blank_white.png,0.0,0.0,0.0,0.0,0,0.0,0,0.0,0,0.0,0,0.0,0,0.0,0.0,0,0.0,0,0.0,0,0.0,0,0.0,0,0.0,0,0.0,0,0.0,0,0.0,9,,,,,0,8,8,8,,,,,,,,,113.85143304098165,113.85143304098165,113.85143304098165,113.85143304098165,113.85143304098165,113.85143304098165,113.85143304098165,113.85143304098165,113.76203341628036,113.85143304098165,113.85143304098165,113.85143304098165,113.76203341628036,113.85143304098165,113.85143304098165,113.85143304098165,113.85143304098165,113.85143304098165,113.85143304098165,113.85143304098165,113.85143304098165,113.85143304098165,113.85143304098165,113.85143304098165,113.85143304098165,113.85143304098165,113.85143304098165,113.81203341628037,113.85143304098165,113.85143304098165,113.85143304098165,113.81203341628037,113.85143304098165,113.85143304098165,113.85143304098165,113.85143304098165,113.85143304098165,119.0875501659466,119.0875501659466,123.08599587494973,None,0,,reldom2_s029,001,2025-03-03_13h48.37.818,Where-B-Scan_AC,2022.2.5,None,
7,First_Order,2.0,audwhere,stimulus/audwhere_stim/dummy.wav,stimulus/audwhere_stim/dummy.wav,stimulus/audwhere_stim/left_toward_270h.wav,stimulus/audwhere_stim/right_toward_270h.wav,stimulus/audwhere_stim/blank_white.png,stimulus/audwhere_stim/direction_box.png,stimulus/audwhere_stim/direction_yes.png,stimulus/audwhere_stim/direction_no.png,None,Direction,None,Direction,1,0.0,0,5.125,0,5.125,0,5.125,0,0.0,0.625,0,0.0,0,0.0,0,0.0,0,0.0,0,0.0,0,0.0,1,0.5,1,2.125,0,,,,,0,9,9,9,,,,,,,,,123.08599587494973,123.08599587494973,123.08599587494973,123.08599587494973,123.08599587494973,123.08599587494973,123.08599587494973,123.08599587494973,123.0063290409511,123.08599587494973,123.08599587494973,123.08599587494973,123.0063290409511,123.08599587494973,123.08599587494973,123.08599587494973,125.19935991597595,,123.08599587494973,123.08599587494973,128.25947270798497,123.08599587494973,123.08599587494973,123.08599587494973,123.08599587494973,123.53554504096974,124.56954387499718,123.50702358264631,,125.19935991597595,126.23421483294806,125.17103233264449,,123.08599587494973,128.25947270798497,123.08599587494973,128.25947270798497,128.2991945829708,128.96952316595707,123.08599587494973,1,1,2.3504690830013715,reldom2_s029,001,2025-03-03_13h48.37.818,Where-B-Scan_AC,2022.2.5,None,
8,First_Order,2.0,audwhere,stimulus/audwhere_stim/dummy.wav,stimulus/audwhere_stim/dummy.wav,stimulus/audwhere_stim/left_toward_280h.wav,stimulus/audwhere_stim/right_toward_290h.wav,stimulus/audwhere_stim/blank_white.png,stimulus/audwhere_stim/side_box.png,stimulus/audwhere_stim/side_yes.png,stimulus/audwhere_stim/side_no.png,None,Side,None,Direction,2,0.0,0,5.125,0,5.125,0,5.125,0,0.0,0.625,0,0.0,0,0.0,0,0.0,0,0.0,0,0.0,0,0.0,1,0.5,1,2.125,0,,,,,0,10,10,10,,,,,,,,,129.1757953329943,129.1757953329943,129.1757953329943,129.1757953329943,129.1757953329943,129.1757953329943,129.1757953329943,129.1757953329943,129.10285649929043,129.1757953329943,129.1757953329943,129.1757953329943,129.10285649929043,129.1757953329943,129.1757953329943,129.1757953329943,131.28824941598577,,129.1757953329943,129.1757953329943,134.34658654098166,129.1757953329943,129.1757953329943,129.1757953329943,129.1757953329943,129.62505620799493,130.65703516599024,129.59599820763495,,131.28824941598577,132.32214141596342,131.2597507496287,,129.1757953329943,134.34658654098166,129.1757953329943,134.34658654098166,134.38635474996408,135.05603791598696,129.1757953329943,2,1,1.3148832509759814,reldom2_s029,001,2025-03-03_13h48.37.818,Where-B-Scan_AC,2022.2.5,None,
9,First_Order,2.0,audwhere,stimulus/audwhere_stim/dummy.wav,stimulus/audwhere_stim/dummy.wav,stimulus/audwhere_stim/left_away_270h.wav,stimulus/audwhere_stim/left_toward_290h.wav,stimulus/audwhere_stim/blank_white.png,stimulus/audwhere_stim/side_box.png,stimulus/audwhere_stim/side_yes.png,stimulus/audwhere_stim/side_no.png,None,Side,None,Side,1,0.0,0,5.125,0,5.125,0,5.125,0,0.0,0.625,0,0.0,0,0.0,0,0.0,0,0.0,0,0.0,0,0.0,1,0.5,1,2.125,0,,,,,0,11,11,11,,,,,,,,,135.26243399997475,135.26243399997475,135.26243399997475,135.26243399997475,135.26243399997475,135.26243399997475,135.26243399997475,135.26243399997475,135.18937124932032,135.26243399997475,135.26243399997475,135.26243399997475,135.18937124932032,135.26243399997475,135.26243399997475,135.26243399997475,137.33454795798752,,135.26243399997475,135.26243399997475,140.44224512495566,135.26243399997475,135.26243399997475,135.26243399997475,135.26243399997475,135.7128754159785,136.74799095798517,135.6845532496266,,137.33454795798752,138.37110787496204,137.30587179161765,,135.26243399997475,140.44224512495566,135.26243399997475,140.44224512495566,140.48208433296531,141.15560970798833,135.26243399997475,1,1,1.5385003759874962,reldom2_s029,001,2025-03-03_13h48.37.818,Where-B-Scan_AC,2022.2.5,None,
10,First_Order,2.0,audwhere,stimulus/audwhere_stim/dummy.wav,stimulus/audwhere_stim/dummy.wav,stimulus/audwhere_stim/right_away_290h.wav,stimulus/audwhere_stim/right_toward_290h.wav,stimulus/audwhere_stim/blank_white.png,stimulus/audwhere_stim/side_box.png,stimulus/audwhere_stim/side_yes.png,stimulus/audwhere_stim/side_no.png,None,Side,None,Side,1,0.0,0,5.125,0,5.125,0,5.125,0,0.0,0.625,0,0.0,0,0.0,0,0.0,0,0.0,0,0.0,0,0.0,1,0.5,1,2.125,0,,,,,0,12,12,12,,,,,,,,,141.3619182909606,141.3619182909606,141.3619182909606,141.3619182909606,141.3619182909606,141.3619182909606,141.3619182909606,141.3619182909606,141.2889430413217,141.3619182909606,141.3619182909606,141.3619182909606,141.2889430413217,141.3619182909606,141.3619182909606,141.3619182909606,143.4770055830013,,141.3619182909606,141.3619182909606,146.55047599994577,141.3619182909606,141.3619182909606,141.3619182909606,141.3619182909606,141.8100249999552,142.84644474997185,141.7817388746228,,143.4770055830013,144.51855879096547,143.44867870764963,,141.3619182909606,146.55047599994577,141.3619182909606,146.55047599994577,146.58986595796887,147.26308099995367,141.3619182909606,1,1,1.5141140000196174,reldom2_s029,001,2025-03-03_13h48.37.818,Where-B-Scan_AC,2022.2.5,None,
0,0.0,None,fixation,stimulus/audwhere_stim/blank_white.png,stimulus/audwhere_stim/blank_white.png,stimulus/viswhere_stim/blank_white.png,stimulus/viswhere_stim/blank_white.png,stimulus/audwhere_stim/blank_white.png,stimulus/audwhere_stim/blank_white.png,stimulus/audwhere_stim/blank_white.png,stimulus/audwhere_stim/blank_white.png,0.0,0.0,0.0,0.0,0,0.0,0,0.0,0,0.0,0,0.0,0,0.0,0.0,0,0.0,0,0.0,0,0.0,0,0.0,0,0.0,0,0.0,0,0.0,0,0.0,9,,,,,0,13,13,13,,,,,,,,,147.4892372909817,147.4892372909817,147.4892372909817,147.4892372909817,147.4892372909817,147.4892372909817,147.4892372909817,147.4892372909817,147.39641433328703,147.4892372909817,147.4892372909817,147.4892372909817,147.39641433328703,147.4892372909817,147.4892372909817,147.4892372909817,147.4892372909817,147.4892372909817,147.4892372909817,147.4892372909817,147.4892372909817,147.4892372909817,147.4892372909817,147.4892372909817,147.4892372909817,147.4892372909817,147.4892372909817,147.446414333287,147.4892372909817,147.4892372909817,147.4892372909817,147.446414333287,147.4892372909817,147.4892372909817,147.4892372909817,147.4892372909817,147.4892372909817,152.6794057909865,152.6794057909865,156.61285558296368,None,0,,reldom2_s029,001,2025-03-03_13h48.37.818,Where-B-Scan_AC,2022.2.5,None,
11,Second_Order,2.0,audwhere,stimulus/audwhere_stim/left_toward_280h.wav,stimulus/audwhere_stim/left_away_290h.wav,stimulus/audwhere_stim/left_away_290h.wav,stimulus/audwhere_stim/right_away_280h.wav,stimulus/audwhere_stim/match_blank.png,stimulus/audwhere_stim/match_box.png,stimulus/audwhere_stim/match_yes.png,stimulus/audwhere_stim/match_no.png,2.0,Match,Side,Direction,2,5.125,0,5.125,0,5.125,0,5.125,0,0.75,0.75,0,0.0,0,0.0,0,0.0,0,0.0,1,0.5,1,2.125,1,0.5,1,2.125,0,,,,,0,14,14,14,,,,,,,,,156.61285558296368,161.73516666598152,156.61285558296368,156.61285558296368,156.61285558296368,156.61285558296368,157.06158366595628,158.0600598329911,157.07392512465984,,158.69452033296693,159.68341754097492,158.69909079163725,,161.73516666598152,162.5871320409933,164.6445368329878,168.57501449994743,162.5871320409933,162.5871320409933,167.75159124995116,162.5871320409933,162.5871320409933,162.5871320409933,162.5871320409933,163.03399929095758,164.06353200000012,163.0043886246315,,164.6445368329878,165.68259879096877,164.61630387464928,,162.5871320409933,167.75159124995116,162.5871320409933,167.75159124995116,167.75159124995116,,162.5871320409933,2,1,1.1345107919769362,reldom2_s029,001,2025-03-03_13h48.37.818,Where-B-Scan_AC,2022.2.5,None,
12,Second_Order,2.0,audwhere,stimulus/audwhere_stim/left_away_270h.wav,stimulus/audwhere_stim/left_toward_280h.wav,stimulus/audwhere_stim/right_away_280h.wav,stimulus/audwhere_stim/right_toward_300h.wav,stimulus/audwhere_stim/match_blank.png,stimulus/audwhere_stim/match_box.png,stimulus/audwhere_stim/match_yes.png,stimulus/audwhere_stim/match_no.png,1.0,Match,Side,Side,1,5.125,0,5.125,0,5.125,0,5.125,0,0.625,0.625,0,0.0,0,0.0,0,0.0,0,0.0,1,0.5,1,2.125,1,0.5,1,2.125,0,,,,,0,15,15,15,,,,,,,,,168.57501449994743,173.69616091594798,168.57501449994743,168.57501449994743,168.57501449994743,168.57501449994743,169.03972374997102,170.03757720795693,169.05204999965306,,170.66032258298947,171.6580706249806,170.67226824962225,,173.69616091594798,174.4293369159568,176.48071916599292,,174.4293369159568,174.4293369159568,179.57681087497622,174.4293369159568,174.4293369159568,174.4293369159568,174.4293369159568,174.87417495797854,175.9456153329811,174.84621374961378,,176.48071916599292,177.5130527499714,176.45238433266448,,174.4293369159568,179.57681087497622,174.4293369159568,179.57681087497622,179.61646237497916,180.2848447499564,174.4293369159568,2,0,1.921330916986335,reldom2_s029,001,2025-03-03_13h48.37.818,Where-B-Scan_AC,2022.2.5,None,
0,0.0,None,fixation,stimulus/audwhere_stim/blank_white.png,stimulus/audwhere_stim/blank_white.png,stimulus/viswhere_stim/blank_white.png,stimulus/viswhere_stim/blank_white.png,stimulus/audwhere_stim/blank_white.png,stimulus/audwhere_stim/blank_white.png,stimulus/audwhere_stim/blank_white.png,stimulus/audwhere_stim/blank_white.png,0.0,0.0,0.0,0.0,0,0.0,0,0.0,0,0.0,0,0.0,0,0.0,0.0,0,0.0,0,0.0,0,0.0,0,0.0,0,0.0,0,0.0,0,0.0,0,0.0,8,,,,,0,16,16,16,,,,,,,,,180.50979120796546,180.50979120796546,180.50979120796546,180.50979120796546,180.50979120796546,180.50979120796546,180.50979120796546,180.50979120796546,180.41817808328975,180.50979120796546,180.50979120796546,180.50979120796546,180.41817808328975,180.50979120796546,180.50979120796546,180.50979120796546,180.50979120796546,180.50979120796546,180.50979120796546,180.50979120796546,180.50979120796546,180.50979120796546,180.50979120796546,180.50979120796546,180.50979120796546,180.50979120796546,180.50979120796546,180.46817808328973,180.50979120796546,180.50979120796546,180.50979120796546,180.46817808328973,180.50979120796546,180.50979120796546,180.50979120796546,180.50979120796546,180.50979120796546,185.71195049997186,185.71195049997186,188.6838254579925,None,0,,reldom2_s029,001,2025-03-03_13h48.37.818,Where-B-Scan_AC,2022.2.5,None,
13,First_Order,3.0,viswhere,stimulus/viswhere_stim/blank_white.png,stimulus/viswhere_stim/blank_white.png,stimulus/viswhere_stim/150-deg_dot-left_seagreen.png,stimulus/viswhere_stim/150-deg_dot-right_royalblue.png,stimulus/viswhere_stim/blank_white.png,stimulus/viswhere_stim/line_box.png,stimulus/viswhere_stim/line_yes.png,stimulus/viswhere_stim/line_no.png,None,Line,None,Line,1,0.0,0,5.125,0,5.125,0,5.125,0,0.0,0.625,0,0.0,0,0.0,1,0.5,1,2.125,0,0.0,0,0.0,0,0.0,0,0.0,0,,,,,0,17,17,17,,,,,,,,,188.6838254579925,188.6838254579925,188.6838254579925,188.6838254579925,188.6838254579925,188.6838254579925,188.6838254579925,188.6838254579925,188.64967370799278,188.6838254579925,188.6838254579925,188.6838254579925,188.64967370799278,188.6838254579925,188.6838254579925,188.6838254579925,190.79063070798293,194.74938683299115,188.6838254579925,188.6838254579925,193.82507795799756,189.16540437500225,190.17950187495444,190.79063070798293,191.81073791597737,188.6838254579925,188.6838254579925,188.66634037465946,188.6838254579925,188.6838254579925,188.6838254579925,188.66634037465946,188.6838254579925,188.6838254579925,193.82507795799756,188.6838254579925,193.82507795799756,193.90842041600263,194.5335983329569,188.6838254579925,1,1,2.3483424999867566,reldom2_s029,001,2025-03-03_13h48.37.818,Where-B-Scan_AC,2022.2.5,None,
14,First_Order,3.0,viswhere,stimulus/viswhere_stim/blank_white.png,stimulus/viswhere_stim/blank_white.png,stimulus/viswhere_stim/90-deg_dot-right_cyan.png,stimulus/viswhere_stim/90-deg_dot-left_turquoise.png,stimulus/viswhere_stim/blank_white.png,stimulus/viswhere_stim/line_box.png,stimulus/viswhere_stim/line_yes.png,stimulus/viswhere_stim/line_no.png,None,Line,None,Line,1,0.0,0,5.125,0,5.125,0,5.125,0,0.0,0.625,0,0.0,0,0.0,1,0.5,1,2.125,0,0.0,0,0.0,0,0.0,0,0.0,0,,,,,0,18,18,18,,,,,,,,,194.74938683299115,194.74938683299115,194.74938683299115,194.74938683299115,194.74938683299115,194.74938683299115,194.74938683299115,194.74938683299115,194.72941745831244,194.74938683299115,194.74938683299115,194.74938683299115,194.72941745831244,194.74938683299115,194.74938683299115,194.74938683299115,196.85868412494892,200.8117919159704,194.74938683299115,194.74938683299115,199.88905554095982,195.2260565829929,196.23400241596391,196.85868412494892,197.8720345000038,194.74938683299115,194.74938683299115,194.74608412497912,194.74938683299115,194.74938683299115,194.74938683299115,194.74608412497912,194.74938683299115,194.74938683299115,199.88905554095982,194.74938683299115,199.88905554095982,199.97239958296996,200.59448387497105,194.74938683299115,1,1,1.4669748750166036,reldom2_s029,001,2025-03-03_13h48.37.818,Where-B-Scan_AC,2022.2.5,None,
15,First_Order,3.0,viswhere,stimulus/viswhere_stim/blank_white.png,stimulus/viswhere_stim/blank_white.png,stimulus/viswhere_stim/60-deg_dot-right_salmon.png,stimulus/viswhere_stim/150-deg_dot-right_turquoise.png,stimulus/viswhere_stim/blank_white.png,stimulus/viswhere_stim/dot_box.png,stimulus/viswhere_stim/dot_yes.png,stimulus/viswhere_stim/dot_no.png,None,Dot,None,Dot,1,0.0,0,5.125,0,5.125,0,5.125,0,0.0,0.625,0,0.0,0,0.0,1,0.5,1,2.125,0,0.0,0,0.0,0,0.0,0,0.0,0,,,,,0,19,19,19,,,,,,,,,200.8117919159704,200.8117919159704,200.8117919159704,200.8117919159704,200.8117919159704,200.8117919159704,200.8117919159704,200.8117919159704,200.7907572083253,200.8117919159704,200.8117919159704,200.8117919159704,200.7907572083253,200.8117919159704,200.8117919159704,200.8117919159704,202.9096043749596,206.8710362080019,200.8117919159704,200.8117919159704,205.9462162499549,201.29041908297222,202.30000441597076,202.9096043749596,203.92560720798792,200.8117919159704,200.8117919159704,200.80742387499197,200.8117919159704,200.8117919159704,200.8117919159704,200.80742387499197,200.8117919159704,200.8117919159704,205.9462162499549,200.8117919159704,205.9462162499549,206.03380429098615,206.6572149999556,200.8117919159704,1,1,1.859352833009325,reldom2_s029,001,2025-03-03_13h48.37.818,Where-B-Scan_AC,2022.2.5,None,
16,First_Order,3.0,viswhere,stimulus/viswhere_stim/blank_white.png,stimulus/viswhere_stim/blank_white.png,stimulus/viswhere_stim/120-deg_dot-left_peru.png,stimulus/viswhere_stim/120-deg_dot-right_royalblue.png,stimulus/viswhere_stim/blank_white.png,stimulus/viswhere_stim/dot_box.png,stimulus/viswhere_stim/dot_yes.png,stimulus/viswhere_stim/dot_no.png,None,Dot,None,Line,2,0.0,0,5.125,0,5.125,0,5.125,0,0.0,0.625,0,0.0,0,0.0,1,0.5,1,2.125,0,0.0,0,0.0,0,0.0,0,0.0,0,,,,,0,20,20,20,,,,,,,,,206.8710362080019,206.8710362080019,206.8710362080019,206.8710362080019,206.8710362080019,206.8710362080019,206.8710362080019,206.8710362080019,206.85171549932178,206.8710362080019,206.8710362080019,206.8710362080019,206.85171549932178,206.8710362080019,206.8710362080019,206.8710362080019,208.9704674159875,213.00382083299337,206.8710362080019,206.8710362080019,212.01070074999006,207.34548629098572,208.34873158298433,208.9704674159875,209.98078124999302,206.8710362080019,206.8710362080019,206.85171549932178,206.8710362080019,206.8710362080019,206.8710362080019,206.85171549932178,206.8710362080019,206.8710362080019,212.01070074999006,206.8710362080019,212.01070074999006,212.09749949997058,212.73193570796866,206.8710362080019,2,1,1.2671846669982187,reldom2_s029,001,2025-03-03_13h48.37.818,Where-B-Scan_AC,2022.2.5,None,
0,0.0,None,fixation,stimulus/audwhere_stim/blank_white.png,stimulus/audwhere_stim/blank_white.png,stimulus/viswhere_stim/blank_white.png,stimulus/viswhere_stim/blank_white.png,stimulus/audwhere_stim/blank_white.png,stimulus/audwhere_stim/blank_white.png,stimulus/audwhere_stim/blank_white.png,stimulus/audwhere_stim/blank_white.png,0.0,0.0,0.0,0.0,0,0.0,0,0.0,0,0.0,0,0.0,0,0.0,0.0,0,0.0,0,0.0,0,0.0,0,0.0,0,0.0,0,0.0,0,0.0,0,0.0,10,,,,,0,21,21,21,,,,,,,,,213.00382083299337,213.00382083299337,213.00382083299337,213.00382083299337,213.00382083299337,213.00382083299337,213.00382083299337,213.00382083299337,212.90891162430248,213.00382083299337,213.00382083299337,213.00382083299337,212.90891162430248,213.00382083299337,213.00382083299337,213.00382083299337,213.00382083299337,213.00382083299337,213.00382083299337,213.00382083299337,213.00382083299337,213.00382083299337,213.00382083299337,213.00382083299337,213.00382083299337,213.00382083299337,213.00382083299337,212.9589116243025,213.00382083299337,213.00382083299337,213.00382083299337,212.9589116243025,213.00382083299337,213.00382083299337,213.00382083299337,213.00382083299337,213.00382083299337,218.20576608297415,218.20576608297415,223.10983412497444,None,0,,reldom2_s029,001,2025-03-03_13h48.37.818,Where-B-Scan_AC,2022.2.5,None,
17,Second_Order,3.0,viswhere,stimulus/viswhere_stim/90-deg_dot-left_lightsseagreen.png,stimulus/viswhere_stim/90-deg_dot-right_lightsseagreen.png,stimulus/viswhere_stim/120-deg_dot-right_cyan.png,stimulus/viswhere_stim/60-deg_dot-right_royalblue.png,stimulus/audwhere_stim/match_blank.png,stimulus/audwhere_stim/match_box.png,stimulus/audwhere_stim/match_yes.png,stimulus/audwhere_stim/match_no.png,2.0,Match,Line,Dot,2,5.125,0,5.125,0,5.125,0,5.125,0,0.75,0.75,1,0.5,1,2.125,1,0.5,1,2.125,0,0.0,0,0.0,0,0.0,0,0.0,0,,,,,0,22,22,22,,,,,,,,,223.10983412497444,228.22686620795866,223.58170612499816,224.58019345795037,225.2150273329462,226.204554750002,223.10983412497444,223.10983412497444,223.10766724965458,223.10983412497444,223.10983412497444,223.10983412497444,223.10766724965458,223.10983412497444,228.22686620795866,229.02025262499228,231.09057787497295,234.97867662500357,229.02025262499228,229.02025262499228,234.15374345798045,229.47789233300136,230.48207645799266,231.09057787497295,232.10203812498366,229.02025262499228,229.02025262499228,228.99331266631685,229.02025262499228,229.02025262499228,229.02025262499228,228.99331266631685,229.02025262499228,229.02025262499228,234.15374345798045,229.02025262499228,234.15374345798045,234.20844183297595,234.97867662500357,229.02025262499228,2,1,1.453957833989989,reldom2_s029,001,2025-03-03_13h48.37.818,Where-B-Scan_AC,2022.2.5,None,
18,Second_Order,3.0,viswhere,stimulus/viswhere_stim/90-deg_dot-left_lightsseagreen.png,stimulus/viswhere_stim/60-deg_dot-left_mediumslateblue.png,stimulus/viswhere_stim/60-deg_dot-right_lightsseagreen.png,stimulus/viswhere_stim/30-deg_dot-right_goldenrod.png,stimulus/audwhere_stim/match_blank.png,stimulus/audwhere_stim/match_box.png,stimulus/audwhere_stim/match_yes.png,stimulus/audwhere_stim/match_no.png,1.0,Match,Dot,Dot,1,5.125,0,5.125,0,5.125,0,5.125,0,0.625,0.625,1,0.5,1,2.125,1,0.5,1,2.125,0,0.0,0,0.0,0,0.0,0,0.0,0,,,,,0,23,23,23,,,,,,,,,234.97867662500357,240.09985949995462,235.46008437499404,236.4579849159927,237.0803076250013,238.07789999997476,234.97867662500357,234.97867662500357,234.99300658296562,234.97867662500357,234.97867662500357,234.97867662500357,234.99300658296562,234.97867662500357,240.09985949995462,240.77489841595525,242.85630499996478,246.87907999998424,240.77489841595525,240.77489841595525,245.89938183297636,241.23308179096784,242.2514762499486,242.85630499996478,243.8673559159506,240.77489841595525,240.77489841595525,240.75058224931905,240.77489841595525,240.77489841595525,240.77489841595525,240.75058224931905,240.77489841595525,240.77489841595525,245.89938183297636,240.77489841595525,245.89938183297636,245.9694351659855,246.6004463749705,240.77489841595525,2,0,1.570806999981869,reldom2_s029,001,2025-03-03_13h48.37.818,Where-B-Scan_AC,2022.2.5,None,
0,0.0,None,fixation,stimulus/audwhere_stim/blank_white.png,stimulus/audwhere_stim/blank_white.png,stimulus/viswhere_stim/blank_white.png,stimulus/viswhere_stim/blank_white.png,stimulus/audwhere_stim/blank_white.png,stimulus/audwhere_stim/blank_white.png,stimulus/audwhere_stim/blank_white.png,stimulus/audwhere_stim/blank_white.png,0.0,0.0,0.0,0.0,0,0.0,0,0.0,0,0.0,0,0.0,0,0.0,0.0,0,0.0,0,0.0,0,0.0,0,0.0,0,0.0,0,0.0,0,0.0,0,0.0,9,,,,,0,24,24,24,,,,,,,,,246.87907999998424,246.87907999998424,246.87907999998424,246.87907999998424,246.87907999998424,246.87907999998424,246.87907999998424,246.87907999998424,246.783880458291,246.87907999998424,246.87907999998424,246.87907999998424,246.783880458291,246.87907999998424,246.87907999998424,246.87907999998424,246.87907999998424,246.87907999998424,246.87907999998424,246.87907999998424,246.87907999998424,246.87907999998424,246.87907999998424,246.87907999998424,246.87907999998424,246.87907999998424,246.87907999998424,246.83388045829102,246.87907999998424,246.87907999998424,246.87907999998424,246.83388045829102,246.87907999998424,246.87907999998424,246.87907999998424,246.87907999998424,246.87907999998424,252.07639529096195,252.07639529096195,256.0617979999515,None,0,,reldom2_s029,001,2025-03-03_13h48.37.818,Where-B-Scan_AC,2022.2.5,None,
19,First_Order,4.0,viswhere,stimulus/viswhere_stim/blank_white.png,stimulus/viswhere_stim/blank_white.png,stimulus/viswhere_stim/90-deg_dot-left_seagreen.png,stimulus/viswhere_stim/150-deg_dot-left_lightsseagreen.png,stimulus/viswhere_stim/blank_white.png,stimulus/viswhere_stim/dot_box.png,stimulus/viswhere_stim/dot_yes.png,stimulus/viswhere_stim/dot_no.png,None,Dot,None,Dot,1,0.0,0,5.125,0,5.125,0,5.125,0,0.0,0.625,0,0.0,0,0.0,1,0.5,1,2.125,0,0.0,0,0.0,0,0.0,0,0.0,0,,,,,0,25,25,25,,,,,,,,,256.0617979999515,256.0617979999515,256.0617979999515,256.0617979999515,256.0617979999515,256.0617979999515,256.0617979999515,256.0617979999515,256.04538470766664,256.0617979999515,256.0617979999515,256.0617979999515,256.04538470766664,256.0617979999515,256.0617979999515,256.0617979999515,258.15949133294635,262.1358795409906,256.0617979999515,256.0617979999515,261.1849659999716,256.53869987500366,257.55134320794605,258.15949133294635,259.17629262496484,256.0617979999515,256.0617979999515,256.04538470766664,256.0617979999515,256.0617979999515,256.0617979999515,256.04538470766664,256.0617979999515,256.0617979999515,261.1849659999716,256.0617979999515,261.1849659999716,261.28338641597657,261.9322999159922,256.0617979999515,1,1,1.5135054170386866,reldom2_s029,001,2025-03-03_13h48.37.818,Where-B-Scan_AC,2022.2.5,None,
20,First_Order,4.0,viswhere,stimulus/viswhere_stim/blank_white.png,stimulus/viswhere_stim/blank_white.png,stimulus/viswhere_stim/30-deg_dot-left_peru.png,stimulus/viswhere_stim/30-deg_dot-right_salmon.png,stimulus/viswhere_stim/blank_white.png,stimulus/viswhere_stim/dot_box.png,stimulus/viswhere_stim/dot_yes.png,stimulus/viswhere_stim/dot_no.png,None,Dot,None,Line,2,0.0,0,5.125,0,5.125,0,5.125,0,0.0,0.625,0,0.0,0,0.0,1,0.5,1,2.125,0,0.0,0,0.0,0,0.0,0,0.0,0,,,,,0,26,26,26,,,,,,,,,262.1358795409906,262.1358795409906,262.1358795409906,262.1358795409906,262.1358795409906,262.1358795409906,262.1358795409906,262.1358795409906,262.11604758330697,262.1358795409906,262.1358795409906,262.1358795409906,262.11604758330697,262.1358795409906,262.1358795409906,262.1358795409906,264.24737320799613,268.1985687079723,262.1358795409906,262.1358795409906,267.2635372079676,262.6090572079993,263.62198870797874,264.24737320799613,265.26276312494883,262.1358795409906,262.1358795409906,262.1327142499736,262.1358795409906,262.1358795409906,262.1358795409906,262.1327142499736,262.1358795409906,262.1358795409906,267.2635372079676,262.1358795409906,267.2635372079676,267.3782325409702,268.00973845797125,262.1358795409906,2,1,1.7020823750062846,reldom2_s029,001,2025-03-03_13h48.37.818,Where-B-Scan_AC,2022.2.5,None,
21,First_Order,4.0,viswhere,stimulus/viswhere_stim/blank_white.png,stimulus/viswhere_stim/blank_white.png,stimulus/viswhere_stim/60-deg_dot-left_lightsseagreen.png,stimulus/viswhere_stim/30-deg_dot-left_slateblue.png,stimulus/viswhere_stim/blank_white.png,stimulus/viswhere_stim/line_box.png,stimulus/viswhere_stim/line_yes.png,stimulus/viswhere_stim/line_no.png,None,Line,None,Dot,2,0.0,0,5.125,0,5.125,0,5.125,0,0.0,0.625,0,0.0,0,0.0,1,0.5,1,2.125,0,0.0,0,0.0,0,0.0,0,0.0,0,,,,,0,27,27,27,,,,,,,,,268.1985687079723,268.1985687079723,268.1985687079723,268.1985687079723,268.1985687079723,268.1985687079723,268.1985687079723,268.1985687079723,268.1799568743057,268.1985687079723,268.1985687079723,268.1985687079723,268.1799568743057,268.1985687079723,268.1985687079723,268.1985687079723,270.3077831659466,274.2644922079635,268.1985687079723,268.1985687079723,273.3355694159982,268.6752223329968,269.68178566597635,270.3077831659466,271.3200967909652,268.1985687079723,268.1985687079723,268.1799568743057,268.1985687079723,268.1985687079723,268.1985687079723,268.1799568743057,268.1985687079723,268.1985687079723,273.3355694159982,268.1985687079723,273.3355694159982,273.41932108299807,274.04601033299696,268.1985687079723,2,1,1.5376842090045102,reldom2_s029,001,2025-03-03_13h48.37.818,Where-B-Scan_AC,2022.2.5,None,
22,First_Order,4.0,viswhere,stimulus/viswhere_stim/blank_white.png,stimulus/viswhere_stim/blank_white.png,stimulus/viswhere_stim/120-deg_dot-right_peru.png,stimulus/viswhere_stim/150-deg_dot-right_peru.png,stimulus/viswhere_stim/blank_white.png,stimulus/viswhere_stim/line_box.png,stimulus/viswhere_stim/line_yes.png,stimulus/viswhere_stim/line_no.png,None,Line,None,Dot,2,0.0,0,5.125,0,5.125,0,5.125,0,0.0,0.625,0,0.0,0,0.0,1,0.5,1,2.125,0,0.0,0,0.0,0,0.0,0,0.0,0,,,,,0,28,28,28,,,,,,,,,274.2644922079635,274.2644922079635,274.2644922079635,274.2644922079635,274.2644922079635,274.2644922079635,274.2644922079635,274.2644922079635,274.2440228742974,274.2644922079635,274.2644922079635,274.2644922079635,274.2440228742974,274.2644922079635,274.2644922079635,274.2644922079635,276.36450420797337,280.407044957974,274.2644922079635,274.2644922079635,279.3923002909869,274.74113612499787,275.7551844159607,276.36450420797337,277.38344191596843,274.2644922079635,274.2644922079635,274.26068954096405,274.2644922079635,274.2644922079635,274.2644922079635,274.26068954096405,274.2644922079635,274.2644922079635,279.3923002909869,274.2644922079635,279.3923002909869,279.5063145409804,280.1315486249514,274.2644922079635,2,1,1.5033578329603188,reldom2_s029,001,2025-03-03_13h48.37.818,Where-B-Scan_AC,2022.2.5,None,
0,0.0,None,fixation,stimulus/audwhere_stim/blank_white.png,stimulus/audwhere_stim/blank_white.png,stimulus/viswhere_stim/blank_white.png,stimulus/viswhere_stim/blank_white.png,stimulus/audwhere_stim/blank_white.png,stimulus/audwhere_stim/blank_white.png,stimulus/audwhere_stim/blank_white.png,stimulus/audwhere_stim/blank_white.png,0.0,0.0,0.0,0.0,0,0.0,0,0.0,0,0.0,0,0.0,0,0.0,0.0,0,0.0,0,0.0,0,0.0,0,0.0,0,0.0,0,0.0,0,0.0,0,0.0,10,,,,,0,29,29,29,,,,,,,,,280.407044957974,280.407044957974,280.407044957974,280.407044957974,280.407044957974,280.407044957974,280.407044957974,280.407044957974,280.3117918333349,280.407044957974,280.407044957974,280.407044957974,280.3117918333349,280.407044957974,280.407044957974,280.407044957974,280.407044957974,280.407044957974,280.407044957974,280.407044957974,280.407044957974,280.407044957974,280.407044957974,280.407044957974,280.407044957974,280.407044957974,280.407044957974,280.3617918333349,280.407044957974,280.407044957974,280.407044957974,280.3617918333349,280.407044957974,280.407044957974,280.407044957974,280.407044957974,280.407044957974,285.5955427499721,285.5955427499721,290.53390391595894,None,0,,reldom2_s029,001,2025-03-03_13h48.37.818,Where-B-Scan_AC,2022.2.5,None,
23,Second_Order,4.0,viswhere,stimulus/viswhere_stim/60-deg_dot-right_peru.png,stimulus/viswhere_stim/60-deg_dot-left_royalblue.png,stimulus/viswhere_stim/90-deg_dot-left_slateblue.png,stimulus/viswhere_stim/90-deg_dot-right_royalblue.png,stimulus/audwhere_stim/match_blank.png,stimulus/audwhere_stim/match_box.png,stimulus/audwhere_stim/match_yes.png,stimulus/audwhere_stim/match_no.png,1.0,Match,Line,Line,1,5.125,0,5.125,0,5.125,0,5.125,0,0.75,0.75,1,0.5,1,2.125,1,0.5,1,2.125,0,0.0,0,0.0,0,0.0,0,0.0,0,,,,,0,30,30,30,,,,,,,,,290.53390391595894,295.650105290988,291.01679954095744,292.00649079098366,292.6415812499472,293.6397242079838,290.53390391595894,290.53390391595894,290.5489054163064,290.53390391595894,290.53390391595894,290.53390391595894,290.5489054163064,290.53390391595894,295.650105290988,296.44555837498046,298.5138723749551,302.38577374996385,296.44555837498046,296.44555837498046,301.5840847909567,296.8874682909809,297.90248175000306,298.5138723749551,299.5170078329975,296.44555837498046,296.44555837498046,296.4341118749697,296.44555837498046,296.44555837498046,296.44555837498046,296.4341118749697,296.44555837498046,296.44555837498046,301.5840847909567,296.44555837498046,301.5840847909567,301.6407457909663,302.4213510409463,296.44555837498046,1,1,0.8213778330245987,reldom2_s029,001,2025-03-03_13h48.37.818,Where-B-Scan_AC,2022.2.5,None,
24,Second_Order,4.0,viswhere,stimulus/viswhere_stim/120-deg_dot-left_peru.png,stimulus/viswhere_stim/120-deg_dot-right_peru.png,stimulus/viswhere_stim/30-deg_dot-right_peru.png,stimulus/viswhere_stim/30-deg_dot-left_lightsseagreen.png,stimulus/audwhere_stim/match_blank.png,stimulus/audwhere_stim/match_box.png,stimulus/audwhere_stim/match_yes.png,stimulus/audwhere_stim/match_no.png,1.0,Match,Line,Line,1,5.125,0,5.125,0,5.125,0,5.125,0,0.625,0.625,1,0.5,1,2.125,1,0.5,1,2.125,0,0.0,0,0.0,0,0.0,0,0.0,0,,,,,0,31,31,31,,,,,,,,,302.4213510409463,307.5433259579586,302.8981197079993,303.89676916599274,304.5312797499937,305.5207063749549,302.4213510409463,302.4213510409463,302.43577374996386,302.4213510409463,302.4213510409463,302.4213510409463,302.43577374996386,302.4213510409463,307.5433259579586,308.2139975829632,310.28501058300026,314.32299299997976,308.2139975829632,308.2139975829632,313.34024945797864,308.6718478749972,309.6780404159799,310.28501058300026,311.3006613329635,308.2139975829632,308.2139975829632,308.19000308332807,308.2139975829632,308.2139975829632,308.2139975829632,308.19000308332807,308.2139975829632,308.2139975829632,313.34024945797864,308.2139975829632,313.34024945797864,313.40824533294654,314.0296023749979,308.2139975829632,2,0,1.3052630830206908,reldom2_s029,001,2025-03-03_13h48.37.818,Where-B-Scan_AC,2022.2.5,None,
0,0.0,None,fixation,stimulus/audwhere_stim/blank_white.png,stimulus/audwhere_stim/blank_white.png,stimulus/viswhere_stim/blank_white.png,stimulus/viswhere_stim/blank_white.png,stimulus/audwhere_stim/blank_white.png,stimulus/audwhere_stim/blank_white.png,stimulus/audwhere_stim/blank_white.png,stimulus/audwhere_stim/blank_white.png,0.0,0.0,0.0,0.0,0,0.0,0,0.0,0,0.0,0,0.0,0,0.0,0.0,0,0.0,0,0.0,0,0.0,0,0.0,0,0.0,0,0.0,0,0.0,0,0.0,9,,,,,0,32,32,32,,,,,,,,,314.32299299997976,314.32299299997976,314.32299299997976,314.32299299997976,314.32299299997976,314.32299299997976,314.32299299997976,314.32299299997976,314.226392291331,314.32299299997976,314.32299299997976,314.32299299997976,314.226392291331,314.32299299997976,314.32299299997976,314.32299299997976,314.32299299997976,314.32299299997976,314.32299299997976,314.32299299997976,314.32299299997976,314.32299299997976,314.32299299997976,314.32299299997976,314.32299299997976,314.32299299997976,314.32299299997976,314.27639229133104,314.32299299997976,314.32299299997976,314.32299299997976,314.27639229133104,314.32299299997976,314.32299299997976,314.32299299997976,314.32299299997976,314.32299299997976,319.54956124996534,319.54956124996534,323.56066916597774,None,0,,reldom2_s029,001,2025-03-03_13h48.37.818,Where-B-Scan_AC,2022.2.5,None,
25,First_Order,5.0,audwhere,stimulus/audwhere_stim/dummy.wav,stimulus/audwhere_stim/dummy.wav,stimulus/audwhere_stim/right_toward_280h.wav,stimulus/audwhere_stim/right_away_290h.wav,stimulus/audwhere_stim/blank_white.png,stimulus/audwhere_stim/side_box.png,stimulus/audwhere_stim/side_yes.png,stimulus/audwhere_stim/side_no.png,None,Side,None,Side,1,0.0,0,5.125,0,5.125,0,5.125,0,0.0,0.625,0,0.0,0,0.0,0,0.0,0,0.0,0,0.0,0,0.0,1,0.5,1,2.125,0,,,,,0,33,33,33,,,,,,,,,323.56066916597774,323.56066916597774,323.56066916597774,323.56066916597774,323.56066916597774,323.56066916597774,323.56066916597774,323.56066916597774,323.49313729161315,323.56066916597774,323.56066916597774,323.56066916597774,323.49313729161315,323.56066916597774,323.56066916597774,323.56066916597774,325.6643530000001,,323.56066916597774,323.56066916597774,328.72850904095685,323.56066916597774,323.56066916597774,323.56066916597774,323.56066916597774,324.0182478329516,325.0707888749894,323.9890803326309,,325.6643530000001,326.71791162498994,325.6353945826452,,323.56066916597774,328.72850904095685,323.56066916597774,328.72850904095685,328.7691319579608,329.4558654159773,323.56066916597774,1,1,1.505997501022648,reldom2_s029,001,2025-03-03_13h48.37.818,Where-B-Scan_AC,2022.2.5,None,
26,First_Order,5.0,audwhere,stimulus/audwhere_stim/dummy.wav,stimulus/audwhere_stim/dummy.wav,stimulus/audwhere_stim/right_toward_300h.wav,stimulus/audwhere_stim/left_toward_270h.wav,stimulus/audwhere_stim/blank_white.png,stimulus/audwhere_stim/direction_box.png,stimulus/audwhere_stim/direction_yes.png,stimulus/audwhere_stim/direction_no.png,None,Direction,None,Direction,1,0.0,0,5.125,0,5.125,0,5.125,0,0.0,0.625,0,0.0,0,0.0,0,0.0,0,0.0,0,0.0,0,0.0,1,0.5,1,2.125,0,,,,,0,34,34,34,,,,,,,,,329.66572291596094,329.66572291596094,329.66572291596094,329.66572291596094,329.66572291596094,329.66572291596094,329.66572291596094,329.66572291596094,329.58919874931064,329.66572291596094,329.66572291596094,329.66572291596094,329.58919874931064,329.66572291596094,329.66572291596094,329.66572291596094,331.741802540957,,329.66572291596094,329.66572291596094,334.829484457965,329.66572291596094,329.66572291596094,329.66572291596094,329.66572291596094,330.1259025000036,331.1883560830029,330.09646516666203,,331.741802540957,332.8037288749474,331.71216566663156,,329.66572291596094,334.829484457965,329.66572291596094,334.829484457965,334.8701343749999,335.5205470829969,329.66572291596094,1,1,1.774414458021056,reldom2_s029,001,2025-03-03_13h48.37.818,Where-B-Scan_AC,2022.2.5,None,
27,First_Order,5.0,audwhere,stimulus/audwhere_stim/dummy.wav,stimulus/audwhere_stim/dummy.wav,stimulus/audwhere_stim/left_toward_290h.wav,stimulus/audwhere_stim/left_away_300h.wav,stimulus/audwhere_stim/blank_white.png,stimulus/audwhere_stim/direction_box.png,stimulus/audwhere_stim/direction_yes.png,stimulus/audwhere_stim/direction_no.png,None,Direction,None,Side,2,0.0,0,5.125,0,5.125,0,5.125,0,0.0,0.625,0,0.0,0,0.0,0,0.0,0,0.0,0,0.0,0,0.0,1,0.5,1,2.125,0,,,,,0,35,35,35,,,,,,,,,335.77027524996083,335.77027524996083,335.77027524996083,335.77027524996083,335.77027524996083,335.77027524996083,335.77027524996083,335.77027524996083,335.69423670831213,335.77027524996083,335.77027524996083,335.77027524996083,335.69423670831213,335.77027524996083,335.77027524996083,335.77027524996083,337.84583725000266,341.88352449995,335.77027524996083,335.77027524996083,340.9425500409561,335.77027524996083,335.77027524996083,335.77027524996083,335.77027524996083,336.2315912079648,337.2944742909749,336.2017482076228,,337.84583725000266,338.9123582909815,337.81640562462076,,335.77027524996083,340.9425500409561,335.77027524996083,340.9425500409561,340.9838381659938,341.63223387498874,335.77027524996083,2,1,1.3136825840338133,reldom2_s029,001,2025-03-03_13h48.37.818,Where-B-Scan_AC,2022.2.5,None,
28,First_Order,5.0,audwhere,stimulus/audwhere_stim/dummy.wav,stimulus/audwhere_stim/dummy.wav,stimulus/audwhere_stim/right_away_300h.wav,stimulus/audwhere_stim/right_toward_290h.wav,stimulus/audwhere_stim/blank_white.png,stimulus/audwhere_stim/direction_box.png,stimulus/audwhere_stim/direction_yes.png,stimulus/audwhere_stim/direction_no.png,None,Direction,None,Side,2,0.0,0,5.125,0,5.125,0,5.125,0,0.0,0.625,0,0.0,0,0.0,0,0.0,0,0.0,0,0.0,0,0.0,1,0.5,1,2.125,0,,,,,0,36,36,36,,,,,,,,,341.88352449995,341.88352449995,341.88352449995,341.88352449995,341.88352449995,341.88352449995,341.88352449995,341.88352449995,341.80616466628464,341.88352449995,341.88352449995,341.88352449995,341.80616466628464,341.88352449995,341.88352449995,341.88352449995,343.9642650409951,,341.88352449995,341.88352449995,347.0748630409944,341.88352449995,341.88352449995,341.88352449995,341.88352449995,342.3447587079718,343.41006016597385,342.3155762076533,,343.9642650409951,345.03255929099396,343.9342751666593,,341.88352449995,347.0748630409944,341.88352449995,347.0748630409944,347.0748630409944,347.72419762494974,341.88352449995,2,1,1.599797207978554,reldom2_s029,001,2025-03-03_13h48.37.818,Where-B-Scan_AC,2022.2.5,None,
0,0.0,None,fixation,stimulus/audwhere_stim/blank_white.png,stimulus/audwhere_stim/blank_white.png,stimulus/viswhere_stim/blank_white.png,stimulus/viswhere_stim/blank_white.png,stimulus/audwhere_stim/blank_white.png,stimulus/audwhere_stim/blank_white.png,stimulus/audwhere_stim/blank_white.png,stimulus/audwhere_stim/blank_white.png,0.0,0.0,0.0,0.0,0,0.0,0,0.0,0,0.0,0,0.0,0,0.0,0.0,0,0.0,0,0.0,0,0.0,0,0.0,0,0.0,0,0.0,0,0.0,0,0.0,10,,,,,0,37,37,37,,,,,,,,,347.99534733296605,347.99534733296605,347.99534733296605,347.99534733296605,347.99534733296605,347.99534733296605,347.99534733296605,347.99534733296605,347.8984577083339,347.99534733296605,347.99534733296605,347.99534733296605,347.8984577083339,347.99534733296605,347.99534733296605,347.99534733296605,347.99534733296605,347.99534733296605,347.99534733296605,347.99534733296605,347.99534733296605,347.99534733296605,347.99534733296605,347.99534733296605,347.99534733296605,347.99534733296605,347.99534733296605,347.94845770833393,347.99534733296605,347.99534733296605,347.99534733296605,347.94845770833393,347.99534733296605,347.99534733296605,347.99534733296605,347.99534733296605,347.99534733296605,353.2076112909708,353.2076112909708,358.1285859159543,None,0,,reldom2_s029,001,2025-03-03_13h48.37.818,Where-B-Scan_AC,2022.2.5,None,
29,Second_Order,5.0,audwhere,stimulus/audwhere_stim/right_toward_270h.wav,stimulus/audwhere_stim/right_away_280h.wav,stimulus/audwhere_stim/left_away_270h.wav,stimulus/audwhere_stim/right_away_300h.wav,stimulus/audwhere_stim/match_blank.png,stimulus/audwhere_stim/match_box.png,stimulus/audwhere_stim/match_yes.png,stimulus/audwhere_stim/match_no.png,2.0,Match,Side,Direction,2,5.125,0,5.125,0,5.125,0,5.125,0,0.75,0.75,0,0.0,0,0.0,0,0.0,0,0.0,1,0.5,1,2.125,1,0.5,1,2.125,0,,,,,0,38,38,38,,,,,,,,,358.1285859159543,363.2505337909679,358.1285859159543,358.1285859159543,358.1285859159543,358.1285859159543,358.5769651659648,359.5752137499512,358.5898125826536,,360.21049391594715,361.19962066598237,360.2140144996267,,363.2505337909679,364.1027917909669,366.150874874962,370.0938695409568,364.1027917909669,364.1027917909669,369.25637870799983,364.1027917909669,364.1027917909669,364.1027917909669,364.1027917909669,364.5541492079501,365.60524274996715,364.5254812496171,,366.150874874962,367.2041629999876,366.1223822496288,,364.1027917909669,369.25637870799983,364.1027917909669,369.25637870799983,369.2966046249494,,364.1027917909669,2,1,1.280828375951387,reldom2_s029,001,2025-03-03_13h48.37.818,Where-B-Scan_AC,2022.2.5,None,
30,Second_Order,5.0,audwhere,stimulus/audwhere_stim/right_away_300h.wav,stimulus/audwhere_stim/right_toward_300h.wav,stimulus/audwhere_stim/left_toward_290h.wav,stimulus/audwhere_stim/left_away_270h.wav,stimulus/audwhere_stim/match_blank.png,stimulus/audwhere_stim/match_box.png,stimulus/audwhere_stim/match_yes.png,stimulus/audwhere_stim/match_no.png,1.0,Match,Side,Side,1,5.125,0,5.125,0,5.125,0,5.125,0,0.625,0.625,0,0.0,0,0.0,0,0.0,0,0.0,1,0.5,1,2.125,1,0.5,1,2.125,0,,,,,0,39,39,39,,,,,,,,,370.0938695409568,375.216578957974,370.0938695409568,370.0938695409568,370.0938695409568,370.0938695409568,370.55276887497166,371.5395965829957,370.5668720416181,,372.1750898750033,373.1737420829595,372.1879434166515,,375.216578957974,375.9462549579912,378.02562204096466,,375.9462549579912,375.9462549579912,381.1173103329493,375.9462549579912,375.9462549579912,375.9462549579912,375.9462549579912,376.39530479098903,377.43703095795354,376.36653483263603,,378.02562204096466,379.072669999965,377.99678870762386,,375.9462549579912,381.1173103329493,375.9462549579912,381.1173103329493,381.1173103329493,381.7970496659982,375.9462549579912,2,0,1.697694208996836,reldom2_s029,001,2025-03-03_13h48.37.818,Where-B-Scan_AC,2022.2.5,None,
0,0.0,None,fixation,stimulus/audwhere_stim/blank_white.png,stimulus/audwhere_stim/blank_white.png,stimulus/viswhere_stim/blank_white.png,stimulus/viswhere_stim/blank_white.png,stimulus/audwhere_stim/blank_white.png,stimulus/audwhere_stim/blank_white.png,stimulus/audwhere_stim/blank_white.png,stimulus/audwhere_stim/blank_white.png,0.0,0.0,0.0,0.0,0,0.0,0,0.0,0,0.0,0,0.0,0,0.0,0.0,0,0.0,0,0.0,0,0.0,0,0.0,0,0.0,0,0.0,0,0.0,0,0.0,8,,,,,0,40,40,40,,,,,,,,,382.0274189999909,382.0274189999909,382.0274189999909,382.0274189999909,382.0274189999909,382.0274189999909,382.0274189999909,382.0274189999909,381.9303829993315,382.0274189999909,382.0274189999909,382.0274189999909,381.9303829993315,382.0274189999909,382.0274189999909,382.0274189999909,382.0274189999909,382.0274189999909,382.0274189999909,382.0274189999909,382.0274189999909,382.0274189999909,382.0274189999909,382.0274189999909,382.0274189999909,382.0274189999909,382.0274189999909,381.98038299933154,382.0274189999909,382.0274189999909,382.0274189999909,381.98038299933154,382.0274189999909,382.0274189999909,382.0274189999909,382.0274189999909,382.0274189999909,387.249703999958,387.249703999958,390.2611332910019,None,0,,reldom2_s029,001,2025-03-03_13h48.37.818,Where-B-Scan_AC,2022.2.5,None,
31,First_Order,6.0,audwhere,stimulus/audwhere_stim/dummy.wav,stimulus/audwhere_stim/dummy.wav,stimulus/audwhere_stim/left_toward_270h.wav,stimulus/audwhere_stim/right_toward_280h.wav,stimulus/audwhere_stim/blank_white.png,stimulus/audwhere_stim/side_box.png,stimulus/audwhere_stim/side_yes.png,stimulus/audwhere_stim/side_no.png,None,Side,None,Direction,2,0.0,0,5.125,0,5.125,0,5.125,0,0.0,0.625,0,0.0,0,0.0,0,0.0,0,0.0,0,0.0,0,0.0,1,0.5,1,2.125,0,,,,,0,41,41,41,,,,,,,,,390.2611332910019,390.2611332910019,390.2611332910019,390.2611332910019,390.2611332910019,390.2611332910019,390.2611332910019,390.2611332910019,390.19210424964933,390.2611332910019,390.2611332910019,390.2611332910019,390.19210424964933,390.2611332910019,390.2611332910019,390.2611332910019,392.3667991659604,,390.2611332910019,390.2611332910019,395.43424616596894,390.2611332910019,390.2611332910019,390.2611332910019,390.2611332910019,390.7186244999757,391.77279887499753,390.68920195766646,,392.3667991659604,393.42076491599437,392.3374271666437,,390.2611332910019,395.43424616596894,390.2611332910019,395.43424616596894,395.4744078749791,396.15679016598733,390.2611332910019,2,1,1.440863709023688,reldom2_s029,001,2025-03-03_13h48.37.818,Where-B-Scan_AC,2022.2.5,None,
32,First_Order,6.0,audwhere,stimulus/audwhere_stim/dummy.wav,stimulus/audwhere_stim/dummy.wav,stimulus/audwhere_stim/right_toward_280h.wav,stimulus/audwhere_stim/left_toward_290h.wav,stimulus/audwhere_stim/blank_white.png,stimulus/audwhere_stim/direction_box.png,stimulus/audwhere_stim/direction_yes.png,stimulus/audwhere_stim/direction_no.png,None,Direction,None,Direction,1,0.0,0,5.125,0,5.125,0,5.125,0,0.0,0.625,0,0.0,0,0.0,0,0.0,0,0.0,0,0.0,0,0.0,1,0.5,1,2.125,0,,,,,0,42,42,42,,,,,,,,,396.367100540956,396.367100540956,396.367100540956,396.367100540956,396.367100540956,396.367100540956,396.367100540956,396.367100540956,396.29012349932066,396.367100540956,396.367100540956,396.367100540956,396.29012349932066,396.367100540956,396.367100540956,396.367100540956,398.443691665947,,396.367100540956,396.367100540956,401.53140325000277,396.367100540956,396.367100540956,396.367100540956,396.367100540956,396.8287373329513,397.8890893329517,396.7991088326128,,398.443691665947,399.5051257079467,398.41414016666045,,396.367100540956,401.53140325000277,396.367100540956,401.53140325000277,401.57224091596436,402.2603624999756,396.367100540956,1,1,1.350637833995279,reldom2_s029,001,2025-03-03_13h48.37.818,Where-B-Scan_AC,2022.2.5,None,
33,First_Order,6.0,audwhere,stimulus/audwhere_stim/dummy.wav,stimulus/audwhere_stim/dummy.wav,stimulus/audwhere_stim/left_toward_270h.wav,stimulus/audwhere_stim/left_away_300h.wav,stimulus/audwhere_stim/blank_white.png,stimulus/audwhere_stim/side_box.png,stimulus/audwhere_stim/side_yes.png,stimulus/audwhere_stim/side_no.png,None,Side,None,Side,1,0.0,0,5.125,0,5.125,0,5.125,0,0.0,0.625,0,0.0,0,0.0,0,0.0,0,0.0,0,0.0,0,0.0,1,0.5,1,2.125,0,,,,,0,43,43,43,,,,,,,,,402.47079083300196,402.47079083300196,402.47079083300196,402.47079083300196,402.47079083300196,402.47079083300196,402.47079083300196,402.47079083300196,402.3936958333089,402.47079083300196,402.47079083300196,402.47079083300196,402.3936958333089,402.47079083300196,402.47079083300196,402.47079083300196,404.58583674998954,,402.47079083300196,402.47079083300196,407.6285147909657,402.47079083300196,402.47079083300196,402.47079083300196,402.47079083300196,402.93127462494886,403.9889847909799,402.9017451246657,,404.58583674998954,405.648566666001,404.5562722916404,,402.47079083300196,407.6285147909657,402.47079083300196,407.6285147909657,407.6696439999505,408.3567572909524,402.47079083300196,1,1,1.7663538749911822,reldom2_s029,001,2025-03-03_13h48.37.818,Where-B-Scan_AC,2022.2.5,None,
34,First_Order,6.0,audwhere,stimulus/audwhere_stim/dummy.wav,stimulus/audwhere_stim/dummy.wav,stimulus/audwhere_stim/right_toward_300h.wav,stimulus/audwhere_stim/left_toward_290h.wav,stimulus/audwhere_stim/blank_white.png,stimulus/audwhere_stim/side_box.png,stimulus/audwhere_stim/side_yes.png,stimulus/audwhere_stim/side_no.png,None,Side,None,Direction,2,0.0,0,5.125,0,5.125,0,5.125,0,0.0,0.625,0,0.0,0,0.0,0,0.0,0,0.0,0,0.0,0,0.0,1,0.5,1,2.125,0,,,,,0,44,44,44,,,,,,,,,408.5658097079722,408.5658097079722,408.5658097079722,408.5658097079722,408.5658097079722,408.5658097079722,408.5658097079722,408.5658097079722,408.4900906242857,408.5658097079722,408.5658097079722,408.5658097079722,408.4900906242857,408.5658097079722,408.5658097079722,408.5658097079722,410.6822359999642,,408.5658097079722,408.5658097079722,413.7242775829509,408.5658097079722,408.5658097079722,408.5658097079722,408.5658097079722,409.0265091249603,410.08520341594703,408.99559808266736,,410.6822359999642,411.7441928329645,410.6530133746603,,408.5658097079722,413.7242775829509,408.5658097079722,413.7242775829509,413.7651278330013,414.45348912494956,408.5658097079722,2,1,1.4120878329849802,reldom2_s029,001,2025-03-03_13h48.37.818,Where-B-Scan_AC,2022.2.5,None,
0,0.0,None,fixation,stimulus/audwhere_stim/blank_white.png,stimulus/audwhere_stim/blank_white.png,stimulus/viswhere_stim/blank_white.png,stimulus/viswhere_stim/blank_white.png,stimulus/audwhere_stim/blank_white.png,stimulus/audwhere_stim/blank_white.png,stimulus/audwhere_stim/blank_white.png,stimulus/audwhere_stim/blank_white.png,0.0,0.0,0.0,0.0,0,0.0,0,0.0,0,0.0,0,0.0,0,0.0,0.0,0,0.0,0,0.0,0,0.0,0,0.0,0,0.0,0,0.0,0,0.0,0,0.0,8,,,,,0,45,45,45,,,,,,,,,414.6859122499591,414.6859122499591,414.6859122499591,414.6859122499591,414.6859122499591,414.6859122499591,414.6859122499591,414.6859122499591,414.5868224582829,414.6859122499591,414.6859122499591,414.6859122499591,414.5868224582829,414.6859122499591,414.6859122499591,414.6859122499591,414.6859122499591,414.6859122499591,414.6859122499591,414.6859122499591,414.6859122499591,414.6859122499591,414.6859122499591,414.6859122499591,414.6859122499591,414.6859122499591,414.6859122499591,414.6368224582829,414.6859122499591,414.6859122499591,414.6859122499591,414.6368224582829,414.6859122499591,414.6859122499591,414.6859122499591,414.6859122499591,414.6859122499591,419.88305274996674,419.88305274996674,422.83534224994946,None,0,,reldom2_s029,001,2025-03-03_13h48.37.818,Where-B-Scan_AC,2022.2.5,None,
35,Second_Order,6.0,audwhere,stimulus/audwhere_stim/left_toward_280h.wav,stimulus/audwhere_stim/right_toward_270h.wav,stimulus/audwhere_stim/left_away_300h.wav,stimulus/audwhere_stim/right_away_280h.wav,stimulus/audwhere_stim/match_blank.png,stimulus/audwhere_stim/match_box.png,stimulus/audwhere_stim/match_yes.png,stimulus/audwhere_stim/match_no.png,1.0,Match,Direction,Direction,1,5.125,0,5.125,0,5.125,0,5.125,0,0.75,0.75,0,0.0,0,0.0,0,0.0,0,0.0,1,0.5,1,2.125,1,0.5,1,2.125,0,,,,,0,46,46,46,,,,,,,,,422.83534224994946,427.9548034159816,422.83534224994946,422.83534224994946,422.83534224994946,422.83534224994946,423.29141991597135,424.27819495799486,423.3054357076219,,424.91344499995466,425.91214316600235,424.92594116664645,,427.9548034159816,428.80538129096385,430.85418208298506,,428.80538129096385,428.80538129096385,433.96901762497146,428.80538129096385,428.80538129096385,428.80538129096385,428.80538129096385,429.25866395799676,430.30823374999454,429.22955133265737,,430.85418208298506,431.90859937499044,430.82507083262703,,428.80538129096385,433.96901762497146,428.80538129096385,433.96901762497146,433.96901762497146,,428.80538129096385,2,0,2.7629182919627056,reldom2_s029,001,2025-03-03_13h48.37.818,Where-B-Scan_AC,2022.2.5,None,
36,Second_Order,6.0,audwhere,stimulus/audwhere_stim/left_toward_300h.wav,stimulus/audwhere_stim/right_toward_280h.wav,stimulus/audwhere_stim/left_away_300h.wav,stimulus/audwhere_stim/right_away_300h.wav,stimulus/audwhere_stim/match_blank.png,stimulus/audwhere_stim/match_box.png,stimulus/audwhere_stim/match_yes.png,stimulus/audwhere_stim/match_no.png,1.0,Match,Direction,Direction,1,5.125,0,5.125,0,5.125,0,5.125,0,0.625,0.625,0,0.0,0,0.0,0,0.0,0,0.0,1,0.5,1,2.125,1,0.5,1,2.125,0,,,,,0,47,47,47,,,,,,,,,434.77016891597304,439.88240883295657,434.77016891597304,434.77016891597304,434.77016891597304,434.77016891597304,435.2204164159484,436.20688558300026,435.23317841662015,,436.85394408297725,437.84353204094805,436.85747079161615,,439.88240883295657,440.6116785409977,442.65038812498096,,440.6116785409977,440.6116785409977,445.79565695795463,440.6116785409977,440.6116785409977,440.6116785409977,440.6116785409977,441.06331462500384,442.10603812499903,441.03410262463535,,442.65038812498096,443.6993618749548,442.62128391664396,,440.6116785409977,445.79565695795463,440.6116785409977,445.79565695795463,445.79565695795463,446.47572320798645,440.6116785409977,2,0,1.6419654589844868,reldom2_s029,001,2025-03-03_13h48.37.818,Where-B-Scan_AC,2022.2.5,None,
0,0.0,None,fixation,stimulus/audwhere_stim/blank_white.png,stimulus/audwhere_stim/blank_white.png,stimulus/viswhere_stim/blank_white.png,stimulus/viswhere_stim/blank_white.png,stimulus/audwhere_stim/blank_white.png,stimulus/audwhere_stim/blank_white.png,stimulus/audwhere_stim/blank_white.png,stimulus/audwhere_stim/blank_white.png,0.0,0.0,0.0,0.0,0,0.0,0,0.0,0,0.0,0,0.0,0,0.0,0.0,0,0.0,0,0.0,0,0.0,0,0.0,0,0.0,0,0.0,0,0.0,0,0.0,10,,,,,0,48,48,48,,,,,,,,,446.70468049997,446.70468049997,446.70468049997,446.70468049997,446.70468049997,446.70468049997,446.70468049997,446.70468049997,446.6090565413198,446.70468049997,446.70468049997,446.70468049997,446.6090565413198,446.70468049997,446.70468049997,446.70468049997,446.70468049997,446.70468049997,446.70468049997,446.70468049997,446.70468049997,446.70468049997,446.70468049997,446.70468049997,446.70468049997,446.70468049997,446.70468049997,446.6590565413198,446.70468049997,446.70468049997,446.70468049997,446.6590565413198,446.70468049997,446.70468049997,446.70468049997,446.70468049997,446.70468049997,451.89032316597877,451.89032316597877,456.9046052079648,None,0,,reldom2_s029,001,2025-03-03_13h48.37.818,Where-B-Scan_AC,2022.2.5,None,
37,First_Order,7.0,viswhere,stimulus/viswhere_stim/blank_white.png,stimulus/viswhere_stim/blank_white.png,stimulus/viswhere_stim/150-deg_dot-left_turquoise.png,stimulus/viswhere_stim/120-deg_dot-left_mediumslateblue.png,stimulus/viswhere_stim/blank_white.png,stimulus/viswhere_stim/line_box.png,stimulus/viswhere_stim/line_yes.png,stimulus/viswhere_stim/line_no.png,None,Line,None,Dot,2,0.0,0,5.125,0,5.125,0,5.125,0,0.0,0.625,0,0.0,0,0.0,1,0.5,1,2.125,0,0.0,0,0.0,0,0.0,0,0.0,0,,,,,0,49,49,49,,,,,,,,,456.9046052079648,456.9046052079648,456.9046052079648,456.9046052079648,456.9046052079648,456.9046052079648,456.9046052079648,456.9046052079648,456.8860128326147,456.9046052079648,456.9046052079648,456.9046052079648,456.8860128326147,456.9046052079648,456.9046052079648,456.9046052079648,459.01006616599625,462.96691091597313,456.9046052079648,456.9046052079648,462.037659915979,457.38435391598614,458.3976290409919,459.01006616599625,460.0284886249574,456.9046052079648,456.9046052079648,456.8860128326147,456.9046052079648,456.9046052079648,456.9046052079648,456.8860128326147,456.9046052079648,456.9046052079648,462.037659915979,456.9046052079648,462.037659915979,462.1254281249712,462.7502762499498,456.9046052079648,2,1,1.3599502500146627,reldom2_s029,001,2025-03-03_13h48.37.818,Where-B-Scan_AC,2022.2.5,None,
38,First_Order,7.0,viswhere,stimulus/viswhere_stim/blank_white.png,stimulus/viswhere_stim/blank_white.png,stimulus/viswhere_stim/120-deg_dot-left_mediumslateblue.png,stimulus/viswhere_stim/120-deg_dot-right_seagreen.png,stimulus/viswhere_stim/blank_white.png,stimulus/viswhere_stim/dot_box.png,stimulus/viswhere_stim/dot_yes.png,stimulus/viswhere_stim/dot_no.png,None,Dot,None,Line,2,0.0,0,5.125,0,5.125,0,5.125,0,0.0,0.625,0,0.0,0,0.0,1,0.5,1,2.125,0,0.0,0,0.0,0,0.0,0,0.0,0,,,,,0,50,50,50,,,,,,,,,462.96691091597313,462.96691091597313,462.96691091597313,462.96691091597313,462.96691091597313,462.96691091597313,462.96691091597313,462.96691091597313,462.9463587493131,462.96691091597313,462.96691091597313,462.96691091597313,462.9463587493131,462.96691091597313,462.96691091597313,462.96691091597313,465.0737877499778,469.03491441597,462.96691091597313,462.96691091597313,468.09553320799023,463.44216558296466,464.44779033295345,465.0737877499778,466.0836612909916,462.96691091597313,462.96691091597313,462.96302541597976,462.96691091597313,462.96691091597313,462.96691091597313,462.96302541597976,462.96691091597313,462.96691091597313,468.09553320799023,462.96691091597313,468.09553320799023,468.1960162909818,468.8171679999796,462.96691091597313,2,1,1.321568584011402,reldom2_s029,001,2025-03-03_13h48.37.818,Where-B-Scan_AC,2022.2.5,None,
39,First_Order,7.0,viswhere,stimulus/viswhere_stim/blank_white.png,stimulus/viswhere_stim/blank_white.png,stimulus/viswhere_stim/60-deg_dot-right_salmon.png,stimulus/viswhere_stim/60-deg_dot-left_peru.png,stimulus/viswhere_stim/blank_white.png,stimulus/viswhere_stim/line_box.png,stimulus/viswhere_stim/line_yes.png,stimulus/viswhere_stim/line_no.png,None,Line,None,Line,1,0.0,0,5.125,0,5.125,0,5.125,0,0.0,0.625,0,0.0,0,0.0,1,0.5,1,2.125,0,0.0,0,0.0,0,0.0,0,0.0,0,,,,,0,51,51,51,,,,,,,,,469.03491441597,469.03491441597,469.03491441597,469.03491441597,469.03491441597,469.03491441597,469.03491441597,469.03491441597,469.0140816242977,469.03491441597,469.03491441597,469.03491441597,469.0140816242977,469.03491441597,469.03491441597,469.03491441597,471.14732154097874,475.09660583297955,469.03491441597,469.03491441597,474.1642987499945,469.5109733749996,470.518443540961,471.14732154097874,472.16272187494906,469.03491441597,469.03491441597,469.0140816242977,469.03491441597,469.03491441597,469.03491441597,469.0140816242977,469.03491441597,469.03491441597,474.1642987499945,469.03491441597,474.1642987499945,474.2603319999762,474.893552790978,469.03491441597,1,1,1.3918695420143194,reldom2_s029,001,2025-03-03_13h48.37.818,Where-B-Scan_AC,2022.2.5,None,
40,First_Order,7.0,viswhere,stimulus/viswhere_stim/blank_white.png,stimulus/viswhere_stim/blank_white.png,stimulus/viswhere_stim/60-deg_dot-right_slateblue.png,stimulus/viswhere_stim/90-deg_dot-right_royalblue.png,stimulus/viswhere_stim/blank_white.png,stimulus/viswhere_stim/dot_box.png,stimulus/viswhere_stim/dot_yes.png,stimulus/viswhere_stim/dot_no.png,None,Dot,None,Dot,1,0.0,0,5.125,0,5.125,0,5.125,0,0.0,0.625,0,0.0,0,0.0,1,0.5,1,2.125,0,0.0,0,0.0,0,0.0,0,0.0,0,,,,,0,52,52,52,,,,,,,,,475.09660583297955,475.09660583297955,475.09660583297955,475.09660583297955,475.09660583297955,475.09660583297955,475.09660583297955,475.09660583297955,475.0746018333205,475.09660583297955,475.09660583297955,475.09660583297955,475.0746018333205,475.09660583297955,475.09660583297955,475.09660583297955,477.193854290992,481.232647790981,475.09660583297955,475.09660583297955,480.23711570794694,475.57331870798953,476.58403524995083,477.193854290992,478.21024554094765,475.09660583297955,475.09660583297955,475.09126849998717,475.09660583297955,475.09660583297955,475.09660583297955,475.09126849998717,475.09660583297955,475.09660583297955,480.23711570794694,475.09660583297955,480.23711570794694,480.3201165829669,480.9550367909833,475.09660583297955,1,1,1.2866121670231223,reldom2_s029,001,2025-03-03_13h48.37.818,Where-B-Scan_AC,2022.2.5,None,
0,0.0,None,fixation,stimulus/audwhere_stim/blank_white.png,stimulus/audwhere_stim/blank_white.png,stimulus/viswhere_stim/blank_white.png,stimulus/viswhere_stim/blank_white.png,stimulus/audwhere_stim/blank_white.png,stimulus/audwhere_stim/blank_white.png,stimulus/audwhere_stim/blank_white.png,stimulus/audwhere_stim/blank_white.png,0.0,0.0,0.0,0.0,0,0.0,0,0.0,0,0.0,0,0.0,0,0.0,0.0,0,0.0,0,0.0,0,0.0,0,0.0,0,0.0,0,0.0,0,0.0,0,0.0,8,,,,,0,53,53,53,,,,,,,,,481.232647790981,481.232647790981,481.232647790981,481.232647790981,481.232647790981,481.232647790981,481.232647790981,481.232647790981,481.13535270830226,481.232647790981,481.232647790981,481.232647790981,481.13535270830226,481.232647790981,481.232647790981,481.232647790981,481.232647790981,481.232647790981,481.232647790981,481.232647790981,481.232647790981,481.232647790981,481.232647790981,481.232647790981,481.232647790981,481.232647790981,481.232647790981,481.1853527083023,481.232647790981,481.232647790981,481.232647790981,481.1853527083023,481.232647790981,481.232647790981,481.232647790981,481.232647790981,481.232647790981,486.45027549995575,486.45027549995575,489.33711379097076,None,0,,reldom2_s029,001,2025-03-03_13h48.37.818,Where-B-Scan_AC,2022.2.5,None,
41,Second_Order,7.0,viswhere,stimulus/viswhere_stim/60-deg_dot-right_seagreen.png,stimulus/viswhere_stim/30-deg_dot-right_mediumslateblue.png,stimulus/viswhere_stim/60-deg_dot-left_mediumslateblue.png,stimulus/viswhere_stim/150-deg_dot-left_salmon.png,stimulus/audwhere_stim/match_blank.png,stimulus/audwhere_stim/match_box.png,stimulus/audwhere_stim/match_yes.png,stimulus/audwhere_stim/match_no.png,1.0,Match,Dot,Dot,1,5.125,0,5.125,0,5.125,0,5.125,0,0.75,0.75,1,0.5,1,2.125,1,0.5,1,2.125,0,0.0,0,0.0,0,0.0,0,0.0,0,,,,,0,54,54,54,,,,,,,,,489.33711379097076,494.4585232079844,489.8132769999793,490.8121177079738,491.4339902079664,492.432491540967,489.33711379097076,489.33711379097076,489.35227808330285,489.33711379097076,489.33711379097076,489.33711379097076,489.35227808330285,489.33711379097076,494.4585232079844,495.2523347910028,497.3280984159792,501.2218533330015,495.2523347910028,495.2523347910028,500.38749758299673,495.69628487498267,496.71398874995066,497.3280984159792,498.33096125000156,495.2523347910028,495.2523347910028,495.22582712432677,495.2523347910028,495.2523347910028,495.2523347910028,495.22582712432677,495.2523347910028,495.2523347910028,500.38749758299673,495.2523347910028,500.38749758299673,500.4441671659588,501.2218533330015,495.2523347910028,2,0,1.153040917008184,reldom2_s029,001,2025-03-03_13h48.37.818,Where-B-Scan_AC,2022.2.5,None,
42,Second_Order,7.0,viswhere,stimulus/viswhere_stim/90-deg_dot-right_goldenrod.png,stimulus/viswhere_stim/120-deg_dot-right_mediumslateblue.png,stimulus/viswhere_stim/60-deg_dot-right_peru.png,stimulus/viswhere_stim/60-deg_dot-left_mediumslateblue.png,stimulus/audwhere_stim/match_blank.png,stimulus/audwhere_stim/match_box.png,stimulus/audwhere_stim/match_yes.png,stimulus/audwhere_stim/match_no.png,2.0,Match,Dot,Line,2,5.125,0,5.125,0,5.125,0,5.125,0,0.625,0.625,1,0.5,1,2.125,1,0.5,1,2.125,0,0.0,0,0.0,0,0.0,0,0.0,0,,,,,0,55,55,55,,,,,,,,,501.2218533330015,506.33530716598034,501.7084888749523,502.70605129096657,503.32869824999943,504.3264568329905,501.2218533330015,501.2218533330015,501.23500045797556,501.2218533330015,501.2218533330015,501.2218533330015,501.23500045797556,501.2218533330015,506.33530716598034,507.0052591659478,509.0802810000023,513.123024999979,507.0052591659478,507.0052591659478,512.1338629999664,507.464533249964,508.47051004099194,509.0802810000023,510.09764162497595,507.0052591659478,507.0052591659478,506.9829247493258,507.0052591659478,507.0052591659478,507.0052591659478,506.9829247493258,507.0052591659478,507.0052591659478,512.1338629999664,507.0052591659478,512.1338629999664,512.207620207977,512.842204665998,507.0052591659478,2,1,0.668500584026333,reldom2_s029,001,2025-03-03_13h48.37.818,Where-B-Scan_AC,2022.2.5,None,
0,0.0,None,fixation,stimulus/audwhere_stim/blank_white.png,stimulus/audwhere_stim/blank_white.png,stimulus/viswhere_stim/blank_white.png,stimulus/viswhere_stim/blank_white.png,stimulus/audwhere_stim/blank_white.png,stimulus/audwhere_stim/blank_white.png,stimulus/audwhere_stim/blank_white.png,stimulus/audwhere_stim/blank_white.png,0.0,0.0,0.0,0.0,0,0.0,0,0.0,0,0.0,0,0.0,0,0.0,0.0,0,0.0,0,0.0,0,0.0,0,0.0,0,0.0,0,0.0,0,0.0,0,0.0,8,,,,,0,56,56,56,,,,,,,,,513.123024999979,513.123024999979,513.123024999979,513.123024999979,513.123024999979,513.123024999979,513.123024999979,513.123024999979,513.0256842082794,513.123024999979,513.123024999979,513.123024999979,513.0256842082794,513.123024999979,513.123024999979,513.123024999979,513.123024999979,513.123024999979,513.123024999979,513.123024999979,513.123024999979,513.123024999979,513.123024999979,513.123024999979,513.123024999979,513.123024999979,513.123024999979,513.0756842082793,513.123024999979,513.123024999979,513.123024999979,513.0756842082793,513.123024999979,513.123024999979,513.123024999979,513.123024999979,513.123024999979,518.3373019580031,518.3373019580031,521.3198131249519,None,0,,reldom2_s029,001,2025-03-03_13h48.37.818,Where-B-Scan_AC,2022.2.5,None,
43,First_Order,8.0,viswhere,stimulus/viswhere_stim/blank_white.png,stimulus/viswhere_stim/blank_white.png,stimulus/viswhere_stim/120-deg_dot-left_lightsseagreen.png,stimulus/viswhere_stim/120-deg_dot-right_royalblue.png,stimulus/viswhere_stim/blank_white.png,stimulus/viswhere_stim/line_box.png,stimulus/viswhere_stim/line_yes.png,stimulus/viswhere_stim/line_no.png,None,Line,None,Line,1,0.0,0,5.125,0,5.125,0,5.125,0,0.0,0.625,0,0.0,0,0.0,1,0.5,1,2.125,0,0.0,0,0.0,0,0.0,0,0.0,0,,,,,0,57,57,57,,,,,,,,,521.3198131249519,521.3198131249519,521.3198131249519,521.3198131249519,521.3198131249519,521.3198131249519,521.3198131249519,521.3198131249519,521.3023500416699,521.3198131249519,521.3198131249519,521.3198131249519,521.3023500416699,521.3198131249519,521.3198131249519,521.3198131249519,523.4303807079559,527.3823312909808,521.3198131249519,521.3198131249519,526.4604359999648,521.7949114159564,522.8017479580012,523.4303807079559,524.4426033329801,521.3198131249519,521.3198131249519,521.3023500416699,521.3198131249519,521.3198131249519,521.3198131249519,521.3023500416699,521.3198131249519,521.3198131249519,526.4604359999648,521.3198131249519,526.4604359999648,526.5436373749981,527.1783818329568,521.3198131249519,1,1,1.3237920840037987,reldom2_s029,001,2025-03-03_13h48.37.818,Where-B-Scan_AC,2022.2.5,None,
44,First_Order,8.0,viswhere,stimulus/viswhere_stim/blank_white.png,stimulus/viswhere_stim/blank_white.png,stimulus/viswhere_stim/60-deg_dot-right_peru.png,stimulus/viswhere_stim/90-deg_dot-right_turquoise.png,stimulus/viswhere_stim/blank_white.png,stimulus/viswhere_stim/dot_box.png,stimulus/viswhere_stim/dot_yes.png,stimulus/viswhere_stim/dot_no.png,None,Dot,None,Dot,1,0.0,0,5.125,0,5.125,0,5.125,0,0.0,0.625,0,0.0,0,0.0,1,0.5,1,2.125,0,0.0,0,0.0,0,0.0,0,0.0,0,,,,,0,58,58,58,,,,,,,,,527.3823312909808,527.3823312909808,527.3823312909808,527.3823312909808,527.3823312909808,527.3823312909808,527.3823312909808,527.3823312909808,527.3620697083146,527.3823312909808,527.3823312909808,527.3823312909808,527.3620697083146,527.3823312909808,527.3823312909808,527.3823312909808,529.4939577079494,533.4472514159861,527.3823312909808,527.3823312909808,532.507842166,527.858556290972,528.8660953329527,529.4939577079494,530.505806290952,527.3823312909808,527.3823312909808,527.3787363749813,527.3823312909808,527.3823312909808,527.3823312909808,527.3787363749813,527.3823312909808,527.3823312909808,532.507842166,527.3823312909808,532.507842166,532.6043419159832,533.2427357909619,527.3823312909808,1,1,1.2512397080427036,reldom2_s029,001,2025-03-03_13h48.37.818,Where-B-Scan_AC,2022.2.5,None,
45,First_Order,8.0,viswhere,stimulus/viswhere_stim/blank_white.png,stimulus/viswhere_stim/blank_white.png,stimulus/viswhere_stim/150-deg_dot-right_lightsseagreen.png,stimulus/viswhere_stim/150-deg_dot-left_royalblue.png,stimulus/viswhere_stim/blank_white.png,stimulus/viswhere_stim/dot_box.png,stimulus/viswhere_stim/dot_yes.png,stimulus/viswhere_stim/dot_no.png,None,Dot,None,Line,2,0.0,0,5.125,0,5.125,0,5.125,0,0.0,0.625,0,0.0,0,0.0,1,0.5,1,2.125,0,0.0,0,0.0,0,0.0,0,0.0,0,,,,,0,59,59,59,,,,,,,,,533.4472514159861,533.4472514159861,533.4472514159861,533.4472514159861,533.4472514159861,533.4472514159861,533.4472514159861,533.4472514159861,533.4260553333055,533.4472514159861,533.4472514159861,533.4472514159861,533.4260553333055,533.4472514159861,533.4472514159861,533.4472514159861,535.5614787079976,539.5138501249603,533.4472514159861,533.4472514159861,538.5883732079528,533.9274809159688,534.9450741659966,535.5614787079976,536.5666224999586,533.4472514159861,533.4472514159861,533.4427219999722,533.4472514159861,533.4472514159861,533.4472514159861,533.4427219999722,533.4472514159861,533.4472514159861,538.5883732079528,533.4472514159861,538.5883732079528,538.671593874984,539.2973850829876,533.4472514159861,2,1,0.9935677089961246,reldom2_s029,001,2025-03-03_13h48.37.818,Where-B-Scan_AC,2022.2.5,None,
46,First_Order,8.0,viswhere,stimulus/viswhere_stim/blank_white.png,stimulus/viswhere_stim/blank_white.png,stimulus/viswhere_stim/30-deg_dot-left_salmon.png,stimulus/viswhere_stim/150-deg_dot-left_turquoise.png,stimulus/viswhere_stim/blank_white.png,stimulus/viswhere_stim/line_box.png,stimulus/viswhere_stim/line_yes.png,stimulus/viswhere_stim/line_no.png,None,Line,None,Dot,2,0.0,0,5.125,0,5.125,0,5.125,0,0.0,0.625,0,0.0,0,0.0,1,0.5,1,2.125,0,0.0,0,0.0,0,0.0,0,0.0,0,,,,,0,60,60,60,,,,,,,,,539.5138501249603,539.5138501249603,539.5138501249603,539.5138501249603,539.5138501249603,539.5138501249603,539.5138501249603,539.5138501249603,539.4925860412962,539.5138501249603,539.5138501249603,539.5138501249603,539.4925860412962,539.5138501249603,539.5138501249603,539.5138501249603,541.6257184999995,545.6591267499607,539.5138501249603,539.5138501249603,544.6410253749928,539.9933642909746,541.0118311659899,541.6257184999995,542.6441377499723,539.5138501249603,539.5138501249603,539.5092527079629,539.5138501249603,539.5138501249603,539.5138501249603,539.5092527079629,539.5138501249603,539.5138501249603,544.6410253749928,539.5138501249603,544.6410253749928,544.7385689579532,545.3673143749475,539.5138501249603,2,1,1.4556779169943184,reldom2_s029,001,2025-03-03_13h48.37.818,Where-B-Scan_AC,2022.2.5,None,
0,0.0,None,fixation,stimulus/audwhere_stim/blank_white.png,stimulus/audwhere_stim/blank_white.png,stimulus/viswhere_stim/blank_white.png,stimulus/viswhere_stim/blank_white.png,stimulus/audwhere_stim/blank_white.png,stimulus/audwhere_stim/blank_white.png,stimulus/audwhere_stim/blank_white.png,stimulus/audwhere_stim/blank_white.png,0.0,0.0,0.0,0.0,0,0.0,0,0.0,0,0.0,0,0.0,0,0.0,0.0,0,0.0,0,0.0,0,0.0,0,0.0,0,0.0,0,0.0,0,0.0,0,0.0,9,,,,,0,61,61,61,,,,,,,,,545.6591267499607,545.6591267499607,545.6591267499607,545.6591267499607,545.6591267499607,545.6591267499607,545.6591267499607,545.6591267499607,545.5616859583146,545.6591267499607,545.6591267499607,545.6591267499607,545.5616859583146,545.6591267499607,545.6591267499607,545.6591267499607,545.6591267499607,545.6591267499607,545.6591267499607,545.6591267499607,545.6591267499607,545.6591267499607,545.6591267499607,545.6591267499607,545.6591267499607,545.6591267499607,545.6591267499607,545.6116859583145,545.6591267499607,545.6591267499607,545.6591267499607,545.6116859583145,545.6591267499607,545.6591267499607,545.6591267499607,545.6591267499607,545.6591267499607,550.8425783749553,550.8425783749553,554.8400499999989,None,0,,reldom2_s029,001,2025-03-03_13h48.37.818,Where-B-Scan_AC,2022.2.5,None,
47,Second_Order,8.0,viswhere,stimulus/viswhere_stim/90-deg_dot-left_lightsseagreen.png,stimulus/viswhere_stim/120-deg_dot-left_royalblue.png,stimulus/viswhere_stim/30-deg_dot-right_mediumslateblue.png,stimulus/viswhere_stim/60-deg_dot-right_lightsseagreen.png,stimulus/audwhere_stim/match_blank.png,stimulus/audwhere_stim/match_box.png,stimulus/audwhere_stim/match_yes.png,stimulus/audwhere_stim/match_no.png,1.0,Match,Dot,Dot,1,5.125,0,5.125,0,5.125,0,5.125,0,0.75,0.75,1,0.5,1,2.125,1,0.5,1,2.125,0,0.0,0,0.0,0,0.0,0,0.0,0,,,,,0,62,62,62,,,,,,,,,554.8400499999989,559.9589780409588,555.31316362496,556.2997352909879,556.9483452909626,557.9375081249746,554.8400499999989,554.8400499999989,554.8522571246527,554.8400499999989,554.8400499999989,554.8400499999989,554.8522571246527,554.8400499999989,559.9589780409588,560.7503733329941,562.8326372909942,566.7199465829763,560.7503733329941,560.7503733329941,565.8846571249887,561.2146611659555,562.2247254159884,562.8326372909942,563.8521975409822,560.7503733329941,560.7503733329941,560.7272635413178,560.7503733329941,560.7503733329941,560.7503733329941,560.7272635413178,560.7503733329941,560.7503733329941,565.8846571249887,560.7503733329941,565.8846571249887,565.9540377499652,,560.7503733329941,2,0,1.028708249970805,reldom2_s029,001,2025-03-03_13h48.37.818,Where-B-Scan_AC,2022.2.5,None,
48,Second_Order,8.0,viswhere,stimulus/viswhere_stim/60-deg_dot-left_seagreen.png,stimulus/viswhere_stim/90-deg_dot-left_peru.png,stimulus/viswhere_stim/30-deg_dot-right_turquoise.png,stimulus/viswhere_stim/30-deg_dot-left_lightsseagreen.png,stimulus/audwhere_stim/match_blank.png,stimulus/audwhere_stim/match_box.png,stimulus/audwhere_stim/match_yes.png,stimulus/audwhere_stim/match_no.png,2.0,Match,Dot,Line,2,5.125,0,5.125,0,5.125,0,5.125,0,0.625,0.625,1,0.5,1,2.125,1,0.5,1,2.125,0,0.0,0,0.0,0,0.0,0,0.0,0,,,,,0,63,63,63,,,,,,,,,566.7199465829763,571.8376879999996,567.205039582972,568.1956451659789,568.8315091249533,569.8280480829999,566.7199465829763,566.7199465829763,566.733298791002,566.7199465829763,566.7199465829763,566.7199465829763,566.733298791002,566.7199465829763,571.8376879999996,572.5074827909702,574.5870544999489,578.6220430829562,572.5074827909702,572.5074827909702,577.6312099159695,572.967005249986,573.9780977079645,574.5870544999489,575.605650790967,572.5074827909702,572.5074827909702,572.4838991662914,572.5074827909702,572.5074827909702,572.5074827909702,572.4838991662914,572.5074827909702,572.5074827909702,577.6312099159695,572.5074827909702,577.6312099159695,577.699604415975,578.3298500409583,572.5074827909702,2,1,1.217482750013005,reldom2_s029,001,2025-03-03_13h48.37.818,Where-B-Scan_AC,2022.2.5,None,
0,0.0,None,fixation,stimulus/audwhere_stim/blank_white.png,stimulus/audwhere_stim/blank_white.png,stimulus/viswhere_stim/blank_white.png,stimulus/viswhere_stim/blank_white.png,stimulus/audwhere_stim/blank_white.png,stimulus/audwhere_stim/blank_white.png,stimulus/audwhere_stim/blank_white.png,stimulus/audwhere_stim/blank_white.png,0.0,0.0,0.0,0.0,0,0.0,0,0.0,0,0.0,0,0.0,0,0.0,0.0,0,0.0,0,0.0,0,0.0,0,0.0,0,0.0,0,0.0,0,0.0,0,0.0,16,,,,,0,64,64,64,,,,,,,,,578.6220430829562,578.6220430829562,578.6220430829562,578.6220430829562,578.6220430829562,578.6220430829562,578.6220430829562,578.6220430829562,578.5238941663023,578.6220430829562,578.6220430829562,578.6220430829562,578.5238941663023,578.6220430829562,578.6220430829562,578.6220430829562,578.6220430829562,578.6220430829562,578.6220430829562,578.6220430829562,578.6220430829562,578.6220430829562,578.6220430829562,578.6220430829562,578.6220430829562,578.6220430829562,578.6220430829562,578.5738941663022,578.6220430829562,578.6220430829562,578.6220430829562,578.5738941663022,578.6220430829562,578.6220430829562,578.6220430829562,578.6220430829562,578.6220430829562,583.852706332982,583.852706332982,594.7578568329918,None,0,,reldom2_s029,001,2025-03-03_13h48.37.818,Where-B-Scan_AC,2022.2.5,None,
