Trial,Order,Block,Type,Stimuli_File1,Stimuli_File2,Stimuli_File3,Stimuli_File4,Cue_File1,Cue_File2,Response_File_Yes,Response_File_No,Match,Cue_Dimension,Pair1_Dimension,Pair2_Dimension,Key,Cue1_Duration,Cue1_Onset,Cue2_Duration,Cue2_Onset,ResponseYes_Duration,ResponseYes_Onset,ResponseNo_Duration,ResponseNo_Onset,ITI_Within,ITI_Between,Image1_Duration,Image1_Onset,Image2_Duration,Image2_Onset,Image3_Duration,Image3_Onset,Image4_Duration,Image4_Onset,Sound1_Duration,Sound1_Onset,Sound2_Duration,Sound2_Onset,Sound3_Duration,Sound3_Onset,Sound4_Duration,Sound4_Onset,Fixation_Duration,trials_2.thisRepN,trials_2.thisTrialN,trials_2.thisN,trials_2.thisIndex,trials.thisRepN,trials.thisTrialN,trials.thisN,trials.thisIndex,text_start.started,key_resp_start.started,key_resp_start.keys,key_resp_start.rt,text2.started,key_resp_2.started,key_resp_2.keys,key_resp_2.rt,cue_file1.started,cue_file1.stopped,image_1.started,image_1.stopped,image_2.started,image_2.stopped,sound_icon1.started,sound_icon1.stopped,sound_1.started,sound_1.stopped,sound_icon2.started,sound_icon2.stopped,sound_2.started,sound_2.stopped,image_blank_1.started,image_blank_1.stopped,key_press.started,key_press.stopped,fixation_text.started,cue_file2.started,cue_file2.stopped,image_3.started,image_3.stopped,image_4.started,image_4.stopped,sound_icon3.started,sound_icon3.stopped,sound_3.started,sound_3.stopped,sound_icon4.started,sound_icon4.stopped,sound_4.started,sound_4.stopped,response_yes.started,response_yes.stopped,response_no.started,response_no.stopped,iti_blank.started,iti_blank.stopped,fixation_text.stopped,key_press.keys,key_press.corr,key_press.rt,participant,session,date,expName,psychopyVersion,frameRate,
,,,,,,,,,,,,,,,,,,,,,,,,,,,,,,,,,,,,,,,,,,,,,,,,,,,,6.905378625029698,6.905378625029698,2,1.532921040954534,,,,,,,,,,,,,,,,,,,,,,,,,,,,,,,,,,,,,,,,,,,,,,,,reldom2_s029,001,2025-03-03_14h06.04.427,Where-B-Scan_AC,2022.2.5,None,
,,,,,,,,,,,,,,,,,,,,,,,,,,,,,,,,,,,,,,,,,,,,0,0,0,0,,,,,,,,,8.474730709043797,8.474730709043797,5,15.762050040997565,,,,,,,,,,,,,,,,,,,,,,,,,,,,,,,,,,,,,,,,,,,,reldom2_s029,001,2025-03-03_14h06.04.427,Where-B-Scan_AC,2022.2.5,None,
,,,,,,,,,,,,,,,,,,,,,,,,,,,,,,,,,,,,,,,,,,,,1,0,1,0,,,,,,,,,24.24675237503834,24.24675237503834,5,1.9906755829579197,,,,,,,,,,,,,,,,,,,,,,,,,,,,,,,,,,,,,,,,,,,,reldom2_s029,001,2025-03-03_14h06.04.427,Where-B-Scan_AC,2022.2.5,None,
,,,,,,,,,,,,,,,,,,,,,,,,,,,,,,,,,,,,,,,,,,,,2,0,2,0,,,,,,,,,26.25897695904132,26.25897695904132,5,1.978837416972965,,,,,,,,,,,,,,,,,,,,,,,,,,,,,,,,,,,,,,,,,,,,reldom2_s029,001,2025-03-03_14h06.04.427,Where-B-Scan_AC,2022.2.5,None,
,,,,,,,,,,,,,,,,,,,,,,,,,,,,,,,,,,,,,,,,,,,,3,0,3,0,,,,,,,,,28.25615283404477,28.25615283404477,5,1.9821632499806583,,,,,,,,,,,,,,,,,,,,,,,,,,,,,,,,,,,,,,,,,,,,reldom2_s029,001,2025-03-03_14h06.04.427,Where-B-Scan_AC,2022.2.5,None,
0,0.0,None,fixation,stimulus/audwhere_stim/blank_white.png,stimulus/audwhere_stim/blank_white.png,stimulus/viswhere_stim/blank_white.png,stimulus/viswhere_stim/blank_white.png,stimulus/audwhere_stim/blank_white.png,stimulus/audwhere_stim/blank_white.png,stimulus/audwhere_stim/blank_white.png,stimulus/audwhere_stim/blank_white.png,0.0,0.0,0.0,0.0,0,0.0,0,0.0,0,0.0,0,0.0,0,0.0,0.0,0,0.0,0,0.0,0,0.0,0,0.0,0,0.0,0,0.0,0,0.0,0,0.0,16,,,,,0,0,0,0,,,,,,,,,30.452073500026017,30.452073500026017,30.452073500026017,30.452073500026017,30.452073500026017,30.452073500026017,30.452073500026017,30.452073500026017,30.356737208696238,30.452073500026017,30.452073500026017,30.452073500026017,30.356737208696238,30.452073500026017,30.452073500026017,30.452073500026017,30.452073500026017,30.452073500026017,30.452073500026017,30.452073500026017,30.452073500026017,30.452073500026017,30.452073500026017,30.452073500026017,30.452073500026017,30.452073500026017,30.452073500026017,30.406737208696235,30.452073500026017,30.452073500026017,30.452073500026017,30.406737208696235,30.452073500026017,30.452073500026017,30.452073500026017,30.452073500026017,30.452073500026017,35.629721292003524,35.629721292003524,46.69036150001921,None,0,,reldom2_s029,001,2025-03-03_14h06.04.427,Where-B-Scan_AC,2022.2.5,None,
1,First_Order,1.0,audwhere,stimulus/audwhere_stim/dummy.wav,stimulus/audwhere_stim/dummy.wav,stimulus/audwhere_stim/right_away_290h.wav,stimulus/audwhere_stim/right_toward_300h.wav,stimulus/audwhere_stim/blank_white.png,stimulus/audwhere_stim/direction_box.png,stimulus/audwhere_stim/direction_yes.png,stimulus/audwhere_stim/direction_no.png,None,Direction,None,Side,2,0.0,0,5.125,0,5.125,0,5.125,0,0.0,0.625,0,0.0,0,0.0,0,0.0,0,0.0,0,0.0,0,0.0,1,0.5,1,2.125,0,,,,,0,1,1,1,,,,,,,,,46.69036150001921,46.69036150001921,46.69036150001921,46.69036150001921,46.69036150001921,46.69036150001921,46.69036150001921,46.69036150001921,46.624693084019235,46.69036150001921,46.69036150001921,46.69036150001921,46.624693084019235,46.69036150001921,46.69036150001921,46.69036150001921,48.78593625000212,52.8109910840285,46.69036150001921,46.69036150001921,51.85926333401585,46.69036150001921,46.69036150001921,46.69036150001921,46.69036150001921,47.18178899999475,48.25092704204144,47.15367908368741,,48.78593625000212,49.81409095902927,48.75758779165723,,46.69036150001921,51.85926333401585,46.69036150001921,51.85926333401585,51.89859558403259,52.566657292016316,46.69036150001921,2,1,1.7531428749789484,reldom2_s029,001,2025-03-03_14h06.04.427,Where-B-Scan_AC,2022.2.5,None,
2,First_Order,1.0,audwhere,stimulus/audwhere_stim/dummy.wav,stimulus/audwhere_stim/dummy.wav,stimulus/audwhere_stim/left_toward_290h.wav,stimulus/audwhere_stim/right_toward_280h.wav,stimulus/audwhere_stim/blank_white.png,stimulus/audwhere_stim/side_box.png,stimulus/audwhere_stim/side_yes.png,stimulus/audwhere_stim/side_no.png,None,Side,None,Direction,2,0.0,0,5.125,0,5.125,0,5.125,0,0.0,0.625,0,0.0,0,0.0,0,0.0,0,0.0,0,0.0,0,0.0,1,0.5,1,2.125,0,,,,,0,2,2,2,,,,,,,,,52.8109910840285,52.8109910840285,52.8109910840285,52.8109910840285,52.8109910840285,52.8109910840285,52.8109910840285,52.8109910840285,52.73889316737962,52.8109910840285,52.8109910840285,52.8109910840285,52.73889316737962,52.8109910840285,52.8109910840285,52.8109910840285,54.920340042037424,58.921680750034284,52.8109910840285,52.8109910840285,57.964187292032875,52.8109910840285,52.8109910840285,52.8109910840285,52.8109910840285,53.25798062502872,54.29173479200108,53.229738333673836,,54.920340042037424,55.94903579202946,54.89193825069039,,52.8109910840285,57.964187292032875,52.8109910840285,57.964187292032875,58.00363404204836,58.67318966699531,52.8109910840285,2,1,1.6251824159407988,reldom2_s029,001,2025-03-03_14h06.04.427,Where-B-Scan_AC,2022.2.5,None,
3,First_Order,1.0,audwhere,stimulus/audwhere_stim/dummy.wav,stimulus/audwhere_stim/dummy.wav,stimulus/audwhere_stim/right_toward_280h.wav,stimulus/audwhere_stim/right_away_300h.wav,stimulus/audwhere_stim/blank_white.png,stimulus/audwhere_stim/direction_box.png,stimulus/audwhere_stim/direction_yes.png,stimulus/audwhere_stim/direction_no.png,None,Direction,None,Side,2,0.0,0,5.125,0,5.125,0,5.125,0,0.0,0.625,0,0.0,0,0.0,0,0.0,0,0.0,0,0.0,0,0.0,1,0.5,1,2.125,0,,,,,0,3,3,3,,,,,,,,,58.921680750034284,58.921680750034284,58.921680750034284,58.921680750034284,58.921680750034284,58.921680750034284,58.921680750034284,58.921680750034284,58.845772917355255,58.921680750034284,58.921680750034284,58.921680750034284,58.845772917355255,58.921680750034284,58.921680750034284,58.921680750034284,61.00193987501552,,58.921680750034284,58.921680750034284,64.0853185839951,58.921680750034284,58.921680750034284,58.921680750034284,58.921680750034284,59.377488792000804,60.41714808403049,59.34879345866308,,61.00193987501552,62.04419558402151,60.973857208682844,,58.921680750034284,64.0853185839951,58.921680750034284,64.0853185839951,64.1254075000179,64.80523358401842,58.921680750034284,2,1,1.543243457970675,reldom2_s029,001,2025-03-03_14h06.04.427,Where-B-Scan_AC,2022.2.5,None,
4,First_Order,1.0,audwhere,stimulus/audwhere_stim/dummy.wav,stimulus/audwhere_stim/dummy.wav,stimulus/audwhere_stim/left_toward_270h.wav,stimulus/audwhere_stim/right_toward_300h.wav,stimulus/audwhere_stim/blank_white.png,stimulus/audwhere_stim/direction_box.png,stimulus/audwhere_stim/direction_yes.png,stimulus/audwhere_stim/direction_no.png,None,Direction,None,Direction,1,0.0,0,5.125,0,5.125,0,5.125,0,0.0,0.625,0,0.0,0,0.0,0,0.0,0,0.0,0,0.0,0,0.0,1,0.5,1,2.125,0,,,,,0,4,4,4,,,,,,,,,65.01572158402996,65.01572158402996,65.01572158402996,65.01572158402996,65.01572158402996,65.01572158402996,65.01572158402996,65.01572158402996,64.93856691735175,65.01572158402996,65.01572158402996,65.01572158402996,64.93856691735175,65.01572158402996,65.01572158402996,65.01572158402996,67.0988200000138,,65.01572158402996,65.01572158402996,70.18822870904114,65.01572158402996,65.01572158402996,65.01572158402996,65.01572158402996,65.46836766699562,66.51055179204559,65.43940479169056,,67.0988200000138,68.14464304200374,67.06967720867057,,65.01572158402996,70.18822870904114,65.01572158402996,70.18822870904114,70.2286670000176,70.90790070901858,65.01572158402996,1,1,1.3118065829621628,reldom2_s029,001,2025-03-03_14h06.04.427,Where-B-Scan_AC,2022.2.5,None,
0,0.0,None,fixation,stimulus/audwhere_stim/blank_white.png,stimulus/audwhere_stim/blank_white.png,stimulus/viswhere_stim/blank_white.png,stimulus/viswhere_stim/blank_white.png,stimulus/audwhere_stim/blank_white.png,stimulus/audwhere_stim/blank_white.png,stimulus/audwhere_stim/blank_white.png,stimulus/audwhere_stim/blank_white.png,0.0,0.0,0.0,0.0,0,0.0,0,0.0,0,0.0,0,0.0,0,0.0,0.0,0,0.0,0,0.0,0,0.0,0,0.0,0,0.0,0,0.0,0,0.0,0,0.0,10,,,,,0,5,5,5,,,,,,,,,71.13518029201077,71.13518029201077,71.13518029201077,71.13518029201077,71.13518029201077,71.13518029201077,71.13518029201077,71.13518029201077,71.0412340423519,71.13518029201077,71.13518029201077,71.13518029201077,71.0412340423519,71.13518029201077,71.13518029201077,71.13518029201077,71.13518029201077,71.13518029201077,71.13518029201077,71.13518029201077,71.13518029201077,71.13518029201077,71.13518029201077,71.13518029201077,71.13518029201077,71.13518029201077,71.13518029201077,71.09123404235191,71.13518029201077,71.13518029201077,71.13518029201077,71.09123404235191,71.13518029201077,71.13518029201077,71.13518029201077,71.13518029201077,71.13518029201077,76.3421832920285,76.3421832920285,81.29301379201934,None,0,,reldom2_s029,001,2025-03-03_14h06.04.427,Where-B-Scan_AC,2022.2.5,None,
5,Second_Order,1.0,audwhere,stimulus/audwhere_stim/right_toward_300h.wav,stimulus/audwhere_stim/left_toward_280h.wav,stimulus/audwhere_stim/right_toward_280h.wav,stimulus/audwhere_stim/right_away_280h.wav,stimulus/audwhere_stim/match_blank.png,stimulus/audwhere_stim/match_box.png,stimulus/audwhere_stim/match_yes.png,stimulus/audwhere_stim/match_no.png,2.0,Match,Direction,Side,2,5.125,0,5.125,0,5.125,0,5.125,0,0.75,0.75,0,0.0,0,0.0,0,0.0,0,0.0,1,0.5,1,2.125,1,0.5,1,2.125,0,,,,,0,6,6,6,,,,,,,,,81.29301379201934,86.41574045899324,81.29301379201934,81.29301379201934,81.29301379201934,81.29301379201934,81.74184462503763,82.74092325003585,81.754992958686,,83.3753112090053,84.36439704202348,83.37862150068783,84.36439704202348,86.41574045899324,87.2652982500149,89.33991954202065,93.25273737503449,87.2652982500149,87.2652982500149,92.4200251250295,87.2652982500149,87.2652982500149,87.2652982500149,87.2652982500149,87.7136020840262,88.75461375003215,87.68523783371008,,89.33991954202065,90.38319933402818,89.31125875068052,,87.2652982500149,92.4200251250295,87.2652982500149,92.4200251250295,92.45989566703793,,87.2652982500149,2,1,1.1611765410052612,reldom2_s029,001,2025-03-03_14h06.04.427,Where-B-Scan_AC,2022.2.5,None,
6,Second_Order,1.0,audwhere,stimulus/audwhere_stim/right_toward_270h.wav,stimulus/audwhere_stim/right_away_290h.wav,stimulus/audwhere_stim/left_toward_300h.wav,stimulus/audwhere_stim/left_away_290h.wav,stimulus/audwhere_stim/match_blank.png,stimulus/audwhere_stim/match_box.png,stimulus/audwhere_stim/match_yes.png,stimulus/audwhere_stim/match_no.png,1.0,Match,Side,Side,1,5.125,0,5.125,0,5.125,0,5.125,0,0.625,0.625,0,0.0,0,0.0,0,0.0,0,0.0,1,0.5,1,2.125,1,0.5,1,2.125,0,,,,,0,7,7,7,,,,,,,,,93.25273737503449,98.37676441704389,93.25273737503449,93.25273737503449,93.25273737503449,93.25273737503449,93.70166725001764,94.68831129203318,93.71554866666362,,95.3365964590339,96.32530229201075,95.34046366671488,,98.37676441704389,99.11083645903273,101.1832814590307,105.21106391702779,99.11083645903273,99.11083645903273,104.30331158399349,99.11083645903273,99.11083645903273,99.11083645903273,99.11083645903273,99.55913300003158,100.59812733402941,99.53093200066748,,101.1832814590307,102.22267854202073,101.15466312569721,,99.11083645903273,104.30331158399349,99.11083645903273,104.30331158399349,104.30331158399349,104.98310779203894,99.11083645903273,2,0,1.3236863329657353,reldom2_s029,001,2025-03-03_14h06.04.427,Where-B-Scan_AC,2022.2.5,None,
0,0.0,None,fixation,stimulus/audwhere_stim/blank_white.png,stimulus/audwhere_stim/blank_white.png,stimulus/viswhere_stim/blank_white.png,stimulus/viswhere_stim/blank_white.png,stimulus/audwhere_stim/blank_white.png,stimulus/audwhere_stim/blank_white.png,stimulus/audwhere_stim/blank_white.png,stimulus/audwhere_stim/blank_white.png,0.0,0.0,0.0,0.0,0,0.0,0,0.0,0,0.0,0,0.0,0,0.0,0.0,0,0.0,0,0.0,0,0.0,0,0.0,0,0.0,0,0.0,0,0.0,0,0.0,9,,,,,0,8,8,8,,,,,,,,,105.21106391702779,105.21106391702779,105.21106391702779,105.21106391702779,105.21106391702779,105.21106391702779,105.21106391702779,105.21106391702779,105.11644112537226,105.21106391702779,105.21106391702779,105.21106391702779,105.11644112537226,105.21106391702779,105.21106391702779,105.21106391702779,105.21106391702779,105.21106391702779,105.21106391702779,105.21106391702779,105.21106391702779,105.21106391702779,105.21106391702779,105.21106391702779,105.21106391702779,105.21106391702779,105.21106391702779,105.16644112537227,105.21106391702779,105.21106391702779,105.21106391702779,105.16644112537227,105.21106391702779,105.21106391702779,105.21106391702779,105.21106391702779,105.21106391702779,110.4246169590042,110.4246169590042,114.47832191700581,None,0,,reldom2_s029,001,2025-03-03_14h06.04.427,Where-B-Scan_AC,2022.2.5,None,
7,First_Order,2.0,audwhere,stimulus/audwhere_stim/dummy.wav,stimulus/audwhere_stim/dummy.wav,stimulus/audwhere_stim/left_toward_270h.wav,stimulus/audwhere_stim/right_toward_270h.wav,stimulus/audwhere_stim/blank_white.png,stimulus/audwhere_stim/direction_box.png,stimulus/audwhere_stim/direction_yes.png,stimulus/audwhere_stim/direction_no.png,None,Direction,None,Direction,1,0.0,0,5.125,0,5.125,0,5.125,0,0.0,0.625,0,0.0,0,0.0,0,0.0,0,0.0,0,0.0,0,0.0,1,0.5,1,2.125,0,,,,,0,9,9,9,,,,,,,,,114.47832191700581,114.47832191700581,114.47832191700581,114.47832191700581,114.47832191700581,114.47832191700581,114.47832191700581,114.47832191700581,114.40934479170635,114.47832191700581,114.47832191700581,114.47832191700581,114.40934479170635,114.47832191700581,114.47832191700581,114.47832191700581,116.59042395901633,,114.47832191700581,114.47832191700581,119.66728383401642,114.47832191700581,114.47832191700581,114.47832191700581,114.47832191700581,114.93625070899725,115.98933408403536,114.90696045867323,,116.59042395901633,117.64743000001181,116.56056150066821,,114.47832191700581,119.66728383401642,114.47832191700581,119.66728383401642,119.7079240840394,120.3564875840093,114.47832191700581,1,1,2.3472098329802975,reldom2_s029,001,2025-03-03_14h06.04.427,Where-B-Scan_AC,2022.2.5,None,
8,First_Order,2.0,audwhere,stimulus/audwhere_stim/dummy.wav,stimulus/audwhere_stim/dummy.wav,stimulus/audwhere_stim/left_toward_280h.wav,stimulus/audwhere_stim/right_toward_290h.wav,stimulus/audwhere_stim/blank_white.png,stimulus/audwhere_stim/side_box.png,stimulus/audwhere_stim/side_yes.png,stimulus/audwhere_stim/side_no.png,None,Side,None,Direction,2,0.0,0,5.125,0,5.125,0,5.125,0,0.0,0.625,0,0.0,0,0.0,0,0.0,0,0.0,0,0.0,0,0.0,1,0.5,1,2.125,0,,,,,0,10,10,10,,,,,,,,,120.56847475003451,120.56847475003451,120.56847475003451,120.56847475003451,120.56847475003451,120.56847475003451,120.56847475003451,120.56847475003451,120.48982091734263,120.56847475003451,120.56847475003451,120.56847475003451,120.48982091734263,120.56847475003451,120.56847475003451,120.56847475003451,122.67737004201626,126.69264754204778,120.56847475003451,120.56847475003451,125.75436154199997,120.56847475003451,120.56847475003451,120.56847475003451,120.56847475003451,121.02594070899067,122.07781266700476,120.99670470867228,,122.67737004201626,123.73661479202565,122.64852625067967,,120.56847475003451,125.75436154199997,120.56847475003451,125.75436154199997,125.7941447920166,126.48204220901243,120.56847475003451,2,1,1.4284173749620095,reldom2_s029,001,2025-03-03_14h06.04.427,Where-B-Scan_AC,2022.2.5,None,
9,First_Order,2.0,audwhere,stimulus/audwhere_stim/dummy.wav,stimulus/audwhere_stim/dummy.wav,stimulus/audwhere_stim/left_away_270h.wav,stimulus/audwhere_stim/left_toward_290h.wav,stimulus/audwhere_stim/blank_white.png,stimulus/audwhere_stim/side_box.png,stimulus/audwhere_stim/side_yes.png,stimulus/audwhere_stim/side_no.png,None,Side,None,Side,1,0.0,0,5.125,0,5.125,0,5.125,0,0.0,0.625,0,0.0,0,0.0,0,0.0,0,0.0,0,0.0,0,0.0,1,0.5,1,2.125,0,,,,,0,11,11,11,,,,,,,,,126.69264754204778,126.69264754204778,126.69264754204778,126.69264754204778,126.69264754204778,126.69264754204778,126.69264754204778,126.69264754204778,126.61537554234576,126.69264754204778,126.69264754204778,126.69264754204778,126.61537554234576,126.69264754204778,126.69264754204778,126.69264754204778,128.80442137503996,,126.69264754204778,126.69264754204778,131.88342870899942,126.69264754204778,126.69264754204778,126.69264754204778,126.69264754204778,127.15066383400699,128.2052553750109,127.1211966666781,,128.80442137503996,129.86399041704135,128.77534758369828,,126.69264754204778,131.88342870899942,126.69264754204778,131.88342870899942,131.92429841699777,132.57379462500103,126.69264754204778,1,1,1.0838205419713631,reldom2_s029,001,2025-03-03_14h06.04.427,Where-B-Scan_AC,2022.2.5,None,
10,First_Order,2.0,audwhere,stimulus/audwhere_stim/dummy.wav,stimulus/audwhere_stim/dummy.wav,stimulus/audwhere_stim/right_away_290h.wav,stimulus/audwhere_stim/right_toward_290h.wav,stimulus/audwhere_stim/blank_white.png,stimulus/audwhere_stim/side_box.png,stimulus/audwhere_stim/side_yes.png,stimulus/audwhere_stim/side_no.png,None,Side,None,Side,1,0.0,0,5.125,0,5.125,0,5.125,0,0.0,0.625,0,0.0,0,0.0,0,0.0,0,0.0,0,0.0,0,0.0,1,0.5,1,2.125,0,,,,,0,12,12,12,,,,,,,,,132.78317037504166,132.78317037504166,132.78317037504166,132.78317037504166,132.78317037504166,132.78317037504166,132.78317037504166,132.78317037504166,132.70712795833438,132.78317037504166,132.78317037504166,132.78317037504166,132.70712795833438,132.78317037504166,132.78317037504166,132.78317037504166,134.86198183399392,,132.78317037504166,132.78317037504166,137.94302520900965,132.78317037504166,132.78317037504166,132.78317037504166,132.78317037504166,133.24445829202887,134.30863500002306,133.2150513337149,,134.86198183399392,135.91668145899894,134.83203079167677,,132.78317037504166,137.94302520900965,132.78317037504166,137.94302520900965,137.98307516699424,138.63302599999588,132.78317037504166,1,1,2.021434040972963,reldom2_s029,001,2025-03-03_14h06.04.427,Where-B-Scan_AC,2022.2.5,None,
0,0.0,None,fixation,stimulus/audwhere_stim/blank_white.png,stimulus/audwhere_stim/blank_white.png,stimulus/viswhere_stim/blank_white.png,stimulus/viswhere_stim/blank_white.png,stimulus/audwhere_stim/blank_white.png,stimulus/audwhere_stim/blank_white.png,stimulus/audwhere_stim/blank_white.png,stimulus/audwhere_stim/blank_white.png,0.0,0.0,0.0,0.0,0,0.0,0,0.0,0,0.0,0,0.0,0,0.0,0.0,0,0.0,0,0.0,0,0.0,0,0.0,0,0.0,0,0.0,0,0.0,0,0.0,9,,,,,0,13,13,13,,,,,,,,,138.90572529204655,138.90572529204655,138.90572529204655,138.90572529204655,138.90572529204655,138.90572529204655,138.90572529204655,138.90572529204655,138.80692362538153,138.90572529204655,138.90572529204655,138.90572529204655,138.80692362538153,138.90572529204655,138.90572529204655,138.90572529204655,138.90572529204655,138.90572529204655,138.90572529204655,138.90572529204655,138.90572529204655,138.90572529204655,138.90572529204655,138.90572529204655,138.90572529204655,138.90572529204655,138.90572529204655,138.8569236253815,138.90572529204655,138.90572529204655,138.90572529204655,138.8569236253815,138.90572529204655,138.90572529204655,138.90572529204655,138.90572529204655,138.90572529204655,144.1012310840306,144.1012310840306,148.0657029169961,None,0,,reldom2_s029,001,2025-03-03_14h06.04.427,Where-B-Scan_AC,2022.2.5,None,
11,Second_Order,2.0,audwhere,stimulus/audwhere_stim/left_toward_280h.wav,stimulus/audwhere_stim/left_away_290h.wav,stimulus/audwhere_stim/left_away_290h.wav,stimulus/audwhere_stim/right_away_280h.wav,stimulus/audwhere_stim/match_blank.png,stimulus/audwhere_stim/match_box.png,stimulus/audwhere_stim/match_yes.png,stimulus/audwhere_stim/match_no.png,2.0,Match,Side,Direction,2,5.125,0,5.125,0,5.125,0,5.125,0,0.75,0.75,0,0.0,0,0.0,0,0.0,0,0.0,1,0.5,1,2.125,1,0.5,1,2.125,0,,,,,0,14,14,14,,,,,,,,,148.0657029169961,153.18672254204284,148.0657029169961,148.0657029169961,148.0657029169961,148.0657029169961,148.51120054203784,149.4988422919996,148.5252932916667,,150.1504302920075,151.14868162502535,150.162992125672,,153.18672254204284,154.04031633399427,156.09172445902368,,154.04031633399427,154.04031633399427,159.20980499999132,154.04031633399427,154.04031633399427,154.04031633399427,154.04031633399427,154.45103779202327,155.50003633403685,154.42200816667562,,156.09172445902368,157.14800341700902,156.06220895867253,,154.04031633399427,159.20980499999132,154.04031633399427,159.20980499999132,159.20980499999132,,154.04031633399427,2,1,1.002592790988274,reldom2_s029,001,2025-03-03_14h06.04.427,Where-B-Scan_AC,2022.2.5,None,
12,Second_Order,2.0,audwhere,stimulus/audwhere_stim/left_away_270h.wav,stimulus/audwhere_stim/left_toward_280h.wav,stimulus/audwhere_stim/right_away_280h.wav,stimulus/audwhere_stim/right_toward_300h.wav,stimulus/audwhere_stim/match_blank.png,stimulus/audwhere_stim/match_box.png,stimulus/audwhere_stim/match_yes.png,stimulus/audwhere_stim/match_no.png,1.0,Match,Side,Side,1,5.125,0,5.125,0,5.125,0,5.125,0,0.625,0.625,0,0.0,0,0.0,0,0.0,0,0.0,1,0.5,1,2.125,1,0.5,1,2.125,0,,,,,0,15,15,15,,,,,,,,,160.01227770902915,165.1358851250261,160.01227770902915,160.01227770902915,160.01227770902915,160.01227770902915,160.4726845420082,161.45927370904246,160.48654704168828,,162.09523187502054,163.0926722920267,162.10771370865794,163.09638087503845,165.1358851250261,165.8646074589924,167.9039038339979,,165.8646074589924,165.8646074589924,171.05199245904805,165.8646074589924,165.8646074589924,165.8646074589924,165.8646074589924,166.31668525002897,167.35823133401573,166.28765337571193,,167.9039038339979,168.9556829170324,167.8750525416729,,165.8646074589924,171.05199245904805,165.8646074589924,171.05199245904805,171.05199245904805,171.73238037503324,165.8646074589924,2,0,1.3989057919825427,reldom2_s029,001,2025-03-03_14h06.04.427,Where-B-Scan_AC,2022.2.5,None,
0,0.0,None,fixation,stimulus/audwhere_stim/blank_white.png,stimulus/audwhere_stim/blank_white.png,stimulus/viswhere_stim/blank_white.png,stimulus/viswhere_stim/blank_white.png,stimulus/audwhere_stim/blank_white.png,stimulus/audwhere_stim/blank_white.png,stimulus/audwhere_stim/blank_white.png,stimulus/audwhere_stim/blank_white.png,0.0,0.0,0.0,0.0,0,0.0,0,0.0,0,0.0,0,0.0,0,0.0,0.0,0,0.0,0,0.0,0,0.0,0,0.0,0,0.0,0,0.0,0,0.0,0,0.0,8,,,,,0,16,16,16,,,,,,,,,171.96184475003975,171.96184475003975,171.96184475003975,171.96184475003975,171.96184475003975,171.96184475003975,171.96184475003975,171.96184475003975,171.8657137083666,171.96184475003975,171.96184475003975,171.96184475003975,171.8657137083666,171.96184475003975,171.96184475003975,171.96184475003975,171.96184475003975,171.96184475003975,171.96184475003975,171.96184475003975,171.96184475003975,171.96184475003975,171.96184475003975,171.96184475003975,171.96184475003975,171.96184475003975,171.96184475003975,171.91571370836658,171.96184475003975,171.96184475003975,171.96184475003975,171.91571370836658,171.96184475003975,171.96184475003975,171.96184475003975,171.96184475003975,171.96184475003975,177.15648912504548,177.15648912504548,180.12962358404184,None,0,,reldom2_s029,001,2025-03-03_14h06.04.427,Where-B-Scan_AC,2022.2.5,None,
13,First_Order,3.0,viswhere,stimulus/viswhere_stim/blank_white.png,stimulus/viswhere_stim/blank_white.png,stimulus/viswhere_stim/150-deg_dot-left_seagreen.png,stimulus/viswhere_stim/150-deg_dot-right_royalblue.png,stimulus/viswhere_stim/blank_white.png,stimulus/viswhere_stim/line_box.png,stimulus/viswhere_stim/line_yes.png,stimulus/viswhere_stim/line_no.png,None,Line,None,Line,1,0.0,0,5.125,0,5.125,0,5.125,0,0.0,0.625,0,0.0,0,0.0,1,0.5,1,2.125,0,0.0,0,0.0,0,0.0,0,0.0,0,,,,,0,17,17,17,,,,,,,,,180.12962358404184,180.12962358404184,180.12962358404184,180.12962358404184,180.12962358404184,180.12962358404184,180.12962358404184,180.12962358404184,180.111449750703,180.12962358404184,180.12962358404184,180.12962358404184,180.111449750703,180.12962358404184,180.12962358404184,180.12962358404184,182.22917841700837,186.19535712501965,180.12962358404184,180.12962358404184,185.26611633400898,180.61276620900026,181.61501704202965,182.22917841700837,183.2410186670022,180.12962358404184,180.12962358404184,180.111449750703,180.12962358404184,180.12962358404184,180.12962358404184,180.111449750703,180.12962358404184,180.12962358404184,185.26611633400898,180.12962358404184,185.26611633400898,185.35435737500666,185.98077833402203,180.12962358404184,1,1,1.5762823749682866,reldom2_s029,001,2025-03-03_14h06.04.427,Where-B-Scan_AC,2022.2.5,None,
14,First_Order,3.0,viswhere,stimulus/viswhere_stim/blank_white.png,stimulus/viswhere_stim/blank_white.png,stimulus/viswhere_stim/90-deg_dot-right_cyan.png,stimulus/viswhere_stim/90-deg_dot-left_turquoise.png,stimulus/viswhere_stim/blank_white.png,stimulus/viswhere_stim/line_box.png,stimulus/viswhere_stim/line_yes.png,stimulus/viswhere_stim/line_no.png,None,Line,None,Line,1,0.0,0,5.125,0,5.125,0,5.125,0,0.0,0.625,0,0.0,0,0.0,1,0.5,1,2.125,0,0.0,0,0.0,0,0.0,0,0.0,0,,,,,0,18,18,18,,,,,,,,,186.19535712501965,186.19535712501965,186.19535712501965,186.19535712501965,186.19535712501965,186.19535712501965,186.19535712501965,186.19535712501965,186.1753830833671,186.19535712501965,186.19535712501965,186.19535712501965,186.1753830833671,186.19535712501965,186.19535712501965,186.19535712501965,188.29775508400053,192.26311883400194,186.19535712501965,186.19535712501965,191.32398087502224,186.67440733400872,187.68690533400513,188.29775508400053,189.31710362504236,186.19535712501965,186.19535712501965,186.1920497500338,186.19535712501965,186.19535712501965,186.19535712501965,186.1920497500338,186.19535712501965,186.19535712501965,191.32398087502224,186.19535712501965,191.32398087502224,191.42133216699585,192.04656537499977,186.19535712501965,1,1,0.9867372079752386,reldom2_s029,001,2025-03-03_14h06.04.427,Where-B-Scan_AC,2022.2.5,None,
15,First_Order,3.0,viswhere,stimulus/viswhere_stim/blank_white.png,stimulus/viswhere_stim/blank_white.png,stimulus/viswhere_stim/60-deg_dot-right_salmon.png,stimulus/viswhere_stim/150-deg_dot-right_turquoise.png,stimulus/viswhere_stim/blank_white.png,stimulus/viswhere_stim/dot_box.png,stimulus/viswhere_stim/dot_yes.png,stimulus/viswhere_stim/dot_no.png,None,Dot,None,Dot,1,0.0,0,5.125,0,5.125,0,5.125,0,0.0,0.625,0,0.0,0,0.0,1,0.5,1,2.125,0,0.0,0,0.0,0,0.0,0,0.0,0,,,,,0,19,19,19,,,,,,,,,192.26311883400194,192.26311883400194,192.26311883400194,192.26311883400194,192.26311883400194,192.26311883400194,192.26311883400194,192.26311883400194,192.24258091733404,192.26311883400194,192.26311883400194,192.26311883400194,192.24258091733404,192.26311883400194,192.26311883400194,192.26311883400194,194.36927229200955,198.32400166703155,192.26311883400194,192.26311883400194,197.39858400000958,192.74263575003715,193.75641908403486,194.36927229200955,195.387318958994,192.26311883400194,192.26311883400194,192.24258091733404,192.26311883400194,192.26311883400194,192.26311883400194,192.24258091733404,192.26311883400194,192.26311883400194,197.39858400000958,192.26311883400194,197.39858400000958,197.48227154201595,198.1089265840128,192.26311883400194,1,1,1.5275218749884516,reldom2_s029,001,2025-03-03_14h06.04.427,Where-B-Scan_AC,2022.2.5,None,
16,First_Order,3.0,viswhere,stimulus/viswhere_stim/blank_white.png,stimulus/viswhere_stim/blank_white.png,stimulus/viswhere_stim/120-deg_dot-left_peru.png,stimulus/viswhere_stim/120-deg_dot-right_royalblue.png,stimulus/viswhere_stim/blank_white.png,stimulus/viswhere_stim/dot_box.png,stimulus/viswhere_stim/dot_yes.png,stimulus/viswhere_stim/dot_no.png,None,Dot,None,Line,2,0.0,0,5.125,0,5.125,0,5.125,0,0.0,0.625,0,0.0,0,0.0,1,0.5,1,2.125,0,0.0,0,0.0,0,0.0,0,0.0,0,,,,,0,20,20,20,,,,,,,,,198.32400166703155,198.32400166703155,198.32400166703155,198.32400166703155,198.32400166703155,198.32400166703155,198.32400166703155,198.32400166703155,198.30329408335578,198.32400166703155,198.32400166703155,198.32400166703155,198.30329408335578,198.32400166703155,198.32400166703155,198.32400166703155,200.43465862504672,204.46070033399155,198.32400166703155,198.32400166703155,203.4612743339967,198.79932012502104,199.80780279199826,200.43465862504672,201.44539075001376,198.32400166703155,198.32400166703155,198.31996075002246,198.32400166703155,198.32400166703155,198.32400166703155,198.31996075002246,198.32400166703155,198.32400166703155,203.4612743339967,198.32400166703155,203.4612743339967,203.54237270902377,204.16702037502546,198.32400166703155,2,1,1.1810866669984534,reldom2_s029,001,2025-03-03_14h06.04.427,Where-B-Scan_AC,2022.2.5,None,
0,0.0,None,fixation,stimulus/audwhere_stim/blank_white.png,stimulus/audwhere_stim/blank_white.png,stimulus/viswhere_stim/blank_white.png,stimulus/viswhere_stim/blank_white.png,stimulus/audwhere_stim/blank_white.png,stimulus/audwhere_stim/blank_white.png,stimulus/audwhere_stim/blank_white.png,stimulus/audwhere_stim/blank_white.png,0.0,0.0,0.0,0.0,0,0.0,0,0.0,0,0.0,0,0.0,0,0.0,0.0,0,0.0,0,0.0,0,0.0,0,0.0,0,0.0,0,0.0,0,0.0,0,0.0,10,,,,,0,21,21,21,,,,,,,,,204.46070033399155,204.46070033399155,204.46070033399155,204.46070033399155,204.46070033399155,204.46070033399155,204.46070033399155,204.46070033399155,204.36413941738041,204.46070033399155,204.46070033399155,204.46070033399155,204.36413941738041,204.46070033399155,204.46070033399155,204.46070033399155,204.46070033399155,204.46070033399155,204.46070033399155,204.46070033399155,204.46070033399155,204.46070033399155,204.46070033399155,204.46070033399155,204.46070033399155,204.46070033399155,204.46070033399155,204.41413941738043,204.46070033399155,204.46070033399155,204.46070033399155,204.41413941738043,204.46070033399155,204.46070033399155,204.46070033399155,204.46070033399155,204.46070033399155,209.68524483399233,209.68524483399233,214.60874275001697,None,0,,reldom2_s029,001,2025-03-03_14h06.04.427,Where-B-Scan_AC,2022.2.5,None,
17,Second_Order,3.0,viswhere,stimulus/viswhere_stim/90-deg_dot-left_lightsseagreen.png,stimulus/viswhere_stim/90-deg_dot-right_lightsseagreen.png,stimulus/viswhere_stim/120-deg_dot-right_cyan.png,stimulus/viswhere_stim/60-deg_dot-right_royalblue.png,stimulus/audwhere_stim/match_blank.png,stimulus/audwhere_stim/match_box.png,stimulus/audwhere_stim/match_yes.png,stimulus/audwhere_stim/match_no.png,2.0,Match,Line,Dot,2,5.125,0,5.125,0,5.125,0,5.125,0,0.75,0.75,1,0.5,1,2.125,1,0.5,1,2.125,0,0.0,0,0.0,0,0.0,0,0.0,0,,,,,0,22,22,22,,,,,,,,,214.60874275001697,219.72924662503647,215.08264020900242,216.06878437503474,216.7167337090359,217.70654012501473,214.60874275001697,214.60874275001697,214.62391300036884,214.60874275001697,214.60874275001697,214.60874275001697,214.62391300036884,214.60874275001697,219.72924662503647,220.51939379202668,222.60281770903384,226.49066608399153,220.51939379202668,220.51939379202668,225.64733387500746,220.98060479201376,221.99248820904177,222.60281770903384,223.62036666704807,220.51939379202668,220.51939379202668,220.49501941738032,220.51939379202668,220.51939379202668,220.51939379202668,220.49501941738032,220.51939379202668,220.51939379202668,225.64733387500746,220.51939379202668,225.64733387500746,225.7170341250021,226.49066608399153,220.51939379202668,2,1,1.1652774160029367,reldom2_s029,001,2025-03-03_14h06.04.427,Where-B-Scan_AC,2022.2.5,None,
18,Second_Order,3.0,viswhere,stimulus/viswhere_stim/90-deg_dot-left_lightsseagreen.png,stimulus/viswhere_stim/60-deg_dot-left_mediumslateblue.png,stimulus/viswhere_stim/60-deg_dot-right_lightsseagreen.png,stimulus/viswhere_stim/30-deg_dot-right_goldenrod.png,stimulus/audwhere_stim/match_blank.png,stimulus/audwhere_stim/match_box.png,stimulus/audwhere_stim/match_yes.png,stimulus/audwhere_stim/match_no.png,1.0,Match,Dot,Dot,1,5.125,0,5.125,0,5.125,0,5.125,0,0.625,0.625,1,0.5,1,2.125,1,0.5,1,2.125,0,0.0,0,0.0,0,0.0,0,0.0,0,,,,,0,23,23,23,,,,,,,,,226.49066608399153,231.60556095902575,226.9780263749999,227.97568895900622,228.5985662920284,229.59633850003593,226.49066608399153,226.49066608399153,226.50502329204465,226.49066608399153,226.49066608399153,226.49066608399153,226.50502329204465,226.49066608399153,231.60556095902575,232.27730445901398,234.35709541704273,238.38623316702433,232.27730445901398,232.27730445901398,237.40036383399274,232.73768733401084,233.74674245901406,234.35709541704273,235.37442841700977,232.27730445901398,232.27730445901398,232.25276358333264,232.27730445901398,232.27730445901398,232.27730445901398,232.25276358333264,232.27730445901398,232.27730445901398,237.40036383399274,232.27730445901398,237.40036383399274,237.47435704199597,238.10589912504656,232.27730445901398,2,0,1.00907179096248,reldom2_s029,001,2025-03-03_14h06.04.427,Where-B-Scan_AC,2022.2.5,None,
0,0.0,None,fixation,stimulus/audwhere_stim/blank_white.png,stimulus/audwhere_stim/blank_white.png,stimulus/viswhere_stim/blank_white.png,stimulus/viswhere_stim/blank_white.png,stimulus/audwhere_stim/blank_white.png,stimulus/audwhere_stim/blank_white.png,stimulus/audwhere_stim/blank_white.png,stimulus/audwhere_stim/blank_white.png,0.0,0.0,0.0,0.0,0,0.0,0,0.0,0,0.0,0,0.0,0,0.0,0.0,0,0.0,0,0.0,0,0.0,0,0.0,0,0.0,0,0.0,0,0.0,0,0.0,9,,,,,0,24,24,24,,,,,,,,,238.38623316702433,238.38623316702433,238.38623316702433,238.38623316702433,238.38623316702433,238.38623316702433,238.38623316702433,238.38623316702433,238.28606291734226,238.38623316702433,238.38623316702433,238.38623316702433,238.28606291734226,238.38623316702433,238.38623316702433,238.38623316702433,238.38623316702433,238.38623316702433,238.38623316702433,238.38623316702433,238.38623316702433,238.38623316702433,238.38623316702433,238.38623316702433,238.38623316702433,238.38623316702433,238.38623316702433,238.33606291734228,238.38623316702433,238.38623316702433,238.38623316702433,238.33606291734228,238.38623316702433,238.38623316702433,238.38623316702433,238.38623316702433,238.38623316702433,243.58358608401613,243.58358608401613,247.59026425000047,None,0,,reldom2_s029,001,2025-03-03_14h06.04.427,Where-B-Scan_AC,2022.2.5,None,
19,First_Order,4.0,viswhere,stimulus/viswhere_stim/blank_white.png,stimulus/viswhere_stim/blank_white.png,stimulus/viswhere_stim/90-deg_dot-left_seagreen.png,stimulus/viswhere_stim/150-deg_dot-left_lightsseagreen.png,stimulus/viswhere_stim/blank_white.png,stimulus/viswhere_stim/dot_box.png,stimulus/viswhere_stim/dot_yes.png,stimulus/viswhere_stim/dot_no.png,None,Dot,None,Dot,1,0.0,0,5.125,0,5.125,0,5.125,0,0.0,0.625,0,0.0,0,0.0,1,0.5,1,2.125,0,0.0,0,0.0,0,0.0,0,0.0,0,,,,,0,25,25,25,,,,,,,,,247.59026425000047,247.59026425000047,247.59026425000047,247.59026425000047,247.59026425000047,247.59026425000047,247.59026425000047,247.59026425000047,247.57178091669147,247.59026425000047,247.59026425000047,247.59026425000047,247.57178091669147,247.59026425000047,247.59026425000047,247.59026425000047,249.70217320899246,253.65615450002952,247.59026425000047,247.59026425000047,252.7280442090123,248.07048866699915,249.09001054201508,249.70217320899246,250.70531766704516,247.59026425000047,247.59026425000047,247.57178091669147,247.59026425000047,247.59026425000047,247.59026425000047,247.57178091669147,247.59026425000047,247.59026425000047,252.7280442090123,247.59026425000047,252.7280442090123,252.81620900001144,253.4412386250333,247.59026425000047,1,1,1.449714291957207,reldom2_s029,001,2025-03-03_14h06.04.427,Where-B-Scan_AC,2022.2.5,None,
20,First_Order,4.0,viswhere,stimulus/viswhere_stim/blank_white.png,stimulus/viswhere_stim/blank_white.png,stimulus/viswhere_stim/30-deg_dot-left_peru.png,stimulus/viswhere_stim/30-deg_dot-right_salmon.png,stimulus/viswhere_stim/blank_white.png,stimulus/viswhere_stim/dot_box.png,stimulus/viswhere_stim/dot_yes.png,stimulus/viswhere_stim/dot_no.png,None,Dot,None,Line,2,0.0,0,5.125,0,5.125,0,5.125,0,0.0,0.625,0,0.0,0,0.0,1,0.5,1,2.125,0,0.0,0,0.0,0,0.0,0,0.0,0,,,,,0,26,26,26,,,,,,,,,253.65615450002952,253.65615450002952,253.65615450002952,253.65615450002952,253.65615450002952,253.65615450002952,253.65615450002952,253.65615450002952,253.6366905833323,253.65615450002952,253.65615450002952,253.65615450002952,253.6366905833323,253.65615450002952,253.65615450002952,253.65615450002952,255.7723077920382,259.718359416991,253.65615450002952,253.65615450002952,258.7884307920467,254.1326736670453,255.14440929202829,255.7723077920382,256.78753895900445,253.65615450002952,253.65615450002952,253.6366905833323,253.65615450002952,253.65615450002952,253.65615450002952,253.6366905833323,253.65615450002952,253.65615450002952,258.7884307920467,253.65615450002952,258.7884307920467,258.88396649999777,259.51473920902936,253.65615450002952,2,1,1.8315148330293596,reldom2_s029,001,2025-03-03_14h06.04.427,Where-B-Scan_AC,2022.2.5,None,
21,First_Order,4.0,viswhere,stimulus/viswhere_stim/blank_white.png,stimulus/viswhere_stim/blank_white.png,stimulus/viswhere_stim/60-deg_dot-left_lightsseagreen.png,stimulus/viswhere_stim/30-deg_dot-left_slateblue.png,stimulus/viswhere_stim/blank_white.png,stimulus/viswhere_stim/line_box.png,stimulus/viswhere_stim/line_yes.png,stimulus/viswhere_stim/line_no.png,None,Line,None,Dot,2,0.0,0,5.125,0,5.125,0,5.125,0,0.0,0.625,0,0.0,0,0.0,1,0.5,1,2.125,0,0.0,0,0.0,0,0.0,0,0.0,0,,,,,0,27,27,27,,,,,,,,,259.718359416991,259.718359416991,259.718359416991,259.718359416991,259.718359416991,259.718359416991,259.718359416991,259.718359416991,259.69839145833004,259.718359416991,259.718359416991,259.718359416991,259.69839145833004,259.718359416991,259.718359416991,259.718359416991,261.81845858402085,265.7863451670273,259.718359416991,259.718359416991,264.843931542011,260.1959303750191,261.209045250027,261.81845858402085,262.8362382920459,259.718359416991,259.718359416991,259.7150581249967,259.718359416991,259.718359416991,259.718359416991,259.7150581249967,259.718359416991,259.718359416991,264.843931542011,259.718359416991,264.843931542011,264.9409803750459,265.5726760000107,259.718359416991,2,1,1.4069729579496197,reldom2_s029,001,2025-03-03_14h06.04.427,Where-B-Scan_AC,2022.2.5,None,
22,First_Order,4.0,viswhere,stimulus/viswhere_stim/blank_white.png,stimulus/viswhere_stim/blank_white.png,stimulus/viswhere_stim/120-deg_dot-right_peru.png,stimulus/viswhere_stim/150-deg_dot-right_peru.png,stimulus/viswhere_stim/blank_white.png,stimulus/viswhere_stim/line_box.png,stimulus/viswhere_stim/line_yes.png,stimulus/viswhere_stim/line_no.png,None,Line,None,Dot,2,0.0,0,5.125,0,5.125,0,5.125,0,0.0,0.625,0,0.0,0,0.0,1,0.5,1,2.125,0,0.0,0,0.0,0,0.0,0,0.0,0,,,,,0,28,28,28,,,,,,,,,265.7863451670273,265.7863451670273,265.7863451670273,265.7863451670273,265.7863451670273,265.7863451670273,265.7863451670273,265.7863451670273,265.7660063333654,265.7863451670273,265.7863451670273,265.7863451670273,265.7660063333654,265.7863451670273,265.7863451670273,265.7863451670273,267.89492233400233,271.93446733400924,265.7863451670273,265.7863451670273,270.91450279200217,266.2662685420364,267.2824760840158,267.89492233400233,268.89829712500796,265.7863451670273,265.7863451670273,265.78267300003205,265.7863451670273,265.7863451670273,265.7863451670273,265.78267300003205,265.7863451670273,265.7863451670273,270.91450279200217,265.7863451670273,270.91450279200217,271.0158596250112,271.6427232089918,265.7863451670273,2,1,1.2326691249618307,reldom2_s029,001,2025-03-03_14h06.04.427,Where-B-Scan_AC,2022.2.5,None,
0,0.0,None,fixation,stimulus/audwhere_stim/blank_white.png,stimulus/audwhere_stim/blank_white.png,stimulus/viswhere_stim/blank_white.png,stimulus/viswhere_stim/blank_white.png,stimulus/audwhere_stim/blank_white.png,stimulus/audwhere_stim/blank_white.png,stimulus/audwhere_stim/blank_white.png,stimulus/audwhere_stim/blank_white.png,0.0,0.0,0.0,0.0,0,0.0,0,0.0,0,0.0,0,0.0,0,0.0,0.0,0,0.0,0,0.0,0,0.0,0,0.0,0,0.0,0,0.0,0,0.0,0,0.0,10,,,,,0,29,29,29,,,,,,,,,271.93446733400924,271.93446733400924,271.93446733400924,271.93446733400924,271.93446733400924,271.93446733400924,271.93446733400924,271.93446733400924,271.83647620837047,271.93446733400924,271.93446733400924,271.93446733400924,271.83647620837047,271.93446733400924,271.93446733400924,271.93446733400924,271.93446733400924,271.93446733400924,271.93446733400924,271.93446733400924,271.93446733400924,271.93446733400924,271.93446733400924,271.93446733400924,271.93446733400924,271.93446733400924,271.93446733400924,271.8864762083705,271.93446733400924,271.93446733400924,271.93446733400924,271.8864762083705,271.93446733400924,271.93446733400924,271.93446733400924,271.93446733400924,271.93446733400924,277.1342732500052,277.1342732500052,282.06905254203593,None,0,,reldom2_s029,001,2025-03-03_14h06.04.427,Where-B-Scan_AC,2022.2.5,None,
23,Second_Order,4.0,viswhere,stimulus/viswhere_stim/60-deg_dot-right_peru.png,stimulus/viswhere_stim/60-deg_dot-left_royalblue.png,stimulus/viswhere_stim/90-deg_dot-left_slateblue.png,stimulus/viswhere_stim/90-deg_dot-right_royalblue.png,stimulus/audwhere_stim/match_blank.png,stimulus/audwhere_stim/match_box.png,stimulus/audwhere_stim/match_yes.png,stimulus/audwhere_stim/match_no.png,1.0,Match,Line,Line,1,5.125,0,5.125,0,5.125,0,5.125,0,0.75,0.75,1,0.5,1,2.125,1,0.5,1,2.125,0,0.0,0,0.0,0,0.0,0,0.0,0,,,,,0,30,30,30,,,,,,,,,282.06905254203593,287.1838254170143,282.55224762501894,283.5410170000396,284.17770329199266,285.1750221250113,282.06905254203593,282.06905254203593,282.08359104235035,282.06905254203593,282.06905254203593,282.06905254203593,282.08359104235035,282.06905254203593,287.1838254170143,287.9782034170348,290.0621393340407,293.9637042499962,287.9782034170348,287.9782034170348,293.11804975004634,288.42856520903297,289.439552041993,290.0621393340407,291.0830314999912,287.9782034170348,287.9782034170348,287.951603208327,287.9782034170348,287.9782034170348,287.9782034170348,287.951603208327,287.9782034170348,287.9782034170348,293.11804975004634,287.9782034170348,293.11804975004634,293.19258950004587,293.9637042499962,287.9782034170348,1,1,0.676964207959827,reldom2_s029,001,2025-03-03_14h06.04.427,Where-B-Scan_AC,2022.2.5,None,
24,Second_Order,4.0,viswhere,stimulus/viswhere_stim/120-deg_dot-left_peru.png,stimulus/viswhere_stim/120-deg_dot-right_peru.png,stimulus/viswhere_stim/30-deg_dot-right_peru.png,stimulus/viswhere_stim/30-deg_dot-left_lightsseagreen.png,stimulus/audwhere_stim/match_blank.png,stimulus/audwhere_stim/match_box.png,stimulus/audwhere_stim/match_yes.png,stimulus/audwhere_stim/match_no.png,1.0,Match,Line,Line,1,5.125,0,5.125,0,5.125,0,5.125,0,0.625,0.625,1,0.5,1,2.125,1,0.5,1,2.125,0,0.0,0,0.0,0,0.0,0,0.0,0,,,,,0,31,31,31,,,,,,,,,293.9637042499962,299.07842691702535,294.4503643340431,295.448916000023,296.07140837499173,297.0691381249926,293.9637042499962,293.9637042499962,293.9777094170102,293.9637042499962,293.9637042499962,293.9637042499962,293.9777094170102,293.9637042499962,299.07842691702535,299.7483092920156,301.83648458402604,305.86796200001845,299.7483092920156,299.7483092920156,304.88904029200785,300.2108831250225,301.22563437500503,301.83648458402604,302.85695641703205,299.7483092920156,299.7483092920156,299.725047417342,299.7483092920156,299.7483092920156,299.7483092920156,299.725047417342,299.7483092920156,299.7483092920156,304.88904029200785,299.7483092920156,304.88904029200785,304.9437559590442,305.57377066701883,299.7483092920156,1,1,1.1099697910249233,reldom2_s029,001,2025-03-03_14h06.04.427,Where-B-Scan_AC,2022.2.5,None,
0,0.0,None,fixation,stimulus/audwhere_stim/blank_white.png,stimulus/audwhere_stim/blank_white.png,stimulus/viswhere_stim/blank_white.png,stimulus/viswhere_stim/blank_white.png,stimulus/audwhere_stim/blank_white.png,stimulus/audwhere_stim/blank_white.png,stimulus/audwhere_stim/blank_white.png,stimulus/audwhere_stim/blank_white.png,0.0,0.0,0.0,0.0,0,0.0,0,0.0,0,0.0,0,0.0,0,0.0,0.0,0,0.0,0,0.0,0,0.0,0,0.0,0,0.0,0,0.0,0,0.0,0,0.0,9,,,,,0,32,32,32,,,,,,,,,305.86796200001845,305.86796200001845,305.86796200001845,305.86796200001845,305.86796200001845,305.86796200001845,305.86796200001845,305.86796200001845,305.76811895835755,305.86796200001845,305.86796200001845,305.86796200001845,305.76811895835755,305.86796200001845,305.86796200001845,305.86796200001845,305.86796200001845,305.86796200001845,305.86796200001845,305.86796200001845,305.86796200001845,305.86796200001845,305.86796200001845,305.86796200001845,305.86796200001845,305.86796200001845,305.86796200001845,305.81811895835756,305.86796200001845,305.86796200001845,305.86796200001845,305.81811895835756,305.86796200001845,305.86796200001845,305.86796200001845,305.86796200001845,305.86796200001845,311.08709358400665,311.08709358400665,315.1132294590352,None,0,,reldom2_s029,001,2025-03-03_14h06.04.427,Where-B-Scan_AC,2022.2.5,None,
25,First_Order,5.0,audwhere,stimulus/audwhere_stim/dummy.wav,stimulus/audwhere_stim/dummy.wav,stimulus/audwhere_stim/right_toward_280h.wav,stimulus/audwhere_stim/right_away_290h.wav,stimulus/audwhere_stim/blank_white.png,stimulus/audwhere_stim/side_box.png,stimulus/audwhere_stim/side_yes.png,stimulus/audwhere_stim/side_no.png,None,Side,None,Side,1,0.0,0,5.125,0,5.125,0,5.125,0,0.0,0.625,0,0.0,0,0.0,0,0.0,0,0.0,0,0.0,0,0.0,1,0.5,1,2.125,0,,,,,0,33,33,33,,,,,,,,,315.1132294590352,315.1132294590352,315.1132294590352,315.1132294590352,315.1132294590352,315.1132294590352,315.1132294590352,315.1132294590352,315.0418629167058,315.1132294590352,315.1132294590352,315.1132294590352,315.0418629167058,315.1132294590352,315.1132294590352,315.1132294590352,317.1955990419956,321.24211141699925,315.1132294590352,315.1132294590352,320.2966982090147,315.1132294590352,315.1132294590352,315.1132294590352,315.1132294590352,315.57489824999357,316.6396292920108,315.5452760836963,,317.1955990419956,318.26139279204654,317.1660421667077,,315.1132294590352,320.2966982090147,315.1132294590352,320.2966982090147,320.3377791250241,320.9893579999916,315.1132294590352,1,1,1.177035791974049,reldom2_s029,001,2025-03-03_14h06.04.427,Where-B-Scan_AC,2022.2.5,None,
26,First_Order,5.0,audwhere,stimulus/audwhere_stim/dummy.wav,stimulus/audwhere_stim/dummy.wav,stimulus/audwhere_stim/right_toward_300h.wav,stimulus/audwhere_stim/left_toward_270h.wav,stimulus/audwhere_stim/blank_white.png,stimulus/audwhere_stim/direction_box.png,stimulus/audwhere_stim/direction_yes.png,stimulus/audwhere_stim/direction_no.png,None,Direction,None,Direction,1,0.0,0,5.125,0,5.125,0,5.125,0,0.0,0.625,0,0.0,0,0.0,0,0.0,0,0.0,0,0.0,0,0.0,1,0.5,1,2.125,0,,,,,0,34,34,34,,,,,,,,,321.24211141699925,321.24211141699925,321.24211141699925,321.24211141699925,321.24211141699925,321.24211141699925,321.24211141699925,321.24211141699925,321.16334854232457,321.24211141699925,321.24211141699925,321.24211141699925,321.16334854232457,321.24211141699925,321.24211141699925,321.24211141699925,323.3410640420043,327.3716460420401,321.24211141699925,321.24211141699925,326.4216880000313,321.24211141699925,321.24211141699925,321.24211141699925,321.24211141699925,321.7083611250273,322.78173808404244,321.6782623757065,,323.3410640420043,324.41599658399355,323.31116862566364,,321.24211141699925,326.4216880000313,321.24211141699925,326.4216880000313,326.4629514589906,327.11831216700375,321.24211141699925,1,1,1.5436667489702813,reldom2_s029,001,2025-03-03_14h06.04.427,Where-B-Scan_AC,2022.2.5,None,
27,First_Order,5.0,audwhere,stimulus/audwhere_stim/dummy.wav,stimulus/audwhere_stim/dummy.wav,stimulus/audwhere_stim/left_toward_290h.wav,stimulus/audwhere_stim/left_away_300h.wav,stimulus/audwhere_stim/blank_white.png,stimulus/audwhere_stim/direction_box.png,stimulus/audwhere_stim/direction_yes.png,stimulus/audwhere_stim/direction_no.png,None,Direction,None,Side,2,0.0,0,5.125,0,5.125,0,5.125,0,0.0,0.625,0,0.0,0,0.0,0,0.0,0,0.0,0,0.0,0,0.0,1,0.5,1,2.125,0,,,,,0,35,35,35,,,,,,,,,327.3716460420401,327.3716460420401,327.3716460420401,327.3716460420401,327.3716460420401,327.3716460420401,327.3716460420401,327.3716460420401,327.2925760003583,327.3716460420401,327.3716460420401,327.3716460420401,327.2925760003583,327.3716460420401,327.3716460420401,327.3716460420401,329.46764441701816,333.49280883400934,327.3716460420401,327.3716460420401,332.5420944170328,327.3716460420401,327.3716460420401,327.3716460420401,327.3716460420401,327.83786150004016,328.90967537503457,327.8077027087022,,329.46764441701816,330.54035808402114,329.4373535836969,,327.3716460420401,332.5420944170328,327.3716460420401,332.5420944170328,332.5835587090114,333.2392988750362,327.3716460420401,2,1,1.2164441659697331,reldom2_s029,001,2025-03-03_14h06.04.427,Where-B-Scan_AC,2022.2.5,None,
28,First_Order,5.0,audwhere,stimulus/audwhere_stim/dummy.wav,stimulus/audwhere_stim/dummy.wav,stimulus/audwhere_stim/right_away_300h.wav,stimulus/audwhere_stim/right_toward_290h.wav,stimulus/audwhere_stim/blank_white.png,stimulus/audwhere_stim/direction_box.png,stimulus/audwhere_stim/direction_yes.png,stimulus/audwhere_stim/direction_no.png,None,Direction,None,Side,2,0.0,0,5.125,0,5.125,0,5.125,0,0.0,0.625,0,0.0,0,0.0,0,0.0,0,0.0,0,0.0,0,0.0,1,0.5,1,2.125,0,,,,,0,36,36,36,,,,,,,,,333.49280883400934,333.49280883400934,333.49280883400934,333.49280883400934,333.49280883400934,333.49280883400934,333.49280883400934,333.49280883400934,333.413682292363,333.49280883400934,333.49280883400934,333.49280883400934,333.413682292363,333.49280883400934,333.49280883400934,333.49280883400934,335.5910367920296,,333.49280883400934,333.49280883400934,338.6723724590265,333.49280883400934,333.49280883400934,333.49280883400934,333.49280883400934,333.95907391700894,335.03229004202876,333.9286140417137,,335.5910367920296,336.6214059170452,335.5608539166899,,333.49280883400934,338.6723724590265,333.49280883400934,338.6723724590265,338.7134855000186,339.3700890840264,333.49280883400934,2,1,1.60035245801555,reldom2_s029,001,2025-03-03_14h06.04.427,Where-B-Scan_AC,2022.2.5,None,
0,0.0,None,fixation,stimulus/audwhere_stim/blank_white.png,stimulus/audwhere_stim/blank_white.png,stimulus/viswhere_stim/blank_white.png,stimulus/viswhere_stim/blank_white.png,stimulus/audwhere_stim/blank_white.png,stimulus/audwhere_stim/blank_white.png,stimulus/audwhere_stim/blank_white.png,stimulus/audwhere_stim/blank_white.png,0.0,0.0,0.0,0.0,0,0.0,0,0.0,0,0.0,0,0.0,0,0.0,0.0,0,0.0,0,0.0,0,0.0,0,0.0,0,0.0,0,0.0,0,0.0,0,0.0,10,,,,,0,37,37,37,,,,,,,,,339.6050991670345,339.6050991670345,339.6050991670345,339.6050991670345,339.6050991670345,339.6050991670345,339.6050991670345,339.6050991670345,339.50342241735973,339.6050991670345,339.6050991670345,339.6050991670345,339.50342241735973,339.6050991670345,339.6050991670345,339.6050991670345,339.6050991670345,339.6050991670345,339.6050991670345,339.6050991670345,339.6050991670345,339.6050991670345,339.6050991670345,339.6050991670345,339.6050991670345,339.6050991670345,339.6050991670345,339.55342241735974,339.6050991670345,339.6050991670345,339.6050991670345,339.55342241735974,339.6050991670345,339.6050991670345,339.6050991670345,339.6050991670345,339.6050991670345,344.8014966250048,344.8014966250048,349.768985584029,None,0,,reldom2_s029,001,2025-03-03_14h06.04.427,Where-B-Scan_AC,2022.2.5,None,
29,Second_Order,5.0,audwhere,stimulus/audwhere_stim/right_toward_270h.wav,stimulus/audwhere_stim/right_away_280h.wav,stimulus/audwhere_stim/left_away_270h.wav,stimulus/audwhere_stim/right_away_300h.wav,stimulus/audwhere_stim/match_blank.png,stimulus/audwhere_stim/match_box.png,stimulus/audwhere_stim/match_yes.png,stimulus/audwhere_stim/match_no.png,2.0,Match,Side,Direction,2,5.125,0,5.125,0,5.125,0,5.125,0,0.75,0.75,0,0.0,0,0.0,0,0.0,0,0.0,1,0.5,1,2.125,1,0.5,1,2.125,0,,,,,0,38,38,38,,,,,,,,,349.768985584029,354.89111529203365,349.768985584029,349.768985584029,349.768985584029,349.768985584029,350.22766450000927,351.21571858401876,350.2413965836788,,351.850091625005,352.8480693339952,351.86214070866504,,354.89111529203365,355.7380980839953,357.81388175004395,361.7249162090011,355.7380980839953,355.7380980839953,360.91799187503057,355.7380980839953,355.7380980839953,355.7380980839953,355.7380980839953,356.1980415839935,357.26118654204765,356.16817695869054,,357.81388175004395,358.88296370900935,357.7844483336705,,355.7380980839953,360.91799187503057,355.7380980839953,360.91799187503057,360.91799187503057,,355.7380980839953,2,1,1.0651411669678055,reldom2_s029,001,2025-03-03_14h06.04.427,Where-B-Scan_AC,2022.2.5,None,
30,Second_Order,5.0,audwhere,stimulus/audwhere_stim/right_away_300h.wav,stimulus/audwhere_stim/right_toward_300h.wav,stimulus/audwhere_stim/left_toward_290h.wav,stimulus/audwhere_stim/left_away_270h.wav,stimulus/audwhere_stim/match_blank.png,stimulus/audwhere_stim/match_box.png,stimulus/audwhere_stim/match_yes.png,stimulus/audwhere_stim/match_no.png,1.0,Match,Side,Side,1,5.125,0,5.125,0,5.125,0,5.125,0,0.625,0.625,0,0.0,0,0.0,0,0.0,0,0.0,1,0.5,1,2.125,1,0.5,1,2.125,0,,,,,0,39,39,39,,,,,,,,,361.7249162090011,366.84701887500705,361.7249162090011,361.7249162090011,361.7249162090011,361.7249162090011,362.17306516703684,363.17146616702667,362.18635995866885,,363.8117445000098,364.80872920900583,363.8234904586609,,366.84701887500705,367.5813774589915,369.64056291704765,373.6877960420097,367.5813774589915,367.5813774589915,372.7698707919917,367.5813774589915,367.5813774589915,367.5813774589915,367.5813774589915,368.03664004203165,369.091452459048,368.00713995867795,,369.64056291704765,370.69923462503357,369.61193395866235,,367.5813774589915,372.7698707919917,367.5813774589915,372.7698707919917,372.7698707919917,373.4553313750075,367.5813774589915,1,1,1.2183355829911307,reldom2_s029,001,2025-03-03_14h06.04.427,Where-B-Scan_AC,2022.2.5,None,
0,0.0,None,fixation,stimulus/audwhere_stim/blank_white.png,stimulus/audwhere_stim/blank_white.png,stimulus/viswhere_stim/blank_white.png,stimulus/viswhere_stim/blank_white.png,stimulus/audwhere_stim/blank_white.png,stimulus/audwhere_stim/blank_white.png,stimulus/audwhere_stim/blank_white.png,stimulus/audwhere_stim/blank_white.png,0.0,0.0,0.0,0.0,0,0.0,0,0.0,0,0.0,0,0.0,0,0.0,0.0,0,0.0,0,0.0,0,0.0,0,0.0,0,0.0,0,0.0,0,0.0,0,0.0,8,,,,,0,40,40,40,,,,,,,,,373.6877960420097,373.6877960420097,373.6877960420097,373.6877960420097,373.6877960420097,373.6877960420097,373.6877960420097,373.6877960420097,373.58866470834084,373.6877960420097,373.6877960420097,373.6877960420097,373.58866470834084,373.6877960420097,373.6877960420097,373.6877960420097,373.6877960420097,373.6877960420097,373.6877960420097,373.6877960420097,373.6877960420097,373.6877960420097,373.6877960420097,373.6877960420097,373.6877960420097,373.6877960420097,373.6877960420097,373.63866470834085,373.6877960420097,373.6877960420097,373.6877960420097,373.63866470834085,373.6877960420097,373.6877960420097,373.6877960420097,373.6877960420097,373.6877960420097,378.8900555840228,378.8900555840228,381.9477009170223,None,0,,reldom2_s029,001,2025-03-03_14h06.04.427,Where-B-Scan_AC,2022.2.5,None,
31,First_Order,6.0,audwhere,stimulus/audwhere_stim/dummy.wav,stimulus/audwhere_stim/dummy.wav,stimulus/audwhere_stim/left_toward_270h.wav,stimulus/audwhere_stim/right_toward_280h.wav,stimulus/audwhere_stim/blank_white.png,stimulus/audwhere_stim/side_box.png,stimulus/audwhere_stim/side_yes.png,stimulus/audwhere_stim/side_no.png,None,Side,None,Direction,2,0.0,0,5.125,0,5.125,0,5.125,0,0.0,0.625,0,0.0,0,0.0,0,0.0,0,0.0,0,0.0,0,0.0,1,0.5,1,2.125,0,,,,,0,41,41,41,,,,,,,,,381.9477009170223,381.9477009170223,381.9477009170223,381.9477009170223,381.9477009170223,381.9477009170223,381.9477009170223,381.9477009170223,381.8766872916991,381.9477009170223,381.9477009170223,381.9477009170223,381.8766872916991,381.9477009170223,381.9477009170223,381.9477009170223,384.02459479204845,388.066183042014,381.9477009170223,381.9477009170223,387.12037775001954,381.9477009170223,381.9477009170223,381.9477009170223,381.9477009170223,382.40914012503345,383.47177287499653,382.37983400066537,,384.02459479204845,385.0896635419922,383.9947953756821,,381.9477009170223,387.12037775001954,381.9477009170223,387.12037775001954,387.1616972500342,387.81297454203013,381.9477009170223,2,1,1.353360499953851,reldom2_s029,001,2025-03-03_14h06.04.427,Where-B-Scan_AC,2022.2.5,None,
32,First_Order,6.0,audwhere,stimulus/audwhere_stim/dummy.wav,stimulus/audwhere_stim/dummy.wav,stimulus/audwhere_stim/right_toward_280h.wav,stimulus/audwhere_stim/left_toward_290h.wav,stimulus/audwhere_stim/blank_white.png,stimulus/audwhere_stim/direction_box.png,stimulus/audwhere_stim/direction_yes.png,stimulus/audwhere_stim/direction_no.png,None,Direction,None,Direction,1,0.0,0,5.125,0,5.125,0,5.125,0,0.0,0.625,0,0.0,0,0.0,0,0.0,0,0.0,0,0.0,0,0.0,1,0.5,1,2.125,0,,,,,0,42,42,42,,,,,,,,,388.066183042014,388.066183042014,388.066183042014,388.066183042014,388.066183042014,388.066183042014,388.066183042014,388.066183042014,387.98677737536684,388.066183042014,388.066183042014,388.066183042014,387.98677737536684,388.066183042014,388.066183042014,388.066183042014,390.16294216702227,394.1849185000174,388.066183042014,388.066183042014,393.2346021250123,388.066183042014,388.066183042014,388.066183042014,388.066183042014,388.5318364590057,389.6048793750233,388.50186416670135,,390.16294216702227,391.2383852089988,390.1330102916729,,388.066183042014,393.2346021250123,388.066183042014,393.2346021250123,393.275690459006,393.9308224589913,388.066183042014,1,1,0.9947412500041537,reldom2_s029,001,2025-03-03_14h06.04.427,Where-B-Scan_AC,2022.2.5,None,
33,First_Order,6.0,audwhere,stimulus/audwhere_stim/dummy.wav,stimulus/audwhere_stim/dummy.wav,stimulus/audwhere_stim/left_toward_270h.wav,stimulus/audwhere_stim/left_away_300h.wav,stimulus/audwhere_stim/blank_white.png,stimulus/audwhere_stim/side_box.png,stimulus/audwhere_stim/side_yes.png,stimulus/audwhere_stim/side_no.png,None,Side,None,Side,1,0.0,0,5.125,0,5.125,0,5.125,0,0.0,0.625,0,0.0,0,0.0,0,0.0,0,0.0,0,0.0,0,0.0,1,0.5,1,2.125,0,,,,,0,43,43,43,,,,,,,,,394.1849185000174,394.1849185000174,394.1849185000174,394.1849185000174,394.1849185000174,394.1849185000174,394.1849185000174,394.1849185000174,394.1051702923452,394.1849185000174,394.1849185000174,394.1849185000174,394.1051702923452,394.1849185000174,394.1849185000174,394.1849185000174,396.2721480000182,,394.1849185000174,394.1849185000174,399.3359385000076,394.1849185000174,394.1849185000174,394.1849185000174,394.1849185000174,394.6505119590438,395.7159016249934,394.6209947086793,,396.2721480000182,397.33971112500876,396.2408910836714,,394.1849185000174,399.3359385000076,394.1849185000174,399.3359385000076,399.376897500013,400.02914975001477,394.1849185000174,1,1,1.5345529990154319,reldom2_s029,001,2025-03-03_14h06.04.427,Where-B-Scan_AC,2022.2.5,None,
34,First_Order,6.0,audwhere,stimulus/audwhere_stim/dummy.wav,stimulus/audwhere_stim/dummy.wav,stimulus/audwhere_stim/right_toward_300h.wav,stimulus/audwhere_stim/left_toward_290h.wav,stimulus/audwhere_stim/blank_white.png,stimulus/audwhere_stim/side_box.png,stimulus/audwhere_stim/side_yes.png,stimulus/audwhere_stim/side_no.png,None,Side,None,Direction,2,0.0,0,5.125,0,5.125,0,5.125,0,0.0,0.625,0,0.0,0,0.0,0,0.0,0,0.0,0,0.0,0,0.0,1,0.5,1,2.125,0,,,,,0,44,44,44,,,,,,,,,400.28320300002815,400.28320300002815,400.28320300002815,400.28320300002815,400.28320300002815,400.28320300002815,400.28320300002815,400.28320300002815,400.20304537532695,400.28320300002815,400.28320300002815,400.28320300002815,400.20304537532695,400.28320300002815,400.28320300002815,400.28320300002815,402.36545262503205,,400.28320300002815,400.28320300002815,405.4703747089952,400.28320300002815,400.28320300002815,400.28320300002815,400.28320300002815,400.74581937503535,401.8097140000318,400.71593400068036,,402.36545262503205,403.43211954203434,402.33555970871043,,400.28320300002815,405.4703747089952,400.28320300002815,405.4703747089952,405.5115607920452,406.1644409589935,400.28320300002815,2,1,1.2465214159456082,reldom2_s029,001,2025-03-03_14h06.04.427,Where-B-Scan_AC,2022.2.5,None,
0,0.0,None,fixation,stimulus/audwhere_stim/blank_white.png,stimulus/audwhere_stim/blank_white.png,stimulus/viswhere_stim/blank_white.png,stimulus/viswhere_stim/blank_white.png,stimulus/audwhere_stim/blank_white.png,stimulus/audwhere_stim/blank_white.png,stimulus/audwhere_stim/blank_white.png,stimulus/audwhere_stim/blank_white.png,0.0,0.0,0.0,0.0,0,0.0,0,0.0,0,0.0,0,0.0,0,0.0,0.0,0,0.0,0,0.0,0,0.0,0,0.0,0,0.0,0,0.0,0,0.0,0,0.0,8,,,,,0,45,45,45,,,,,,,,,406.39990316703916,406.39990316703916,406.39990316703916,406.39990316703916,406.39990316703916,406.39990316703916,406.39990316703916,406.39990316703916,406.29777429232684,406.39990316703916,406.39990316703916,406.39990316703916,406.29777429232684,406.39990316703916,406.39990316703916,406.39990316703916,406.39990316703916,406.39990316703916,406.39990316703916,406.39990316703916,406.39990316703916,406.39990316703916,406.39990316703916,406.39990316703916,406.39990316703916,406.39990316703916,406.39990316703916,406.34777429232685,406.39990316703916,406.39990316703916,406.39990316703916,406.34777429232685,406.39990316703916,406.39990316703916,406.39990316703916,406.39990316703916,406.39990316703916,411.587599667022,411.587599667022,414.558530875016,None,0,,reldom2_s029,001,2025-03-03_14h06.04.427,Where-B-Scan_AC,2022.2.5,None,
35,Second_Order,6.0,audwhere,stimulus/audwhere_stim/left_toward_280h.wav,stimulus/audwhere_stim/right_toward_270h.wav,stimulus/audwhere_stim/left_away_300h.wav,stimulus/audwhere_stim/right_away_280h.wav,stimulus/audwhere_stim/match_blank.png,stimulus/audwhere_stim/match_box.png,stimulus/audwhere_stim/match_yes.png,stimulus/audwhere_stim/match_no.png,1.0,Match,Direction,Direction,1,5.125,0,5.125,0,5.125,0,5.125,0,0.75,0.75,0,0.0,0,0.0,0,0.0,0,0.0,1,0.5,1,2.125,1,0.5,1,2.125,0,,,,,0,46,46,46,,,,,,,,,414.558530875016,419.6743398340186,414.558530875016,414.558530875016,414.558530875016,414.558530875016,415.0098705420387,415.9988784590387,415.02424629166876,,416.6326497500413,417.63100024999585,416.64521454170267,,419.6743398340186,420.5217622499913,422.59578787500504,,420.5217622499913,420.5217622499913,425.69540691701695,420.5217622499913,420.5217622499913,420.5217622499913,420.5217622499913,420.98033824999584,422.03915404202417,420.9509139166951,,422.59578787500504,423.66013095900416,422.5661120836778,,420.5217622499913,425.69540691701695,420.5217622499913,425.69540691701695,425.69540691701695,,420.5217622499913,1,1,2.036666248983238,reldom2_s029,001,2025-03-03_14h06.04.427,Where-B-Scan_AC,2022.2.5,None,
36,Second_Order,6.0,audwhere,stimulus/audwhere_stim/left_toward_300h.wav,stimulus/audwhere_stim/right_toward_280h.wav,stimulus/audwhere_stim/left_away_300h.wav,stimulus/audwhere_stim/right_away_300h.wav,stimulus/audwhere_stim/match_blank.png,stimulus/audwhere_stim/match_box.png,stimulus/audwhere_stim/match_yes.png,stimulus/audwhere_stim/match_no.png,1.0,Match,Direction,Direction,1,5.125,0,5.125,0,5.125,0,5.125,0,0.625,0.625,0,0.0,0,0.0,0,0.0,0,0.0,1,0.5,1,2.125,1,0.5,1,2.125,0,,,,,0,47,47,47,,,,,,,,,426.50631891703233,431.6298658340238,426.50631891703233,426.50631891703233,426.50631891703233,426.50631891703233,426.95461166702444,427.9415574170416,426.9688183337023,,428.58964041701984,429.5786674999981,428.59325616667434,,431.6298658340238,432.3669517090311,434.4280886250199,438.47624095901847,432.3669517090311,432.3669517090311,437.5530013749958,432.3669517090311,432.3669517090311,432.3669517090311,432.3669517090311,432.822612375021,433.8769195000059,432.7934030006911,,434.4280886250199,435.4855571250082,434.39859300066405,,432.3669517090311,437.5530013749958,432.3669517090311,437.5530013749958,437.5530013749958,438.2013283750275,432.3669517090311,2,0,2.4242154579842463,reldom2_s029,001,2025-03-03_14h06.04.427,Where-B-Scan_AC,2022.2.5,None,
0,0.0,None,fixation,stimulus/audwhere_stim/blank_white.png,stimulus/audwhere_stim/blank_white.png,stimulus/viswhere_stim/blank_white.png,stimulus/viswhere_stim/blank_white.png,stimulus/audwhere_stim/blank_white.png,stimulus/audwhere_stim/blank_white.png,stimulus/audwhere_stim/blank_white.png,stimulus/audwhere_stim/blank_white.png,0.0,0.0,0.0,0.0,0,0.0,0,0.0,0,0.0,0,0.0,0,0.0,0.0,0,0.0,0,0.0,0,0.0,0,0.0,0,0.0,0,0.0,0,0.0,0,0.0,10,,,,,0,48,48,48,,,,,,,,,438.47624095901847,438.47624095901847,438.47624095901847,438.47624095901847,438.47624095901847,438.47624095901847,438.47624095901847,438.47624095901847,438.376587750363,438.47624095901847,438.47624095901847,438.47624095901847,438.376587750363,438.47624095901847,438.47624095901847,438.47624095901847,438.47624095901847,438.47624095901847,438.47624095901847,438.47624095901847,438.47624095901847,438.47624095901847,438.47624095901847,438.47624095901847,438.47624095901847,438.47624095901847,438.47624095901847,438.426587750363,438.47624095901847,438.47624095901847,438.47624095901847,438.426587750363,438.47624095901847,438.47624095901847,438.47624095901847,438.47624095901847,438.47624095901847,443.67672112502623,443.67672112502623,448.65110466699116,None,0,,reldom2_s029,001,2025-03-03_14h06.04.427,Where-B-Scan_AC,2022.2.5,None,
37,First_Order,7.0,viswhere,stimulus/viswhere_stim/blank_white.png,stimulus/viswhere_stim/blank_white.png,stimulus/viswhere_stim/150-deg_dot-left_turquoise.png,stimulus/viswhere_stim/120-deg_dot-left_mediumslateblue.png,stimulus/viswhere_stim/blank_white.png,stimulus/viswhere_stim/line_box.png,stimulus/viswhere_stim/line_yes.png,stimulus/viswhere_stim/line_no.png,None,Line,None,Dot,2,0.0,0,5.125,0,5.125,0,5.125,0,0.0,0.625,0,0.0,0,0.0,1,0.5,1,2.125,0,0.0,0,0.0,0,0.0,0,0.0,0,,,,,0,49,49,49,,,,,,,,,448.65110466699116,448.65110466699116,448.65110466699116,448.65110466699116,448.65110466699116,448.65110466699116,448.65110466699116,448.65110466699116,448.6318010416968,448.65110466699116,448.65110466699116,448.65110466699116,448.6318010416968,448.65110466699116,448.65110466699116,448.65110466699116,450.7635218340438,454.7158120420063,448.65110466699116,448.65110466699116,453.7863779590116,449.13138808403164,450.148824459,450.7635218340438,451.76671050000004,448.65110466699116,448.65110466699116,448.6318010416968,448.65110466699116,448.65110466699116,448.65110466699116,448.6318010416968,448.65110466699116,448.65110466699116,453.7863779590116,448.65110466699116,453.7863779590116,453.8692270840402,454.5011839590152,448.65110466699116,2,1,1.253627791942563,reldom2_s029,001,2025-03-03_14h06.04.427,Where-B-Scan_AC,2022.2.5,None,
38,First_Order,7.0,viswhere,stimulus/viswhere_stim/blank_white.png,stimulus/viswhere_stim/blank_white.png,stimulus/viswhere_stim/120-deg_dot-left_mediumslateblue.png,stimulus/viswhere_stim/120-deg_dot-right_seagreen.png,stimulus/viswhere_stim/blank_white.png,stimulus/viswhere_stim/dot_box.png,stimulus/viswhere_stim/dot_yes.png,stimulus/viswhere_stim/dot_no.png,None,Dot,None,Line,2,0.0,0,5.125,0,5.125,0,5.125,0,0.0,0.625,0,0.0,0,0.0,1,0.5,1,2.125,0,0.0,0,0.0,0,0.0,0,0.0,0,,,,,0,50,50,50,,,,,,,,,454.7158120420063,454.7158120420063,454.7158120420063,454.7158120420063,454.7158120420063,454.7158120420063,454.7158120420063,454.7158120420063,454.6955685003389,454.7158120420063,454.7158120420063,454.7158120420063,454.6955685003389,454.7158120420063,454.7158120420063,454.7158120420063,456.83182800002396,460.80001137504587,454.7158120420063,454.7158120420063,459.8479234169936,455.1941044169944,456.2038955000462,456.83182800002396,457.84504754201043,454.7158120420063,454.7158120420063,454.71223516700553,454.7158120420063,454.7158120420063,454.7158120420063,454.71223516700553,454.7158120420063,454.7158120420063,459.8479234169936,454.7158120420063,459.8479234169936,459.9356137920404,460.569650874997,454.7158120420063,2,1,1.8343294159858488,reldom2_s029,001,2025-03-03_14h06.04.427,Where-B-Scan_AC,2022.2.5,None,
39,First_Order,7.0,viswhere,stimulus/viswhere_stim/blank_white.png,stimulus/viswhere_stim/blank_white.png,stimulus/viswhere_stim/60-deg_dot-right_salmon.png,stimulus/viswhere_stim/60-deg_dot-left_peru.png,stimulus/viswhere_stim/blank_white.png,stimulus/viswhere_stim/line_box.png,stimulus/viswhere_stim/line_yes.png,stimulus/viswhere_stim/line_no.png,None,Line,None,Line,1,0.0,0,5.125,0,5.125,0,5.125,0,0.0,0.625,0,0.0,0,0.0,1,0.5,1,2.125,0,0.0,0,0.0,0,0.0,0,0.0,0,,,,,0,51,51,51,,,,,,,,,460.80001137504587,460.80001137504587,460.80001137504587,460.80001137504587,460.80001137504587,460.80001137504587,460.80001137504587,460.80001137504587,460.77997500038083,460.80001137504587,460.80001137504587,460.80001137504587,460.77997500038083,460.80001137504587,460.80001137504587,460.80001137504587,462.9022539590369,466.8802721670363,460.80001137504587,460.80001137504587,465.92767708399333,461.2777552920161,462.2924918340286,462.9022539590369,463.91892220900627,460.80001137504587,460.80001137504587,460.7966416670475,460.80001137504587,460.80001137504587,460.80001137504587,460.7966416670475,460.80001137504587,460.80001137504587,465.92767708399333,460.80001137504587,465.92767708399333,466.02523937501246,466.6503485420253,460.80001137504587,1,1,1.265353166963905,reldom2_s029,001,2025-03-03_14h06.04.427,Where-B-Scan_AC,2022.2.5,None,
40,First_Order,7.0,viswhere,stimulus/viswhere_stim/blank_white.png,stimulus/viswhere_stim/blank_white.png,stimulus/viswhere_stim/60-deg_dot-right_slateblue.png,stimulus/viswhere_stim/90-deg_dot-right_royalblue.png,stimulus/viswhere_stim/blank_white.png,stimulus/viswhere_stim/dot_box.png,stimulus/viswhere_stim/dot_yes.png,stimulus/viswhere_stim/dot_no.png,None,Dot,None,Dot,1,0.0,0,5.125,0,5.125,0,5.125,0,0.0,0.625,0,0.0,0,0.0,1,0.5,1,2.125,0,0.0,0,0.0,0,0.0,0,0.0,0,,,,,0,52,52,52,,,,,,,,,466.8802721670363,466.8802721670363,466.8802721670363,466.8802721670363,466.8802721670363,466.8802721670363,466.8802721670363,466.8802721670363,466.86015745836386,466.8802721670363,466.8802721670363,466.8802721670363,466.86015745836386,466.8802721670363,466.8802721670363,466.8802721670363,468.9807675839984,473.03989916702267,466.8802721670363,466.8802721670363,472.0060092500062,467.3570896250312,468.3711740419967,468.9807675839984,469.99691687501036,466.8802721670363,466.8802721670363,466.8768241250305,466.8802721670363,466.8802721670363,466.8802721670363,466.8768241250305,466.8802721670363,466.8802721670363,472.0060092500062,466.8802721670363,472.0060092500062,472.1028626670013,472.72801412502304,466.8802721670363,1,1,1.2075977489585057,reldom2_s029,001,2025-03-03_14h06.04.427,Where-B-Scan_AC,2022.2.5,None,
0,0.0,None,fixation,stimulus/audwhere_stim/blank_white.png,stimulus/audwhere_stim/blank_white.png,stimulus/viswhere_stim/blank_white.png,stimulus/viswhere_stim/blank_white.png,stimulus/audwhere_stim/blank_white.png,stimulus/audwhere_stim/blank_white.png,stimulus/audwhere_stim/blank_white.png,stimulus/audwhere_stim/blank_white.png,0.0,0.0,0.0,0.0,0,0.0,0,0.0,0,0.0,0,0.0,0,0.0,0.0,0,0.0,0,0.0,0,0.0,0,0.0,0,0.0,0,0.0,0,0.0,0,0.0,8,,,,,0,53,53,53,,,,,,,,,473.03989916702267,473.03989916702267,473.03989916702267,473.03989916702267,473.03989916702267,473.03989916702267,473.03989916702267,473.03989916702267,472.9410461253331,473.03989916702267,473.03989916702267,473.03989916702267,472.9410461253331,473.03989916702267,473.03989916702267,473.03989916702267,473.03989916702267,473.03989916702267,473.03989916702267,473.03989916702267,473.03989916702267,473.03989916702267,473.03989916702267,473.03989916702267,473.03989916702267,473.03989916702267,473.03989916702267,472.9910461253331,473.03989916702267,473.03989916702267,473.03989916702267,472.9910461253331,473.03989916702267,473.03989916702267,473.03989916702267,473.03989916702267,473.03989916702267,478.233582750021,478.233582750021,481.1881406670436,None,0,,reldom2_s029,001,2025-03-03_14h06.04.427,Where-B-Scan_AC,2022.2.5,None,
41,Second_Order,7.0,viswhere,stimulus/viswhere_stim/60-deg_dot-right_seagreen.png,stimulus/viswhere_stim/30-deg_dot-right_mediumslateblue.png,stimulus/viswhere_stim/60-deg_dot-left_mediumslateblue.png,stimulus/viswhere_stim/150-deg_dot-left_salmon.png,stimulus/audwhere_stim/match_blank.png,stimulus/audwhere_stim/match_box.png,stimulus/audwhere_stim/match_yes.png,stimulus/audwhere_stim/match_no.png,1.0,Match,Dot,Dot,1,5.125,0,5.125,0,5.125,0,5.125,0,0.75,0.75,1,0.5,1,2.125,1,0.5,1,2.125,0,0.0,0,0.0,0,0.0,0,0.0,0,,,,,0,54,54,54,,,,,,,,,481.1881406670436,486.31074650003575,481.66547445900505,482.6514467090019,483.2867255420424,484.2850020840415,481.1881406670436,481.1881406670436,481.18688258368445,481.1881406670436,481.1881406670436,481.1881406670436,481.18688258368445,481.1881406670436,486.31074650003575,487.10464145900914,489.18591987504624,493.06807312503224,487.10464145900914,487.10464145900914,492.2358988340129,487.55061858403496,488.57143016700866,489.18591987504624,490.1917728750268,487.10464145900914,487.10464145900914,487.0944685420371,487.10464145900914,487.10464145900914,487.10464145900914,487.0944685420371,487.10464145900914,487.10464145900914,492.2358988340129,487.10464145900914,492.2358988340129,492.2925581250456,493.06807312503224,487.10464145900914,1,1,1.2999719579238445,reldom2_s029,001,2025-03-03_14h06.04.427,Where-B-Scan_AC,2022.2.5,None,
42,Second_Order,7.0,viswhere,stimulus/viswhere_stim/90-deg_dot-right_goldenrod.png,stimulus/viswhere_stim/120-deg_dot-right_mediumslateblue.png,stimulus/viswhere_stim/60-deg_dot-right_peru.png,stimulus/viswhere_stim/60-deg_dot-left_mediumslateblue.png,stimulus/audwhere_stim/match_blank.png,stimulus/audwhere_stim/match_box.png,stimulus/audwhere_stim/match_yes.png,stimulus/audwhere_stim/match_no.png,2.0,Match,Dot,Line,2,5.125,0,5.125,0,5.125,0,5.125,0,0.625,0.625,1,0.5,1,2.125,1,0.5,1,2.125,0,0.0,0,0.0,0,0.0,0,0.0,0,,,,,0,55,55,55,,,,,,,,,493.06807312503224,498.18933962500887,493.5445035000448,494.54195941699436,495.1818014170276,496.179025334015,493.06807312503224,493.06807312503224,493.08149312501774,493.06807312503224,493.06807312503224,493.06807312503224,493.08149312501774,493.06807312503224,498.18933962500887,498.8590055840323,500.94322791701416,504.97123437502887,498.8590055840323,498.8590055840323,503.98710600001505,499.3204379590461,500.3335362090147,500.94322791701416,501.95983237499604,498.8590055840323,498.8590055840323,498.83569991734885,498.8590055840323,498.8590055840323,498.8590055840323,498.83569991734885,498.8590055840323,498.8590055840323,503.98710600001505,498.8590055840323,503.98710600001505,504.0570106250234,504.6878165419912,498.8590055840323,2,1,1.0247694160207175,reldom2_s029,001,2025-03-03_14h06.04.427,Where-B-Scan_AC,2022.2.5,None,
0,0.0,None,fixation,stimulus/audwhere_stim/blank_white.png,stimulus/audwhere_stim/blank_white.png,stimulus/viswhere_stim/blank_white.png,stimulus/viswhere_stim/blank_white.png,stimulus/audwhere_stim/blank_white.png,stimulus/audwhere_stim/blank_white.png,stimulus/audwhere_stim/blank_white.png,stimulus/audwhere_stim/blank_white.png,0.0,0.0,0.0,0.0,0,0.0,0,0.0,0,0.0,0,0.0,0,0.0,0.0,0,0.0,0,0.0,0,0.0,0,0.0,0,0.0,0,0.0,0,0.0,0,0.0,8,,,,,0,56,56,56,,,,,,,,,504.97123437502887,504.97123437502887,504.97123437502887,504.97123437502887,504.97123437502887,504.97123437502887,504.97123437502887,504.97123437502887,504.87180170837865,504.97123437502887,504.97123437502887,504.97123437502887,504.87180170837865,504.97123437502887,504.97123437502887,504.97123437502887,504.97123437502887,504.97123437502887,504.97123437502887,504.97123437502887,504.97123437502887,504.97123437502887,504.97123437502887,504.97123437502887,504.97123437502887,504.97123437502887,504.97123437502887,504.92180170837867,504.97123437502887,504.97123437502887,504.97123437502887,504.92180170837867,504.97123437502887,504.97123437502887,504.97123437502887,504.97123437502887,504.97123437502887,510.1954847089946,510.1954847089946,513.1532452920219,None,0,,reldom2_s029,001,2025-03-03_14h06.04.427,Where-B-Scan_AC,2022.2.5,None,
43,First_Order,8.0,viswhere,stimulus/viswhere_stim/blank_white.png,stimulus/viswhere_stim/blank_white.png,stimulus/viswhere_stim/120-deg_dot-left_lightsseagreen.png,stimulus/viswhere_stim/120-deg_dot-right_royalblue.png,stimulus/viswhere_stim/blank_white.png,stimulus/viswhere_stim/line_box.png,stimulus/viswhere_stim/line_yes.png,stimulus/viswhere_stim/line_no.png,None,Line,None,Line,1,0.0,0,5.125,0,5.125,0,5.125,0,0.0,0.625,0,0.0,0,0.0,1,0.5,1,2.125,0,0.0,0,0.0,0,0.0,0,0.0,0,,,,,0,57,57,57,,,,,,,,,513.1532452920219,513.1532452920219,513.1532452920219,513.1532452920219,513.1532452920219,513.1532452920219,513.1532452920219,513.1532452920219,513.1346047916837,513.1532452920219,513.1532452920219,513.1532452920219,513.1346047916837,513.1532452920219,513.1532452920219,513.1532452920219,515.2520244590123,519.214908458991,513.1532452920219,513.1532452920219,518.28812225,513.6305077919969,514.64365820901,515.2520244590123,516.2665895840037,513.1532452920219,513.1532452920219,513.1346047916837,513.1532452920219,513.1532452920219,513.1532452920219,513.1346047916837,513.1532452920219,513.1532452920219,518.28812225,513.1532452920219,518.28812225,518.3704407920013,518.9975184590439,513.1532452920219,1,1,1.2888132079970092,reldom2_s029,001,2025-03-03_14h06.04.427,Where-B-Scan_AC,2022.2.5,None,
44,First_Order,8.0,viswhere,stimulus/viswhere_stim/blank_white.png,stimulus/viswhere_stim/blank_white.png,stimulus/viswhere_stim/60-deg_dot-right_peru.png,stimulus/viswhere_stim/90-deg_dot-right_turquoise.png,stimulus/viswhere_stim/blank_white.png,stimulus/viswhere_stim/dot_box.png,stimulus/viswhere_stim/dot_yes.png,stimulus/viswhere_stim/dot_no.png,None,Dot,None,Dot,1,0.0,0,5.125,0,5.125,0,5.125,0,0.0,0.625,0,0.0,0,0.0,1,0.5,1,2.125,0,0.0,0,0.0,0,0.0,0,0.0,0,,,,,0,58,58,58,,,,,,,,,519.214908458991,519.214908458991,519.214908458991,519.214908458991,519.214908458991,519.214908458991,519.214908458991,519.214908458991,519.1945891253612,519.214908458991,519.214908458991,519.214908458991,519.1945891253612,519.214908458991,519.214908458991,519.214908458991,521.3150212090113,525.2756566670141,519.214908458991,519.214908458991,524.3362727090134,519.6911712090368,520.7039719170425,521.3150212090113,522.3341225420008,519.214908458991,519.214908458991,519.2112557920278,519.214908458991,519.214908458991,519.214908458991,519.2112557920278,519.214908458991,519.214908458991,524.3362727090134,519.214908458991,524.3362727090134,524.4376002500067,525.0718026250252,519.214908458991,1,1,0.9763137919944711,reldom2_s029,001,2025-03-03_14h06.04.427,Where-B-Scan_AC,2022.2.5,None,
45,First_Order,8.0,viswhere,stimulus/viswhere_stim/blank_white.png,stimulus/viswhere_stim/blank_white.png,stimulus/viswhere_stim/150-deg_dot-right_lightsseagreen.png,stimulus/viswhere_stim/150-deg_dot-left_royalblue.png,stimulus/viswhere_stim/blank_white.png,stimulus/viswhere_stim/dot_box.png,stimulus/viswhere_stim/dot_yes.png,stimulus/viswhere_stim/dot_no.png,None,Dot,None,Line,2,0.0,0,5.125,0,5.125,0,5.125,0,0.0,0.625,0,0.0,0,0.0,1,0.5,1,2.125,0,0.0,0,0.0,0,0.0,0,0.0,0,,,,,0,59,59,59,,,,,,,,,525.2756566670141,525.2756566670141,525.2756566670141,525.2756566670141,525.2756566670141,525.2756566670141,525.2756566670141,525.2756566670141,525.2550908753377,525.2756566670141,525.2756566670141,525.2756566670141,525.2550908753377,525.2756566670141,525.2756566670141,525.2756566670141,527.3928507920355,531.3403954170062,525.2756566670141,525.2756566670141,530.4114479169948,525.7568536250037,526.7595243340475,527.3928507920355,528.4027745000203,525.2756566670141,525.2756566670141,525.2717575420044,525.2756566670141,525.2756566670141,525.2756566670141,525.2717575420044,525.2756566670141,525.2756566670141,530.4114479169948,525.2756566670141,530.4114479169948,530.49592866702,531.125438750023,525.2756566670141,2,1,1.293984166928567,reldom2_s029,001,2025-03-03_14h06.04.427,Where-B-Scan_AC,2022.2.5,None,
46,First_Order,8.0,viswhere,stimulus/viswhere_stim/blank_white.png,stimulus/viswhere_stim/blank_white.png,stimulus/viswhere_stim/30-deg_dot-left_salmon.png,stimulus/viswhere_stim/150-deg_dot-left_turquoise.png,stimulus/viswhere_stim/blank_white.png,stimulus/viswhere_stim/line_box.png,stimulus/viswhere_stim/line_yes.png,stimulus/viswhere_stim/line_no.png,None,Line,None,Dot,2,0.0,0,5.125,0,5.125,0,5.125,0,0.0,0.625,0,0.0,0,0.0,1,0.5,1,2.125,0,0.0,0,0.0,0,0.0,0,0.0,0,,,,,0,60,60,60,,,,,,,,,531.3403954170062,531.3403954170062,531.3403954170062,531.3403954170062,531.3403954170062,531.3403954170062,531.3403954170062,531.3403954170062,531.3197993753323,531.3403954170062,531.3403954170062,531.3403954170062,531.3197993753323,531.3403954170062,531.3403954170062,531.3403954170062,533.4560695840046,537.4897913340246,531.3403954170062,531.3403954170062,536.4676418750314,531.8215542919934,532.8234095420339,533.4560695840046,534.463627625024,531.3403954170062,531.3403954170062,531.336466041999,531.3403954170062,531.3403954170062,531.3403954170062,531.336466041999,531.3403954170062,531.3403954170062,536.4676418750314,531.3403954170062,536.4676418750314,536.5657620420097,537.1940895839944,531.3403954170062,2,1,1.1349156239884906,reldom2_s029,001,2025-03-03_14h06.04.427,Where-B-Scan_AC,2022.2.5,None,
0,0.0,None,fixation,stimulus/audwhere_stim/blank_white.png,stimulus/audwhere_stim/blank_white.png,stimulus/viswhere_stim/blank_white.png,stimulus/viswhere_stim/blank_white.png,stimulus/audwhere_stim/blank_white.png,stimulus/audwhere_stim/blank_white.png,stimulus/audwhere_stim/blank_white.png,stimulus/audwhere_stim/blank_white.png,0.0,0.0,0.0,0.0,0,0.0,0,0.0,0,0.0,0,0.0,0,0.0,0.0,0,0.0,0,0.0,0,0.0,0,0.0,0,0.0,0,0.0,0,0.0,0,0.0,9,,,,,0,61,61,61,,,,,,,,,537.4897913340246,537.4897913340246,537.4897913340246,537.4897913340246,537.4897913340246,537.4897913340246,537.4897913340246,537.4897913340246,537.3901129173659,537.4897913340246,537.4897913340246,537.4897913340246,537.3901129173659,537.4897913340246,537.4897913340246,537.4897913340246,537.4897913340246,537.4897913340246,537.4897913340246,537.4897913340246,537.4897913340246,537.4897913340246,537.4897913340246,537.4897913340246,537.4897913340246,537.4897913340246,537.4897913340246,537.4401129173658,537.4897913340246,537.4897913340246,537.4897913340246,537.4401129173658,537.4897913340246,537.4897913340246,537.4897913340246,537.4897913340246,537.4897913340246,542.692411541997,542.692411541997,546.6205835840083,None,0,,reldom2_s029,001,2025-03-03_14h06.04.427,Where-B-Scan_AC,2022.2.5,None,
47,Second_Order,8.0,viswhere,stimulus/viswhere_stim/90-deg_dot-left_lightsseagreen.png,stimulus/viswhere_stim/120-deg_dot-left_royalblue.png,stimulus/viswhere_stim/30-deg_dot-right_mediumslateblue.png,stimulus/viswhere_stim/60-deg_dot-right_lightsseagreen.png,stimulus/audwhere_stim/match_blank.png,stimulus/audwhere_stim/match_box.png,stimulus/audwhere_stim/match_yes.png,stimulus/audwhere_stim/match_no.png,1.0,Match,Dot,Dot,1,5.125,0,5.125,0,5.125,0,5.125,0,0.75,0.75,1,0.5,1,2.125,1,0.5,1,2.125,0,0.0,0,0.0,0,0.0,0,0.0,0,,,,,0,62,62,62,,,,,,,,,546.6205835840083,551.7456316250027,547.0993792919908,548.0860744590173,548.7213715420221,549.7193454999942,546.6205835840083,546.6205835840083,546.6350738333732,546.6205835840083,546.6205835840083,546.6205835840083,546.6350738333732,546.6205835840083,551.7456316250027,552.5399862920167,554.6125802090392,558.5081319170422,552.5399862920167,552.5399862920167,557.6653494590428,552.9848290419905,553.9995024169912,554.6125802090392,555.6143570840359,552.5399862920167,552.5399862920167,552.5135096253439,552.5399862920167,552.5399862920167,552.5399862920167,552.5135096253439,552.5399862920167,552.5399862920167,557.6653494590428,552.5399862920167,557.6653494590428,557.7344341670396,558.5081319170422,552.5399862920167,2,0,1.5680887079797685,reldom2_s029,001,2025-03-03_14h06.04.427,Where-B-Scan_AC,2022.2.5,None,
48,Second_Order,8.0,viswhere,stimulus/viswhere_stim/60-deg_dot-left_seagreen.png,stimulus/viswhere_stim/90-deg_dot-left_peru.png,stimulus/viswhere_stim/30-deg_dot-right_turquoise.png,stimulus/viswhere_stim/30-deg_dot-left_lightsseagreen.png,stimulus/audwhere_stim/match_blank.png,stimulus/audwhere_stim/match_box.png,stimulus/audwhere_stim/match_yes.png,stimulus/audwhere_stim/match_no.png,2.0,Match,Dot,Line,2,5.125,0,5.125,0,5.125,0,5.125,0,0.625,0.625,1,0.5,1,2.125,1,0.5,1,2.125,0,0.0,0,0.0,0,0.0,0,0.0,0,,,,,0,63,63,63,,,,,,,,,558.5081319170422,563.6229888340458,558.9944038750255,559.9805976670468,560.6153462500079,561.6136132500251,558.5081319170422,558.5081319170422,558.5220813750173,558.5081319170422,558.5081319170422,558.5081319170422,558.5220813750173,558.5081319170422,563.6229888340458,564.2884860420018,566.3823317920323,570.4080265419907,564.2884860420018,564.2884860420018,569.4166201670305,564.752309250005,565.768089500023,566.3823317920323,567.401321042038,564.2884860420018,564.2884860420018,564.2697752083263,564.2884860420018,564.2884860420018,564.2884860420018,564.2697752083263,564.2884860420018,564.2884860420018,569.4166201670305,564.2884860420018,569.4166201670305,569.4853988340474,570.1125516250031,564.2884860420018,2,1,1.2718092079740018,reldom2_s029,001,2025-03-03_14h06.04.427,Where-B-Scan_AC,2022.2.5,None,
0,0.0,None,fixation,stimulus/audwhere_stim/blank_white.png,stimulus/audwhere_stim/blank_white.png,stimulus/viswhere_stim/blank_white.png,stimulus/viswhere_stim/blank_white.png,stimulus/audwhere_stim/blank_white.png,stimulus/audwhere_stim/blank_white.png,stimulus/audwhere_stim/blank_white.png,stimulus/audwhere_stim/blank_white.png,0.0,0.0,0.0,0.0,0,0.0,0,0.0,0,0.0,0,0.0,0,0.0,0.0,0,0.0,0,0.0,0,0.0,0,0.0,0,0.0,0,0.0,0,0.0,0,0.0,16,,,,,0,64,64,64,,,,,,,,,570.4080265419907,570.4080265419907,570.4080265419907,570.4080265419907,570.4080265419907,570.4080265419907,570.4080265419907,570.4080265419907,570.3066597923365,570.4080265419907,570.4080265419907,570.4080265419907,570.3066597923365,570.4080265419907,570.4080265419907,570.4080265419907,570.4080265419907,570.4080265419907,570.4080265419907,570.4080265419907,570.4080265419907,570.4080265419907,570.4080265419907,570.4080265419907,570.4080265419907,570.4080265419907,570.4080265419907,570.3566597923365,570.4080265419907,570.4080265419907,570.4080265419907,570.3566597923365,570.4080265419907,570.4080265419907,570.4080265419907,570.4080265419907,570.4080265419907,575.5968335420475,575.5968335420475,586.5391476670047,None,0,,reldom2_s029,001,2025-03-03_14h06.04.427,Where-B-Scan_AC,2022.2.5,None,
