Trial,Order,Block,Type,Stimuli_File1,Stimuli_File2,Stimuli_File3,Stimuli_File4,Cue_File1,Cue_File2,Response_File_Yes,Response_File_No,Match,Cue_Dimension,Pair1_Dimension,Pair2_Dimension,Key,Cue1_Duration,Cue1_Onset,Cue2_Duration,Cue2_Onset,ResponseYes_Duration,ResponseYes_Onset,ResponseNo_Duration,ResponseNo_Onset,ITI_Within,ITI_Between,Image1_Duration,Image1_Onset,Image2_Duration,Image2_Onset,Image3_Duration,Image3_Onset,Image4_Duration,Image4_Onset,Sound1_Duration,Sound1_Onset,Sound2_Duration,Sound2_Onset,Sound3_Duration,Sound3_Onset,Sound4_Duration,Sound4_Onset,Fixation_Duration,trials_2.thisRepN,trials_2.thisTrialN,trials_2.thisN,trials_2.thisIndex,trials.thisRepN,trials.thisTrialN,trials.thisN,trials.thisIndex,text_start.started,key_resp_start.started,key_resp_start.keys,key_resp_start.rt,text2.started,key_resp_2.started,key_resp_2.keys,key_resp_2.rt,cue_file1.started,cue_file1.stopped,image_1.started,image_1.stopped,image_2.started,image_2.stopped,sound_icon1.started,sound_icon1.stopped,sound_1.started,sound_1.stopped,sound_icon2.started,sound_icon2.stopped,sound_2.started,sound_2.stopped,image_blank_1.started,image_blank_1.stopped,key_press.started,key_press.stopped,fixation_text.started,cue_file2.started,cue_file2.stopped,image_3.started,image_3.stopped,image_4.started,image_4.stopped,sound_icon3.started,sound_icon3.stopped,sound_3.started,sound_3.stopped,sound_icon4.started,sound_icon4.stopped,sound_4.started,sound_4.stopped,response_yes.started,response_yes.stopped,response_no.started,response_no.stopped,iti_blank.started,iti_blank.stopped,fixation_text.stopped,key_press.keys,key_press.corr,key_press.rt,participant,session,date,expName,psychopyVersion,frameRate,
,,,,,,,,,,,,,,,,,,,,,,,,,,,,,,,,,,,,,,,,,,,,,,,,,,,,7.832015666994266,7.832015666994266,2,1.6094024580088444,,,,,,,,,,,,,,,,,,,,,,,,,,,,,,,,,,,,,,,,,,,,,,,,reldom2_s029,001,2025-03-03_14h17.07.220,Aud-B-Scan_AC,2022.2.5,None,
,,,,,,,,,,,,,,,,,,,,,,,,,,,,,,,,,,,,,,,,,,,,0,0,0,0,,,,,,,,,9.482304624980316,9.482304624980316,5,17.832214750000276,,,,,,,,,,,,,,,,,,,,,,,,,,,,,,,,,,,,,,,,,,,,reldom2_s029,001,2025-03-03_14h17.07.220,Aud-B-Scan_AC,2022.2.5,None,
,,,,,,,,,,,,,,,,,,,,,,,,,,,,,,,,,,,,,,,,,,,,1,0,1,0,,,,,,,,,27.32895729201846,27.32895729201846,5,1.9845309579977766,,,,,,,,,,,,,,,,,,,,,,,,,,,,,,,,,,,,,,,,,,,,reldom2_s029,001,2025-03-03_14h17.07.220,Aud-B-Scan_AC,2022.2.5,None,
,,,,,,,,,,,,,,,,,,,,,,,,,,,,,,,,,,,,,,,,,,,,2,0,2,0,,,,,,,,,29.34051599999657,29.34051599999657,5,1.9750728330109268,,,,,,,,,,,,,,,,,,,,,,,,,,,,,,,,,,,,,,,,,,,,reldom2_s029,001,2025-03-03_14h17.07.220,Aud-B-Scan_AC,2022.2.5,None,
,,,,,,,,,,,,,,,,,,,,,,,,,,,,,,,,,,,,,,,,,,,,3,0,3,0,,,,,,,,,31.328391709015705,31.328391709015705,5,1.986534333031159,,,,,,,,,,,,,,,,,,,,,,,,,,,,,,,,,,,,,,,,,,,,reldom2_s029,001,2025-03-03_14h17.07.220,Aud-B-Scan_AC,2022.2.5,None,
0,0.0,None,fixation,stimulus/audwhat_stim/blank_white.png,stimulus/audwhat_stim/blank_white.png,stimulus/audwhere_stim/blank_white.png,stimulus/audwhere_stim/blank_white.png,stimulus/audwhat_stim/blank_white.png,stimulus/audwhat_stim/blank_white.png,stimulus/audwhat_stim/blank_white.png,stimulus/audwhat_stim/blank_white.png,0.0,0.0,0.0,0.0,0,0.0,0,0.0,0,0.0,0,0.0,0,0.0,0.0,0,0,0,0,0,0,0,0,0,0.0,0,0.0,0,0.0,0,0.0,16,,,,,0,0,0,0,,,,,,,,,33.53145174996462,33.53145174996462,33.53145174996462,33.53145174996462,33.53145174996462,33.53145174996462,33.53145174996462,33.53145174996462,33.43345270867382,33.53145174996462,33.53145174996462,33.53145174996462,33.43345270867382,33.53145174996462,33.53145174996462,33.53145174996462,33.53145174996462,33.53145174996462,33.53145174996462,33.53145174996462,33.53145174996462,33.53145174996462,33.53145174996462,33.53145174996462,33.53145174996462,33.53145174996462,33.53145174996462,33.483452708673816,33.53145174996462,33.53145174996462,33.53145174996462,33.483452708673816,33.53145174996462,33.53145174996462,33.53145174996462,33.53145174996462,33.53145174996462,38.72518470900832,38.72518470900832,49.742868041968904,None,0,,reldom2_s029,001,2025-03-03_14h17.07.220,Aud-B-Scan_AC,2022.2.5,None,
1,First_Order,1.0,audwhat,stimulus/audwhat_stim/dummy.wav,stimulus/audwhat_stim/dummy.wav,stimulus/audwhat_stim/string viola_low-pitch_F_loud.wav,stimulus/audwhat_stim/string cello_high-pitch_Dtri_loud.wav,stimulus/audwhat_stim/blank_white.png,stimulus/audwhat_stim/pitch_box.png,stimulus/audwhat_stim/pitch_yes.png,stimulus/audwhat_stim/pitch_no.png,None,Pitch,None,Category,2,0.0,0,5.125,0,5.125,0,5.125,0,0.0,0.625,0,0,0,0,0,0,0,0,0,0.0,0,0.0,1,0.5,1,2.125,0,,,,,0,1,1,1,,,,,,,,,49.742868041968904,49.742868041968904,49.742868041968904,49.742868041968904,49.742868041968904,49.742868041968904,49.742868041968904,49.742868041968904,49.668228416971395,49.742868041968904,49.742868041968904,49.742868041968904,49.668228416971395,49.742868041968904,49.742868041968904,49.742868041968904,51.835435250017326,55.86789162497735,49.742868041968904,49.742868041968904,54.932369749993086,49.742868041968904,49.742868041968904,49.742868041968904,49.742868041968904,50.19756749999942,51.24434158398071,50.16885779163955,,51.835435250017326,52.88536291697528,51.806883750661896,,49.742868041968904,54.932369749993086,49.742868041968904,54.932369749993086,54.97295112500433,55.656038250017446,49.742868041968904,2,1,1.7880674579646438,reldom2_s029,001,2025-03-03_14h17.07.220,Aud-B-Scan_AC,2022.2.5,None,
2,First_Order,1.0,audwhat,stimulus/audwhat_stim/dummy.wav,stimulus/audwhat_stim/dummy.wav,stimulus/audwhat_stim/percussion xylophone_high-pitch_Ftri_loud.wav,stimulus/audwhat_stim/string viola_high-pitch_Ftri_loud.wav,stimulus/audwhat_stim/blank_white.png,stimulus/audwhat_stim/pitch_box.png,stimulus/audwhat_stim/pitch_yes.png,stimulus/audwhat_stim/pitch_no.png,None,Pitch,None,Pitch,1,0.0,0,5.125,0,5.125,0,5.125,0,0.0,0.625,0,0,0,0,0,0,0,0,0,0.0,0,0.0,1,0.5,1,2.125,0,,,,,0,2,2,2,,,,,,,,,55.86789162497735,55.86789162497735,55.86789162497735,55.86789162497735,55.86789162497735,55.86789162497735,55.86789162497735,55.86789162497735,55.78937158335078,55.86789162497735,55.86789162497735,55.86789162497735,55.78937158335078,55.86789162497735,55.86789162497735,55.86789162497735,57.96705070900498,,55.86789162497735,55.86789162497735,61.03541512496304,55.86789162497735,55.86789162497735,55.86789162497735,55.86789162497735,56.36121787497541,57.41853483399609,56.33157445863277,57.37318666698411,57.96705070900498,59.02013595897006,57.93745316664378,,55.86789162497735,61.03541512496304,55.86789162497735,61.03541512496304,61.07582733401796,61.760014250001404,55.86789162497735,1,1,1.2104890830232762,reldom2_s029,001,2025-03-03_14h17.07.220,Aud-B-Scan_AC,2022.2.5,None,
3,First_Order,1.0,audwhat,stimulus/audwhat_stim/dummy.wav,stimulus/audwhat_stim/dummy.wav,stimulus/audwhat_stim/string viola_low-pitch_Dtri_loud.wav,stimulus/audwhat_stim/percussion mallet_low-pitch_Dtri_loud.wav,stimulus/audwhat_stim/blank_white.png,stimulus/audwhat_stim/category_box.png,stimulus/audwhat_stim/category_yes.png,stimulus/audwhat_stim/category_no.png,None,Category,None,Pitch,2,0.0,0,5.125,0,5.125,0,5.125,0,0.0,0.625,0,0,0,0,0,0,0,0,0,0.0,0,0.0,1,0.5,1,2.125,0,,,,,0,3,3,3,,,,,,,,,61.974944874993525,61.974944874993525,61.974944874993525,61.974944874993525,61.974944874993525,61.974944874993525,61.974944874993525,61.974944874993525,61.89334758333474,61.974944874993525,61.974944874993525,61.974944874993525,61.89334758333474,61.974944874993525,61.974944874993525,61.974944874993525,64.0527012089733,68.09386008401634,61.974944874993525,61.974944874993525,67.14789833396208,61.974944874993525,61.974944874993525,61.974944874993525,61.974944874993525,62.43738187500276,63.49796058400534,62.40762070863663,,64.0527012089733,65.11726691696094,64.02284045867079,,61.974944874993525,67.14789833396208,61.974944874993525,67.14789833396208,67.1888175419881,67.83967791701434,61.974944874993525,2,1,0.9280302500119433,reldom2_s029,001,2025-03-03_14h17.07.220,Aud-B-Scan_AC,2022.2.5,None,
4,First_Order,1.0,audwhat,stimulus/audwhat_stim/dummy.wav,stimulus/audwhat_stim/dummy.wav,stimulus/audwhat_stim/percussion mallet_low-pitch_D_loud.wav,stimulus/audwhat_stim/percussion xylophone_high-pitch_Dtri_loud.wav,stimulus/audwhat_stim/blank_white.png,stimulus/audwhat_stim/pitch_box.png,stimulus/audwhat_stim/pitch_yes.png,stimulus/audwhat_stim/pitch_no.png,None,Pitch,None,Category,2,0.0,0,5.125,0,5.125,0,5.125,0,0.0,0.625,0,0,0,0,0,0,0,0,0,0.0,0,0.0,1,0.5,1,2.125,0,,,,,0,4,4,4,,,,,,,,,68.09386008401634,68.09386008401634,68.09386008401634,68.09386008401634,68.09386008401634,68.09386008401634,68.09386008401634,68.09386008401634,68.01331895831584,68.09386008401634,68.09386008401634,68.09386008401634,68.01331895831584,68.09386008401634,68.09386008401634,68.09386008401634,70.16667129198322,,68.09386008401634,68.09386008401634,73.2584574999637,68.09386008401634,68.09386008401634,68.09386008401634,68.09386008401634,68.55492324999068,69.61413162498502,68.5255232506354,,70.16667129198322,71.23068270896329,70.13714633364386,71.1830600000103,68.09386008401634,73.2584574999637,68.09386008401634,73.2584574999637,73.29988737497479,73.94915112497984,68.09386008401634,2,1,1.039773166005034,reldom2_s029,001,2025-03-03_14h17.07.220,Aud-B-Scan_AC,2022.2.5,None,
0,0.0,None,fixation,stimulus/audwhat_stim/blank_white.png,stimulus/audwhat_stim/blank_white.png,stimulus/audwhere_stim/blank_white.png,stimulus/audwhere_stim/blank_white.png,stimulus/audwhat_stim/blank_white.png,stimulus/audwhat_stim/blank_white.png,stimulus/audwhat_stim/blank_white.png,stimulus/audwhat_stim/blank_white.png,0.0,0.0,0.0,0.0,0,0.0,0,0.0,0,0.0,0,0.0,0,0.0,0.0,0,0,0,0,0,0,0,0,0,0.0,0,0.0,0,0.0,0,0.0,8,,,,,0,5,5,5,,,,,,,,,74.22273958398728,74.22273958398728,74.22273958398728,74.22273958398728,74.22273958398728,74.22273958398728,74.22273958398728,74.22273958398728,74.12328679234099,74.22273958398728,74.22273958398728,74.22273958398728,74.12328679234099,74.22273958398728,74.22273958398728,74.22273958398728,74.22273958398728,74.22273958398728,74.22273958398728,74.22273958398728,74.22273958398728,74.22273958398728,74.22273958398728,74.22273958398728,74.22273958398728,74.22273958398728,74.22273958398728,74.173286792341,74.22273958398728,74.22273958398728,74.22273958398728,74.173286792341,74.22273958398728,74.22273958398728,74.22273958398728,74.22273958398728,74.22273958398728,79.4303697089781,79.4303697089781,82.39529729197966,None,0,,reldom2_s029,001,2025-03-03_14h17.07.220,Aud-B-Scan_AC,2022.2.5,None,
5,Second_Order,1.0,audwhat,stimulus/audwhat_stim/percussion mallet_high-pitch_Dtri_loud.wav,stimulus/audwhat_stim/string cello_high-pitch_Dtri_loud.wav,stimulus/audwhat_stim/string viola_low-pitch_F_loud.wav,stimulus/audwhat_stim/percussion mallet_low-pitch_F_loud.wav,stimulus/audwhat_stim/match_blank.png,stimulus/audwhat_stim/match_box.png,stimulus/audwhat_stim/match_yes.png,stimulus/audwhat_stim/match_no.png,1.0,Match,Pitch,Pitch,1,5.125,0,5.125,0,5.125,0,5.125,0,0.75,0.75,0,0,0,0,0,0,0,0,1,0.5,1,2.125,1,0.5,1,2.125,0,,,,,0,6,6,6,,,,,,,,,82.39529729197966,87.51356275001308,82.39529729197966,82.39529729197966,82.39529729197966,82.39529729197966,82.85160641698167,83.85004120896338,82.86445829167884,,84.47220145899337,85.47060637496179,84.48486500064998,,87.51356275001308,88.36548408400267,90.42562862497289,94.35898337501567,88.36548408400267,88.36548408400267,93.55128704197705,88.36548408400267,88.36548408400267,88.36548408400267,88.36548408400267,88.82000945898471,89.87581233400851,88.79050204164038,,90.42562862497289,91.4857017089962,90.39606770867637,,88.36548408400267,93.55128704197705,88.36548408400267,93.55128704197705,93.55128704197705,,88.36548408400267,1,1,0.9718049999792129,reldom2_s029,001,2025-03-03_14h17.07.220,Aud-B-Scan_AC,2022.2.5,None,
6,Second_Order,1.0,audwhat,stimulus/audwhat_stim/percussion mallet_low-pitch_F_loud.wav,stimulus/audwhat_stim/percussion mallet_high-pitch_Dtri_loud.wav,stimulus/audwhat_stim/string viola_low-pitch_Ftri_loud.wav,stimulus/audwhat_stim/percussion mallet_low-pitch_Ftri_loud.wav,stimulus/audwhat_stim/match_blank.png,stimulus/audwhat_stim/match_box.png,stimulus/audwhat_stim/match_yes.png,stimulus/audwhat_stim/match_no.png,2.0,Match,Category,Pitch,2,5.125,0,5.125,0,5.125,0,5.125,0,0.625,0.625,0,0,0,0,0,0,0,0,1,0.5,1,2.125,1,0.5,1,2.125,0,,,,,0,7,7,7,,,,,,,,,94.35898337501567,99.47613170900149,94.35898337501567,94.35898337501567,94.35898337501567,94.35898337501567,94.81228216696763,95.8109473749646,94.82551700063438,,96.43324604199734,97.43136175000109,96.44571958366238,,99.47613170900149,100.20508733397583,102.25389916700078,,100.20508733397583,100.20508733397583,105.3739786669612,100.20508733397583,100.20508733397583,100.20508733397583,100.20508733397583,100.65873470896622,101.70696325000608,100.62974412565042,,102.25389916700078,103.31097291701008,102.22505012568242,,100.20508733397583,105.3739786669612,100.20508733397583,105.3739786669612,105.3739786669612,106.05762908398174,100.20508733397583,1,0,1.480105833034031,reldom2_s029,001,2025-03-03_14h17.07.220,Aud-B-Scan_AC,2022.2.5,None,
0,0.0,None,fixation,stimulus/audwhat_stim/blank_white.png,stimulus/audwhat_stim/blank_white.png,stimulus/audwhere_stim/blank_white.png,stimulus/audwhere_stim/blank_white.png,stimulus/audwhat_stim/blank_white.png,stimulus/audwhat_stim/blank_white.png,stimulus/audwhat_stim/blank_white.png,stimulus/audwhat_stim/blank_white.png,0.0,0.0,0.0,0.0,0,0.0,0,0.0,0,0.0,0,0.0,0,0.0,0.0,0,0,0,0,0,0,0,0,0,0.0,0,0.0,0,0.0,0,0.0,10,,,,,0,8,8,8,,,,,,,,,106.28838499996345,106.28838499996345,106.28838499996345,106.28838499996345,106.28838499996345,106.28838499996345,106.28838499996345,106.28838499996345,106.19096241731506,106.28838499996345,106.28838499996345,106.28838499996345,106.19096241731506,106.28838499996345,106.28838499996345,106.28838499996345,106.28838499996345,106.28838499996345,106.28838499996345,106.28838499996345,106.28838499996345,106.28838499996345,106.28838499996345,106.28838499996345,106.28838499996345,106.28838499996345,106.28838499996345,106.24096241731507,106.28838499996345,106.28838499996345,106.28838499996345,106.24096241731507,106.28838499996345,106.28838499996345,106.28838499996345,106.28838499996345,106.28838499996345,111.5082922920119,111.5082922920119,116.5584730419796,None,0,,reldom2_s029,001,2025-03-03_14h17.07.220,Aud-B-Scan_AC,2022.2.5,None,
7,First_Order,2.0,audwhat,stimulus/audwhat_stim/dummy.wav,stimulus/audwhat_stim/dummy.wav,stimulus/audwhat_stim/percussion xylophone_high-pitch_F_loud.wav,stimulus/audwhat_stim/percussion mallet_low-pitch_D_loud.wav,stimulus/audwhat_stim/blank_white.png,stimulus/audwhat_stim/category_box.png,stimulus/audwhat_stim/category_yes.png,stimulus/audwhat_stim/category_no.png,None,Category,None,Category,1,0.0,0,5.125,0,5.125,0,5.125,0,0.0,0.625,0,0,0,0,0,0,0,0,0,0.0,0,0.0,1,0.5,1,2.125,0,,,,,0,9,9,9,,,,,,,,,116.5584730419796,116.5584730419796,116.5584730419796,116.5584730419796,116.5584730419796,116.5584730419796,116.5584730419796,116.5584730419796,116.48540208364527,116.5584730419796,116.5584730419796,116.5584730419796,116.48540208364527,116.5584730419796,116.5584730419796,116.5584730419796,118.64689637499396,,116.5584730419796,116.5584730419796,121.70935545896646,116.5584730419796,116.5584730419796,116.5584730419796,116.5584730419796,117.0232814589981,118.08970945898909,116.99313308363004,118.0431230419781,118.64689637499396,119.71465833397815,118.61679250066324,,116.5584730419796,121.70935545896646,116.5584730419796,121.70935545896646,121.75030270899879,122.40449237497523,116.5584730419796,1,1,2.9242691670078784,reldom2_s029,001,2025-03-03_14h17.07.220,Aud-B-Scan_AC,2022.2.5,None,
8,First_Order,2.0,audwhat,stimulus/audwhat_stim/dummy.wav,stimulus/audwhat_stim/dummy.wav,stimulus/audwhat_stim/percussion mallet_low-pitch_D_loud.wav,stimulus/audwhat_stim/string viola_low-pitch_D_loud.wav,stimulus/audwhat_stim/blank_white.png,stimulus/audwhat_stim/pitch_box.png,stimulus/audwhat_stim/pitch_yes.png,stimulus/audwhat_stim/pitch_no.png,None,Pitch,None,Pitch,1,0.0,0,5.125,0,5.125,0,5.125,0,0.0,0.625,0,0,0,0,0,0,0,0,0,0.0,0,0.0,1,0.5,1,2.125,0,,,,,0,10,10,10,,,,,,,,,122.65988708398072,122.65988708398072,122.65988708398072,122.65988708398072,122.65988708398072,122.65988708398072,122.65988708398072,122.65988708398072,122.57855854233105,122.65988708398072,122.65988708398072,122.65988708398072,122.57855854233105,122.65988708398072,122.65988708398072,122.65988708398072,124.74313241697382,128.78706000000238,122.65988708398072,122.65988708398072,127.83994149998762,122.65988708398072,122.65988708398072,122.65988708398072,122.65988708398072,123.12293704197509,124.18885087501258,123.09298700065507,,124.74313241697382,125.80790187499952,124.71333770867592,,122.65988708398072,127.83994149998762,122.65988708398072,127.83994149998762,127.88086774997646,128.53219087497564,122.65988708398072,1,1,1.490215749014169,reldom2_s029,001,2025-03-03_14h17.07.220,Aud-B-Scan_AC,2022.2.5,None,
9,First_Order,2.0,audwhat,stimulus/audwhat_stim/dummy.wav,stimulus/audwhat_stim/dummy.wav,stimulus/audwhat_stim/percussion mallet_low-pitch_D_loud.wav,stimulus/audwhat_stim/percussion mallet_high-pitch_Ftri_loud.wav,stimulus/audwhat_stim/blank_white.png,stimulus/audwhat_stim/category_box.png,stimulus/audwhat_stim/category_yes.png,stimulus/audwhat_stim/category_no.png,None,Category,None,Category,1,0.0,0,5.125,0,5.125,0,5.125,0,0.0,0.625,0,0,0,0,0,0,0,0,0,0.0,0,0.0,1,0.5,1,2.125,0,,,,,0,11,11,11,,,,,,,,,128.78706000000238,128.78706000000238,128.78706000000238,128.78706000000238,128.78706000000238,128.78706000000238,128.78706000000238,128.78706000000238,128.70617441731352,128.78706000000238,128.78706000000238,128.78706000000238,128.70617441731352,128.78706000000238,128.78706000000238,128.78706000000238,130.87806320900563,134.89840987499338,128.78706000000238,128.78706000000238,133.94685274997028,128.78706000000238,128.78706000000238,128.78706000000238,128.78706000000238,129.25155462499242,130.32264391699573,129.22153691668453,,130.87806320900563,131.94826483400539,130.84800783364724,,128.78706000000238,133.94685274997028,128.78706000000238,133.94685274997028,133.9882145000156,134.64322870899923,128.78706000000238,1,1,0.8289702080073766,reldom2_s029,001,2025-03-03_14h17.07.220,Aud-B-Scan_AC,2022.2.5,None,
10,First_Order,2.0,audwhat,stimulus/audwhat_stim/dummy.wav,stimulus/audwhat_stim/dummy.wav,stimulus/audwhat_stim/string cello_high-pitch_F_loud.wav,stimulus/audwhat_stim/percussion mallet_high-pitch_F_loud.wav,stimulus/audwhat_stim/blank_white.png,stimulus/audwhat_stim/category_box.png,stimulus/audwhat_stim/category_yes.png,stimulus/audwhat_stim/category_no.png,None,Category,None,Pitch,2,0.0,0,5.125,0,5.125,0,5.125,0,0.0,0.625,0,0,0,0,0,0,0,0,0,0.0,0,0.0,1,0.5,1,2.125,0,,,,,0,12,12,12,,,,,,,,,134.89840987499338,134.89840987499338,134.89840987499338,134.89840987499338,134.89840987499338,134.89840987499338,134.89840987499338,134.89840987499338,134.81755120834183,134.89840987499338,134.89840987499338,134.89840987499338,134.81755120834183,134.89840987499338,134.89840987499338,134.89840987499338,136.99098441697424,141.03150841698516,134.89840987499338,134.89840987499338,140.06354004197055,134.89840987499338,134.89840987499338,134.89840987499338,134.89840987499338,135.36337883397937,136.43395149998832,135.33193950064404,,136.99098441697424,138.06486079201568,136.96085370867902,,134.89840987499338,140.06354004197055,134.89840987499338,140.06354004197055,140.10497958399355,140.7590978749795,134.89840987499338,2,1,1.4539861250086688,reldom2_s029,001,2025-03-03_14h17.07.220,Aud-B-Scan_AC,2022.2.5,None,
0,0.0,None,fixation,stimulus/audwhat_stim/blank_white.png,stimulus/audwhat_stim/blank_white.png,stimulus/audwhere_stim/blank_white.png,stimulus/audwhere_stim/blank_white.png,stimulus/audwhat_stim/blank_white.png,stimulus/audwhat_stim/blank_white.png,stimulus/audwhat_stim/blank_white.png,stimulus/audwhat_stim/blank_white.png,0.0,0.0,0.0,0.0,0,0.0,0,0.0,0,0.0,0,0.0,0,0.0,0.0,0,0,0,0,0,0,0,0,0,0.0,0,0.0,0,0.0,0,0.0,8,,,,,0,13,13,13,,,,,,,,,141.03150841698516,141.03150841698516,141.03150841698516,141.03150841698516,141.03150841698516,141.03150841698516,141.03150841698516,141.03150841698516,140.93274329233296,141.03150841698516,141.03150841698516,141.03150841698516,140.93274329233296,141.03150841698516,141.03150841698516,141.03150841698516,141.03150841698516,141.03150841698516,141.03150841698516,141.03150841698516,141.03150841698516,141.03150841698516,141.03150841698516,141.03150841698516,141.03150841698516,141.03150841698516,141.03150841698516,140.98274329233294,141.03150841698516,141.03150841698516,141.03150841698516,140.98274329233294,141.03150841698516,141.03150841698516,141.03150841698516,141.03150841698516,141.03150841698516,146.22084441699553,146.22084441699553,149.20050104201073,None,0,,reldom2_s029,001,2025-03-03_14h17.07.220,Aud-B-Scan_AC,2022.2.5,None,
11,Second_Order,2.0,audwhat,stimulus/audwhat_stim/string viola_high-pitch_Dtri_loud.wav,stimulus/audwhat_stim/string cello_low-pitch_D_loud.wav,stimulus/audwhat_stim/percussion mallet_high-pitch_Dtri_loud.wav,stimulus/audwhat_stim/percussion mallet_low-pitch_Ftri_loud.wav,stimulus/audwhat_stim/match_blank.png,stimulus/audwhat_stim/match_box.png,stimulus/audwhat_stim/match_yes.png,stimulus/audwhat_stim/match_no.png,1.0,Match,Category,Category,1,5.125,0,5.125,0,5.125,0,5.125,0,0.75,0.75,0,0,0,0,0,0,0,0,1,0.5,1,2.125,1,0.5,1,2.125,0,,,,,0,14,14,14,,,,,,,,,149.20050104201073,154.31817041698378,149.20050104201073,149.20050104201073,149.20050104201073,149.20050104201073,149.6555200839648,150.6417255839915,149.66872950067435,,151.27628258400364,152.2750825000112,151.2888932916724,,154.31817041698378,155.1656809169799,157.23556733399164,,155.1656809169799,155.1656809169799,160.3320943340077,155.1656809169799,155.1656809169799,155.1656809169799,155.1656809169799,155.58069979201537,156.63617229199735,155.55092050065676,,157.23556733399164,158.303238374996,157.2056294166289,,155.1656809169799,160.3320943340077,155.1656809169799,160.3320943340077,160.3320943340077,,155.1656809169799,2,0,0.7633961659739725,reldom2_s029,001,2025-03-03_14h17.07.220,Aud-B-Scan_AC,2022.2.5,None,
12,Second_Order,2.0,audwhat,stimulus/audwhat_stim/string viola_low-pitch_F_loud.wav,stimulus/audwhat_stim/string viola_high-pitch_Ftri_loud.wav,stimulus/audwhat_stim/percussion mallet_low-pitch_Ftri_loud.wav,stimulus/audwhat_stim/percussion xylophone_high-pitch_Dtri_loud.wav,stimulus/audwhat_stim/match_blank.png,stimulus/audwhat_stim/match_box.png,stimulus/audwhat_stim/match_yes.png,stimulus/audwhat_stim/match_no.png,1.0,Match,Category,Category,1,5.125,0,5.125,0,5.125,0,5.125,0,0.625,0.625,0,0,0,0,0,0,0,0,1,0.5,1,2.125,1,0.5,1,2.125,0,,,,,0,15,15,15,,,,,,,,,161.13670820900006,166.25746316701407,161.13670820900006,161.13670820900006,161.13670820900006,161.13670820900006,161.5957258339622,162.58524220896652,161.59817154164583,,163.22163354197983,164.21950499998638,163.23365991667768,,166.25746316701407,166.9928187499754,169.048972708988,173.09771720896242,166.9928187499754,166.9928187499754,172.17797295900527,166.9928187499754,166.9928187499754,166.9928187499754,166.9928187499754,167.4494731670129,168.49947483401047,167.4201253336544,,169.048972708988,170.10967337497277,169.02002520865452,170.06357362499693,166.9928187499754,172.17797295900527,166.9928187499754,172.17797295900527,172.17797295900527,172.86569154198514,166.9928187499754,2,0,1.198635998996906,reldom2_s029,001,2025-03-03_14h17.07.220,Aud-B-Scan_AC,2022.2.5,None,
0,0.0,None,fixation,stimulus/audwhat_stim/blank_white.png,stimulus/audwhat_stim/blank_white.png,stimulus/audwhere_stim/blank_white.png,stimulus/audwhere_stim/blank_white.png,stimulus/audwhat_stim/blank_white.png,stimulus/audwhat_stim/blank_white.png,stimulus/audwhat_stim/blank_white.png,stimulus/audwhat_stim/blank_white.png,0.0,0.0,0.0,0.0,0,0.0,0,0.0,0,0.0,0,0.0,0,0.0,0.0,0,0,0,0,0,0,0,0,0,0.0,0,0.0,0,0.0,0,0.0,9,,,,,0,16,16,16,,,,,,,,,173.09771720896242,173.09771720896242,173.09771720896242,173.09771720896242,173.09771720896242,173.09771720896242,173.09771720896242,173.09771720896242,172.9990248753185,173.09771720896242,173.09771720896242,173.09771720896242,172.9990248753185,173.09771720896242,173.09771720896242,173.09771720896242,173.09771720896242,173.09771720896242,173.09771720896242,173.09771720896242,173.09771720896242,173.09771720896242,173.09771720896242,173.09771720896242,173.09771720896242,173.09771720896242,173.09771720896242,173.04902487531848,173.09771720896242,173.09771720896242,173.09771720896242,173.04902487531848,173.09771720896242,173.09771720896242,173.09771720896242,173.09771720896242,173.09771720896242,178.29717187496135,178.29717187496135,182.36030058399774,None,0,,reldom2_s029,001,2025-03-03_14h17.07.220,Aud-B-Scan_AC,2022.2.5,None,
13,First_Order,3.0,audwhere,stimulus/audwhere_stim/dummy.wav,stimulus/audwhere_stim/dummy.wav,stimulus/audwhere_stim/left_toward_290h.wav,stimulus/audwhere_stim/right_toward_280h.wav,stimulus/audwhere_stim/blank_white.png,stimulus/audwhere_stim/direction_box.png,stimulus/audwhere_stim/direction_yes.png,stimulus/audwhere_stim/direction_no.png,None,Direction,None,Direction,1,0.0,0,5.125,0,5.125,0,5.125,0,0.0,0.625,0,0,0,0,0,0,0,0,0,0.0,0,0.0,1,0.5,1,2.125,0,,,,,0,17,17,17,,,,,,,,,182.36030058399774,182.36030058399774,182.36030058399774,182.36030058399774,182.36030058399774,182.36030058399774,182.36030058399774,182.36030058399774,182.28958641665912,182.36030058399774,182.36030058399774,182.36030058399774,182.28958641665912,182.36030058399774,182.36030058399774,182.36030058399774,184.45103687496157,,182.36030058399774,182.36030058399774,187.520815166994,182.36030058399774,182.36030058399774,182.36030058399774,182.36030058399774,182.8245602090028,183.89412808400812,182.7945664586771,,184.45103687496157,185.524730834004,184.42106195865588,,182.36030058399774,187.520815166994,182.36030058399774,187.520815166994,187.56166716699954,188.21585312497336,182.36030058399774,1,1,1.61734920804156,reldom2_s029,001,2025-03-03_14h17.07.220,Aud-B-Scan_AC,2022.2.5,None,
14,First_Order,3.0,audwhere,stimulus/audwhere_stim/dummy.wav,stimulus/audwhere_stim/dummy.wav,stimulus/audwhere_stim/left_toward_270h.wav,stimulus/audwhere_stim/right_toward_290h.wav,stimulus/audwhere_stim/blank_white.png,stimulus/audwhere_stim/direction_box.png,stimulus/audwhere_stim/direction_yes.png,stimulus/audwhere_stim/direction_no.png,None,Direction,None,Direction,1,0.0,0,5.125,0,5.125,0,5.125,0,0.0,0.625,0,0,0,0,0,0,0,0,0,0.0,0,0.0,1,0.5,1,2.125,0,,,,,0,18,18,18,,,,,,,,,188.46915550000267,188.46915550000267,188.46915550000267,188.46915550000267,188.46915550000267,188.46915550000267,188.46915550000267,188.46915550000267,188.39015766731077,188.46915550000267,188.46915550000267,188.46915550000267,188.39015766731077,188.46915550000267,188.46915550000267,188.46915550000267,190.56085458397865,194.58104441699106,188.46915550000267,188.46915550000267,193.63246183400042,188.46915550000267,188.46915550000267,188.46915550000267,188.46915550000267,188.93374212499475,190.00464066700079,188.9037385416489,,190.56085458397865,191.63177841698052,190.53078970866434,,188.46915550000267,193.63246183400042,188.46915550000267,193.63246183400042,193.6739137090044,194.32795537501806,188.46915550000267,1,1,2.564472083002329,reldom2_s029,001,2025-03-03_14h17.07.220,Aud-B-Scan_AC,2022.2.5,None,
15,First_Order,3.0,audwhere,stimulus/audwhere_stim/dummy.wav,stimulus/audwhere_stim/dummy.wav,stimulus/audwhere_stim/left_away_290h.wav,stimulus/audwhere_stim/left_toward_280h.wav,stimulus/audwhere_stim/blank_white.png,stimulus/audwhere_stim/direction_box.png,stimulus/audwhere_stim/direction_yes.png,stimulus/audwhere_stim/direction_no.png,None,Direction,None,Side,2,0.0,0,5.125,0,5.125,0,5.125,0,0.0,0.625,0,0,0,0,0,0,0,0,0,0.0,0,0.0,1,0.5,1,2.125,0,,,,,0,19,19,19,,,,,,,,,194.58104441699106,194.58104441699106,194.58104441699106,194.58104441699106,194.58104441699106,194.58104441699106,194.58104441699106,194.58104441699106,194.5017178333093,194.58104441699106,194.58104441699106,194.58104441699106,194.5017178333093,194.58104441699106,194.58104441699106,194.58104441699106,196.67555699998047,200.6971640419797,194.58104441699106,194.58104441699106,199.74772512499476,194.58104441699106,194.58104441699106,194.58104441699106,194.58104441699106,195.04596520896303,196.11778600001708,195.01606679166824,,196.67555699998047,197.74965554196388,196.64542825066408,,194.58104441699106,199.74772512499476,194.58104441699106,199.74772512499476,199.78874287498184,200.44378695898922,194.58104441699106,2,1,1.8109826250001788,reldom2_s029,001,2025-03-03_14h17.07.220,Aud-B-Scan_AC,2022.2.5,None,
16,First_Order,3.0,audwhere,stimulus/audwhere_stim/dummy.wav,stimulus/audwhere_stim/dummy.wav,stimulus/audwhere_stim/left_toward_300h.wav,stimulus/audwhere_stim/left_away_290h.wav,stimulus/audwhere_stim/blank_white.png,stimulus/audwhere_stim/direction_box.png,stimulus/audwhere_stim/direction_yes.png,stimulus/audwhere_stim/direction_no.png,None,Direction,None,Side,2,0.0,0,5.125,0,5.125,0,5.125,0,0.0,0.625,0,0,0,0,0,0,0,0,0,0.0,0,0.0,1,0.5,1,2.125,0,,,,,0,20,20,20,,,,,,,,,200.6971640419797,200.6971640419797,200.6971640419797,200.6971640419797,200.6971640419797,200.6971640419797,200.6971640419797,200.6971640419797,200.6177055003083,200.6971640419797,200.6971640419797,200.6971640419797,200.6177055003083,200.6971640419797,200.6971640419797,200.6971640419797,202.79087645898107,206.835460125003,200.6971640419797,200.6971640419797,205.86646345898043,200.6971640419797,200.6971640419797,200.6971640419797,200.6971640419797,201.1636588340043,202.23472100001527,201.13347162562812,,202.79087645898107,203.86563037498854,202.7610742506843,,200.6971640419797,205.86646345898043,200.6971640419797,205.86646345898043,205.90724508400308,206.5611437089974,200.6971640419797,2,1,1.4883042490109801,reldom2_s029,001,2025-03-03_14h17.07.220,Aud-B-Scan_AC,2022.2.5,None,
0,0.0,None,fixation,stimulus/audwhat_stim/blank_white.png,stimulus/audwhat_stim/blank_white.png,stimulus/audwhere_stim/blank_white.png,stimulus/audwhere_stim/blank_white.png,stimulus/audwhat_stim/blank_white.png,stimulus/audwhat_stim/blank_white.png,stimulus/audwhat_stim/blank_white.png,stimulus/audwhat_stim/blank_white.png,0.0,0.0,0.0,0.0,0,0.0,0,0.0,0,0.0,0,0.0,0,0.0,0.0,0,0,0,0,0,0,0,0,0,0.0,0,0.0,0,0.0,0,0.0,10,,,,,0,21,21,21,,,,,,,,,206.835460125003,206.835460125003,206.835460125003,206.835460125003,206.835460125003,206.835460125003,206.835460125003,206.835460125003,206.73557175029615,206.835460125003,206.835460125003,206.835460125003,206.73557175029615,206.835460125003,206.835460125003,206.835460125003,206.835460125003,206.835460125003,206.835460125003,206.835460125003,206.835460125003,206.835460125003,206.835460125003,206.835460125003,206.835460125003,206.835460125003,206.835460125003,206.78557175029613,206.835460125003,206.835460125003,206.835460125003,206.78557175029613,206.835460125003,206.835460125003,206.835460125003,206.835460125003,206.835460125003,212.03108095901553,212.03108095901553,216.99369554198347,None,0,,reldom2_s029,001,2025-03-03_14h17.07.220,Aud-B-Scan_AC,2022.2.5,None,
17,Second_Order,3.0,audwhere,stimulus/audwhere_stim/right_toward_290h.wav,stimulus/audwhere_stim/right_away_290h.wav,stimulus/audwhere_stim/right_away_280h.wav,stimulus/audwhere_stim/left_away_300h.wav,stimulus/audwhat_stim/match_blank.png,stimulus/audwhat_stim/match_box.png,stimulus/audwhat_stim/match_yes.png,stimulus/audwhat_stim/match_no.png,2.0,Match,Side,Direction,2,5.125,0,5.125,0,5.125,0,5.125,0,0.75,0.75,0,0,0,0,0,0,0,0,1,0.5,1,2.125,1,0.5,1,2.125,0,,,,,0,22,22,22,,,,,,,,,216.99369554198347,222.1074917090009,216.99369554198347,216.99369554198347,216.99369554198347,216.99369554198347,217.44395887496648,218.4312222090084,217.4580932916763,,219.0672509999713,220.064885958971,219.07910158363327,220.06911091698566,222.1074917090009,222.95787587499944,225.03673966700444,,222.95787587499944,222.95787587499944,228.13286104198778,222.95787587499944,222.95787587499944,222.95787587499944,222.95787587499944,223.37260274996515,224.4375302499975,223.34292237565776,,225.03673966700444,226.10142112500034,225.0064717916578,,222.95787587499944,228.13286104198778,222.95787587499944,228.13286104198778,228.13286104198778,,222.95787587499944,2,1,1.6163762499927543,reldom2_s029,001,2025-03-03_14h17.07.220,Aud-B-Scan_AC,2022.2.5,None,
18,Second_Order,3.0,audwhere,stimulus/audwhere_stim/right_toward_270h.wav,stimulus/audwhere_stim/left_toward_270h.wav,stimulus/audwhere_stim/right_away_300h.wav,stimulus/audwhere_stim/left_away_280h.wav,stimulus/audwhat_stim/match_blank.png,stimulus/audwhat_stim/match_box.png,stimulus/audwhat_stim/match_yes.png,stimulus/audwhat_stim/match_no.png,1.0,Match,Direction,Direction,1,5.125,0,5.125,0,5.125,0,5.125,0,0.625,0.625,0,0,0,0,0,0,0,0,1,0.5,1,2.125,1,0.5,1,2.125,0,,,,,0,23,23,23,,,,,,,,,228.94123762496747,234.06368104199646,228.94123762496747,228.94123762496747,228.94123762496747,228.94123762496747,229.390474291984,230.38866929197684,229.4032896256579,,231.0237637090031,232.012830749969,231.02768008364754,,234.06368104199646,234.79993195901625,236.86627466697246,240.91629991697846,234.79993195901625,234.79993195901625,239.95126699999673,234.79993195901625,234.79993195901625,234.79993195901625,234.79993195901625,235.2569505419815,236.31594870897243,235.2276344166642,,236.86627466697246,237.92509312496986,236.83666516666224,,234.79993195901625,239.95126699999673,234.79993195901625,239.95126699999673,239.99265441700118,240.64170083397767,234.79993195901625,1,1,2.193851749994792,reldom2_s029,001,2025-03-03_14h17.07.220,Aud-B-Scan_AC,2022.2.5,None,
0,0.0,None,fixation,stimulus/audwhat_stim/blank_white.png,stimulus/audwhat_stim/blank_white.png,stimulus/audwhere_stim/blank_white.png,stimulus/audwhere_stim/blank_white.png,stimulus/audwhat_stim/blank_white.png,stimulus/audwhat_stim/blank_white.png,stimulus/audwhat_stim/blank_white.png,stimulus/audwhat_stim/blank_white.png,0.0,0.0,0.0,0.0,0,0.0,0,0.0,0,0.0,0,0.0,0,0.0,0.0,0,0,0,0,0,0,0,0,0,0.0,0,0.0,0,0.0,0,0.0,8,,,,,0,24,24,24,,,,,,,,,240.91629991697846,240.91629991697846,240.91629991697846,240.91629991697846,240.91629991697846,240.91629991697846,240.91629991697846,240.91629991697846,240.81593516734043,240.91629991697846,240.91629991697846,240.91629991697846,240.81593516734043,240.91629991697846,240.91629991697846,240.91629991697846,240.91629991697846,240.91629991697846,240.91629991697846,240.91629991697846,240.91629991697846,240.91629991697846,240.91629991697846,240.91629991697846,240.91629991697846,240.91629991697846,240.91629991697846,240.8659351673404,240.91629991697846,240.91629991697846,240.91629991697846,240.8659351673404,240.91629991697846,240.91629991697846,240.91629991697846,240.91629991697846,240.91629991697846,246.12334537500283,246.12334537500283,249.18349666701397,None,0,,reldom2_s029,001,2025-03-03_14h17.07.220,Aud-B-Scan_AC,2022.2.5,None,
19,First_Order,4.0,audwhere,stimulus/audwhere_stim/dummy.wav,stimulus/audwhere_stim/dummy.wav,stimulus/audwhere_stim/right_toward_280h.wav,stimulus/audwhere_stim/left_toward_280h.wav,stimulus/audwhere_stim/blank_white.png,stimulus/audwhere_stim/side_box.png,stimulus/audwhere_stim/side_yes.png,stimulus/audwhere_stim/side_no.png,None,Side,None,Direction,2,0.0,0,5.125,0,5.125,0,5.125,0,0.0,0.625,0,0,0,0,0,0,0,0,0,0.0,0,0.0,1,0.5,1,2.125,0,,,,,0,25,25,25,,,,,,,,,249.18349666701397,249.18349666701397,249.18349666701397,249.18349666701397,249.18349666701397,249.18349666701397,249.18349666701397,249.18349666701397,249.11280808363034,249.18349666701397,249.18349666701397,249.18349666701397,249.11280808363034,249.18349666701397,249.18349666701397,249.18349666701397,251.26507679198403,255.310107917001,249.18349666701397,249.18349666701397,254.36355924996315,249.18349666701397,249.18349666701397,249.18349666701397,249.18349666701397,249.6479267089744,250.71275383397005,249.61799345864372,,251.26507679198403,252.33262262499193,251.2357814166501,,249.18349666701397,254.36355924996315,249.18349666701397,254.36355924996315,254.40479291696101,255.05770299996948,249.18349666701397,2,1,1.3015208750148304,reldom2_s029,001,2025-03-03_14h17.07.220,Aud-B-Scan_AC,2022.2.5,None,
20,First_Order,4.0,audwhere,stimulus/audwhere_stim/dummy.wav,stimulus/audwhere_stim/dummy.wav,stimulus/audwhere_stim/left_toward_290h.wav,stimulus/audwhere_stim/right_toward_270h.wav,stimulus/audwhere_stim/blank_white.png,stimulus/audwhere_stim/side_box.png,stimulus/audwhere_stim/side_yes.png,stimulus/audwhere_stim/side_no.png,None,Side,None,Direction,2,0.0,0,5.125,0,5.125,0,5.125,0,0.0,0.625,0,0,0,0,0,0,0,0,0,0.0,0,0.0,1,0.5,1,2.125,0,,,,,0,26,26,26,,,,,,,,,255.310107917001,255.310107917001,255.310107917001,255.310107917001,255.310107917001,255.310107917001,255.310107917001,255.310107917001,255.23189433329586,255.310107917001,255.310107917001,255.310107917001,255.23189433329586,255.310107917001,255.310107917001,255.310107917001,257.389706499991,261.4352616670076,255.310107917001,255.310107917001,260.49025791697204,255.310107917001,255.310107917001,255.310107917001,255.310107917001,255.77219354198314,256.83280954201473,255.74261745863285,,257.389706499991,258.4563591670012,257.35937737563313,,255.310107917001,260.49025791697204,255.310107917001,260.49025791697204,260.53093858400825,261.18133866699645,255.310107917001,2,1,1.0353949579875916,reldom2_s029,001,2025-03-03_14h17.07.220,Aud-B-Scan_AC,2022.2.5,None,
21,First_Order,4.0,audwhere,stimulus/audwhere_stim/dummy.wav,stimulus/audwhere_stim/dummy.wav,stimulus/audwhere_stim/left_toward_270h.wav,stimulus/audwhere_stim/left_away_300h.wav,stimulus/audwhere_stim/blank_white.png,stimulus/audwhere_stim/side_box.png,stimulus/audwhere_stim/side_yes.png,stimulus/audwhere_stim/side_no.png,None,Side,None,Side,1,0.0,0,5.125,0,5.125,0,5.125,0,0.0,0.625,0,0,0,0,0,0,0,0,0,0.0,0,0.0,1,0.5,1,2.125,0,,,,,0,27,27,27,,,,,,,,,261.4352616670076,261.4352616670076,261.4352616670076,261.4352616670076,261.4352616670076,261.4352616670076,261.4352616670076,261.4352616670076,261.35551966729884,261.4352616670076,261.4352616670076,261.4352616670076,261.35551966729884,261.4352616670076,261.4352616670076,261.4352616670076,263.5201863339753,,261.4352616670076,261.4352616670076,266.62494008400245,261.4352616670076,261.4352616670076,261.4352616670076,261.4352616670076,261.89804095897125,262.9629474169924,261.8681035006341,,263.5201863339753,264.588334125001,263.49022354168505,,261.4352616670076,266.62494008400245,261.4352616670076,266.62494008400245,266.62494008400245,267.2757598339813,261.4352616670076,1,1,1.260502916004043,reldom2_s029,001,2025-03-03_14h17.07.220,Aud-B-Scan_AC,2022.2.5,None,
22,First_Order,4.0,audwhere,stimulus/audwhere_stim/dummy.wav,stimulus/audwhere_stim/dummy.wav,stimulus/audwhere_stim/left_away_290h.wav,stimulus/audwhere_stim/left_toward_270h.wav,stimulus/audwhere_stim/blank_white.png,stimulus/audwhere_stim/side_box.png,stimulus/audwhere_stim/side_yes.png,stimulus/audwhere_stim/side_no.png,None,Side,None,Side,1,0.0,0,5.125,0,5.125,0,5.125,0,0.0,0.625,0,0,0,0,0,0,0,0,0,0.0,0,0.0,1,0.5,1,2.125,0,,,,,0,28,28,28,,,,,,,,,267.52920483396156,267.52920483396156,267.52920483396156,267.52920483396156,267.52920483396156,267.52920483396156,267.52920483396156,267.52920483396156,267.4497259173387,267.52920483396156,267.52920483396156,267.52920483396156,267.4497259173387,267.52920483396156,267.52920483396156,267.52920483396156,269.6129402089864,,267.52920483396156,267.52920483396156,272.715581833967,267.52920483396156,267.52920483396156,267.52920483396156,267.52920483396156,267.9921347919735,269.0560574589763,267.9623743756713,,269.6129402089864,270.67922179197194,269.5832478756822,,267.52920483396156,272.715581833967,267.52920483396156,272.715581833967,272.756805958983,273.41172995901434,267.52920483396156,1,1,1.1263169160229154,reldom2_s029,001,2025-03-03_14h17.07.220,Aud-B-Scan_AC,2022.2.5,None,
0,0.0,None,fixation,stimulus/audwhat_stim/blank_white.png,stimulus/audwhat_stim/blank_white.png,stimulus/audwhere_stim/blank_white.png,stimulus/audwhere_stim/blank_white.png,stimulus/audwhat_stim/blank_white.png,stimulus/audwhat_stim/blank_white.png,stimulus/audwhat_stim/blank_white.png,stimulus/audwhat_stim/blank_white.png,0.0,0.0,0.0,0.0,0,0.0,0,0.0,0,0.0,0,0.0,0,0.0,0.0,0,0,0,0,0,0,0,0,0,0.0,0,0.0,0,0.0,0,0.0,10,,,,,0,29,29,29,,,,,,,,,273.643844834005,273.643844834005,273.643844834005,273.643844834005,273.643844834005,273.643844834005,273.643844834005,273.643844834005,273.54506329234766,273.643844834005,273.643844834005,273.643844834005,273.54506329234766,273.643844834005,273.643844834005,273.643844834005,273.643844834005,273.643844834005,273.643844834005,273.643844834005,273.643844834005,273.643844834005,273.643844834005,273.643844834005,273.643844834005,273.643844834005,273.643844834005,273.5950632923477,273.643844834005,273.643844834005,273.643844834005,273.5950632923477,273.643844834005,273.643844834005,273.643844834005,273.643844834005,273.643844834005,278.8784684590064,278.8784684590064,283.7792580840178,None,0,,reldom2_s029,001,2025-03-03_14h17.07.220,Aud-B-Scan_AC,2022.2.5,None,
23,Second_Order,4.0,audwhere,stimulus/audwhere_stim/right_toward_300h.wav,stimulus/audwhere_stim/left_toward_270h.wav,stimulus/audwhere_stim/left_away_300h.wav,stimulus/audwhere_stim/right_away_300h.wav,stimulus/audwhat_stim/match_blank.png,stimulus/audwhat_stim/match_box.png,stimulus/audwhat_stim/match_yes.png,stimulus/audwhat_stim/match_no.png,1.0,Match,Direction,Direction,1,5.125,0,5.125,0,5.125,0,5.125,0,0.75,0.75,0,0,0,0,0,0,0,0,1,0.5,1,2.125,1,0.5,1,2.125,0,,,,,0,30,30,30,,,,,,,,,283.7792580840178,288.89561291696737,283.7792580840178,283.7792580840178,283.7792580840178,283.7792580840178,284.23150374996476,285.2194148749695,284.24563108367533,,285.8543918340001,286.8523712499882,285.8666161666663,,288.89561291696737,289.7437729589874,291.82176270900527,295.7304483749904,289.7437729589874,289.7437729589874,294.9191973339766,289.7437729589874,289.7437729589874,289.7437729589874,289.7437729589874,290.1593143749633,291.22085333400173,290.1293157916555,,291.82176270900527,292.8870057089953,291.79210320866355,,289.7437729589874,294.9191973339766,289.7437729589874,294.9191973339766,294.9191973339766,,289.7437729589874,2,0,0.9240009160130285,reldom2_s029,001,2025-03-03_14h17.07.220,Aud-B-Scan_AC,2022.2.5,None,
24,Second_Order,4.0,audwhere,stimulus/audwhere_stim/right_toward_300h.wav,stimulus/audwhere_stim/left_toward_300h.wav,stimulus/audwhere_stim/left_away_290h.wav,stimulus/audwhere_stim/right_away_280h.wav,stimulus/audwhat_stim/match_blank.png,stimulus/audwhat_stim/match_box.png,stimulus/audwhat_stim/match_yes.png,stimulus/audwhat_stim/match_no.png,1.0,Match,Direction,Direction,1,5.125,0,5.125,0,5.125,0,5.125,0,0.625,0.625,0,0,0,0,0,0,0,0,1,0.5,1,2.125,1,0.5,1,2.125,0,,,,,0,31,31,31,,,,,,,,,295.7304483749904,300.85123079200275,295.7304483749904,295.7304483749904,295.7304483749904,295.7304483749904,296.1903333750088,297.17981941701146,296.1928968756731,,297.81587166700047,298.81293112499407,297.82791433367333,,300.85123079200275,301.5858835839899,303.6502425840008,307.7009820420062,301.5858835839899,301.5858835839899,306.73664116696455,301.5858835839899,301.5858835839899,301.5858835839899,301.5858835839899,302.0427135839709,303.09747350000544,302.0136807916608,,303.6502425840008,304.7107007500017,303.62103579164636,,301.5858835839899,306.73664116696455,301.5858835839899,306.73664116696455,306.77770920901094,307.4286655000178,301.5858835839899,2,0,1.4922966249869205,reldom2_s029,001,2025-03-03_14h17.07.220,Aud-B-Scan_AC,2022.2.5,None,
0,0.0,None,fixation,stimulus/audwhat_stim/blank_white.png,stimulus/audwhat_stim/blank_white.png,stimulus/audwhere_stim/blank_white.png,stimulus/audwhere_stim/blank_white.png,stimulus/audwhat_stim/blank_white.png,stimulus/audwhat_stim/blank_white.png,stimulus/audwhat_stim/blank_white.png,stimulus/audwhat_stim/blank_white.png,0.0,0.0,0.0,0.0,0,0.0,0,0.0,0,0.0,0,0.0,0,0.0,0.0,0,0,0,0,0,0,0,0,0,0.0,0,0.0,0,0.0,0,0.0,9,,,,,0,32,32,32,,,,,,,,,307.7009820420062,307.7009820420062,307.7009820420062,307.7009820420062,307.7009820420062,307.7009820420062,307.7009820420062,307.7009820420062,307.60209325034714,307.7009820420062,307.7009820420062,307.7009820420062,307.60209325034714,307.7009820420062,307.7009820420062,307.7009820420062,307.7009820420062,307.7009820420062,307.7009820420062,307.7009820420062,307.7009820420062,307.7009820420062,307.7009820420062,307.7009820420062,307.7009820420062,307.7009820420062,307.7009820420062,307.65209325034715,307.7009820420062,307.7009820420062,307.7009820420062,307.65209325034715,307.7009820420062,307.7009820420062,307.7009820420062,307.7009820420062,307.7009820420062,312.91323158401065,312.91323158401065,316.93338533397764,None,0,,reldom2_s029,001,2025-03-03_14h17.07.220,Aud-B-Scan_AC,2022.2.5,None,
25,First_Order,5.0,audwhat,stimulus/audwhat_stim/dummy.wav,stimulus/audwhat_stim/dummy.wav,stimulus/audwhat_stim/percussion xylophone_high-pitch_Ftri_loud.wav,stimulus/audwhat_stim/percussion mallet_low-pitch_F_loud.wav,stimulus/audwhat_stim/blank_white.png,stimulus/audwhat_stim/pitch_box.png,stimulus/audwhat_stim/pitch_yes.png,stimulus/audwhat_stim/pitch_no.png,None,Pitch,None,Category,2,0.0,0,5.125,0,5.125,0,5.125,0,0.0,0.625,0,0,0,0,0,0,0,0,0,0.0,0,0.0,1,0.5,1,2.125,0,,,,,0,33,33,33,,,,,,,,,316.93338533397764,316.93338533397764,316.93338533397764,316.93338533397764,316.93338533397764,316.93338533397764,316.93338533397764,316.93338533397764,316.86202641667717,316.93338533397764,316.93338533397764,316.93338533397764,316.86202641667717,316.93338533397764,316.93338533397764,316.93338533397764,319.01743045897456,,316.93338533397764,316.93338533397764,322.1186256670044,316.93338533397764,316.93338533397764,316.93338533397764,316.93338533397764,317.3968302499852,318.4613911670167,317.3673165006369,318.4149887500098,319.01743045897456,320.084282041993,318.9869700836755,,316.93338533397764,322.1186256670044,316.93338533397764,322.1186256670044,322.1595970420167,322.81052758399164,316.93338533397764,2,1,1.200556833005976,reldom2_s029,001,2025-03-03_14h17.07.220,Aud-B-Scan_AC,2022.2.5,None,
26,First_Order,5.0,audwhat,stimulus/audwhat_stim/dummy.wav,stimulus/audwhat_stim/dummy.wav,stimulus/audwhat_stim/percussion mallet_low-pitch_Dtri_loud.wav,stimulus/audwhat_stim/percussion xylophone_high-pitch_Ftri_loud.wav,stimulus/audwhat_stim/blank_white.png,stimulus/audwhat_stim/category_box.png,stimulus/audwhat_stim/category_yes.png,stimulus/audwhat_stim/category_no.png,None,Category,None,Category,1,0.0,0,5.125,0,5.125,0,5.125,0,0.0,0.625,0,0,0,0,0,0,0,0,0,0.0,0,0.0,1,0.5,1,2.125,0,,,,,0,34,34,34,,,,,,,,,323.0234628749895,323.0234628749895,323.0234628749895,323.0234628749895,323.0234628749895,323.0234628749895,323.0234628749895,323.0234628749895,322.94386091732497,323.0234628749895,323.0234628749895,323.0234628749895,322.94386091732497,323.0234628749895,323.0234628749895,323.0234628749895,325.1146676670178,329.13960670900997,323.0234628749895,323.0234628749895,328.18782583397115,323.0234628749895,323.0234628749895,323.0234628749895,323.0234628749895,323.48964358400553,324.5573425840121,323.4596665006286,,325.1146676670178,326.1439562920132,325.0846188756443,326.1439562920132,323.0234628749895,328.18782583397115,323.0234628749895,328.18782583397115,328.22945866698865,328.883681916981,323.0234628749895,1,1,0.6445115829701535,reldom2_s029,001,2025-03-03_14h17.07.220,Aud-B-Scan_AC,2022.2.5,None,
27,First_Order,5.0,audwhat,stimulus/audwhat_stim/dummy.wav,stimulus/audwhat_stim/dummy.wav,stimulus/audwhat_stim/string cello_low-pitch_Dtri_loud.wav,stimulus/audwhat_stim/percussion mallet_low-pitch_Dtri_loud.wav,stimulus/audwhat_stim/blank_white.png,stimulus/audwhat_stim/pitch_box.png,stimulus/audwhat_stim/pitch_yes.png,stimulus/audwhat_stim/pitch_no.png,None,Pitch,None,Pitch,1,0.0,0,5.125,0,5.125,0,5.125,0,0.0,0.625,0,0,0,0,0,0,0,0,0,0.0,0,0.0,1,0.5,1,2.125,0,,,,,0,35,35,35,,,,,,,,,329.13960670900997,329.13960670900997,329.13960670900997,329.13960670900997,329.13960670900997,329.13960670900997,329.13960670900997,329.13960670900997,329.0575318333305,329.13960670900997,329.13960670900997,329.13960670900997,329.0575318333305,329.13960670900997,329.13960670900997,329.13960670900997,331.2268209590111,,329.13960670900997,329.13960670900997,334.2892495839624,329.13960670900997,329.13960670900997,329.13960670900997,329.13960670900997,329.60571841697674,330.6715392919723,329.57563891663835,,331.2268209590111,332.2963225839776,331.19682716665943,,329.13960670900997,334.2892495839624,329.13960670900997,334.2892495839624,334.3302447089809,334.9837404169957,329.13960670900997,1,1,1.2163194579770789,reldom2_s029,001,2025-03-03_14h17.07.220,Aud-B-Scan_AC,2022.2.5,None,
28,First_Order,5.0,audwhat,stimulus/audwhat_stim/dummy.wav,stimulus/audwhat_stim/dummy.wav,stimulus/audwhat_stim/percussion xylophone_high-pitch_Ftri_loud.wav,stimulus/audwhat_stim/percussion mallet_low-pitch_F_loud.wav,stimulus/audwhat_stim/blank_white.png,stimulus/audwhat_stim/category_box.png,stimulus/audwhat_stim/category_yes.png,stimulus/audwhat_stim/category_no.png,None,Category,None,Category,1,0.0,0,5.125,0,5.125,0,5.125,0,0.0,0.625,0,0,0,0,0,0,0,0,0,0.0,0,0.0,1,0.5,1,2.125,0,,,,,0,36,36,36,,,,,,,,,335.2377684999956,335.2377684999956,335.2377684999956,335.2377684999956,335.2377684999956,335.2377684999956,335.2377684999956,335.2377684999956,335.1578199583183,335.2377684999956,335.2377684999956,335.2377684999956,335.1578199583183,335.2377684999956,335.2377684999956,335.2377684999956,337.3369166670018,341.388628375018,335.2377684999956,335.2377684999956,340.4161877919687,335.2377684999956,335.2377684999956,335.2377684999956,335.2377684999956,335.7050089169643,336.7765124589787,335.6749963336663,336.7302221250138,337.3369166670018,338.40965724998387,337.30553133367016,,335.2377684999956,340.4161877919687,335.2377684999956,340.4161877919687,340.45773924997775,341.1125268340111,335.2377684999956,1,1,2.1988211660063826,reldom2_s029,001,2025-03-03_14h17.07.220,Aud-B-Scan_AC,2022.2.5,None,
0,0.0,None,fixation,stimulus/audwhat_stim/blank_white.png,stimulus/audwhat_stim/blank_white.png,stimulus/audwhere_stim/blank_white.png,stimulus/audwhere_stim/blank_white.png,stimulus/audwhat_stim/blank_white.png,stimulus/audwhat_stim/blank_white.png,stimulus/audwhat_stim/blank_white.png,stimulus/audwhat_stim/blank_white.png,0.0,0.0,0.0,0.0,0,0.0,0,0.0,0,0.0,0,0.0,0,0.0,0.0,0,0,0,0,0,0,0,0,0,0.0,0,0.0,0,0.0,0,0.0,8,,,,,0,37,37,37,,,,,,,,,341.388628375018,341.388628375018,341.388628375018,341.388628375018,341.388628375018,341.388628375018,341.388628375018,341.388628375018,341.28699154229446,341.388628375018,341.388628375018,341.388628375018,341.28699154229446,341.388628375018,341.388628375018,341.388628375018,341.388628375018,341.388628375018,341.388628375018,341.388628375018,341.388628375018,341.388628375018,341.388628375018,341.388628375018,341.388628375018,341.388628375018,341.388628375018,341.33699154229447,341.388628375018,341.388628375018,341.388628375018,341.33699154229447,341.388628375018,341.388628375018,341.388628375018,341.388628375018,341.388628375018,346.57849433401134,346.57849433401134,349.56396154197864,None,0,,reldom2_s029,001,2025-03-03_14h17.07.220,Aud-B-Scan_AC,2022.2.5,None,
29,Second_Order,5.0,audwhat,stimulus/audwhat_stim/string viola_low-pitch_Dtri_loud.wav,stimulus/audwhat_stim/percussion mallet_low-pitch_Dtri_loud.wav,stimulus/audwhat_stim/string viola_low-pitch_Dtri_loud.wav,stimulus/audwhat_stim/string cello_high-pitch_Ftri_loud.wav,stimulus/audwhat_stim/match_blank.png,stimulus/audwhat_stim/match_box.png,stimulus/audwhat_stim/match_yes.png,stimulus/audwhat_stim/match_no.png,2.0,Match,Pitch,Category,2,5.125,0,5.125,0,5.125,0,5.125,0,0.75,0.75,0,0,0,0,0,0,0,0,1,0.5,1,2.125,1,0.5,1,2.125,0,,,,,0,38,38,38,,,,,,,,,349.56396154197864,354.6801039169659,349.56396154197864,349.56396154197864,349.56396154197864,349.56396154197864,350.017022874963,351.00381808396196,350.031365291685,,351.63921541697346,352.6374850840075,351.6520327086366,,354.6801039169659,355.5290953340009,357.60755158396205,361.52222037501633,355.5290953340009,355.5290953340009,360.7100226249895,355.5290953340009,355.5290953340009,355.5290953340009,355.5290953340009,355.9439944169717,357.0053122919635,355.9143444166441,,357.60755158396205,358.676226208976,357.5775512086732,,355.5290953340009,360.7100226249895,355.5290953340009,360.7100226249895,360.7100226249895,,355.5290953340009,2,1,0.7049333750037476,reldom2_s029,001,2025-03-03_14h17.07.220,Aud-B-Scan_AC,2022.2.5,None,
30,Second_Order,5.0,audwhat,stimulus/audwhat_stim/string viola_high-pitch_Ftri_loud.wav,stimulus/audwhat_stim/percussion xylophone_high-pitch_Ftri_loud.wav,stimulus/audwhat_stim/string viola_low-pitch_D_loud.wav,stimulus/audwhat_stim/percussion mallet_low-pitch_D_loud.wav,stimulus/audwhat_stim/match_blank.png,stimulus/audwhat_stim/match_box.png,stimulus/audwhat_stim/match_yes.png,stimulus/audwhat_stim/match_no.png,1.0,Match,Pitch,Pitch,1,5.125,0,5.125,0,5.125,0,5.125,0,0.625,0.625,0,0,0,0,0,0,0,0,1,0.5,1,2.125,1,0.5,1,2.125,0,,,,,0,39,39,39,,,,,,,,,361.52222037501633,366.6408977090032,361.52222037501633,361.52222037501633,361.52222037501633,361.52222037501633,361.9792401670129,362.97827412496554,361.99225712567954,,363.60044891701546,364.59867762500653,363.6130095836745,364.60200062498916,366.6408977090032,367.3731900419807,369.43937483400805,,367.3731900419807,367.3731900419807,372.53126949997386,367.3731900419807,367.3731900419807,367.3731900419807,367.3731900419807,367.8283784170053,368.88539087498793,367.7994648336355,,369.43937483400805,370.50247125001624,369.40944016667004,,367.3731900419807,372.53126949997386,367.3731900419807,372.53126949997386,372.53126949997386,373.1803798750043,367.3731900419807,1,1,0.9442041660076939,reldom2_s029,001,2025-03-03_14h17.07.220,Aud-B-Scan_AC,2022.2.5,None,
0,0.0,None,fixation,stimulus/audwhat_stim/blank_white.png,stimulus/audwhat_stim/blank_white.png,stimulus/audwhere_stim/blank_white.png,stimulus/audwhere_stim/blank_white.png,stimulus/audwhat_stim/blank_white.png,stimulus/audwhat_stim/blank_white.png,stimulus/audwhat_stim/blank_white.png,stimulus/audwhat_stim/blank_white.png,0.0,0.0,0.0,0.0,0,0.0,0,0.0,0,0.0,0,0.0,0,0.0,0.0,0,0,0,0,0,0,0,0,0,0.0,0,0.0,0,0.0,0,0.0,9,,,,,0,40,40,40,,,,,,,,,373.4542619169806,373.4542619169806,373.4542619169806,373.4542619169806,373.4542619169806,373.4542619169806,373.4542619169806,373.4542619169806,373.3544923333412,373.4542619169806,373.4542619169806,373.4542619169806,373.3544923333412,373.4542619169806,373.4542619169806,373.4542619169806,373.4542619169806,373.4542619169806,373.4542619169806,373.4542619169806,373.4542619169806,373.4542619169806,373.4542619169806,373.4542619169806,373.4542619169806,373.4542619169806,373.4542619169806,373.40449233334124,373.4542619169806,373.4542619169806,373.4542619169806,373.40449233334124,373.4542619169806,373.4542619169806,373.4542619169806,373.4542619169806,373.4542619169806,378.6723409589613,378.6723409589613,382.6899889589986,None,0,,reldom2_s029,001,2025-03-03_14h17.07.220,Aud-B-Scan_AC,2022.2.5,None,
31,First_Order,6.0,audwhat,stimulus/audwhat_stim/dummy.wav,stimulus/audwhat_stim/dummy.wav,stimulus/audwhat_stim/string viola_low-pitch_D_loud.wav,stimulus/audwhat_stim/percussion mallet_low-pitch_D_loud.wav,stimulus/audwhat_stim/blank_white.png,stimulus/audwhat_stim/category_box.png,stimulus/audwhat_stim/category_yes.png,stimulus/audwhat_stim/category_no.png,None,Category,None,Pitch,2,0.0,0,5.125,0,5.125,0,5.125,0,0.0,0.625,0,0,0,0,0,0,0,0,0,0.0,0,0.0,1,0.5,1,2.125,0,,,,,0,41,41,41,,,,,,,,,382.6899889589986,382.6899889589986,382.6899889589986,382.6899889589986,382.6899889589986,382.6899889589986,382.6899889589986,382.6899889589986,382.61836845868186,382.6899889589986,382.6899889589986,382.6899889589986,382.61836845868186,382.6899889589986,382.6899889589986,382.6899889589986,384.78169358399464,388.80378991697216,382.6899889589986,382.6899889589986,387.85543937498005,382.6899889589986,382.6899889589986,382.6899889589986,382.6899889589986,383.1551483339863,384.2259170420002,383.12552837568023,,384.78169358399464,385.85453537496505,384.75170166662815,,382.6899889589986,387.85543937498005,382.6899889589986,387.85543937498005,387.8966470839805,388.5497995839687,382.6899889589986,2,1,3.636756416002754,reldom2_s029,001,2025-03-03_14h17.07.220,Aud-B-Scan_AC,2022.2.5,None,
32,First_Order,6.0,audwhat,stimulus/audwhat_stim/dummy.wav,stimulus/audwhat_stim/dummy.wav,stimulus/audwhat_stim/percussion mallet_high-pitch_Dtri_loud.wav,stimulus/audwhat_stim/string viola_high-pitch_Dtri_loud.wav,stimulus/audwhat_stim/blank_white.png,stimulus/audwhat_stim/pitch_box.png,stimulus/audwhat_stim/pitch_yes.png,stimulus/audwhat_stim/pitch_no.png,None,Pitch,None,Pitch,1,0.0,0,5.125,0,5.125,0,5.125,0,0.0,0.625,0,0,0,0,0,0,0,0,0,0.0,0,0.0,1,0.5,1,2.125,0,,,,,0,42,42,42,,,,,,,,,388.80378991697216,388.80378991697216,388.80378991697216,388.80378991697216,388.80378991697216,388.80378991697216,388.80378991697216,388.80378991697216,388.7240818332958,388.80378991697216,388.80378991697216,388.80378991697216,388.7240818332958,388.80378991697216,388.80378991697216,388.80378991697216,390.8893760420033,,388.80378991697216,388.80378991697216,393.99708279198967,388.80378991697216,388.80378991697216,388.80378991697216,388.80378991697216,389.26892750000115,390.3344621669967,389.23875258362773,,390.8893760420033,391.9583981669857,390.85965679167225,,388.80378991697216,393.99708279198967,388.80378991697216,393.99708279198967,393.99708279198967,394.6502622090047,388.80378991697216,1,1,1.1992417079745792,reldom2_s029,001,2025-03-03_14h17.07.220,Aud-B-Scan_AC,2022.2.5,None,
33,First_Order,6.0,audwhat,stimulus/audwhat_stim/dummy.wav,stimulus/audwhat_stim/dummy.wav,stimulus/audwhat_stim/string cello_high-pitch_D_loud.wav,stimulus/audwhat_stim/string viola_low-pitch_F_loud.wav,stimulus/audwhat_stim/blank_white.png,stimulus/audwhat_stim/pitch_box.png,stimulus/audwhat_stim/pitch_yes.png,stimulus/audwhat_stim/pitch_no.png,None,Pitch,None,Category,2,0.0,0,5.125,0,5.125,0,5.125,0,0.0,0.625,0,0,0,0,0,0,0,0,0,0.0,0,0.0,1,0.5,1,2.125,0,,,,,0,43,43,43,,,,,,,,,394.9036714169779,394.9036714169779,394.9036714169779,394.9036714169779,394.9036714169779,394.9036714169779,394.9036714169779,394.9036714169779,394.8243902923151,394.9036714169779,394.9036714169779,394.9036714169779,394.8243902923151,394.9036714169779,394.9036714169779,394.9036714169779,396.9884960000054,,394.9036714169779,394.9036714169779,400.0953986250097,394.9036714169779,394.9036714169779,394.9036714169779,394.9036714169779,395.3680977500044,396.4329037920106,395.33825391665255,,396.9884960000054,398.0558536250028,396.95910679165195,,394.9036714169779,400.0953986250097,394.9036714169779,400.0953986250097,400.0953986250097,400.74904408399016,394.9036714169779,2,1,1.0882012500078417,reldom2_s029,001,2025-03-03_14h17.07.220,Aud-B-Scan_AC,2022.2.5,None,
34,First_Order,6.0,audwhat,stimulus/audwhat_stim/dummy.wav,stimulus/audwhat_stim/dummy.wav,stimulus/audwhat_stim/percussion mallet_low-pitch_F_loud.wav,stimulus/audwhat_stim/string viola_low-pitch_F_loud.wav,stimulus/audwhat_stim/blank_white.png,stimulus/audwhat_stim/category_box.png,stimulus/audwhat_stim/category_yes.png,stimulus/audwhat_stim/category_no.png,None,Category,None,Pitch,2,0.0,0,5.125,0,5.125,0,5.125,0,0.0,0.625,0,0,0,0,0,0,0,0,0,0.0,0,0.0,1,0.5,1,2.125,0,,,,,0,44,44,44,,,,,,,,,401.00382416701177,401.00382416701177,401.00382416701177,401.00382416701177,401.00382416701177,401.00382416701177,401.00382416701177,401.00382416701177,400.92352404233145,401.00382416701177,401.00382416701177,401.00382416701177,400.92352404233145,401.00382416701177,401.00382416701177,401.00382416701177,403.104307667003,,401.00382416701177,401.00382416701177,406.18496774998493,401.00382416701177,401.00382416701177,401.00382416701177,401.00382416701177,401.4731604589615,402.5448550839792,401.4429890416834,,403.104307667003,404.1335366250132,403.0737374166531,,401.00382416701177,406.18496774998493,401.00382416701177,406.18496774998493,406.22621175000677,406.8810777919716,401.00382416701177,2,1,2.3953016250161454,reldom2_s029,001,2025-03-03_14h17.07.220,Aud-B-Scan_AC,2022.2.5,None,
0,0.0,None,fixation,stimulus/audwhat_stim/blank_white.png,stimulus/audwhat_stim/blank_white.png,stimulus/audwhere_stim/blank_white.png,stimulus/audwhere_stim/blank_white.png,stimulus/audwhat_stim/blank_white.png,stimulus/audwhat_stim/blank_white.png,stimulus/audwhat_stim/blank_white.png,stimulus/audwhat_stim/blank_white.png,0.0,0.0,0.0,0.0,0,0.0,0,0.0,0,0.0,0,0.0,0,0.0,0.0,0,0,0,0,0,0,0,0,0,0.0,0,0.0,0,0.0,0,0.0,9,,,,,0,45,45,45,,,,,,,,,407.1145632920088,407.1145632920088,407.1145632920088,407.1145632920088,407.1145632920088,407.1145632920088,407.1145632920088,407.1145632920088,407.01441112530495,407.1145632920088,407.1145632920088,407.1145632920088,407.01441112530495,407.1145632920088,407.1145632920088,407.1145632920088,407.1145632920088,407.1145632920088,407.1145632920088,407.1145632920088,407.1145632920088,407.1145632920088,407.1145632920088,407.1145632920088,407.1145632920088,407.1145632920088,407.1145632920088,407.06441112530496,407.1145632920088,407.1145632920088,407.1145632920088,407.06441112530496,407.1145632920088,407.1145632920088,407.1145632920088,407.1145632920088,407.1145632920088,412.31071433401667,412.31071433401667,416.26132275001146,None,0,,reldom2_s029,001,2025-03-03_14h17.07.220,Aud-B-Scan_AC,2022.2.5,None,
35,Second_Order,6.0,audwhat,stimulus/audwhat_stim/string cello_low-pitch_D_loud.wav,stimulus/audwhat_stim/percussion mallet_low-pitch_D_loud.wav,stimulus/audwhat_stim/percussion mallet_low-pitch_D_loud.wav,stimulus/audwhat_stim/percussion xylophone_high-pitch_Ftri_loud.wav,stimulus/audwhat_stim/match_blank.png,stimulus/audwhat_stim/match_box.png,stimulus/audwhat_stim/match_yes.png,stimulus/audwhat_stim/match_no.png,2.0,Match,Pitch,Category,2,5.125,0,5.125,0,5.125,0,5.125,0,0.75,0.75,0,0,0,0,0,0,0,0,1,0.5,1,2.125,1,0.5,1,2.125,0,,,,,0,46,46,46,,,,,,,,,416.26132275001146,421.3842030839878,416.26132275001146,416.26132275001146,416.26132275001146,416.26132275001146,416.7195042499807,417.7081935000024,416.72128066665414,,418.3435944999801,419.3415985419997,418.35608737566895,,421.3842030839878,422.2350347919855,424.31154870899627,428.22020745900227,422.2350347919855,422.2350347919855,427.40968404198065,422.2350347919855,422.2350347919855,422.2350347919855,422.2350347919855,422.6507298339857,423.71284362499136,422.6212344586422,,424.31154870899627,425.37610824999865,424.2819210416676,425.3290836249944,422.2350347919855,427.40968404198065,422.2350347919855,427.40968404198065,427.40968404198065,,422.2350347919855,2,1,0.7627428749692626,reldom2_s029,001,2025-03-03_14h17.07.220,Aud-B-Scan_AC,2022.2.5,None,
36,Second_Order,6.0,audwhat,stimulus/audwhat_stim/string cello_low-pitch_Dtri_loud.wav,stimulus/audwhat_stim/percussion mallet_low-pitch_Dtri_loud.wav,stimulus/audwhat_stim/string viola_high-pitch_F_loud.wav,stimulus/audwhat_stim/percussion xylophone_high-pitch_F_loud.wav,stimulus/audwhat_stim/match_blank.png,stimulus/audwhat_stim/match_box.png,stimulus/audwhat_stim/match_yes.png,stimulus/audwhat_stim/match_no.png,1.0,Match,Pitch,Pitch,1,5.125,0,5.125,0,5.125,0,5.125,0,0.625,0.625,0,0,0,0,0,0,0,0,1,0.5,1,2.125,1,0.5,1,2.125,0,,,,,0,47,47,47,,,,,,,,,428.22020745900227,433.3407369169872,428.22020745900227,428.22020745900227,428.22020745900227,428.22020745900227,428.6800405419781,429.66877350001596,428.68141450063945,,430.3043104999815,431.3028432090068,430.3170567916279,,433.3407369169872,434.07429966697237,436.13883524999255,,434.07429966697237,434.07429966697237,439.228665083996,434.07429966697237,434.07429966697237,434.07429966697237,434.07429966697237,434.529354333994,435.58684445900144,434.50026466662916,,436.13883524999255,437.20138233399484,436.10908141662753,437.1556476249825,434.07429966697237,439.228665083996,434.07429966697237,439.228665083996,439.2697813750128,439.92034687497653,434.07429966697237,1,1,0.7838894580490887,reldom2_s029,001,2025-03-03_14h17.07.220,Aud-B-Scan_AC,2022.2.5,None,
0,0.0,None,fixation,stimulus/audwhat_stim/blank_white.png,stimulus/audwhat_stim/blank_white.png,stimulus/audwhere_stim/blank_white.png,stimulus/audwhere_stim/blank_white.png,stimulus/audwhat_stim/blank_white.png,stimulus/audwhat_stim/blank_white.png,stimulus/audwhat_stim/blank_white.png,stimulus/audwhat_stim/blank_white.png,0.0,0.0,0.0,0.0,0,0.0,0,0.0,0,0.0,0,0.0,0,0.0,0.0,0,0,0,0,0,0,0,0,0,0.0,0,0.0,0,0.0,0,0.0,10,,,,,0,48,48,48,,,,,,,,,440.15238112496445,440.15238112496445,440.15238112496445,440.15238112496445,440.15238112496445,440.15238112496445,440.15238112496445,440.15238112496445,440.05368020830986,440.15238112496445,440.15238112496445,440.15238112496445,440.05368020830986,440.15238112496445,440.15238112496445,440.15238112496445,440.15238112496445,440.15238112496445,440.15238112496445,440.15238112496445,440.15238112496445,440.15238112496445,440.15238112496445,440.15238112496445,440.15238112496445,440.15238112496445,440.15238112496445,440.10368020830987,440.15238112496445,440.15238112496445,440.15238112496445,440.10368020830987,440.15238112496445,440.15238112496445,440.15238112496445,440.15238112496445,440.15238112496445,445.3606267920113,445.3606267920113,450.386713667016,None,0,,reldom2_s029,001,2025-03-03_14h17.07.220,Aud-B-Scan_AC,2022.2.5,None,
37,First_Order,7.0,audwhere,stimulus/audwhere_stim/dummy.wav,stimulus/audwhere_stim/dummy.wav,stimulus/audwhere_stim/right_toward_300h.wav,stimulus/audwhere_stim/left_toward_290h.wav,stimulus/audwhere_stim/blank_white.png,stimulus/audwhere_stim/direction_box.png,stimulus/audwhere_stim/direction_yes.png,stimulus/audwhere_stim/direction_no.png,None,Direction,None,Direction,1,0.0,0,5.125,0,5.125,0,5.125,0,0.0,0.625,0,0,0,0,0,0,0,0,0,0.0,0,0.0,1,0.5,1,2.125,0,,,,,0,49,49,49,,,,,,,,,450.386713667016,450.386713667016,450.386713667016,450.386713667016,450.386713667016,450.386713667016,450.386713667016,450.386713667016,450.3145758756824,450.386713667016,450.386713667016,450.386713667016,450.3145758756824,450.386713667016,450.386713667016,450.386713667016,452.48303141701035,456.5068581670057,450.386713667016,450.386713667016,455.55724458396435,450.386713667016,450.386713667016,450.386713667016,450.386713667016,450.8535927089979,451.9244752089726,450.82373750064676,,452.48303141701035,453.5582619589986,452.45294604165633,,450.386713667016,455.55724458396435,450.386713667016,455.55724458396435,455.59841162501834,456.2537611669977,450.386713667016,1,1,1.5386926240171306,reldom2_s029,001,2025-03-03_14h17.07.220,Aud-B-Scan_AC,2022.2.5,None,
38,First_Order,7.0,audwhere,stimulus/audwhere_stim/dummy.wav,stimulus/audwhere_stim/dummy.wav,stimulus/audwhere_stim/right_toward_290h.wav,stimulus/audwhere_stim/right_away_270h.wav,stimulus/audwhere_stim/blank_white.png,stimulus/audwhere_stim/side_box.png,stimulus/audwhere_stim/side_yes.png,stimulus/audwhere_stim/side_no.png,None,Side,None,Side,1,0.0,0,5.125,0,5.125,0,5.125,0,0.0,0.625,0,0,0,0,0,0,0,0,0,0.0,0,0.0,1,0.5,1,2.125,0,,,,,0,50,50,50,,,,,,,,,456.5068581670057,456.5068581670057,456.5068581670057,456.5068581670057,456.5068581670057,456.5068581670057,456.5068581670057,456.5068581670057,456.4282019583353,456.5068581670057,456.5068581670057,456.5068581670057,456.4282019583353,456.5068581670057,456.5068581670057,456.5068581670057,458.5918275419972,,456.5068581670057,456.5068581670057,461.6959630419733,456.5068581670057,456.5068581670057,456.5068581670057,456.5068581670057,456.97114916698774,458.03766758396523,456.94187304168395,,458.5918275419972,459.65958995901747,458.56227029167735,,456.5068581670057,461.6959630419733,456.5068581670057,461.6959630419733,461.73689483397175,462.3882589999703,456.5068581670057,1,1,1.159415166999679,reldom2_s029,001,2025-03-03_14h17.07.220,Aud-B-Scan_AC,2022.2.5,None,
39,First_Order,7.0,audwhere,stimulus/audwhere_stim/dummy.wav,stimulus/audwhere_stim/dummy.wav,stimulus/audwhere_stim/left_away_290h.wav,stimulus/audwhere_stim/left_toward_290h.wav,stimulus/audwhere_stim/blank_white.png,stimulus/audwhere_stim/direction_box.png,stimulus/audwhere_stim/direction_yes.png,stimulus/audwhere_stim/direction_no.png,None,Direction,None,Side,2,0.0,0,5.125,0,5.125,0,5.125,0,0.0,0.625,0,0,0,0,0,0,0,0,0,0.0,0,0.0,1,0.5,1,2.125,0,,,,,0,51,51,51,,,,,,,,,462.60102474997984,462.60102474997984,462.60102474997984,462.60102474997984,462.60102474997984,462.60102474997984,462.60102474997984,462.60102474997984,462.5215923333036,462.60102474997984,462.60102474997984,462.60102474997984,462.5215923333036,462.60102474997984,462.60102474997984,462.60102474997984,464.7008378339815,468.72492775000865,462.60102474997984,462.60102474997984,467.7744546670001,462.60102474997984,462.60102474997984,462.60102474997984,462.60102474997984,463.0677292919718,464.14336858398747,463.03756091668424,,464.7008378339815,465.77456941700075,464.6706497506277,,462.60102474997984,467.7744546670001,462.60102474997984,467.7744546670001,467.8156955000013,468.47128437500214,462.60102474997984,2,1,1.0954382080235519,reldom2_s029,001,2025-03-03_14h17.07.220,Aud-B-Scan_AC,2022.2.5,None,
40,First_Order,7.0,audwhere,stimulus/audwhere_stim/dummy.wav,stimulus/audwhere_stim/dummy.wav,stimulus/audwhere_stim/right_away_280h.wav,stimulus/audwhere_stim/right_toward_290h.wav,stimulus/audwhere_stim/blank_white.png,stimulus/audwhere_stim/direction_box.png,stimulus/audwhere_stim/direction_yes.png,stimulus/audwhere_stim/direction_no.png,None,Direction,None,Side,2,0.0,0,5.125,0,5.125,0,5.125,0,0.0,0.625,0,0,0,0,0,0,0,0,0,0.0,0,0.0,1,0.5,1,2.125,0,,,,,0,52,52,52,,,,,,,,,468.72492775000865,468.72492775000865,468.72492775000865,468.72492775000865,468.72492775000865,468.72492775000865,468.72492775000865,468.72492775000865,468.6453018333142,468.72492775000865,468.72492775000865,468.72492775000865,468.6453018333142,468.72492775000865,468.72492775000865,468.72492775000865,470.8223055420094,474.87012937496183,468.72492775000865,468.72492775000865,473.900036624982,468.72492775000865,468.72492775000865,468.72492775000865,468.72492775000865,469.19048616697546,470.26344316697214,469.16033450066266,,470.8223055420094,471.85128320899094,470.79223112564455,,468.72492775000865,473.900036624982,468.72492775000865,473.900036624982,473.9414147500065,474.5958757919725,468.72492775000865,2,1,1.4930745830060914,reldom2_s029,001,2025-03-03_14h17.07.220,Aud-B-Scan_AC,2022.2.5,None,
0,0.0,None,fixation,stimulus/audwhat_stim/blank_white.png,stimulus/audwhat_stim/blank_white.png,stimulus/audwhere_stim/blank_white.png,stimulus/audwhere_stim/blank_white.png,stimulus/audwhat_stim/blank_white.png,stimulus/audwhat_stim/blank_white.png,stimulus/audwhat_stim/blank_white.png,stimulus/audwhat_stim/blank_white.png,0.0,0.0,0.0,0.0,0,0.0,0,0.0,0,0.0,0,0.0,0,0.0,0.0,0,0,0,0,0,0,0,0,0,0.0,0,0.0,0,0.0,0,0.0,8,,,,,0,53,53,53,,,,,,,,,474.87012937496183,474.87012937496183,474.87012937496183,474.87012937496183,474.87012937496183,474.87012937496183,474.87012937496183,474.87012937496183,474.7699772923098,474.87012937496183,474.87012937496183,474.87012937496183,474.7699772923098,474.87012937496183,474.87012937496183,474.87012937496183,474.87012937496183,474.87012937496183,474.87012937496183,474.87012937496183,474.87012937496183,474.87012937496183,474.87012937496183,474.87012937496183,474.87012937496183,474.87012937496183,474.87012937496183,474.81997729230983,474.87012937496183,474.87012937496183,474.87012937496183,474.81997729230983,474.87012937496183,474.87012937496183,474.87012937496183,474.87012937496183,474.87012937496183,480.07347954198485,480.07347954198485,483.0055986249936,None,0,,reldom2_s029,001,2025-03-03_14h17.07.220,Aud-B-Scan_AC,2022.2.5,None,
41,Second_Order,7.0,audwhere,stimulus/audwhere_stim/left_toward_300h.wav,stimulus/audwhere_stim/right_toward_280h.wav,stimulus/audwhere_stim/right_toward_270h.wav,stimulus/audwhere_stim/right_away_290h.wav,stimulus/audwhat_stim/match_blank.png,stimulus/audwhat_stim/match_box.png,stimulus/audwhat_stim/match_yes.png,stimulus/audwhat_stim/match_no.png,2.0,Match,Direction,Side,2,5.125,0,5.125,0,5.125,0,5.125,0,0.75,0.75,0,0,0,0,0,0,0,0,1,0.5,1,2.125,1,0.5,1,2.125,0,,,,,0,54,54,54,,,,,,,,,483.0055986249936,488.1217113339808,483.0055986249936,483.0055986249936,483.0055986249936,483.0055986249936,483.4584829999949,484.44516141701024,483.47278133366876,,485.0809895420098,486.079161083966,485.0936412916674,,488.1217113339808,488.9705182919861,491.05296858400106,494.96580204198835,488.9705182919861,488.9705182919861,494.15526620898163,488.9705182919861,488.9705182919861,488.9705182919861,488.9705182919861,489.38667174999136,490.4528951669927,489.35720841668467,,491.05296858400106,492.11981962498976,491.0227616256491,,488.9705182919861,494.15526620898163,488.9705182919861,494.15526620898163,494.15526620898163,,488.9705182919861,2,1,1.431572417030111,reldom2_s029,001,2025-03-03_14h17.07.220,Aud-B-Scan_AC,2022.2.5,None,
42,Second_Order,7.0,audwhere,stimulus/audwhere_stim/right_toward_290h.wav,stimulus/audwhere_stim/left_toward_270h.wav,stimulus/audwhere_stim/left_toward_290h.wav,stimulus/audwhere_stim/left_away_280h.wav,stimulus/audwhat_stim/match_blank.png,stimulus/audwhat_stim/match_box.png,stimulus/audwhat_stim/match_yes.png,stimulus/audwhat_stim/match_no.png,2.0,Match,Direction,Side,2,5.125,0,5.125,0,5.125,0,5.125,0,0.625,0.625,0,0,0,0,0,0,0,0,1,0.5,1,2.125,1,0.5,1,2.125,0,,,,,0,55,55,55,,,,,,,,,494.96580204198835,500.0826082499698,494.96580204198835,494.96580204198835,494.96580204198835,494.96580204198835,495.4218055839883,496.41987845901167,495.4342279586747,,497.04276470898185,498.04013837501407,497.05467666668505,,500.0826082499698,500.81036195898196,502.88225245900685,,500.81036195898196,500.81036195898196,505.980301374977,500.81036195898196,500.81036195898196,500.81036195898196,500.81036195898196,501.2686441669939,502.3289521249826,501.23906850064327,,502.88225245900685,503.9463867919985,502.85222345864554,,500.81036195898196,505.980301374977,500.81036195898196,505.980301374977,505.980301374977,506.6303176669753,500.81036195898196,1,0,1.1982085829949938,reldom2_s029,001,2025-03-03_14h17.07.220,Aud-B-Scan_AC,2022.2.5,None,
0,0.0,None,fixation,stimulus/audwhat_stim/blank_white.png,stimulus/audwhat_stim/blank_white.png,stimulus/audwhere_stim/blank_white.png,stimulus/audwhere_stim/blank_white.png,stimulus/audwhat_stim/blank_white.png,stimulus/audwhat_stim/blank_white.png,stimulus/audwhat_stim/blank_white.png,stimulus/audwhat_stim/blank_white.png,0.0,0.0,0.0,0.0,0,0.0,0,0.0,0,0.0,0,0.0,0,0.0,0.0,0,0,0,0,0,0,0,0,0,0.0,0,0.0,0,0.0,0,0.0,10,,,,,0,56,56,56,,,,,,,,,506.90353416698053,506.90353416698053,506.90353416698053,506.90353416698053,506.90353416698053,506.90353416698053,506.90353416698053,506.90353416698053,506.8042486672949,506.90353416698053,506.90353416698053,506.90353416698053,506.8042486672949,506.90353416698053,506.90353416698053,506.90353416698053,506.90353416698053,506.90353416698053,506.90353416698053,506.90353416698053,506.90353416698053,506.90353416698053,506.90353416698053,506.90353416698053,506.90353416698053,506.90353416698053,506.90353416698053,506.85424866729494,506.90353416698053,506.90353416698053,506.90353416698053,506.85424866729494,506.90353416698053,506.90353416698053,506.90353416698053,506.90353416698053,506.90353416698053,512.124701083987,512.124701083987,517.1557944589877,None,0,,reldom2_s029,001,2025-03-03_14h17.07.220,Aud-B-Scan_AC,2022.2.5,None,
43,First_Order,8.0,audwhere,stimulus/audwhere_stim/dummy.wav,stimulus/audwhere_stim/dummy.wav,stimulus/audwhere_stim/right_toward_270h.wav,stimulus/audwhere_stim/left_toward_300h.wav,stimulus/audwhere_stim/blank_white.png,stimulus/audwhere_stim/side_box.png,stimulus/audwhere_stim/side_yes.png,stimulus/audwhere_stim/side_no.png,None,Side,None,Direction,2,0.0,0,5.125,0,5.125,0,5.125,0,0.0,0.625,0,0,0,0,0,0,0,0,0,0.0,0,0.0,1,0.5,1,2.125,0,,,,,0,57,57,57,,,,,,,,,517.1557944589877,517.1557944589877,517.1557944589877,517.1557944589877,517.1557944589877,517.1557944589877,517.1557944589877,517.1557944589877,517.0845158336839,517.1557944589877,517.1557944589877,517.1557944589877,517.0845158336839,517.1557944589877,517.1557944589877,517.1557944589877,519.2370108339819,523.2849016669788,517.1557944589877,517.1557944589877,522.3374499590136,517.1557944589877,517.1557944589877,517.1557944589877,517.1557944589877,517.6184118749807,518.6815816669841,517.589156458682,,519.2370108339819,520.3043801669846,519.207070708628,,517.1557944589877,522.3374499590136,517.1557944589877,522.3374499590136,522.3788138339878,523.0321784999687,517.1557944589877,2,1,1.2648419580073096,reldom2_s029,001,2025-03-03_14h17.07.220,Aud-B-Scan_AC,2022.2.5,None,
44,First_Order,8.0,audwhere,stimulus/audwhere_stim/dummy.wav,stimulus/audwhere_stim/dummy.wav,stimulus/audwhere_stim/right_toward_270h.wav,stimulus/audwhere_stim/left_toward_280h.wav,stimulus/audwhere_stim/blank_white.png,stimulus/audwhere_stim/side_box.png,stimulus/audwhere_stim/side_yes.png,stimulus/audwhere_stim/side_no.png,None,Side,None,Direction,2,0.0,0,5.125,0,5.125,0,5.125,0,0.0,0.625,0,0,0,0,0,0,0,0,0,0.0,0,0.0,1,0.5,1,2.125,0,,,,,0,58,58,58,,,,,,,,,523.2849016669788,523.2849016669788,523.2849016669788,523.2849016669788,523.2849016669788,523.2849016669788,523.2849016669788,523.2849016669788,523.2063034583426,523.2849016669788,523.2849016669788,523.2849016669788,523.2063034583426,523.2849016669788,523.2849016669788,523.2849016669788,525.373838917003,,523.2849016669788,523.2849016669788,528.4336171670002,523.2849016669788,523.2849016669788,523.2849016669788,523.2849016669788,523.7502779170172,524.8178392919945,523.7203528336288,,525.373838917003,526.4405704999808,525.3440144166273,,523.2849016669788,528.4336171670002,523.2849016669788,528.4336171670002,528.5150118339807,529.16660674999,523.2849016669788,2,1,1.2656662910012528,reldom2_s029,001,2025-03-03_14h17.07.220,Aud-B-Scan_AC,2022.2.5,None,
45,First_Order,8.0,audwhere,stimulus/audwhere_stim/dummy.wav,stimulus/audwhere_stim/dummy.wav,stimulus/audwhere_stim/right_toward_270h.wav,stimulus/audwhere_stim/left_toward_290h.wav,stimulus/audwhere_stim/blank_white.png,stimulus/audwhere_stim/direction_box.png,stimulus/audwhere_stim/direction_yes.png,stimulus/audwhere_stim/direction_no.png,None,Direction,None,Direction,1,0.0,0,5.125,0,5.125,0,5.125,0,0.0,0.625,0,0,0,0,0,0,0,0,0,0.0,0,0.0,1,0.5,1,2.125,0,,,,,0,59,59,59,,,,,,,,,529.3805376249948,529.3805376249948,529.3805376249948,529.3805376249948,529.3805376249948,529.3805376249948,529.3805376249948,529.3805376249948,529.2999400833233,529.3805376249948,529.3805376249948,529.3805376249948,529.2999400833233,529.3805376249948,529.3805376249948,529.3805376249948,531.478345541982,535.5036607090151,529.3805376249948,529.3805376249948,534.5526844169945,529.3805376249948,529.3805376249948,529.3805376249948,529.3805376249948,529.8476299169706,530.9193527919706,529.81748750067,,531.478345541982,532.5507524170098,531.4483718336598,,529.3805376249948,534.5526844169945,529.3805376249948,534.5526844169945,534.5939396669855,535.2484791669995,529.3805376249948,1,1,1.2489303330075927,reldom2_s029,001,2025-03-03_14h17.07.220,Aud-B-Scan_AC,2022.2.5,None,
46,First_Order,8.0,audwhere,stimulus/audwhere_stim/dummy.wav,stimulus/audwhere_stim/dummy.wav,stimulus/audwhere_stim/left_away_300h.wav,stimulus/audwhere_stim/left_toward_300h.wav,stimulus/audwhere_stim/blank_white.png,stimulus/audwhere_stim/side_box.png,stimulus/audwhere_stim/side_yes.png,stimulus/audwhere_stim/side_no.png,None,Side,None,Side,1,0.0,0,5.125,0,5.125,0,5.125,0,0.0,0.625,0,0,0,0,0,0,0,0,0,0.0,0,0.0,1,0.5,1,2.125,0,,,,,0,60,60,60,,,,,,,,,535.5036607090151,535.5036607090151,535.5036607090151,535.5036607090151,535.5036607090151,535.5036607090151,535.5036607090151,535.5036607090151,535.4228720423145,535.5036607090151,535.5036607090151,535.5036607090151,535.4228720423145,535.5036607090151,535.5036607090151,535.5036607090151,537.5940201670164,,535.5036607090151,535.5036607090151,540.655883667001,535.5036607090151,535.5036607090151,535.5036607090151,535.5036607090151,535.9688050000113,537.0351962500135,535.9390173336762,,537.5940201670164,538.6632063749712,537.5636088756767,,535.5036607090151,540.655883667001,535.5036607090151,540.655883667001,540.6969828750007,541.3526238749619,535.5036607090151,1,1,1.1056688750395551,reldom2_s029,001,2025-03-03_14h17.07.220,Aud-B-Scan_AC,2022.2.5,None,
0,0.0,None,fixation,stimulus/audwhat_stim/blank_white.png,stimulus/audwhat_stim/blank_white.png,stimulus/audwhere_stim/blank_white.png,stimulus/audwhere_stim/blank_white.png,stimulus/audwhat_stim/blank_white.png,stimulus/audwhat_stim/blank_white.png,stimulus/audwhat_stim/blank_white.png,stimulus/audwhat_stim/blank_white.png,0.0,0.0,0.0,0.0,0,0.0,0,0.0,0,0.0,0,0.0,0,0.0,0.0,0,0,0,0,0,0,0,0,0,0.0,0,0.0,0,0.0,0,0.0,9,,,,,0,61,61,61,,,,,,,,,541.626417084015,541.626417084015,541.626417084015,541.626417084015,541.626417084015,541.626417084015,541.626417084015,541.626417084015,541.5269356253285,541.626417084015,541.626417084015,541.626417084015,541.5269356253285,541.626417084015,541.626417084015,541.626417084015,541.626417084015,541.626417084015,541.626417084015,541.626417084015,541.626417084015,541.626417084015,541.626417084015,541.626417084015,541.626417084015,541.626417084015,541.626417084015,541.5769356253285,541.626417084015,541.626417084015,541.626417084015,541.5769356253285,541.626417084015,541.626417084015,541.626417084015,541.626417084015,541.626417084015,546.8188857499626,546.8188857499626,550.7650091249961,None,0,,reldom2_s029,001,2025-03-03_14h17.07.220,Aud-B-Scan_AC,2022.2.5,None,
47,Second_Order,8.0,audwhere,stimulus/audwhere_stim/right_away_300h.wav,stimulus/audwhere_stim/right_toward_270h.wav,stimulus/audwhere_stim/left_away_280h.wav,stimulus/audwhere_stim/left_toward_270h.wav,stimulus/audwhat_stim/match_blank.png,stimulus/audwhat_stim/match_box.png,stimulus/audwhat_stim/match_yes.png,stimulus/audwhat_stim/match_no.png,1.0,Match,Side,Side,1,5.125,0,5.125,0,5.125,0,5.125,0,0.75,0.75,0,0,0,0,0,0,0,0,1,0.5,1,2.125,1,0.5,1,2.125,0,,,,,0,62,62,62,,,,,,,,,550.7650091249961,555.8784006669885,550.7650091249961,550.7650091249961,550.7650091249961,550.7650091249961,551.2168807499693,552.2157083749771,551.229631333674,,552.8501305839745,553.8393500840175,552.8532177506752,553.8393500840175,555.8784006669885,556.7283927089884,558.8101880839677,562.7252940839971,556.7283927089884,556.7283927089884,561.9147553339717,556.7283927089884,556.7283927089884,556.7283927089884,556.7283927089884,557.1447189589962,558.2073838749784,557.1148405836468,,558.8101880839677,559.8764093340142,558.7802455836829,,556.7283927089884,561.9147553339717,556.7283927089884,561.9147553339717,561.9147553339717,,556.7283927089884,2,0,2.272382374969311,reldom2_s029,001,2025-03-03_14h17.07.220,Aud-B-Scan_AC,2022.2.5,None,
48,Second_Order,8.0,audwhere,stimulus/audwhere_stim/right_toward_270h.wav,stimulus/audwhere_stim/right_away_270h.wav,stimulus/audwhere_stim/left_away_280h.wav,stimulus/audwhere_stim/left_toward_290h.wav,stimulus/audwhat_stim/match_blank.png,stimulus/audwhat_stim/match_box.png,stimulus/audwhat_stim/match_yes.png,stimulus/audwhat_stim/match_no.png,1.0,Match,Side,Side,1,5.125,0,5.125,0,5.125,0,5.125,0,0.625,0.625,0,0,0,0,0,0,0,0,1,0.5,1,2.125,1,0.5,1,2.125,0,,,,,0,63,63,63,,,,,,,,,562.7252940839971,567.8394638340105,562.7252940839971,562.7252940839971,562.7252940839971,562.7252940839971,563.1774460839806,564.1637587500154,563.190798375643,,564.811290749989,565.8010820840136,564.8147975416543,,567.8394638340105,568.567791458976,570.6385246249847,,568.567791458976,568.567791458976,573.7317028340185,568.567791458976,568.567791458976,568.567791458976,568.567791458976,569.0263069589855,570.0860197920119,568.9971203756324,,570.6385246249847,571.6989507919643,570.6096712916662,,568.567791458976,573.7317028340185,568.567791458976,573.7317028340185,573.7317028340185,574.3841026250157,568.567791458976,1,1,2.4606376249575987,reldom2_s029,001,2025-03-03_14h17.07.220,Aud-B-Scan_AC,2022.2.5,None,
0,0.0,None,fixation,stimulus/audwhat_stim/blank_white.png,stimulus/audwhat_stim/blank_white.png,stimulus/audwhere_stim/blank_white.png,stimulus/audwhere_stim/blank_white.png,stimulus/audwhat_stim/blank_white.png,stimulus/audwhat_stim/blank_white.png,stimulus/audwhat_stim/blank_white.png,stimulus/audwhat_stim/blank_white.png,0.0,0.0,0.0,0.0,0,0.0,0,0.0,0,0.0,0,0.0,0,0.0,0.0,0,0,0,0,0,0,0,0,0,0.0,0,0.0,0,0.0,0,0.0,16,,,,,0,64,64,64,,,,,,,,,574.65811054199,574.65811054199,574.65811054199,574.65811054199,574.65811054199,574.65811054199,574.65811054199,574.65811054199,574.5582088753309,574.65811054199,574.65811054199,574.65811054199,574.5582088753309,574.65811054199,574.65811054199,574.65811054199,574.65811054199,574.65811054199,574.65811054199,574.65811054199,574.65811054199,574.65811054199,574.65811054199,574.65811054199,574.65811054199,574.65811054199,574.65811054199,574.6082088753309,574.65811054199,574.65811054199,574.65811054199,574.6082088753309,574.65811054199,574.65811054199,574.65811054199,574.65811054199,574.65811054199,579.8754683340085,579.8754683340085,590.7833961669821,None,0,,reldom2_s029,001,2025-03-03_14h17.07.220,Aud-B-Scan_AC,2022.2.5,None,
