Trial,Order,Block,Type,Stimuli_File1,Stimuli_File2,Stimuli_File3,Stimuli_File4,Cue_File1,Cue_File2,Response_File_Yes,Response_File_No,Match,Cue_Dimension,Pair1_Dimension,Pair2_Dimension,Key,Cue1_Duration,Cue1_Onset,Cue2_Duration,Cue2_Onset,ResponseYes_Duration,ResponseYes_Onset,ResponseNo_Duration,ResponseNo_Onset,ITI_Within,ITI_Between,Image1_Duration,Image1_Onset,Image2_Duration,Image2_Onset,Image3_Duration,Image3_Onset,Image4_Duration,Image4_Onset,Sound1_Duration,Sound1_Onset,Sound2_Duration,Sound2_Onset,Sound3_Duration,Sound3_Onset,Sound4_Duration,Sound4_Onset,Fixation_Duration,trials_2.thisRepN,trials_2.thisTrialN,trials_2.thisN,trials_2.thisIndex,trials.thisRepN,trials.thisTrialN,trials.thisN,trials.thisIndex,text_start.started,key_resp_start.started,key_resp_start.keys,key_resp_start.rt,text2.started,key_resp_2.started,key_resp_2.keys,key_resp_2.rt,cue_file1.started,cue_file1.stopped,image_1.started,image_1.stopped,image_2.started,image_2.stopped,sound_icon1.started,sound_icon1.stopped,sound_1.started,sound_1.stopped,sound_icon2.started,sound_icon2.stopped,sound_2.started,sound_2.stopped,image_blank_1.started,image_blank_1.stopped,key_press.started,key_press.stopped,fixation_text.started,cue_file2.started,cue_file2.stopped,image_3.started,image_3.stopped,image_4.started,image_4.stopped,sound_icon3.started,sound_icon3.stopped,sound_3.started,sound_3.stopped,sound_icon4.started,sound_icon4.stopped,sound_4.started,sound_4.stopped,response_yes.started,response_yes.stopped,response_no.started,response_no.stopped,iti_blank.started,iti_blank.stopped,fixation_text.stopped,key_press.keys,key_press.corr,key_press.rt,participant,session,date,expName,psychopyVersion,frameRate,
,,,,,,,,,,,,,,,,,,,,,,,,,,,,,,,,,,,,,,,,,,,,,,,,,,,,6.848340957949404,6.848340957949404,2,1.2659190420527011,,,,,,,,,,,,,,,,,,,,,,,,,,,,,,,,,,,,,,,,,,,,,,,,reldom2_s029,001,2025-03-03_14h39.20.296,What-B-Scan_AC,2022.2.5,None,
,,,,,,,,,,,,,,,,,,,,,,,,,,,,,,,,,,,,,,,,,,,,0,0,0,0,,,,,,,,,8.154475082992576,8.154475082992576,5,17.34604766702978,,,,,,,,,,,,,,,,,,,,,,,,,,,,,,,,,,,,,,,,,,,,reldom2_s029,001,2025-03-03_14h39.20.296,What-B-Scan_AC,2022.2.5,None,
,,,,,,,,,,,,,,,,,,,,,,,,,,,,,,,,,,,,,,,,,,,,1,0,1,0,,,,,,,,,25.518707999959588,25.518707999959588,5,1.9812715000007302,,,,,,,,,,,,,,,,,,,,,,,,,,,,,,,,,,,,,,,,,,,,reldom2_s029,001,2025-03-03_14h39.20.296,What-B-Scan_AC,2022.2.5,None,
,,,,,,,,,,,,,,,,,,,,,,,,,,,,,,,,,,,,,,,,,,,,2,0,2,0,,,,,,,,,27.517218124994542,27.517218124994542,5,1.9835707920137793,,,,,,,,,,,,,,,,,,,,,,,,,,,,,,,,,,,,,,,,,,,,reldom2_s029,001,2025-03-03_14h39.20.296,What-B-Scan_AC,2022.2.5,None,
,,,,,,,,,,,,,,,,,,,,,,,,,,,,,,,,,,,,,,,,,,,,3,0,3,0,,,,,,,,,29.507401124981698,29.507401124981698,5,1.9920690420549363,,,,,,,,,,,,,,,,,,,,,,,,,,,,,,,,,,,,,,,,,,,,reldom2_s029,001,2025-03-03_14h39.20.296,What-B-Scan_AC,2022.2.5,None,
0,0.0,None,fixation,stimulus/viswhat_stim/blank_white.png,stimulus/viswhat_stim/blank_white.png,stimulus/audwhat_stim/blank_white.png,stimulus/audwhat_stim/blank_white.png,stimulus/viswhat_stim/blank_white.png,stimulus/viswhat_stim/blank_white.png,stimulus/viswhat_stim/blank_white.png,stimulus/viswhat_stim/blank_white.png,0.0,0.0,0.0,0.0,0,0.0,0,0.0,0,0.0,0,0.0,0,0.0,0.0,0,0.0,0,0.0,0,0.0,0,0.0,0,0.0,0,0.0,0,0.0,0,0.0,16,,,,,0,0,0,0,,,,,,,,,31.718116457981523,31.718116457981523,31.718116457981523,31.718116457981523,31.718116457981523,31.718116457981523,31.718116457981523,31.718116457981523,31.623105791657387,31.718116457981523,31.718116457981523,31.718116457981523,31.623105791657387,31.718116457981523,31.718116457981523,31.718116457981523,31.718116457981523,31.718116457981523,31.718116457981523,31.718116457981523,31.718116457981523,31.718116457981523,31.718116457981523,31.718116457981523,31.718116457981523,31.718116457981523,31.718116457981523,31.673105791657385,31.718116457981523,31.718116457981523,31.718116457981523,31.673105791657385,31.718116457981523,31.718116457981523,31.718116457981523,31.718116457981523,31.718116457981523,36.93461020797258,36.93461020797258,48.15594324999256,None,0,,reldom2_s029,001,2025-03-03_14h39.20.296,What-B-Scan_AC,2022.2.5,None,
1,First_Order,1.0,viswhat,stimulus/viswhat_stim/blank_white.png,stimulus/viswhat_stim/blank_white.png,stimulus/viswhat_stim/water_vehicle-pirateship.png,stimulus/viswhat_stim/water_animal-lobster.png,stimulus/viswhat_stim/blank_white.png,stimulus/viswhat_stim/location_box.png,stimulus/viswhat_stim/location_yes.png,stimulus/viswhat_stim/location_no.png,None,Location,None,Location,1,0.0,0,5.125,0,5.125,0,5.125,0,0.0,0.625,0,0.0,0,0.0,1,0.5,1,2.125,0,0.0,0,0.0,0,0.0,0,0.0,0,,,,,0,1,1,1,,,,,,,,,48.15594324999256,48.15594324999256,48.15594324999256,48.15594324999256,48.15594324999256,48.15594324999256,48.15594324999256,48.15594324999256,47.85907566597452,48.15594324999256,48.15594324999256,48.15594324999256,47.85907566597452,48.15594324999256,48.15594324999256,48.15594324999256,50.22236299997894,,48.15594324999256,48.15594324999256,53.46666795795318,48.59832862496842,49.77934645797359,50.22236299997894,51.40258737496333,48.15594324999256,48.15594324999256,48.00907566597452,48.15594324999256,48.15594324999256,48.15594324999256,48.00907566597452,48.15594324999256,48.15594324999256,53.46666795795318,48.15594324999256,53.46666795795318,53.32459120795829,,48.15594324999256,1,1,1.2678218750515953,reldom2_s029,001,2025-03-03_14h39.20.296,What-B-Scan_AC,2022.2.5,None,
2,First_Order,1.0,viswhat,stimulus/viswhat_stim/blank_white.png,stimulus/viswhat_stim/blank_white.png,stimulus/viswhat_stim/land_vehicle-firetruck.png,stimulus/viswhat_stim/water_vehicle-jetski.png,stimulus/viswhat_stim/blank_white.png,stimulus/viswhat_stim/location_box.png,stimulus/viswhat_stim/location_yes.png,stimulus/viswhat_stim/location_no.png,None,Location,None,Type,2,0.0,0,5.125,0,5.125,0,5.125,0,0.0,0.625,0,0.0,0,0.0,1,0.5,1,2.125,0,0.0,0,0.0,0,0.0,0,0.0,0,,,,,0,2,2,2,,,,,,,,,54.12569324998185,54.12569324998185,54.12569324998185,54.12569324998185,54.12569324998185,54.12569324998185,54.12569324998185,54.12569324998185,54.085657041306455,54.12569324998185,54.12569324998185,54.12569324998185,54.085657041306455,54.12569324998185,54.12569324998185,54.12569324998185,56.223043582984246,60.27371154096909,54.12569324998185,54.12569324998185,59.25882733298931,54.593129790970124,55.60689908295171,56.223043582984246,57.23583779099863,54.12569324998185,54.12569324998185,54.10232370797312,54.12569324998185,54.12569324998185,54.12569324998185,54.10232370797312,54.12569324998185,54.12569324998185,59.25882733298931,54.12569324998185,59.25882733298931,59.35296783299418,59.98029233299894,54.12569324998185,2,1,1.14795429201331,reldom2_s029,001,2025-03-03_14h39.20.296,What-B-Scan_AC,2022.2.5,None,
3,First_Order,1.0,viswhat,stimulus/viswhat_stim/blank_white.png,stimulus/viswhat_stim/blank_white.png,stimulus/viswhat_stim/land_animal-moose.png,stimulus/viswhat_stim/water_animal-jellyfish.png,stimulus/viswhat_stim/blank_white.png,stimulus/viswhat_stim/type_box.png,stimulus/viswhat_stim/type_yes.png,stimulus/viswhat_stim/type_no.png,None,Type,None,Type,1,0.0,0,5.125,0,5.125,0,5.125,0,0.0,0.625,0,0.0,0,0.0,1,0.5,1,2.125,0,0.0,0,0.0,0,0.0,0,0.0,0,,,,,0,3,3,3,,,,,,,,,60.27371154096909,60.27371154096909,60.27371154096909,60.27371154096909,60.27371154096909,60.27371154096909,60.27371154096909,60.27371154096909,60.17450874999631,60.27371154096909,60.27371154096909,60.27371154096909,60.17450874999631,60.27371154096909,60.27371154096909,60.27371154096909,62.37044504098594,,60.27371154096909,60.27371154096909,65.48693183297291,60.75212624995038,61.83285466599045,62.37044504098594,63.453641332976986,60.27371154096909,60.27371154096909,60.22450874999631,60.27371154096909,60.27371154096909,60.27371154096909,60.22450874999631,60.27371154096909,60.27371154096909,65.48693183297291,60.27371154096909,65.48693183297291,65.48693183297291,66.35587362496881,60.27371154096909,1,1,0.8343343749875203,reldom2_s029,001,2025-03-03_14h39.20.296,What-B-Scan_AC,2022.2.5,None,
4,First_Order,1.0,viswhat,stimulus/viswhat_stim/blank_white.png,stimulus/viswhat_stim/blank_white.png,stimulus/viswhat_stim/land_animal-tiger.png,stimulus/viswhat_stim/land_vehicle-rv.png,stimulus/viswhat_stim/blank_white.png,stimulus/viswhat_stim/type_box.png,stimulus/viswhat_stim/type_yes.png,stimulus/viswhat_stim/type_no.png,None,Type,None,Location,2,0.0,0,5.125,0,5.125,0,5.125,0,0.0,0.625,0,0.0,0,0.0,1,0.5,1,2.125,0,0.0,0,0.0,0,0.0,0,0.0,0,,,,,0,4,4,4,,,,,,,,,66.35587362496881,66.35587362496881,66.35587362496881,66.35587362496881,66.35587362496881,66.35587362496881,66.35587362496881,66.35587362496881,66.30499570762429,66.35587362496881,66.35587362496881,66.35587362496881,66.30499570762429,66.35587362496881,66.35587362496881,66.35587362496881,68.43795754096936,72.49768124998081,66.35587362496881,66.35587362496881,71.49858600000152,66.84167624998372,67.8848960409523,68.43795754096936,69.48221404099604,66.35587362496881,66.35587362496881,66.32166237429095,66.35587362496881,66.35587362496881,66.35587362496881,66.32166237429095,66.35587362496881,66.35587362496881,71.49858600000152,66.35587362496881,71.49858600000152,71.55849699996179,72.19928812497528,66.35587362496881,2,1,1.111076542059891,reldom2_s029,001,2025-03-03_14h39.20.296,What-B-Scan_AC,2022.2.5,None,
0,0.0,None,fixation,stimulus/viswhat_stim/blank_white.png,stimulus/viswhat_stim/blank_white.png,stimulus/audwhat_stim/blank_white.png,stimulus/audwhat_stim/blank_white.png,stimulus/viswhat_stim/blank_white.png,stimulus/viswhat_stim/blank_white.png,stimulus/viswhat_stim/blank_white.png,stimulus/viswhat_stim/blank_white.png,0.0,0.0,0.0,0.0,0,0.0,0,0.0,0,0.0,0,0.0,0,0.0,0.0,0,0.0,0,0.0,0,0.0,0,0.0,0,0.0,0,0.0,0,0.0,0,0.0,9,,,,,0,5,5,5,,,,,,,,,72.49768124998081,72.49768124998081,72.49768124998081,72.49768124998081,72.49768124998081,72.49768124998081,72.49768124998081,72.49768124998081,72.4032227916449,72.49768124998081,72.49768124998081,72.49768124998081,72.4032227916449,72.49768124998081,72.49768124998081,72.49768124998081,72.49768124998081,72.49768124998081,72.49768124998081,72.49768124998081,72.49768124998081,72.49768124998081,72.49768124998081,72.49768124998081,72.49768124998081,72.49768124998081,72.49768124998081,72.4532227916449,72.49768124998081,72.49768124998081,72.49768124998081,72.4532227916449,72.49768124998081,72.49768124998081,72.49768124998081,72.49768124998081,72.49768124998081,77.71777474996634,77.71777474996634,81.65890433295863,None,0,,reldom2_s029,001,2025-03-03_14h39.20.296,What-B-Scan_AC,2022.2.5,None,
5,Second_Order,1.0,viswhat,stimulus/viswhat_stim/land_animal-bunny.png,stimulus/viswhat_stim/land_vehicle-motorcycle.png,stimulus/viswhat_stim/water_animal-octopus.png,stimulus/viswhat_stim/land_animal-fox.png,stimulus/viswhat_stim/match_blank.png,stimulus/viswhat_stim/match_box.png,stimulus/viswhat_stim/match_yes.png,stimulus/viswhat_stim/match_no.png,2.0,Match,Location,Type,2,5.125,0,5.125,0,5.125,0,5.125,0,0.75,0.75,1,0.5,1,2.125,1,0.5,1,2.125,0,0.0,0,0.0,0,0.0,0,0.0,0,,,,,0,6,6,6,,,,,,,,,81.65890433295863,86.7728563749697,82.09198549995199,83.07837649999419,83.72675291600171,84.71548095799517,81.65890433295863,81.65890433295863,81.66769399963475,81.65890433295863,81.65890433295863,81.65890433295863,81.66769399963475,81.65890433295863,86.7728563749697,87.59636520798085,89.6572843749891,93.55940987495705,87.59636520798085,87.59636520798085,92.75186941598076,88.03107241599355,89.06358004099457,89.6572843749891,90.68996483297087,87.59636520798085,87.59636520798085,87.57333374962133,87.59636520798085,87.59636520798085,87.59636520798085,87.57333374962133,87.59636520798085,87.59636520798085,92.75186941598076,87.59636520798085,92.75186941598076,92.77763895795215,,87.59636520798085,2,1,1.355978125007823,reldom2_s029,001,2025-03-03_14h39.20.296,What-B-Scan_AC,2022.2.5,None,
6,Second_Order,1.0,viswhat,stimulus/viswhat_stim/land_vehicle-tank.png,stimulus/viswhat_stim/land_animal-wolf.png,stimulus/viswhat_stim/water_vehicle-motorboatraft.png,stimulus/viswhat_stim/water_animal-squid.png,stimulus/viswhat_stim/match_blank.png,stimulus/viswhat_stim/match_box.png,stimulus/viswhat_stim/match_yes.png,stimulus/viswhat_stim/match_no.png,1.0,Match,Location,Location,1,5.125,0,5.125,0,5.125,0,5.125,0,0.625,0.625,1,0.5,1,2.125,1,0.5,1,2.125,0,0.0,0,0.0,0,0.0,0,0.0,0,,,,,0,7,7,7,,,,,,,,,93.55940987495705,98.68269408296328,94.03779420797946,95.03633804095443,95.65961979096755,96.65678362495964,93.55940987495705,93.55940987495705,93.56082241663631,93.55940987495705,93.55940987495705,93.55940987495705,93.56082241663631,93.55940987495705,98.68269408296328,99.37790533294901,101.4478129579802,,99.37790533294901,99.37790533294901,104.53580304095522,99.82147929095663,100.85579779098043,101.4478129579802,102.48707195796305,99.37790533294901,99.37790533294901,99.34595620796317,99.37790533294901,99.37790533294901,99.37790533294901,99.34595620796317,99.37790533294901,99.37790533294901,104.53580304095522,99.37790533294901,104.53580304095522,104.56017524999334,105.20709116599755,99.37790533294901,2,0,2.5528753329999745,reldom2_s029,001,2025-03-03_14h39.20.296,What-B-Scan_AC,2022.2.5,None,
0,0.0,None,fixation,stimulus/viswhat_stim/blank_white.png,stimulus/viswhat_stim/blank_white.png,stimulus/audwhat_stim/blank_white.png,stimulus/audwhat_stim/blank_white.png,stimulus/viswhat_stim/blank_white.png,stimulus/viswhat_stim/blank_white.png,stimulus/viswhat_stim/blank_white.png,stimulus/viswhat_stim/blank_white.png,0.0,0.0,0.0,0.0,0,0.0,0,0.0,0,0.0,0,0.0,0,0.0,0.0,0,0.0,0,0.0,0,0.0,0,0.0,0,0.0,0,0.0,0,0.0,0,0.0,9,,,,,0,8,8,8,,,,,,,,,105.48253824998392,105.48253824998392,105.48253824998392,105.48253824998392,105.48253824998392,105.48253824998392,105.48253824998392,105.48253824998392,105.37834383299341,105.48253824998392,105.48253824998392,105.48253824998392,105.37834383299341,105.48253824998392,105.48253824998392,105.48253824998392,105.48253824998392,105.48253824998392,105.48253824998392,105.48253824998392,105.48253824998392,105.48253824998392,105.48253824998392,105.48253824998392,105.48253824998392,105.48253824998392,105.48253824998392,105.44501049966009,105.48253824998392,105.48253824998392,105.48253824998392,105.44501049966009,105.48253824998392,105.48253824998392,105.48253824998392,105.48253824998392,105.48253824998392,110.69007024995517,110.69007024995517,114.9141846660059,None,0,,reldom2_s029,001,2025-03-03_14h39.20.296,What-B-Scan_AC,2022.2.5,None,
7,First_Order,2.0,viswhat,stimulus/viswhat_stim/blank_white.png,stimulus/viswhat_stim/blank_white.png,stimulus/viswhat_stim/water_animal-lobster.png,stimulus/viswhat_stim/water_vehicle-canoe.png,stimulus/viswhat_stim/blank_white.png,stimulus/viswhat_stim/location_box.png,stimulus/viswhat_stim/location_yes.png,stimulus/viswhat_stim/location_no.png,None,Location,None,Location,1,0.0,0,5.125,0,5.125,0,5.125,0,0.0,0.625,0,0.0,0,0.0,1,0.5,1,2.125,0,0.0,0,0.0,0,0.0,0,0.0,0,,,,,0,9,9,9,,,,,,,,,114.9141846660059,114.9141846660059,114.9141846660059,114.9141846660059,114.9141846660059,114.9141846660059,114.9141846660059,114.9141846660059,114.63223954165976,114.9141846660059,114.9141846660059,114.9141846660059,114.63223954165976,114.9141846660059,114.9141846660059,114.9141846660059,117.01001874997746,,114.9141846660059,114.9141846660059,120.297948582971,115.36384999996517,116.5616090829717,117.01001874997746,118.20593174995156,114.9141846660059,114.9141846660059,114.76557287499308,114.9141846660059,114.9141846660059,114.9141846660059,114.76557287499308,114.9141846660059,114.9141846660059,120.297948582971,114.9141846660059,120.297948582971,120.00276483298512,,114.9141846660059,1,1,2.1819882510462776,reldom2_s029,001,2025-03-03_14h39.20.296,What-B-Scan_AC,2022.2.5,None,
8,First_Order,2.0,viswhat,stimulus/viswhat_stim/blank_white.png,stimulus/viswhat_stim/blank_white.png,stimulus/viswhat_stim/water_animal-jellyfish.png,stimulus/viswhat_stim/land_animal-bunny.png,stimulus/viswhat_stim/blank_white.png,stimulus/viswhat_stim/type_box.png,stimulus/viswhat_stim/type_yes.png,stimulus/viswhat_stim/type_no.png,None,Type,None,Type,1,0.0,0,5.125,0,5.125,0,5.125,0,0.0,0.625,0,0.0,0,0.0,1,0.5,1,2.125,0,0.0,0,0.0,0,0.0,0,0.0,0,,,,,0,10,10,10,,,,,,,,,121.01888937497279,121.01888937497279,121.01888937497279,121.01888937497279,121.01888937497279,121.01888937497279,121.01888937497279,121.01888937497279,120.9355610409635,121.01888937497279,121.01888937497279,121.01888937497279,120.9355610409635,121.01888937497279,121.01888937497279,121.01888937497279,123.10466949996771,,121.01888937497279,121.01888937497279,126.18528187496122,121.48641141597182,122.53101783298189,123.10466949996771,124.15191829099786,121.01888937497279,121.01888937497279,120.96889437429684,121.01888937497279,121.01888937497279,121.01888937497279,120.96889437429684,121.01888937497279,121.01888937497279,126.18528187496122,121.01888937497279,126.18528187496122,126.23220008297358,127.08257591596339,121.01888937497279,1,1,1.3147660420509055,reldom2_s029,001,2025-03-03_14h39.20.296,What-B-Scan_AC,2022.2.5,None,
9,First_Order,2.0,viswhat,stimulus/viswhat_stim/blank_white.png,stimulus/viswhat_stim/blank_white.png,stimulus/viswhat_stim/land_animal-cat.png,stimulus/viswhat_stim/water_animal-whale (1).png,stimulus/viswhat_stim/blank_white.png,stimulus/viswhat_stim/location_box.png,stimulus/viswhat_stim/location_yes.png,stimulus/viswhat_stim/location_no.png,None,Location,None,Type,2,0.0,0,5.125,0,5.125,0,5.125,0,0.0,0.625,0,0.0,0,0.0,1,0.5,1,2.125,0,0.0,0,0.0,0,0.0,0,0.0,0,,,,,0,11,11,11,,,,,,,,,127.08257591596339,127.08257591596339,127.08257591596339,127.08257591596339,127.08257591596339,127.08257591596339,127.08257591596339,127.08257591596339,127.03437862496358,127.08257591596339,127.08257591596339,127.08257591596339,127.03437862496358,127.08257591596339,127.08257591596339,127.08257591596339,129.17387741600396,133.19291908299783,127.08257591596339,127.08257591596339,132.2425696659484,127.56754541595001,128.5958245829679,129.17387741600396,130.2142362909508,127.08257591596339,127.08257591596339,127.05104529163025,127.08257591596339,127.08257591596339,127.08257591596339,127.05104529163025,127.08257591596339,127.08257591596339,132.2425696659484,127.08257591596339,132.2425696659484,132.29602524999063,132.9316512499936,127.08257591596339,2,1,1.1078200829797424,reldom2_s029,001,2025-03-03_14h39.20.296,What-B-Scan_AC,2022.2.5,None,
10,First_Order,2.0,viswhat,stimulus/viswhat_stim/blank_white.png,stimulus/viswhat_stim/blank_white.png,stimulus/viswhat_stim/water_animal-shark.png,stimulus/viswhat_stim/water_vehicle-yacht.png,stimulus/viswhat_stim/blank_white.png,stimulus/viswhat_stim/type_box.png,stimulus/viswhat_stim/type_yes.png,stimulus/viswhat_stim/type_no.png,None,Type,None,Location,2,0.0,0,5.125,0,5.125,0,5.125,0,0.0,0.625,0,0.0,0,0.0,1,0.5,1,2.125,0,0.0,0,0.0,0,0.0,0,0.0,0,,,,,0,12,12,12,,,,,,,,,133.19291908299783,133.19291908299783,133.19291908299783,133.19291908299783,133.19291908299783,133.19291908299783,133.19291908299783,133.19291908299783,133.11176299998772,133.19291908299783,133.19291908299783,133.19291908299783,133.11176299998772,133.19291908299783,133.19291908299783,133.19291908299783,135.29452079097973,,133.19291908299783,133.19291908299783,138.3438053749851,133.66661266598385,134.69629308296135,135.29452079097973,136.32890504098032,133.19291908299783,133.19291908299783,133.1617629999877,133.19291908299783,133.19291908299783,133.19291908299783,133.1617629999877,133.19291908299783,133.19291908299783,138.3438053749851,133.19291908299783,138.3438053749851,138.41910895798355,139.09090708295116,133.19291908299783,1,0,1.272147584008053,reldom2_s029,001,2025-03-03_14h39.20.296,What-B-Scan_AC,2022.2.5,None,
0,0.0,None,fixation,stimulus/viswhat_stim/blank_white.png,stimulus/viswhat_stim/blank_white.png,stimulus/audwhat_stim/blank_white.png,stimulus/audwhat_stim/blank_white.png,stimulus/viswhat_stim/blank_white.png,stimulus/viswhat_stim/blank_white.png,stimulus/viswhat_stim/blank_white.png,stimulus/viswhat_stim/blank_white.png,0.0,0.0,0.0,0.0,0,0.0,0,0.0,0,0.0,0,0.0,0,0.0,0.0,0,0.0,0,0.0,0,0.0,0,0.0,0,0.0,0,0.0,0,0.0,0,0.0,10,,,,,0,13,13,13,,,,,,,,,139.32058770797448,139.32058770797448,139.32058770797448,139.32058770797448,139.32058770797448,139.32058770797448,139.32058770797448,139.32058770797448,139.22424041628452,139.32058770797448,139.32058770797448,139.32058770797448,139.22424041628452,139.32058770797448,139.32058770797448,139.32058770797448,139.32058770797448,139.32058770797448,139.32058770797448,139.32058770797448,139.32058770797448,139.32058770797448,139.32058770797448,139.32058770797448,139.32058770797448,139.32058770797448,139.32058770797448,139.2742404162845,139.32058770797448,139.32058770797448,139.32058770797448,139.2742404162845,139.32058770797448,139.32058770797448,139.32058770797448,139.32058770797448,139.32058770797448,144.5100626659696,144.5100626659696,149.44464379095007,None,0,,reldom2_s029,001,2025-03-03_14h39.20.296,What-B-Scan_AC,2022.2.5,None,
11,Second_Order,2.0,viswhat,stimulus/viswhat_stim/land_animal-ostrich.png,stimulus/viswhat_stim/water_animal-stingray.png,stimulus/viswhat_stim/water_vehicle-cruiseship.png,stimulus/viswhat_stim/water_animal-seaturtle.png,stimulus/viswhat_stim/match_blank.png,stimulus/viswhat_stim/match_box.png,stimulus/viswhat_stim/match_yes.png,stimulus/viswhat_stim/match_no.png,2.0,Match,Type,Location,2,5.125,0,5.125,0,5.125,0,5.125,0,0.75,0.75,1,0.5,1,2.125,1,0.5,1,2.125,0,0.0,0,0.0,0,0.0,0,0.0,0,,,,,0,14,14,14,,,,,,,,,149.44464379095007,154.56126412498998,149.91467287496198,150.90202895796392,151.54990254098084,152.5391184159671,149.44464379095007,149.44464379095007,149.45628695833344,149.44464379095007,149.44464379095007,149.44464379095007,149.45628695833344,149.44464379095007,154.56126412498998,155.53543283295585,157.55256183299934,,155.53543283295585,155.53543283295585,160.7700783329783,155.93843516596826,157.04935924999882,157.55256183299934,158.6605233749724,155.53543283295585,155.53543283295585,155.44547691595508,155.53543283295585,155.53543283295585,155.53543283295585,155.44547691595508,155.53543283295585,155.53543283295585,160.7700783329783,155.53543283295585,160.7700783329783,160.67535299999872,,155.53543283295585,2,1,1.5600565420463681,reldom2_s029,001,2025-03-03_14h39.20.296,What-B-Scan_AC,2022.2.5,None,
12,Second_Order,2.0,viswhat,stimulus/viswhat_stim/land_animal-ostrich.png,stimulus/viswhat_stim/land_vehicle-oldcar.png,stimulus/viswhat_stim/water_vehicle-ship.png,stimulus/viswhat_stim/land_vehicle-vespa.png,stimulus/viswhat_stim/match_blank.png,stimulus/viswhat_stim/match_box.png,stimulus/viswhat_stim/match_yes.png,stimulus/viswhat_stim/match_no.png,2.0,Match,Location,Type,2,5.125,0,5.125,0,5.125,0,5.125,0,0.625,0.625,1,0.5,1,2.125,1,0.5,1,2.125,0,0.0,0,0.0,0,0.0,0,0.0,0,,,,,0,15,15,15,,,,,,,,,161.46744420798495,166.5893414579914,161.9259675409994,162.91320899996208,163.5489599579596,164.546909415978,161.46744420798495,161.46744420798495,161.4779761662901,161.46744420798495,161.46744420798495,161.46744420798495,161.4779761662901,161.46744420798495,166.5893414579914,167.36829408298945,169.42412224999862,173.4822855409584,167.36829408298945,167.36829408298945,172.5721909159911,167.7791987079545,168.87648454098962,169.42412224999862,170.52182504098164,167.36829408298945,167.36829408298945,167.3028676249902,167.36829408298945,167.36829408298945,167.36829408298945,167.3028676249902,167.36829408298945,167.36829408298945,172.5721909159911,167.36829408298945,172.5721909159911,172.5091576660052,173.2001351249637,167.36829408298945,2,1,1.1322476670029573,reldom2_s029,001,2025-03-03_14h39.20.296,What-B-Scan_AC,2022.2.5,None,
0,0.0,None,fixation,stimulus/viswhat_stim/blank_white.png,stimulus/viswhat_stim/blank_white.png,stimulus/audwhat_stim/blank_white.png,stimulus/audwhat_stim/blank_white.png,stimulus/viswhat_stim/blank_white.png,stimulus/viswhat_stim/blank_white.png,stimulus/viswhat_stim/blank_white.png,stimulus/viswhat_stim/blank_white.png,0.0,0.0,0.0,0.0,0,0.0,0,0.0,0,0.0,0,0.0,0,0.0,0.0,0,0.0,0,0.0,0,0.0,0,0.0,0,0.0,0,0.0,0,0.0,0,0.0,9,,,,,0,16,16,16,,,,,,,,,173.4822855409584,173.4822855409584,173.4822855409584,173.4822855409584,173.4822855409584,173.4822855409584,173.4822855409584,173.4822855409584,173.38346845829705,173.4822855409584,173.4822855409584,173.4822855409584,173.38346845829705,173.4822855409584,173.4822855409584,173.4822855409584,173.4822855409584,173.4822855409584,173.4822855409584,173.4822855409584,173.4822855409584,173.4822855409584,173.4822855409584,173.4822855409584,173.4822855409584,173.4822855409584,173.4822855409584,173.43346845829706,173.4822855409584,173.4822855409584,173.4822855409584,173.43346845829706,173.4822855409584,173.4822855409584,173.4822855409584,173.4822855409584,173.4822855409584,178.69921524997335,178.69921524997335,182.7206129579572,None,0,,reldom2_s029,001,2025-03-03_14h39.20.296,What-B-Scan_AC,2022.2.5,None,
13,First_Order,3.0,audwhat,stimulus/audwhat_stim/dummy.wav,stimulus/audwhat_stim/dummy.wav,stimulus/audwhat_stim/percussion mallet_low-pitch_Ftri_loud.wav,stimulus/audwhat_stim/percussion xylophone_high-pitch_Dtri_loud.wav,stimulus/audwhat_stim/blank_white.png,stimulus/audwhat_stim/pitch_box.png,stimulus/audwhat_stim/pitch_yes.png,stimulus/audwhat_stim/pitch_no.png,None,Pitch,None,Category,2,0.0,0,5.125,0,5.125,0,5.125,0,0.0,0.625,0,0.0,0,0.0,0,0.0,0,0.0,0,0.0,0,0.0,1,0.5,1,2.125,0,,,,,0,17,17,17,,,,,,,,,182.7206129579572,182.7206129579572,182.7206129579572,182.7206129579572,182.7206129579572,182.7206129579572,182.7206129579572,182.7206129579572,182.64822908261948,182.7206129579572,182.7206129579572,182.7206129579572,182.64822908261948,182.7206129579572,182.7206129579572,182.7206129579572,184.8072256249725,,182.7206129579572,182.7206129579572,187.91350525000598,182.7206129579572,182.7206129579572,182.7206129579572,182.7206129579572,183.18482445797417,184.25246445799712,183.15488866664626,,184.8072256249725,185.87986791599542,184.77730512462247,185.83335737499874,182.7206129579572,187.91350525000598,182.7206129579572,187.91350525000598,187.91350525000598,188.5668174159946,182.7206129579572,2,1,0.653723124996759,reldom2_s029,001,2025-03-03_14h39.20.296,What-B-Scan_AC,2022.2.5,None,
14,First_Order,3.0,audwhat,stimulus/audwhat_stim/dummy.wav,stimulus/audwhat_stim/dummy.wav,stimulus/audwhat_stim/string cello_low-pitch_D_loud.wav,stimulus/audwhat_stim/percussion mallet_low-pitch_D_loud.wav,stimulus/audwhat_stim/blank_white.png,stimulus/audwhat_stim/pitch_box.png,stimulus/audwhat_stim/pitch_yes.png,stimulus/audwhat_stim/pitch_no.png,None,Pitch,None,Pitch,1,0.0,0,5.125,0,5.125,0,5.125,0,0.0,0.625,0,0.0,0,0.0,0,0.0,0,0.0,0,0.0,0,0.0,1,0.5,1,2.125,0,,,,,0,18,18,18,,,,,,,,,188.81991558294976,188.81991558294976,188.81991558294976,188.81991558294976,188.81991558294976,188.81991558294976,188.81991558294976,188.81991558294976,188.74111708332399,188.81991558294976,188.81991558294976,188.81991558294976,188.74111708332399,188.81991558294976,188.81991558294976,188.81991558294976,190.9056115829735,,188.81991558294976,188.81991558294976,193.972649000003,188.81991558294976,188.81991558294976,188.81991558294976,188.81991558294976,189.2823917909991,190.34989029099233,189.25249633263255,,190.9056115829735,191.97843691596063,190.87546479166875,,188.81991558294976,193.972649000003,188.81991558294976,193.972649000003,194.01372116600396,194.66701995796757,188.81991558294976,1,1,1.0189282090286724,reldom2_s029,001,2025-03-03_14h39.20.296,What-B-Scan_AC,2022.2.5,None,
15,First_Order,3.0,audwhat,stimulus/audwhat_stim/dummy.wav,stimulus/audwhat_stim/dummy.wav,stimulus/audwhat_stim/string cello_high-pitch_D_loud.wav,stimulus/audwhat_stim/string cello_low-pitch_Ftri_loud.wav,stimulus/audwhat_stim/blank_white.png,stimulus/audwhat_stim/category_box.png,stimulus/audwhat_stim/category_yes.png,stimulus/audwhat_stim/category_no.png,None,Category,None,Category,1,0.0,0,5.125,0,5.125,0,5.125,0,0.0,0.625,0,0.0,0,0.0,0,0.0,0,0.0,0,0.0,0,0.0,1,0.5,1,2.125,0,,,,,0,19,19,19,,,,,,,,,194.9223559999955,194.9223559999955,194.9223559999955,194.9223559999955,194.9223559999955,194.9223559999955,194.9223559999955,194.9223559999955,194.84126524932995,194.9223559999955,194.9223559999955,194.9223559999955,194.84126524932995,194.9223559999955,194.9223559999955,194.9223559999955,197.02137949998723,,194.9223559999955,194.9223559999955,200.10107220796635,194.9223559999955,194.9223559999955,194.9223559999955,194.9223559999955,195.38914558297256,196.46225279098144,195.35900587466702,,197.02137949998723,198.09802770795068,196.99121670762932,,194.9223559999955,200.10107220796635,194.9223559999955,200.10107220796635,200.14226624998264,200.79813354095677,194.9223559999955,1,1,1.0285992500721477,reldom2_s029,001,2025-03-03_14h39.20.296,What-B-Scan_AC,2022.2.5,None,
16,First_Order,3.0,audwhat,stimulus/audwhat_stim/dummy.wav,stimulus/audwhat_stim/dummy.wav,stimulus/audwhat_stim/string viola_low-pitch_F_loud.wav,stimulus/audwhat_stim/percussion mallet_low-pitch_F_loud.wav,stimulus/audwhat_stim/blank_white.png,stimulus/audwhat_stim/category_box.png,stimulus/audwhat_stim/category_yes.png,stimulus/audwhat_stim/category_no.png,None,Category,None,Pitch,2,0.0,0,5.125,0,5.125,0,5.125,0,0.0,0.625,0,0.0,0,0.0,0,0.0,0,0.0,0,0.0,0,0.0,1,0.5,1,2.125,0,,,,,0,20,20,20,,,,,,,,,201.01149137498578,201.01149137498578,201.01149137498578,201.01149137498578,201.01149137498578,201.01149137498578,201.01149137498578,201.01149137498578,200.93146687429012,201.01149137498578,201.01149137498578,201.01149137498578,200.93146687429012,201.01149137498578,201.01149137498578,201.01149137498578,203.10934804100543,,201.01149137498578,201.01149137498578,206.19398154097144,201.01149137498578,201.01149137498578,201.01149137498578,201.01149137498578,201.475480041001,202.55065970798023,201.44537120766861,,203.10934804100543,204.1385833749664,203.0791684166218,,201.01149137498578,206.19398154097144,201.01149137498578,206.19398154097144,206.23546724999323,206.89015699998708,201.01149137498578,2,1,1.3277010000310838,reldom2_s029,001,2025-03-03_14h39.20.296,What-B-Scan_AC,2022.2.5,None,
0,0.0,None,fixation,stimulus/viswhat_stim/blank_white.png,stimulus/viswhat_stim/blank_white.png,stimulus/audwhat_stim/blank_white.png,stimulus/audwhat_stim/blank_white.png,stimulus/viswhat_stim/blank_white.png,stimulus/viswhat_stim/blank_white.png,stimulus/viswhat_stim/blank_white.png,stimulus/viswhat_stim/blank_white.png,0.0,0.0,0.0,0.0,0,0.0,0,0.0,0,0.0,0,0.0,0,0.0,0.0,0,0.0,0,0.0,0,0.0,0,0.0,0,0.0,0,0.0,0,0.0,0,0.0,9,,,,,0,21,21,21,,,,,,,,,207.12291016598465,207.12291016598465,207.12291016598465,207.12291016598465,207.12291016598465,207.12291016598465,207.12291016598465,207.12291016598465,207.02349033332044,207.12291016598465,207.12291016598465,207.12291016598465,207.02349033332044,207.12291016598465,207.12291016598465,207.12291016598465,207.12291016598465,207.12291016598465,207.12291016598465,207.12291016598465,207.12291016598465,207.12291016598465,207.12291016598465,207.12291016598465,207.12291016598465,207.12291016598465,207.12291016598465,207.07349033332042,207.12291016598465,207.12291016598465,207.12291016598465,207.07349033332042,207.12291016598465,207.12291016598465,207.12291016598465,207.12291016598465,207.12291016598465,212.3195175830042,212.3195175830042,216.26765537500614,None,0,,reldom2_s029,001,2025-03-03_14h39.20.296,What-B-Scan_AC,2022.2.5,None,
17,Second_Order,3.0,audwhat,stimulus/audwhat_stim/percussion mallet_high-pitch_Ftri_loud.wav,stimulus/audwhat_stim/string cello_high-pitch_Ftri_loud.wav,stimulus/audwhat_stim/percussion mallet_low-pitch_D_loud.wav,stimulus/audwhat_stim/string viola_low-pitch_D_loud.wav,stimulus/viswhat_stim/match_blank.png,stimulus/viswhat_stim/match_box.png,stimulus/viswhat_stim/match_yes.png,stimulus/viswhat_stim/match_no.png,1.0,Match,Pitch,Pitch,1,5.125,0,5.125,0,5.125,0,5.125,0,0.75,0.75,0,0.0,0,0.0,0,0.0,0,0.0,1,0.5,1,2.125,1,0.5,1,2.125,0,,,,,0,22,22,22,,,,,,,,,216.26765537500614,221.3825810829876,216.26765537500614,216.26765537500614,216.26765537500614,216.26765537500614,216.71937537495978,217.70652658300241,216.7336699576156,,218.3421911659534,219.34013720799703,218.35395920765976,,221.3825810829876,222.2308344579651,224.31489879096625,228.23472254100488,222.2308344579651,222.2308344579651,227.42434874997707,222.2308344579651,222.2308344579651,222.2308344579651,222.2308344579651,222.64717133296654,223.71295904100407,222.61778029165387,,224.31489879096625,225.38308716600295,224.2853282916515,,222.2308344579651,227.42434874997707,222.2308344579651,227.42434874997707,227.42434874997707,,222.2308344579651,1,1,0.9592138340231031,reldom2_s029,001,2025-03-03_14h39.20.296,What-B-Scan_AC,2022.2.5,None,
18,Second_Order,3.0,audwhat,stimulus/audwhat_stim/percussion mallet_high-pitch_Dtri_loud.wav,stimulus/audwhat_stim/string cello_high-pitch_Dtri_loud.wav,stimulus/audwhat_stim/string viola_low-pitch_Ftri_loud.wav,stimulus/audwhat_stim/percussion mallet_low-pitch_Ftri_loud.wav,stimulus/viswhat_stim/match_blank.png,stimulus/viswhat_stim/match_box.png,stimulus/viswhat_stim/match_yes.png,stimulus/viswhat_stim/match_no.png,1.0,Match,Pitch,Pitch,1,5.125,0,5.125,0,5.125,0,5.125,0,0.625,0.625,0,0.0,0,0.0,0,0.0,0,0.0,1,0.5,1,2.125,1,0.5,1,2.125,0,,,,,0,23,23,23,,,,,,,,,228.23472254100488,233.35621929098852,228.23472254100488,228.23472254100488,228.23472254100488,228.23472254100488,228.69483141595265,229.68426354095573,228.6986036246565,,230.31944849999854,231.31784174998756,230.33206270763574,,233.35621929098852,234.09015649999492,236.16323991597164,,234.09015649999492,234.09015649999492,239.25885199999902,234.09015649999492,234.09015649999492,234.09015649999492,234.09015649999492,234.50388970796485,235.56564095796784,234.4746711666269,,236.16323991597164,237.22903033299372,236.1343703326459,,234.09015649999492,239.25885199999902,234.09015649999492,239.25885199999902,239.25885199999902,239.91081504098838,234.09015649999492,1,1,0.8025039170170203,reldom2_s029,001,2025-03-03_14h39.20.296,What-B-Scan_AC,2022.2.5,None,
0,0.0,None,fixation,stimulus/viswhat_stim/blank_white.png,stimulus/viswhat_stim/blank_white.png,stimulus/audwhat_stim/blank_white.png,stimulus/audwhat_stim/blank_white.png,stimulus/viswhat_stim/blank_white.png,stimulus/viswhat_stim/blank_white.png,stimulus/viswhat_stim/blank_white.png,stimulus/viswhat_stim/blank_white.png,0.0,0.0,0.0,0.0,0,0.0,0,0.0,0,0.0,0,0.0,0,0.0,0.0,0,0.0,0,0.0,0,0.0,0,0.0,0,0.0,0,0.0,0,0.0,0,0.0,8,,,,,0,24,24,24,,,,,,,,,240.18398616596824,240.18398616596824,240.18398616596824,240.18398616596824,240.18398616596824,240.18398616596824,240.18398616596824,240.18398616596824,240.08427833332294,240.18398616596824,240.18398616596824,240.18398616596824,240.08427833332294,240.18398616596824,240.18398616596824,240.18398616596824,240.18398616596824,240.18398616596824,240.18398616596824,240.18398616596824,240.18398616596824,240.18398616596824,240.18398616596824,240.18398616596824,240.18398616596824,240.18398616596824,240.18398616596824,240.13427833332292,240.18398616596824,240.18398616596824,240.18398616596824,240.13427833332292,240.18398616596824,240.18398616596824,240.18398616596824,240.18398616596824,240.18398616596824,245.39521441597026,245.39521441597026,248.4554757499718,None,0,,reldom2_s029,001,2025-03-03_14h39.20.296,What-B-Scan_AC,2022.2.5,None,
19,First_Order,4.0,audwhat,stimulus/audwhat_stim/dummy.wav,stimulus/audwhat_stim/dummy.wav,stimulus/audwhat_stim/percussion mallet_low-pitch_Ftri_loud.wav,stimulus/audwhat_stim/string viola_low-pitch_Ftri_loud.wav,stimulus/audwhat_stim/blank_white.png,stimulus/audwhat_stim/pitch_box.png,stimulus/audwhat_stim/pitch_yes.png,stimulus/audwhat_stim/pitch_no.png,None,Pitch,None,Pitch,1,0.0,0,5.125,0,5.125,0,5.125,0,0.0,0.625,0,0.0,0,0.0,0,0.0,0,0.0,0,0.0,0,0.0,1,0.5,1,2.125,0,,,,,0,25,25,25,,,,,,,,,248.4554757499718,248.4554757499718,248.4554757499718,248.4554757499718,248.4554757499718,248.4554757499718,248.4554757499718,248.4554757499718,248.3840805826282,248.4554757499718,248.4554757499718,248.4554757499718,248.3840805826282,248.4554757499718,248.4554757499718,248.4554757499718,250.54105545795755,,248.4554757499718,248.4554757499718,253.64821679098532,248.4554757499718,248.4554757499718,248.4554757499718,248.4554757499718,248.918649750005,249.98592462495435,248.88904970762476,,250.54105545795755,251.61140299995895,250.51152408263104,,248.4554757499718,253.64821679098532,248.4554757499718,253.64821679098532,253.64821679098532,254.3007527079899,248.4554757499718,1,1,0.8475244170404039,reldom2_s029,001,2025-03-03_14h39.20.296,What-B-Scan_AC,2022.2.5,None,
20,First_Order,4.0,audwhat,stimulus/audwhat_stim/dummy.wav,stimulus/audwhat_stim/dummy.wav,stimulus/audwhat_stim/string viola_low-pitch_F_loud.wav,stimulus/audwhat_stim/string cello_high-pitch_Ftri_loud.wav,stimulus/audwhat_stim/blank_white.png,stimulus/audwhat_stim/category_box.png,stimulus/audwhat_stim/category_yes.png,stimulus/audwhat_stim/category_no.png,None,Category,None,Category,1,0.0,0,5.125,0,5.125,0,5.125,0,0.0,0.625,0,0.0,0,0.0,0,0.0,0,0.0,0,0.0,0,0.0,1,0.5,1,2.125,0,,,,,0,26,26,26,,,,,,,,,254.5541758329491,254.5541758329491,254.5541758329491,254.5541758329491,254.5541758329491,254.5541758329491,254.5541758329491,254.5541758329491,254.47487841631133,254.5541758329491,254.5541758329491,254.5541758329491,254.47487841631133,254.5541758329491,254.5541758329491,254.5541758329491,256.6493309579673,260.67284733295674,254.5541758329491,254.5541758329491,259.7217556249816,254.5541758329491,254.5541758329491,254.5541758329491,254.5541758329491,255.02004454098642,256.09098079096293,254.9901963326304,,256.6493309579673,257.72398099995917,256.6190189166266,,254.5541758329491,259.7217556249816,254.5541758329491,259.7217556249816,259.76281200000085,260.4193124999874,254.5541758329491,1,1,2.1773097500554286,reldom2_s029,001,2025-03-03_14h39.20.296,What-B-Scan_AC,2022.2.5,None,
21,First_Order,4.0,audwhat,stimulus/audwhat_stim/dummy.wav,stimulus/audwhat_stim/dummy.wav,stimulus/audwhat_stim/string viola_high-pitch_F_loud.wav,stimulus/audwhat_stim/percussion mallet_high-pitch_F_loud.wav,stimulus/audwhat_stim/blank_white.png,stimulus/audwhat_stim/category_box.png,stimulus/audwhat_stim/category_yes.png,stimulus/audwhat_stim/category_no.png,None,Category,None,Pitch,2,0.0,0,5.125,0,5.125,0,5.125,0,0.0,0.625,0,0.0,0,0.0,0,0.0,0,0.0,0,0.0,0,0.0,1,0.5,1,2.125,0,,,,,0,27,27,27,,,,,,,,,260.67284733295674,260.67284733295674,260.67284733295674,260.67284733295674,260.67284733295674,260.67284733295674,260.67284733295674,260.67284733295674,260.59340820831324,260.67284733295674,260.67284733295674,260.67284733295674,260.59340820831324,260.67284733295674,260.67284733295674,260.67284733295674,262.7734009579872,266.803432582994,260.67284733295674,260.67284733295674,265.85323687497294,260.67284733295674,260.67284733295674,260.67284733295674,260.67284733295674,261.13937316596275,262.21487120795064,261.1093999576444,,262.7734009579872,263.8490810410003,262.7431777916538,,260.67284733295674,265.85323687497294,260.67284733295674,265.85323687497294,265.894644874963,266.5494593329495,260.67284733295674,2,1,2.272998208005447,reldom2_s029,001,2025-03-03_14h39.20.296,What-B-Scan_AC,2022.2.5,None,
22,First_Order,4.0,audwhat,stimulus/audwhat_stim/dummy.wav,stimulus/audwhat_stim/dummy.wav,stimulus/audwhat_stim/percussion xylophone_high-pitch_D_loud.wav,stimulus/audwhat_stim/percussion mallet_low-pitch_F_loud.wav,stimulus/audwhat_stim/blank_white.png,stimulus/audwhat_stim/pitch_box.png,stimulus/audwhat_stim/pitch_yes.png,stimulus/audwhat_stim/pitch_no.png,None,Pitch,None,Category,2,0.0,0,5.125,0,5.125,0,5.125,0,0.0,0.625,0,0.0,0,0.0,0,0.0,0,0.0,0,0.0,0,0.0,1,0.5,1,2.125,0,,,,,0,28,28,28,,,,,,,,,266.803432582994,266.803432582994,266.803432582994,266.803432582994,266.803432582994,266.803432582994,266.803432582994,266.803432582994,266.7236943333138,266.803432582994,266.803432582994,266.803432582994,266.7236943333138,266.803432582994,266.803432582994,266.803432582994,268.8929602080025,,266.803432582994,266.803432582994,271.9604744579992,266.803432582994,266.803432582994,266.803432582994,266.803432582994,267.26865250000264,268.3374135409831,267.23840083263735,268.2913092079689,268.8929602080025,269.96477808296913,268.86323099962124,,266.803432582994,271.9604744579992,266.803432582994,271.9604744579992,272.001437540981,272.6563980409992,266.803432582994,2,1,1.989696750009898,reldom2_s029,001,2025-03-03_14h39.20.296,What-B-Scan_AC,2022.2.5,None,
0,0.0,None,fixation,stimulus/viswhat_stim/blank_white.png,stimulus/viswhat_stim/blank_white.png,stimulus/audwhat_stim/blank_white.png,stimulus/audwhat_stim/blank_white.png,stimulus/viswhat_stim/blank_white.png,stimulus/viswhat_stim/blank_white.png,stimulus/viswhat_stim/blank_white.png,stimulus/viswhat_stim/blank_white.png,0.0,0.0,0.0,0.0,0,0.0,0,0.0,0,0.0,0,0.0,0,0.0,0.0,0,0.0,0,0.0,0,0.0,0,0.0,0,0.0,0,0.0,0,0.0,0,0.0,10,,,,,0,29,29,29,,,,,,,,,272.9303828749689,272.9303828749689,272.9303828749689,272.9303828749689,272.9303828749689,272.9303828749689,272.9303828749689,272.9303828749689,272.8305094582921,272.9303828749689,272.9303828749689,272.9303828749689,272.8305094582921,272.9303828749689,272.9303828749689,272.9303828749689,272.9303828749689,272.9303828749689,272.9303828749689,272.9303828749689,272.9303828749689,272.9303828749689,272.9303828749689,272.9303828749689,272.9303828749689,272.9303828749689,272.9303828749689,272.8805094582921,272.9303828749689,272.9303828749689,272.9303828749689,272.8805094582921,272.9303828749689,272.9303828749689,272.9303828749689,272.9303828749689,272.9303828749689,278.1223061250057,278.1223061250057,283.08086116600316,None,0,,reldom2_s029,001,2025-03-03_14h39.20.296,What-B-Scan_AC,2022.2.5,None,
23,Second_Order,4.0,audwhat,stimulus/audwhat_stim/percussion mallet_high-pitch_Ftri_loud.wav,stimulus/audwhat_stim/percussion mallet_low-pitch_Dtri_loud.wav,stimulus/audwhat_stim/percussion mallet_high-pitch_D_loud.wav,stimulus/audwhat_stim/string viola_high-pitch_D_loud.wav,stimulus/viswhat_stim/match_blank.png,stimulus/viswhat_stim/match_box.png,stimulus/viswhat_stim/match_yes.png,stimulus/viswhat_stim/match_no.png,2.0,Match,Category,Pitch,2,5.125,0,5.125,0,5.125,0,5.125,0,0.75,0.75,0,0.0,0,0.0,0,0.0,0,0.0,1,0.5,1,2.125,1,0.5,1,2.125,0,,,,,0,30,30,30,,,,,,,,,283.08086116600316,288.20341533300234,283.08086116600316,283.08086116600316,283.08086116600316,283.08086116600316,283.5381204999867,284.5276219159714,283.540384166645,,285.1639619579655,286.16108387499116,285.1758947076198,,288.20341533300234,289.05120849999366,291.13446658296743,295.0511116659618,289.05120849999366,289.05120849999366,294.24054212495685,289.05120849999366,289.05120849999366,289.05120849999366,289.05120849999366,289.46766837500036,290.53422187495744,289.43811866664714,,291.13446658296743,292.2029274159577,291.1044241666716,,289.05120849999366,294.24054212495685,289.05120849999366,294.24054212495685,294.24054212495685,,289.05120849999366,2,1,1.033918500004802,reldom2_s029,001,2025-03-03_14h39.20.296,What-B-Scan_AC,2022.2.5,None,
24,Second_Order,4.0,audwhat,stimulus/audwhat_stim/string viola_high-pitch_Dtri_loud.wav,stimulus/audwhat_stim/percussion mallet_high-pitch_Dtri_loud.wav,stimulus/audwhat_stim/string cello_low-pitch_Dtri_loud.wav,stimulus/audwhat_stim/string viola_high-pitch_Ftri_loud.wav,stimulus/viswhat_stim/match_blank.png,stimulus/viswhat_stim/match_box.png,stimulus/viswhat_stim/match_yes.png,stimulus/viswhat_stim/match_no.png,2.0,Match,Pitch,Category,2,5.125,0,5.125,0,5.125,0,5.125,0,0.625,0.625,0,0.0,0,0.0,0,0.0,0,0.0,1,0.5,1,2.125,1,0.5,1,2.125,0,,,,,0,31,31,31,,,,,,,,,295.0511116659618,300.16416849999223,295.0511116659618,295.0511116659618,295.0511116659618,295.0511116659618,295.502721249999,296.4883651660057,295.51594070764645,,297.1240633329726,298.1223430829705,297.1368110826627,,300.16416849999223,300.8940682079992,302.9694477499579,,300.8940682079992,300.8940682079992,306.065813291003,300.8940682079992,300.8940682079992,300.8940682079992,300.8940682079992,301.3078017910011,302.3686871249811,301.27814041666375,,302.9694477499579,304.036031458003,302.93995112466314,,300.8940682079992,306.065813291003,300.8940682079992,306.065813291003,306.065813291003,306.7161792079569,300.8940682079992,2,1,0.777775583032053,reldom2_s029,001,2025-03-03_14h39.20.296,What-B-Scan_AC,2022.2.5,None,
0,0.0,None,fixation,stimulus/viswhat_stim/blank_white.png,stimulus/viswhat_stim/blank_white.png,stimulus/audwhat_stim/blank_white.png,stimulus/audwhat_stim/blank_white.png,stimulus/viswhat_stim/blank_white.png,stimulus/viswhat_stim/blank_white.png,stimulus/viswhat_stim/blank_white.png,stimulus/viswhat_stim/blank_white.png,0.0,0.0,0.0,0.0,0,0.0,0,0.0,0,0.0,0,0.0,0,0.0,0.0,0,0.0,0,0.0,0,0.0,0,0.0,0,0.0,0,0.0,0,0.0,0,0.0,9,,,,,0,32,32,32,,,,,,,,,306.99017987499246,306.99017987499246,306.99017987499246,306.99017987499246,306.99017987499246,306.99017987499246,306.99017987499246,306.99017987499246,306.8903097912863,306.99017987499246,306.99017987499246,306.99017987499246,306.8903097912863,306.99017987499246,306.99017987499246,306.99017987499246,306.99017987499246,306.99017987499246,306.99017987499246,306.99017987499246,306.99017987499246,306.99017987499246,306.99017987499246,306.99017987499246,306.99017987499246,306.99017987499246,306.99017987499246,306.9403097912863,306.99017987499246,306.99017987499246,306.99017987499246,306.9403097912863,306.99017987499246,306.99017987499246,306.99017987499246,306.99017987499246,306.99017987499246,312.21569008298684,312.21569008298684,316.2636235829559,None,0,,reldom2_s029,001,2025-03-03_14h39.20.296,What-B-Scan_AC,2022.2.5,None,
25,First_Order,5.0,viswhat,stimulus/viswhat_stim/blank_white.png,stimulus/viswhat_stim/blank_white.png,stimulus/viswhat_stim/land_animal-elephant.png,stimulus/viswhat_stim/land_vehicle-firetruck.png,stimulus/viswhat_stim/blank_white.png,stimulus/viswhat_stim/location_box.png,stimulus/viswhat_stim/location_yes.png,stimulus/viswhat_stim/location_no.png,None,Location,None,Location,1,0.0,0,5.125,0,5.125,0,5.125,0,0.0,0.625,0,0.0,0,0.0,1,0.5,1,2.125,0,0.0,0,0.0,0,0.0,0,0.0,0,,,,,0,33,33,33,,,,,,,,,316.2636235829559,316.2636235829559,316.2636235829559,316.2636235829559,316.2636235829559,316.2636235829559,316.2636235829559,316.2636235829559,316.1635752076205,316.2636235829559,316.2636235829559,316.2636235829559,316.1635752076205,316.2636235829559,316.2636235829559,316.2636235829559,318.33539349999046,,316.2636235829559,316.2636235829559,321.4750879999483,316.7371504579787,317.8038854159531,318.33539349999046,319.40261479100445,316.2636235829559,316.2636235829559,316.2135752076205,316.2636235829559,316.2636235829559,316.2636235829559,316.2135752076205,316.2636235829559,316.2636235829559,321.4750879999483,316.2636235829559,321.4750879999483,321.4750879999483,322.3106160829775,316.2636235829559,1,1,0.9554485420230776,reldom2_s029,001,2025-03-03_14h39.20.296,What-B-Scan_AC,2022.2.5,None,
26,First_Order,5.0,viswhat,stimulus/viswhat_stim/blank_white.png,stimulus/viswhat_stim/blank_white.png,stimulus/viswhat_stim/land_vehicle-tank.png,stimulus/viswhat_stim/land_animal-pig.png,stimulus/viswhat_stim/blank_white.png,stimulus/viswhat_stim/type_box.png,stimulus/viswhat_stim/type_yes.png,stimulus/viswhat_stim/type_no.png,None,Type,None,Location,2,0.0,0,5.125,0,5.125,0,5.125,0,0.0,0.625,0,0.0,0,0.0,1,0.5,1,2.125,0,0.0,0,0.0,0,0.0,0,0.0,0,,,,,0,34,34,34,,,,,,,,,322.3106160829775,322.3106160829775,322.3106160829775,322.3106160829775,322.3106160829775,322.3106160829775,322.3106160829775,322.3106160829775,322.28605599967216,322.3106160829775,322.3106160829775,322.3106160829775,322.28605599967216,322.3106160829775,322.3106160829775,322.3106160829775,324.4120340409572,328.4643459999934,322.3106160829775,322.3106160829775,327.4344746659626,322.7921422079671,323.8010944579728,324.4120340409572,325.42072354099946,322.3106160829775,322.3106160829775,322.30272266633887,322.3106160829775,322.3106160829775,322.3106160829775,322.30272266633887,322.3106160829775,322.3106160829775,327.4344746659626,322.3106160829775,327.4344746659626,327.53420133295003,328.15966933296295,322.3106160829775,2,1,1.1248939590295777,reldom2_s029,001,2025-03-03_14h39.20.296,What-B-Scan_AC,2022.2.5,None,
27,First_Order,5.0,viswhat,stimulus/viswhat_stim/blank_white.png,stimulus/viswhat_stim/blank_white.png,stimulus/viswhat_stim/land_animal-moose.png,stimulus/viswhat_stim/land_vehicle-vespa.png,stimulus/viswhat_stim/blank_white.png,stimulus/viswhat_stim/location_box.png,stimulus/viswhat_stim/location_yes.png,stimulus/viswhat_stim/location_no.png,None,Location,None,Location,1,0.0,0,5.125,0,5.125,0,5.125,0,0.0,0.625,0,0.0,0,0.0,1,0.5,1,2.125,0,0.0,0,0.0,0,0.0,0,0.0,0,,,,,0,35,35,35,,,,,,,,,328.4643459999934,328.4643459999934,328.4643459999934,328.4643459999934,328.4643459999934,328.4643459999934,328.4643459999934,328.4643459999934,328.3430689993159,328.4643459999934,328.4643459999934,328.4643459999934,328.3430689993159,328.4643459999934,328.4643459999934,328.4643459999934,330.5341672079521,334.61531820800155,328.4643459999934,328.4643459999934,333.6704924579826,328.9311857499997,330.0010813329718,330.5341672079521,331.60595408297377,328.4643459999934,328.4643459999934,328.40973566598257,328.4643459999934,328.4643459999934,328.4643459999934,328.40973566598257,328.4643459999934,328.4643459999934,333.6704924579826,328.4643459999934,333.6704924579826,333.6704924579826,334.3406379579683,328.4643459999934,1,1,1.2489723750040866,reldom2_s029,001,2025-03-03_14h39.20.296,What-B-Scan_AC,2022.2.5,None,
28,First_Order,5.0,viswhat,stimulus/viswhat_stim/blank_white.png,stimulus/viswhat_stim/blank_white.png,stimulus/viswhat_stim/land_animal-giraffe.png,stimulus/viswhat_stim/water_animal-squid.png,stimulus/viswhat_stim/blank_white.png,stimulus/viswhat_stim/location_box.png,stimulus/viswhat_stim/location_yes.png,stimulus/viswhat_stim/location_no.png,None,Location,None,Type,2,0.0,0,5.125,0,5.125,0,5.125,0,0.0,0.625,0,0.0,0,0.0,1,0.5,1,2.125,0,0.0,0,0.0,0,0.0,0,0.0,0,,,,,0,36,36,36,,,,,,,,,334.61531820800155,334.61531820800155,334.61531820800155,334.61531820800155,334.61531820800155,334.61531820800155,334.61531820800155,334.61531820800155,334.5239712913016,334.61531820800155,334.61531820800155,334.61531820800155,334.5239712913016,334.61531820800155,334.61531820800155,334.61531820800155,336.7164576249779,340.75770620797994,334.61531820800155,334.61531820800155,339.8107254159986,335.05716129095526,336.1093222500058,336.7164576249779,337.7705992079573,334.61531820800155,334.61531820800155,334.5739712913016,334.61531820800155,334.61531820800155,334.61531820800155,334.5739712913016,334.61531820800155,334.61531820800155,339.8107254159986,334.61531820800155,339.8107254159986,339.8107254159986,340.5043309579487,334.61531820800155,2,1,0.8616355010308325,reldom2_s029,001,2025-03-03_14h39.20.296,What-B-Scan_AC,2022.2.5,None,
0,0.0,None,fixation,stimulus/viswhat_stim/blank_white.png,stimulus/viswhat_stim/blank_white.png,stimulus/audwhat_stim/blank_white.png,stimulus/audwhat_stim/blank_white.png,stimulus/viswhat_stim/blank_white.png,stimulus/viswhat_stim/blank_white.png,stimulus/viswhat_stim/blank_white.png,stimulus/viswhat_stim/blank_white.png,0.0,0.0,0.0,0.0,0,0.0,0,0.0,0,0.0,0,0.0,0,0.0,0.0,0,0.0,0,0.0,0,0.0,0,0.0,0,0.0,0,0.0,0,0.0,0,0.0,9,,,,,0,37,37,37,,,,,,,,,340.75770620797994,340.75770620797994,340.75770620797994,340.75770620797994,340.75770620797994,340.75770620797994,340.75770620797994,340.75770620797994,340.6543309579487,340.75770620797994,340.75770620797994,340.75770620797994,340.6543309579487,340.75770620797994,340.75770620797994,340.75770620797994,340.75770620797994,340.75770620797994,340.75770620797994,340.75770620797994,340.75770620797994,340.75770620797994,340.75770620797994,340.75770620797994,340.75770620797994,340.75770620797994,340.75770620797994,340.7043309579487,340.75770620797994,340.75770620797994,340.75770620797994,340.7043309579487,340.75770620797994,340.75770620797994,340.75770620797994,340.75770620797994,340.75770620797994,345.96088708296884,345.96088708296884,349.8961927499622,None,0,,reldom2_s029,001,2025-03-03_14h39.20.296,What-B-Scan_AC,2022.2.5,None,
29,Second_Order,5.0,viswhat,stimulus/viswhat_stim/water_vehicle-pirateship.png,stimulus/viswhat_stim/land_vehicle-schoolbus.png,stimulus/viswhat_stim/water_animal-dolphin.png,stimulus/viswhat_stim/land_animal-cat.png,stimulus/viswhat_stim/match_blank.png,stimulus/viswhat_stim/match_box.png,stimulus/viswhat_stim/match_yes.png,stimulus/viswhat_stim/match_no.png,1.0,Match,Type,Type,1,5.125,0,5.125,0,5.125,0,5.125,0,0.75,0.75,1,0.5,1,2.125,1,0.5,1,2.125,0,0.0,0,0.0,0,0.0,0,0.0,0,,,,,0,38,38,38,,,,,,,,,349.8961927499622,355.0080350829521,350.3632234999677,351.36139720800566,351.9965382909868,352.98540154099464,349.8961927499622,349.8961927499622,349.90172004132376,349.8961927499622,349.8961927499622,349.8961927499622,349.90172004132376,349.8961927499622,355.0080350829521,355.82746633299394,357.9065609999816,,355.82746633299394,355.82746633299394,360.9798518329626,356.275458582968,357.29814729100326,357.9065609999816,358.933574708004,355.82746633299394,355.82746633299394,355.79193691596157,355.82746633299394,355.82746633299394,355.82746633299394,355.79193691596157,355.82746633299394,355.82746633299394,360.9798518329626,355.82746633299394,360.9798518329626,361.00654487498105,,355.82746633299394,1,1,1.7963510420522653,reldom2_s029,001,2025-03-03_14h39.20.296,What-B-Scan_AC,2022.2.5,None,
30,Second_Order,5.0,viswhat,stimulus/viswhat_stim/water_animal-orka.png,stimulus/viswhat_stim/land_animal-bunny.png,stimulus/viswhat_stim/land_vehicle-motorcycle.png,stimulus/viswhat_stim/water_vehicle-motorboatraft.png,stimulus/viswhat_stim/match_blank.png,stimulus/viswhat_stim/match_box.png,stimulus/viswhat_stim/match_yes.png,stimulus/viswhat_stim/match_no.png,1.0,Match,Type,Type,1,5.125,0,5.125,0,5.125,0,5.125,0,0.625,0.625,1,0.5,1,2.125,1,0.5,1,2.125,0,0.0,0,0.0,0,0.0,0,0.0,0,,,,,0,39,39,39,,,,,,,,,361.8547272909782,366.9687425830052,362.269630915951,363.25908183294814,363.89049095800146,364.88135674997466,361.8547272909782,361.8547272909782,361.8533641663108,361.8547272909782,361.8547272909782,361.8547272909782,361.8533641663108,361.8547272909782,366.9687425830052,367.6639572909917,369.7458219580003,,367.6639572909917,367.6639572909917,372.81309262500145,368.1086569579784,369.1500412909663,369.7458219580003,370.76132766599767,367.6639572909917,367.6639572909917,367.6326063749846,367.6639572909917,367.6639572909917,367.6639572909917,367.6326063749846,367.6639572909917,367.6639572909917,372.81309262500145,367.6639572909917,372.81309262500145,372.8618077079882,373.51320770796156,367.6639572909917,1,1,1.3335669999942183,reldom2_s029,001,2025-03-03_14h39.20.296,What-B-Scan_AC,2022.2.5,None,
0,0.0,None,fixation,stimulus/viswhat_stim/blank_white.png,stimulus/viswhat_stim/blank_white.png,stimulus/audwhat_stim/blank_white.png,stimulus/audwhat_stim/blank_white.png,stimulus/viswhat_stim/blank_white.png,stimulus/viswhat_stim/blank_white.png,stimulus/viswhat_stim/blank_white.png,stimulus/viswhat_stim/blank_white.png,0.0,0.0,0.0,0.0,0,0.0,0,0.0,0,0.0,0,0.0,0,0.0,0.0,0,0.0,0,0.0,0,0.0,0,0.0,0,0.0,0,0.0,0,0.0,0,0.0,9,,,,,0,40,40,40,,,,,,,,,373.76784020796185,373.76784020796185,373.76784020796185,373.76784020796185,373.76784020796185,373.76784020796185,373.76784020796185,373.76784020796185,373.6784600826485,373.76784020796185,373.76784020796185,373.76784020796185,373.6784600826485,373.76784020796185,373.76784020796185,373.76784020796185,373.76784020796185,373.76784020796185,373.76784020796185,373.76784020796185,373.76784020796185,373.76784020796185,373.76784020796185,373.76784020796185,373.76784020796185,373.76784020796185,373.76784020796185,373.72846008264844,373.76784020796185,373.76784020796185,373.76784020796185,373.72846008264844,373.76784020796185,373.76784020796185,373.76784020796185,373.76784020796185,373.76784020796185,378.99179441598244,378.99179441598244,383.05186945799505,None,0,,reldom2_s029,001,2025-03-03_14h39.20.296,What-B-Scan_AC,2022.2.5,None,
31,First_Order,6.0,viswhat,stimulus/viswhat_stim/blank_white.png,stimulus/viswhat_stim/blank_white.png,stimulus/viswhat_stim/water_vehicle-ship.png,stimulus/viswhat_stim/land_vehicle-schoolbus.png,stimulus/viswhat_stim/blank_white.png,stimulus/viswhat_stim/location_box.png,stimulus/viswhat_stim/location_yes.png,stimulus/viswhat_stim/location_no.png,None,Location,None,Type,2,0.0,0,5.125,0,5.125,0,5.125,0,0.0,0.625,0,0.0,0,0.0,1,0.5,1,2.125,0,0.0,0,0.0,0,0.0,0,0.0,0,,,,,0,41,41,41,,,,,,,,,383.05186945799505,383.05186945799505,383.05186945799505,383.05186945799505,383.05186945799505,383.05186945799505,383.05186945799505,383.05186945799505,382.949789457644,383.05186945799505,383.05186945799505,383.05186945799505,382.949789457644,383.05186945799505,383.05186945799505,383.05186945799505,385.15980720799416,389.1397735409555,383.05186945799505,383.05186945799505,388.22682895796606,383.5356206659926,384.61883774999296,385.15980720799416,386.2456475829822,383.05186945799505,383.05186945799505,382.999789457644,383.05186945799505,383.05186945799505,383.05186945799505,382.999789457644,383.05186945799505,383.05186945799505,388.22682895796606,383.05186945799505,388.22682895796606,388.22682895796606,388.933790665993,383.05186945799505,2,1,0.7802857090719044,reldom2_s029,001,2025-03-03_14h39.20.296,What-B-Scan_AC,2022.2.5,None,
32,First_Order,6.0,viswhat,stimulus/viswhat_stim/blank_white.png,stimulus/viswhat_stim/blank_white.png,stimulus/viswhat_stim/land_vehicle-bus.png,stimulus/viswhat_stim/water_vehicle-jetski.png,stimulus/viswhat_stim/blank_white.png,stimulus/viswhat_stim/type_box.png,stimulus/viswhat_stim/type_yes.png,stimulus/viswhat_stim/type_no.png,None,Type,None,Type,1,0.0,0,5.125,0,5.125,0,5.125,0,0.0,0.625,0,0.0,0,0.0,1,0.5,1,2.125,0,0.0,0,0.0,0,0.0,0,0.0,0,,,,,0,42,42,42,,,,,,,,,389.1397735409555,389.1397735409555,389.1397735409555,389.1397735409555,389.1397735409555,389.1397735409555,389.1397735409555,389.1397735409555,389.10045733265963,389.1397735409555,389.1397735409555,389.1397735409555,389.10045733265963,389.1397735409555,389.1397735409555,389.1397735409555,391.2387579579954,395.228994999954,389.1397735409555,389.1397735409555,394.27524762495887,389.6066824159934,390.6273905829876,391.2387579579954,392.263223707967,389.1397735409555,389.1397735409555,389.11712399932634,389.1397735409555,389.1397735409555,389.1397735409555,389.11712399932634,389.1397735409555,389.1397735409555,394.27524762495887,389.1397735409555,394.27524762495887,394.34571033297107,394.9804329999606,389.1397735409555,1,1,2.374695167003665,reldom2_s029,001,2025-03-03_14h39.20.296,What-B-Scan_AC,2022.2.5,None,
33,First_Order,6.0,viswhat,stimulus/viswhat_stim/blank_white.png,stimulus/viswhat_stim/blank_white.png,stimulus/viswhat_stim/water_animal-seahorse.png,stimulus/viswhat_stim/water_vehicle-cabincruiser.png,stimulus/viswhat_stim/blank_white.png,stimulus/viswhat_stim/type_box.png,stimulus/viswhat_stim/type_yes.png,stimulus/viswhat_stim/type_no.png,None,Type,None,Location,2,0.0,0,5.125,0,5.125,0,5.125,0,0.0,0.625,0,0.0,0,0.0,1,0.5,1,2.125,0,0.0,0,0.0,0,0.0,0,0.0,0,,,,,0,43,43,43,,,,,,,,,395.228994999954,395.228994999954,395.228994999954,395.228994999954,395.228994999954,395.228994999954,395.228994999954,395.228994999954,395.1739100829814,395.228994999954,395.228994999954,395.228994999954,395.1739100829814,395.228994999954,395.228994999954,395.228994999954,397.3383354579564,401.3457524579717,395.228994999954,395.228994999954,400.38348637497984,395.71523787500337,396.75180845794966,397.3383354579564,398.38106654095463,395.228994999954,395.228994999954,395.2072434163148,395.228994999954,395.228994999954,395.228994999954,395.2072434163148,395.228994999954,395.228994999954,400.38348637497984,395.228994999954,400.38348637497984,400.44127387495246,401.10540137498174,395.228994999954,2,1,1.4797055830131285,reldom2_s029,001,2025-03-03_14h39.20.296,What-B-Scan_AC,2022.2.5,None,
34,First_Order,6.0,viswhat,stimulus/viswhat_stim/blank_white.png,stimulus/viswhat_stim/blank_white.png,stimulus/viswhat_stim/land_animal-tiger.png,stimulus/viswhat_stim/water_animal-octopus.png,stimulus/viswhat_stim/blank_white.png,stimulus/viswhat_stim/type_box.png,stimulus/viswhat_stim/type_yes.png,stimulus/viswhat_stim/type_no.png,None,Type,None,Type,1,0.0,0,5.125,0,5.125,0,5.125,0,0.0,0.625,0,0.0,0,0.0,1,0.5,1,2.125,0,0.0,0,0.0,0,0.0,0,0.0,0,,,,,0,44,44,44,,,,,,,,,401.3457524579717,401.3457524579717,401.3457524579717,401.3457524579717,401.3457524579717,401.3457524579717,401.3457524579717,401.3457524579717,401.2791922916348,401.3457524579717,401.3457524579717,401.3457524579717,401.2791922916348,401.3457524579717,401.3457524579717,401.3457524579717,403.4543984159827,407.490202874993,401.3457524579717,401.3457524579717,406.5127609159681,401.8209456249606,402.8522109579644,403.4543984159827,404.4905712499749,401.3457524579717,401.3457524579717,401.3125256249681,401.3457524579717,401.3457524579717,401.3457524579717,401.3125256249681,401.3457524579717,401.3457524579717,406.5127609159681,401.3457524579717,406.5127609159681,406.55020945798606,407.22429587499937,401.3457524579717,1,1,1.0890729170641862,reldom2_s029,001,2025-03-03_14h39.20.296,What-B-Scan_AC,2022.2.5,None,
0,0.0,None,fixation,stimulus/viswhat_stim/blank_white.png,stimulus/viswhat_stim/blank_white.png,stimulus/audwhat_stim/blank_white.png,stimulus/audwhat_stim/blank_white.png,stimulus/viswhat_stim/blank_white.png,stimulus/viswhat_stim/blank_white.png,stimulus/viswhat_stim/blank_white.png,stimulus/viswhat_stim/blank_white.png,0.0,0.0,0.0,0.0,0,0.0,0,0.0,0,0.0,0,0.0,0,0.0,0.0,0,0.0,0,0.0,0,0.0,0,0.0,0,0.0,0,0.0,0,0.0,0,0.0,8,,,,,0,45,45,45,,,,,,,,,407.490202874993,407.490202874993,407.490202874993,407.490202874993,407.490202874993,407.490202874993,407.490202874993,407.490202874993,407.3950135833312,407.490202874993,407.490202874993,407.490202874993,407.3950135833312,407.490202874993,407.490202874993,407.490202874993,407.490202874993,407.490202874993,407.490202874993,407.490202874993,407.490202874993,407.490202874993,407.490202874993,407.490202874993,407.490202874993,407.490202874993,407.490202874993,407.4450135833312,407.490202874993,407.490202874993,407.490202874993,407.4450135833312,407.490202874993,407.490202874993,407.490202874993,407.490202874993,407.490202874993,412.68087270797696,412.68087270797696,415.64261708298,None,0,,reldom2_s029,001,2025-03-03_14h39.20.296,What-B-Scan_AC,2022.2.5,None,
35,Second_Order,6.0,viswhat,stimulus/viswhat_stim/land_animal-wolf.png,stimulus/viswhat_stim/land_vehicle-schoolbus.png,stimulus/viswhat_stim/water_animal-shark.png,stimulus/viswhat_stim/water_vehicle-ship.png,stimulus/viswhat_stim/match_blank.png,stimulus/viswhat_stim/match_box.png,stimulus/viswhat_stim/match_yes.png,stimulus/viswhat_stim/match_no.png,1.0,Match,Location,Location,1,5.125,0,5.125,0,5.125,0,5.125,0,0.75,0.75,1,0.5,1,2.125,1,0.5,1,2.125,0,0.0,0,0.0,0,0.0,0,0.0,0,,,,,0,46,46,46,,,,,,,,,415.64261708298,420.76023762498517,416.11505974998,417.1138849579729,417.73621149995597,418.73435654095374,415.64261708298,415.64261708298,415.6503225413345,415.64261708298,415.64261708298,415.64261708298,415.6503225413345,415.64261708298,420.76023762498517,421.6583978330018,423.6765584999812,,421.6583978330018,421.6583978330018,426.8787722499692,422.07489854097366,423.1896292080055,423.6765584999812,424.7941242909874,421.6583978330018,421.6583978330018,421.59320270796303,421.6583978330018,421.6583978330018,421.6583978330018,421.59320270796303,421.6583978330018,421.6583978330018,426.8787722499692,421.6583978330018,426.8787722499692,426.8150572499726,,421.6583978330018,1,1,0.9068999590235762,reldom2_s029,001,2025-03-03_14h39.20.296,What-B-Scan_AC,2022.2.5,None,
36,Second_Order,6.0,viswhat,stimulus/viswhat_stim/land_vehicle-oldcar.png,stimulus/viswhat_stim/land_animal-cat.png,stimulus/viswhat_stim/water_vehicle-cargoboat.png,stimulus/viswhat_stim/water_animal-orka.png,stimulus/viswhat_stim/match_blank.png,stimulus/viswhat_stim/match_box.png,stimulus/viswhat_stim/match_yes.png,stimulus/viswhat_stim/match_no.png,1.0,Match,Location,Location,1,5.125,0,5.125,0,5.125,0,5.125,0,0.625,0.625,1,0.5,1,2.125,1,0.5,1,2.125,0,0.0,0,0.0,0,0.0,0,0.0,0,,,,,0,47,47,47,,,,,,,,,427.6234002499841,432.7378128329874,428.07432245794917,429.06121066596825,429.6968678329722,430.694986040995,427.6234002499841,427.6234002499841,427.6220881666328,427.6234002499841,427.6234002499841,427.6234002499841,427.6220881666328,427.6234002499841,432.7378128329874,433.51060183299705,435.55257270799484,,433.51060183299705,433.51060183299705,438.72008395800367,433.9050714999903,434.9589892909862,435.55257270799484,436.6121586249792,433.51060183299705,433.51060183299705,433.45124666598855,433.51060183299705,433.51060183299705,433.51060183299705,433.45124666598855,433.51060183299705,433.51060183299705,438.72008395800367,433.51060183299705,438.72008395800367,438.6599763749982,439.6053384579718,433.51060183299705,1,1,1.1911864170106128,reldom2_s029,001,2025-03-03_14h39.20.296,What-B-Scan_AC,2022.2.5,None,
0,0.0,None,fixation,stimulus/viswhat_stim/blank_white.png,stimulus/viswhat_stim/blank_white.png,stimulus/audwhat_stim/blank_white.png,stimulus/audwhat_stim/blank_white.png,stimulus/viswhat_stim/blank_white.png,stimulus/viswhat_stim/blank_white.png,stimulus/viswhat_stim/blank_white.png,stimulus/viswhat_stim/blank_white.png,0.0,0.0,0.0,0.0,0,0.0,0,0.0,0,0.0,0,0.0,0,0.0,0.0,0,0.0,0,0.0,0,0.0,0,0.0,0,0.0,0,0.0,0,0.0,0,0.0,10,,,,,0,48,48,48,,,,,,,,,439.6053384579718,439.6053384579718,439.6053384579718,439.6053384579718,439.6053384579718,439.6053384579718,439.6053384579718,439.6053384579718,439.50844404128924,439.6053384579718,439.6053384579718,439.6053384579718,439.50844404128924,439.6053384579718,439.6053384579718,439.6053384579718,439.6053384579718,439.6053384579718,439.6053384579718,439.6053384579718,439.6053384579718,439.6053384579718,439.6053384579718,439.6053384579718,439.6053384579718,439.6053384579718,439.6053384579718,439.5584440412892,439.6053384579718,439.6053384579718,439.6053384579718,439.5584440412892,439.6053384579718,439.6053384579718,439.6053384579718,439.6053384579718,439.6053384579718,444.8293219159823,444.8293219159823,449.8758992079529,None,0,,reldom2_s029,001,2025-03-03_14h39.20.296,What-B-Scan_AC,2022.2.5,None,
37,First_Order,7.0,audwhat,stimulus/audwhat_stim/dummy.wav,stimulus/audwhat_stim/dummy.wav,stimulus/audwhat_stim/string viola_low-pitch_Ftri_loud.wav,stimulus/audwhat_stim/string viola_high-pitch_Dtri_loud.wav,stimulus/audwhat_stim/blank_white.png,stimulus/audwhat_stim/category_box.png,stimulus/audwhat_stim/category_yes.png,stimulus/audwhat_stim/category_no.png,None,Category,None,Category,1,0.0,0,5.125,0,5.125,0,5.125,0,0.0,0.625,0,0.0,0,0.0,0,0.0,0,0.0,0,0.0,0,0.0,1,0.5,1,2.125,0,,,,,0,49,49,49,,,,,,,,,449.8758992079529,449.8758992079529,449.8758992079529,449.8758992079529,449.8758992079529,449.8758992079529,449.8758992079529,449.8758992079529,449.8034843326701,449.8758992079529,449.8758992079529,449.8758992079529,449.8034843326701,449.8758992079529,449.8758992079529,449.8758992079529,451.9749049579841,456.00248574995203,449.8758992079529,449.8758992079529,455.05057708296226,449.8758992079529,449.8758992079529,449.8758992079529,449.8758992079529,450.34131870797137,451.414695665997,450.3113584166315,,451.9749049579841,453.0473869579728,451.9446555826619,,449.8758992079529,455.05057708296226,449.8758992079529,455.05057708296226,455.09198224998545,455.7483009159914,449.8758992079529,1,1,1.391187125002034,reldom2_s029,001,2025-03-03_14h39.20.296,What-B-Scan_AC,2022.2.5,None,
38,First_Order,7.0,audwhat,stimulus/audwhat_stim/dummy.wav,stimulus/audwhat_stim/dummy.wav,stimulus/audwhat_stim/percussion mallet_high-pitch_D_loud.wav,stimulus/audwhat_stim/string viola_high-pitch_D_loud.wav,stimulus/audwhat_stim/blank_white.png,stimulus/audwhat_stim/pitch_box.png,stimulus/audwhat_stim/pitch_yes.png,stimulus/audwhat_stim/pitch_no.png,None,Pitch,None,Pitch,1,0.0,0,5.125,0,5.125,0,5.125,0,0.0,0.625,0,0.0,0,0.0,0,0.0,0,0.0,0,0.0,0,0.0,1,0.5,1,2.125,0,,,,,0,50,50,50,,,,,,,,,456.00248574995203,456.00248574995203,456.00248574995203,456.00248574995203,456.00248574995203,456.00248574995203,456.00248574995203,456.00248574995203,455.92295333332925,456.00248574995203,456.00248574995203,456.00248574995203,455.92295333332925,456.00248574995203,456.00248574995203,456.00248574995203,458.09143141598906,,456.00248574995203,456.00248574995203,461.15604333300143,456.00248574995203,456.00248574995203,456.00248574995203,456.00248574995203,456.4674455829663,457.53491062496323,456.437566416633,,458.09143141598906,459.1615052910056,458.06194699963476,,456.00248574995203,461.15604333300143,456.00248574995203,461.15604333300143,461.1968064579996,461.8523714579642,456.00248574995203,1,1,1.0739357090205885,reldom2_s029,001,2025-03-03_14h39.20.296,What-B-Scan_AC,2022.2.5,None,
39,First_Order,7.0,audwhat,stimulus/audwhat_stim/dummy.wav,stimulus/audwhat_stim/dummy.wav,stimulus/audwhat_stim/string viola_low-pitch_Dtri_loud.wav,stimulus/audwhat_stim/percussion mallet_low-pitch_Dtri_loud.wav,stimulus/audwhat_stim/blank_white.png,stimulus/audwhat_stim/category_box.png,stimulus/audwhat_stim/category_yes.png,stimulus/audwhat_stim/category_no.png,None,Category,None,Pitch,2,0.0,0,5.125,0,5.125,0,5.125,0,0.0,0.625,0,0.0,0,0.0,0,0.0,0,0.0,0,0.0,0,0.0,1,0.5,1,2.125,0,,,,,0,51,51,51,,,,,,,,,462.1061442909995,462.1061442909995,462.1061442909995,462.1061442909995,462.1061442909995,462.1061442909995,462.1061442909995,462.1061442909995,462.02623949930614,462.1061442909995,462.1061442909995,462.1061442909995,462.02623949930614,462.1061442909995,462.1061442909995,462.1061442909995,464.20796883298317,,462.1061442909995,462.1061442909995,467.2891991249635,462.1061442909995,462.1061442909995,462.1061442909995,462.1061442909995,462.5728129159543,463.6020094999694,462.5432574996414,,464.20796883298317,465.28302066598553,464.1778071666524,,462.1061442909995,467.2891991249635,462.1061442909995,467.2891991249635,467.3305712500005,467.9874046659679,462.1061442909995,2,1,2.271354791999329,reldom2_s029,001,2025-03-03_14h39.20.296,What-B-Scan_AC,2022.2.5,None,
40,First_Order,7.0,audwhat,stimulus/audwhat_stim/dummy.wav,stimulus/audwhat_stim/dummy.wav,stimulus/audwhat_stim/string viola_high-pitch_F_loud.wav,stimulus/audwhat_stim/string viola_low-pitch_Ftri_loud.wav,stimulus/audwhat_stim/blank_white.png,stimulus/audwhat_stim/pitch_box.png,stimulus/audwhat_stim/pitch_yes.png,stimulus/audwhat_stim/pitch_no.png,None,Pitch,None,Category,2,0.0,0,5.125,0,5.125,0,5.125,0,0.0,0.625,0,0.0,0,0.0,0,0.0,0,0.0,0,0.0,0,0.0,1,0.5,1,2.125,0,,,,,0,52,52,52,,,,,,,,,468.20091129100183,468.20091129100183,468.20091129100183,468.20091129100183,468.20091129100183,468.20091129100183,468.20091129100183,468.20091129100183,468.12073799930124,468.20091129100183,468.20091129100183,468.20091129100183,468.12073799930124,468.20091129100183,468.20091129100183,468.20091129100183,470.29033258295385,,468.20091129100183,468.20091129100183,473.35217374999775,468.20091129100183,468.20091129100183,468.20091129100183,468.20091129100183,468.666156916006,469.73513762495713,468.6360506666281,,470.29033258295385,471.3585520409979,470.26052049966916,,468.20091129100183,473.35217374999775,468.20091129100183,473.35217374999775,473.393135915976,474.04922250000527,468.20091129100183,2,1,1.8009638340445235,reldom2_s029,001,2025-03-03_14h39.20.296,What-B-Scan_AC,2022.2.5,None,
0,0.0,None,fixation,stimulus/viswhat_stim/blank_white.png,stimulus/viswhat_stim/blank_white.png,stimulus/audwhat_stim/blank_white.png,stimulus/audwhat_stim/blank_white.png,stimulus/viswhat_stim/blank_white.png,stimulus/viswhat_stim/blank_white.png,stimulus/viswhat_stim/blank_white.png,stimulus/viswhat_stim/blank_white.png,0.0,0.0,0.0,0.0,0,0.0,0,0.0,0,0.0,0,0.0,0,0.0,0.0,0,0.0,0,0.0,0,0.0,0,0.0,0,0.0,0,0.0,0,0.0,0,0.0,9,,,,,0,53,53,53,,,,,,,,,474.3233397079748,474.3233397079748,474.3233397079748,474.3233397079748,474.3233397079748,474.3233397079748,474.3233397079748,474.3233397079748,474.22339174928686,474.3233397079748,474.3233397079748,474.3233397079748,474.22339174928686,474.3233397079748,474.3233397079748,474.3233397079748,474.3233397079748,474.3233397079748,474.3233397079748,474.3233397079748,474.3233397079748,474.3233397079748,474.3233397079748,474.3233397079748,474.3233397079748,474.3233397079748,474.3233397079748,474.2733917492869,474.3233397079748,474.3233397079748,474.3233397079748,474.2733917492869,474.3233397079748,474.3233397079748,474.3233397079748,474.3233397079748,474.3233397079748,479.5165431659552,479.5165431659552,483.4629225829849,None,0,,reldom2_s029,001,2025-03-03_14h39.20.296,What-B-Scan_AC,2022.2.5,None,
41,Second_Order,7.0,audwhat,stimulus/audwhat_stim/percussion mallet_low-pitch_F_loud.wav,stimulus/audwhat_stim/percussion mallet_high-pitch_D_loud.wav,stimulus/audwhat_stim/string cello_low-pitch_Dtri_loud.wav,stimulus/audwhat_stim/string viola_high-pitch_F_loud.wav,stimulus/viswhat_stim/match_blank.png,stimulus/viswhat_stim/match_box.png,stimulus/viswhat_stim/match_yes.png,stimulus/viswhat_stim/match_no.png,1.0,Match,Category,Category,1,5.125,0,5.125,0,5.125,0,5.125,0,0.75,0.75,0,0.0,0,0.0,0,0.0,0,0.0,1,0.5,1,2.125,1,0.5,1,2.125,0,,,,,0,54,54,54,,,,,,,,,483.4629225829849,488.58424012496835,483.4629225829849,483.4629225829849,483.4629225829849,483.4629225829849,483.9199692499824,484.90765720797936,483.93423208262925,,485.5444126660004,486.54080487496685,485.5553401246473,,488.58424012496835,489.4323531249538,491.47483883297537,,489.4323531249538,489.4323531249538,494.5871056659962,489.4323531249538,489.4323531249538,489.4323531249538,489.4323531249538,489.8505071249674,490.9190279999748,489.82068454166097,,491.47483883297537,492.54616895795334,491.44506033265884,,489.4323531249538,494.5871056659962,489.4323531249538,494.5871056659962,494.6280154999695,,489.4323531249538,1,1,1.1120650839875452,reldom2_s029,001,2025-03-03_14h39.20.296,What-B-Scan_AC,2022.2.5,None,
42,Second_Order,7.0,audwhat,stimulus/audwhat_stim/percussion mallet_high-pitch_Ftri_loud.wav,stimulus/audwhat_stim/percussion mallet_low-pitch_F_loud.wav,stimulus/audwhat_stim/percussion mallet_low-pitch_Dtri_loud.wav,stimulus/audwhat_stim/string viola_low-pitch_Dtri_loud.wav,stimulus/viswhat_stim/match_blank.png,stimulus/viswhat_stim/match_box.png,stimulus/viswhat_stim/match_yes.png,stimulus/viswhat_stim/match_no.png,2.0,Match,Category,Pitch,2,5.125,0,5.125,0,5.125,0,5.125,0,0.625,0.625,0,0.0,0,0.0,0,0.0,0,0.0,1,0.5,1,2.125,1,0.5,1,2.125,0,,,,,0,55,55,55,,,,,,,,,495.3993512499728,500.5109333329601,495.3993512499728,495.3993512499728,495.3993512499728,495.3993512499728,495.8483605829533,496.83503874996677,495.86158354161694,,497.4826419579913,498.4717493749922,497.48547574965437,,500.5109333329601,501.24330375000136,503.3225597909768,507.35743366595125,501.24330375000136,501.24330375000136,506.43057066597976,501.24330375000136,501.24330375000136,501.24330375000136,501.24330375000136,501.6597722079605,502.7220664579654,501.6301132916162,,503.3225597909768,504.39413425000384,503.29239779164004,,501.24330375000136,506.43057066597976,501.24330375000136,506.43057066597976,506.43057066597976,507.0833531660028,501.24330375000136,2,1,1.2755602920078672,reldom2_s029,001,2025-03-03_14h39.20.296,What-B-Scan_AC,2022.2.5,None,
0,0.0,None,fixation,stimulus/viswhat_stim/blank_white.png,stimulus/viswhat_stim/blank_white.png,stimulus/audwhat_stim/blank_white.png,stimulus/audwhat_stim/blank_white.png,stimulus/viswhat_stim/blank_white.png,stimulus/viswhat_stim/blank_white.png,stimulus/viswhat_stim/blank_white.png,stimulus/viswhat_stim/blank_white.png,0.0,0.0,0.0,0.0,0,0.0,0,0.0,0,0.0,0,0.0,0,0.0,0.0,0,0.0,0,0.0,0,0.0,0,0.0,0,0.0,0,0.0,0,0.0,0,0.0,9,,,,,0,56,56,56,,,,,,,,,507.35743366595125,507.35743366595125,507.35743366595125,507.35743366595125,507.35743366595125,507.35743366595125,507.35743366595125,507.35743366595125,507.25708462429077,507.35743366595125,507.35743366595125,507.35743366595125,507.25708462429077,507.35743366595125,507.35743366595125,507.35743366595125,507.35743366595125,507.35743366595125,507.35743366595125,507.35743366595125,507.35743366595125,507.35743366595125,507.35743366595125,507.35743366595125,507.35743366595125,507.35743366595125,507.35743366595125,507.3070846242908,507.35743366595125,507.35743366595125,507.35743366595125,507.3070846242908,507.35743366595125,507.35743366595125,507.35743366595125,507.35743366595125,507.35743366595125,512.5813648749609,512.5813648749609,516.607080582995,None,0,,reldom2_s029,001,2025-03-03_14h39.20.296,What-B-Scan_AC,2022.2.5,None,
43,First_Order,8.0,audwhat,stimulus/audwhat_stim/dummy.wav,stimulus/audwhat_stim/dummy.wav,stimulus/audwhat_stim/string cello_high-pitch_D_loud.wav,stimulus/audwhat_stim/string cello_low-pitch_F_loud.wav,stimulus/audwhat_stim/blank_white.png,stimulus/audwhat_stim/pitch_box.png,stimulus/audwhat_stim/pitch_yes.png,stimulus/audwhat_stim/pitch_no.png,None,Pitch,None,Category,2,0.0,0,5.125,0,5.125,0,5.125,0,0.0,0.625,0,0.0,0,0.0,0,0.0,0,0.0,0,0.0,0,0.0,1,0.5,1,2.125,0,,,,,0,57,57,57,,,,,,,,,516.607080582995,516.607080582995,516.607080582995,516.607080582995,516.607080582995,516.607080582995,516.607080582995,516.607080582995,516.5353967496582,516.607080582995,516.607080582995,516.607080582995,516.5353967496582,516.607080582995,516.607080582995,516.607080582995,518.6945793329505,,516.607080582995,516.607080582995,521.7608937079785,516.607080582995,516.607080582995,516.607080582995,516.607080582995,517.0708832499804,518.1388085409999,517.0411362496709,,518.6945793329505,519.767311457952,518.6651992916634,,516.607080582995,521.7608937079785,516.607080582995,521.7608937079785,521.8016128749587,522.4555134580005,516.607080582995,2,1,1.4807628330308944,reldom2_s029,001,2025-03-03_14h39.20.296,What-B-Scan_AC,2022.2.5,None,
44,First_Order,8.0,audwhat,stimulus/audwhat_stim/dummy.wav,stimulus/audwhat_stim/dummy.wav,stimulus/audwhat_stim/percussion mallet_low-pitch_F_loud.wav,stimulus/audwhat_stim/string cello_low-pitch_F_loud.wav,stimulus/audwhat_stim/blank_white.png,stimulus/audwhat_stim/pitch_box.png,stimulus/audwhat_stim/pitch_yes.png,stimulus/audwhat_stim/pitch_no.png,None,Pitch,None,Pitch,1,0.0,0,5.125,0,5.125,0,5.125,0,0.0,0.625,0,0.0,0,0.0,0,0.0,0,0.0,0,0.0,0,0.0,1,0.5,1,2.125,0,,,,,0,58,58,58,,,,,,,,,522.7086616249871,522.7086616249871,522.7086616249871,522.7086616249871,522.7086616249871,522.7086616249871,522.7086616249871,522.7086616249871,522.6294891662857,522.7086616249871,522.7086616249871,522.7086616249871,522.6294891662857,522.7086616249871,522.7086616249871,522.7086616249871,524.7981569159892,,522.7086616249871,522.7086616249871,527.8623680829769,522.7086616249871,522.7086616249871,522.7086616249871,522.7086616249871,523.1731536249863,524.2422027499997,523.1432667916563,,524.7981569159892,525.869487540971,524.7682172496609,,522.7086616249871,527.8623680829769,522.7086616249871,527.8623680829769,527.9032709159655,528.5565344159841,522.7086616249871,1,1,2.1703842090209946,reldom2_s029,001,2025-03-03_14h39.20.296,What-B-Scan_AC,2022.2.5,None,
45,First_Order,8.0,audwhat,stimulus/audwhat_stim/dummy.wav,stimulus/audwhat_stim/dummy.wav,stimulus/audwhat_stim/string viola_low-pitch_Dtri_loud.wav,stimulus/audwhat_stim/string cello_high-pitch_Ftri_loud.wav,stimulus/audwhat_stim/blank_white.png,stimulus/audwhat_stim/category_box.png,stimulus/audwhat_stim/category_yes.png,stimulus/audwhat_stim/category_no.png,None,Category,None,Category,1,0.0,0,5.125,0,5.125,0,5.125,0,0.0,0.625,0,0.0,0,0.0,0,0.0,0,0.0,0,0.0,0,0.0,1,0.5,1,2.125,0,,,,,0,59,59,59,,,,,,,,,528.8105003329692,528.8105003329692,528.8105003329692,528.8105003329692,528.8105003329692,528.8105003329692,528.8105003329692,528.8105003329692,528.7306996662829,528.8105003329692,528.8105003329692,528.8105003329692,528.7306996662829,528.8105003329692,528.8105003329692,528.8105003329692,530.9098483749549,,528.8105003329692,528.8105003329692,533.9896290409961,528.8105003329692,528.8105003329692,528.8105003329692,528.8105003329692,529.2776483749622,530.3505163329537,529.2474252076393,,530.9098483749549,531.9400742079597,530.8796518746569,,528.8105003329692,533.9896290409961,528.8105003329692,533.9896290409961,534.0304357909481,534.6874954999657,528.8105003329692,2,0,0.939576251024846,reldom2_s029,001,2025-03-03_14h39.20.296,What-B-Scan_AC,2022.2.5,None,
46,First_Order,8.0,audwhat,stimulus/audwhat_stim/dummy.wav,stimulus/audwhat_stim/dummy.wav,stimulus/audwhat_stim/string viola_high-pitch_Ftri_loud.wav,stimulus/audwhat_stim/percussion xylophone_high-pitch_Ftri_loud.wav,stimulus/audwhat_stim/blank_white.png,stimulus/audwhat_stim/category_box.png,stimulus/audwhat_stim/category_yes.png,stimulus/audwhat_stim/category_no.png,None,Category,None,Pitch,2,0.0,0,5.125,0,5.125,0,5.125,0,0.0,0.625,0,0.0,0,0.0,0,0.0,0,0.0,0,0.0,0,0.0,1,0.5,1,2.125,0,,,,,0,60,60,60,,,,,,,,,534.9012291659601,534.9012291659601,534.9012291659601,534.9012291659601,534.9012291659601,534.9012291659601,534.9012291659601,534.9012291659601,534.8208288332991,534.9012291659601,534.9012291659601,534.9012291659601,534.8208288332991,534.9012291659601,534.9012291659601,534.9012291659601,537.0030412499909,,534.9012291659601,534.9012291659601,540.0909439160023,534.9012291659601,534.9012291659601,534.9012291659601,534.9012291659601,535.3684804999502,536.4433376659872,535.3380476246277,,537.0030412499909,538.0346872499795,536.9728489576412,538.0346872499795,534.9012291659601,540.0909439160023,534.9012291659601,540.0909439160023,540.0909439160023,540.7467492909636,534.9012291659601,2,1,0.8840413750731386,reldom2_s029,001,2025-03-03_14h39.20.296,What-B-Scan_AC,2022.2.5,None,
0,0.0,None,fixation,stimulus/viswhat_stim/blank_white.png,stimulus/viswhat_stim/blank_white.png,stimulus/audwhat_stim/blank_white.png,stimulus/audwhat_stim/blank_white.png,stimulus/viswhat_stim/blank_white.png,stimulus/viswhat_stim/blank_white.png,stimulus/viswhat_stim/blank_white.png,stimulus/viswhat_stim/blank_white.png,0.0,0.0,0.0,0.0,0,0.0,0,0.0,0,0.0,0,0.0,0,0.0,0.0,0,0.0,0,0.0,0,0.0,0,0.0,0,0.0,0,0.0,0,0.0,0,0.0,8,,,,,0,61,61,61,,,,,,,,,541.020745457965,541.020745457965,541.020745457965,541.020745457965,541.020745457965,541.020745457965,541.020745457965,541.020745457965,540.9211555833191,541.020745457965,541.020745457965,541.020745457965,540.9211555833191,541.020745457965,541.020745457965,541.020745457965,541.020745457965,541.020745457965,541.020745457965,541.020745457965,541.020745457965,541.020745457965,541.020745457965,541.020745457965,541.020745457965,541.020745457965,541.020745457965,540.971155583319,541.020745457965,541.020745457965,541.020745457965,540.971155583319,541.020745457965,541.020745457965,541.020745457965,541.020745457965,541.020745457965,546.2198309159721,546.2198309159721,549.1522379999515,None,0,,reldom2_s029,001,2025-03-03_14h39.20.296,What-B-Scan_AC,2022.2.5,None,
47,Second_Order,8.0,audwhat,stimulus/audwhat_stim/string cello_low-pitch_Dtri_loud.wav,stimulus/audwhat_stim/string viola_high-pitch_D_loud.wav,stimulus/audwhat_stim/percussion xylophone_high-pitch_F_loud.wav,stimulus/audwhat_stim/percussion mallet_low-pitch_D_loud.wav,stimulus/viswhat_stim/match_blank.png,stimulus/viswhat_stim/match_box.png,stimulus/viswhat_stim/match_yes.png,stimulus/viswhat_stim/match_no.png,1.0,Match,Category,Category,1,5.125,0,5.125,0,5.125,0,5.125,0,0.75,0.75,0,0.0,0,0.0,0,0.0,0,0.0,1,0.5,1,2.125,1,0.5,1,2.125,0,,,,,0,62,62,62,,,,,,,,,549.1522379999515,554.2680539579596,549.1522379999515,549.1522379999515,549.1522379999515,549.1522379999515,549.6045948749525,550.5931709579891,549.6190590416702,,551.227262707951,552.2257840829552,551.2399774166445,,554.2680539579596,555.1193819159525,557.1621496659936,,555.1193819159525,555.1193819159525,560.2770442909678,555.1193819159525,555.1193819159525,555.1193819159525,555.1193819159525,555.5367989999941,556.605435415986,555.5055144576511,556.5590421659872,557.1621496659936,558.2351005829987,557.1321255416299,,555.1193819159525,560.2770442909678,555.1193819159525,560.2770442909678,560.2770442909678,,555.1193819159525,2,0,1.0176461260416545,reldom2_s029,001,2025-03-03_14h39.20.296,What-B-Scan_AC,2022.2.5,None,
48,Second_Order,8.0,audwhat,stimulus/audwhat_stim/percussion mallet_high-pitch_D_loud.wav,stimulus/audwhat_stim/percussion mallet_low-pitch_Dtri_loud.wav,stimulus/audwhat_stim/string viola_high-pitch_F_loud.wav,stimulus/audwhat_stim/string viola_low-pitch_Dtri_loud.wav,stimulus/viswhat_stim/match_blank.png,stimulus/viswhat_stim/match_box.png,stimulus/viswhat_stim/match_yes.png,stimulus/viswhat_stim/match_no.png,1.0,Match,Category,Category,1,5.125,0,5.125,0,5.125,0,5.125,0,0.625,0.625,0,0.0,0,0.0,0,0.0,0,0.0,1,0.5,1,2.125,1,0.5,1,2.125,0,,,,,0,63,63,63,,,,,,,,,561.0915613329853,566.2129019579734,561.0915613329853,561.0915613329853,561.0915613329853,561.0915613329853,561.5512079159962,562.5497523749946,561.5640537496695,,563.1716684999992,564.170147583005,563.184268291636,,566.2129019579734,566.9426836249768,569.0192177079734,,566.9426836249768,566.9426836249768,572.118619624991,566.9426836249768,566.9426836249768,566.9426836249768,566.9426836249768,567.3561035830062,568.4195861250046,567.3268917496355,,569.0192177079734,570.0848192909616,568.9894292916326,,566.9426836249768,572.118619624991,566.9426836249768,572.118619624991,572.118619624991,572.7688430409762,566.9426836249768,1,1,1.1190836669993587,reldom2_s029,001,2025-03-03_14h39.20.296,What-B-Scan_AC,2022.2.5,None,
0,0.0,None,fixation,stimulus/viswhat_stim/blank_white.png,stimulus/viswhat_stim/blank_white.png,stimulus/audwhat_stim/blank_white.png,stimulus/audwhat_stim/blank_white.png,stimulus/viswhat_stim/blank_white.png,stimulus/viswhat_stim/blank_white.png,stimulus/viswhat_stim/blank_white.png,stimulus/viswhat_stim/blank_white.png,0.0,0.0,0.0,0.0,0,0.0,0,0.0,0,0.0,0,0.0,0,0.0,0.0,0,0.0,0,0.0,0,0.0,0,0.0,0,0.0,0,0.0,0,0.0,0,0.0,16,,,,,0,64,64,64,,,,,,,,,573.0419861249975,573.0419861249975,573.0419861249975,573.0419861249975,573.0419861249975,573.0419861249975,573.0419861249975,573.0419861249975,572.942487999304,573.0419861249975,573.0419861249975,573.0419861249975,572.942487999304,573.0419861249975,573.0419861249975,573.0419861249975,573.0419861249975,573.0419861249975,573.0419861249975,573.0419861249975,573.0419861249975,573.0419861249975,573.0419861249975,573.0419861249975,573.0419861249975,573.0419861249975,573.0419861249975,572.992487999304,573.0419861249975,573.0419861249975,573.0419861249975,572.992487999304,573.0419861249975,573.0419861249975,573.0419861249975,573.0419861249975,573.0419861249975,578.2670447909622,578.2670447909622,589.2002274579718,None,0,,reldom2_s029,001,2025-03-03_14h39.20.296,What-B-Scan_AC,2022.2.5,None,
