Trial,Order,Block,Type,Stimuli_File1,Stimuli_File2,Stimuli_File3,Stimuli_File4,Cue_File1,Cue_File2,Response_File_Yes,Response_File_No,Match,Cue_Dimension,Pair1_Dimension,Pair2_Dimension,Key,Cue1_Duration,Cue1_Onset,Cue2_Duration,Cue2_Onset,ResponseYes_Duration,ResponseYes_Onset,ResponseNo_Duration,ResponseNo_Onset,ITI_Within,ITI_Between,Image1_Duration,Image1_Onset,Image2_Duration,Image2_Onset,Image3_Duration,Image3_Onset,Image4_Duration,Image4_Onset,Sound1_Duration,Sound1_Onset,Sound2_Duration,Sound2_Onset,Sound3_Duration,Sound3_Onset,Sound4_Duration,Sound4_Onset,Fixation_Duration,trials_2.thisRepN,trials_2.thisTrialN,trials_2.thisN,trials_2.thisIndex,trials.thisRepN,trials.thisTrialN,trials.thisN,trials.thisIndex,text_start.started,key_resp_start.started,key_resp_start.keys,key_resp_start.rt,text2.started,key_resp_2.started,key_resp_2.keys,key_resp_2.rt,cue_file1.started,cue_file1.stopped,image_1.started,image_1.stopped,image_2.started,image_2.stopped,sound_icon1.started,sound_icon1.stopped,sound_1.started,sound_1.stopped,sound_icon2.started,sound_icon2.stopped,sound_2.started,sound_2.stopped,image_blank_1.started,image_blank_1.stopped,key_press.started,key_press.stopped,fixation_text.started,cue_file2.started,cue_file2.stopped,image_3.started,image_3.stopped,image_4.started,image_4.stopped,sound_icon3.started,sound_icon3.stopped,sound_3.started,sound_3.stopped,sound_icon4.started,sound_icon4.stopped,sound_4.started,sound_4.stopped,response_yes.started,response_yes.stopped,response_no.started,response_no.stopped,iti_blank.started,iti_blank.stopped,fixation_text.stopped,key_press.keys,key_press.corr,key_press.rt,participant,session,date,expName,psychopyVersion,frameRate,
,,,,,,,,,,,,,,,,,,,,,,,,,,,,,,,,,,,,,,,,,,,,,,,,,,,,6.866517541988287,6.866517541988287,2,1.3098236250225455,,,,,,,,,,,,,,,,,,,,,,,,,,,,,,,,,,,,,,,,,,,,,,,,reldom2_s029,001,2025-03-03_14h28.09.631,Vis-B-Scan_AC,2022.2.5,None,
,,,,,,,,,,,,,,,,,,,,,,,,,,,,,,,,,,,,,,,,,,,,0,0,0,0,,,,,,,,,8.2201805000077,8.2201805000077,5,17.308748458046466,,,,,,,,,,,,,,,,,,,,,,,,,,,,,,,,,,,,,,,,,,,,reldom2_s029,001,2025-03-03_14h28.09.631,Vis-B-Scan_AC,2022.2.5,None,
,,,,,,,,,,,,,,,,,,,,,,,,,,,,,,,,,,,,,,,,,,,,1,0,1,0,,,,,,,,,25.545128832978662,25.545128832978662,5,1.98450566601241,,,,,,,,,,,,,,,,,,,,,,,,,,,,,,,,,,,,,,,,,,,,reldom2_s029,001,2025-03-03_14h28.09.631,Vis-B-Scan_AC,2022.2.5,None,
,,,,,,,,,,,,,,,,,,,,,,,,,,,,,,,,,,,,,,,,,,,,2,0,2,0,,,,,,,,,27.5560717919725,27.5560717919725,5,1.9744803340290673,,,,,,,,,,,,,,,,,,,,,,,,,,,,,,,,,,,,,,,,,,,,reldom2_s029,001,2025-03-03_14h28.09.631,Vis-B-Scan_AC,2022.2.5,None,
,,,,,,,,,,,,,,,,,,,,,,,,,,,,,,,,,,,,,,,,,,,,3,0,3,0,,,,,,,,,29.544997291988693,29.544997291988693,5,1.9835553750162944,,,,,,,,,,,,,,,,,,,,,,,,,,,,,,,,,,,,,,,,,,,,reldom2_s029,001,2025-03-03_14h28.09.631,Vis-B-Scan_AC,2022.2.5,None,
0,0.0,None,fixation,stimulus/viswhere_stim/blank_white.png,stimulus/viswhere_stim/blank_white.png,stimulus/viswhat_stim/blank_white.png,stimulus/viswhat_stim/blank_white.png,stimulus/viswhere_stim/blank_white.png,stimulus/viswhere_stim/blank_white.png,stimulus/viswhere_stim/blank_white.png,stimulus/viswhere_stim/blank_white.png,0.0,0.0,0.0,0.0,0,0.0,0,0.0,0,0.0,0,0.0,0,0.0,0.0,0,0.0,0,0.0,0,0.0,0,0.0,0,0,0,0,0,0,0,0,16,,,,,0,0,0,0,,,,,,,,,31.744695791974664,31.744695791974664,31.744695791974664,31.744695791974664,31.744695791974664,31.744695791974664,31.744695791974664,31.744695791974664,31.649715916630036,31.744695791974664,31.744695791974664,31.744695791974664,31.649715916630036,31.744695791974664,31.744695791974664,31.744695791974664,31.744695791974664,31.744695791974664,31.744695791974664,31.744695791974664,31.744695791974664,31.744695791974664,31.744695791974664,31.744695791974664,31.744695791974664,31.744695791974664,31.744695791974664,31.699715916630034,31.744695791974664,31.744695791974664,31.744695791974664,31.699715916630034,31.744695791974664,31.744695791974664,31.744695791974664,31.744695791974664,31.744695791974664,36.92626420798479,36.92626420798479,47.93965349998325,None,0,,reldom2_s029,001,2025-03-03_14h28.09.631,Vis-B-Scan_AC,2022.2.5,None,
1,First_Order,1.0,viswhere,stimulus/viswhere_stim/blank_white.png,stimulus/viswhere_stim/blank_white.png,stimulus/viswhere_stim/150-deg_dot-left_royalblue.png,stimulus/viswhere_stim/150-deg_dot-right_peru.png,stimulus/viswhere_stim/blank_white.png,stimulus/viswhere_stim/dot_box.png,stimulus/viswhere_stim/dot_yes.png,stimulus/viswhere_stim/dot_no.png,None,Dot,None,Line,2,0.0,0,5.125,0,5.125,0,5.125,0,0.0,0.625,0,0.0,0,0.0,1,0.5,1,2.125,0,0,0,0,0,0,0,0,0,,,,,0,1,1,1,,,,,,,,,47.93965349998325,47.93965349998325,47.93965349998325,47.93965349998325,47.93965349998325,47.93965349998325,47.93965349998325,47.93965349998325,47.9209600419621,47.93965349998325,47.93965349998325,47.93965349998325,47.9209600419621,47.93965349998325,47.93965349998325,47.93965349998325,50.05139270797372,54.00554554199334,47.93965349998325,47.93965349998325,53.07723216700833,48.41500224999618,49.42296991701005,50.05139270797372,51.06696824997198,47.93965349998325,47.93965349998325,47.93762670862876,47.93965349998325,47.93965349998325,47.93965349998325,47.93762670862876,47.93965349998325,47.93965349998325,53.07723216700833,47.93965349998325,53.07723216700833,53.15948137501255,53.7910995829734,47.93965349998325,2,1,0.746794167032931,reldom2_s029,001,2025-03-03_14h28.09.631,Vis-B-Scan_AC,2022.2.5,None,
2,First_Order,1.0,viswhere,stimulus/viswhere_stim/blank_white.png,stimulus/viswhere_stim/blank_white.png,stimulus/viswhere_stim/30-deg_dot-left_salmon.png,stimulus/viswhere_stim/30-deg_dot-right_seagreen.png,stimulus/viswhere_stim/blank_white.png,stimulus/viswhere_stim/dot_box.png,stimulus/viswhere_stim/dot_yes.png,stimulus/viswhere_stim/dot_no.png,None,Dot,None,Line,2,0.0,0,5.125,0,5.125,0,5.125,0,0.0,0.625,0,0.0,0,0.0,1,0.5,1,2.125,0,0,0,0,0,0,0,0,0,,,,,0,2,2,2,,,,,,,,,54.00554554199334,54.00554554199334,54.00554554199334,54.00554554199334,54.00554554199334,54.00554554199334,54.00554554199334,54.00554554199334,53.9866158333219,54.00554554199334,54.00554554199334,54.00554554199334,53.9866158333219,54.00554554199334,54.00554554199334,54.00554554199334,56.10682087496389,60.07225500000641,54.00554554199334,54.00554554199334,59.14625866699498,54.49597474996699,55.497744583000895,56.10682087496389,57.11530175001826,54.00554554199334,54.00554554199334,53.9866158333219,54.00554554199334,54.00554554199334,54.00554554199334,53.9866158333219,54.00554554199334,54.00554554199334,59.14625866699498,54.00554554199334,59.14625866699498,59.24606779200258,59.87750825000694,54.00554554199334,2,1,0.8239182500401512,reldom2_s029,001,2025-03-03_14h28.09.631,Vis-B-Scan_AC,2022.2.5,None,
3,First_Order,1.0,viswhere,stimulus/viswhere_stim/blank_white.png,stimulus/viswhere_stim/blank_white.png,stimulus/viswhere_stim/120-deg_dot-left_goldenrod.png,stimulus/viswhere_stim/30-deg_dot-left_slateblue.png,stimulus/viswhere_stim/blank_white.png,stimulus/viswhere_stim/dot_box.png,stimulus/viswhere_stim/dot_yes.png,stimulus/viswhere_stim/dot_no.png,None,Dot,None,Dot,1,0.0,0,5.125,0,5.125,0,5.125,0,0.0,0.625,0,0.0,0,0.0,1,0.5,1,2.125,0,0,0,0,0,0,0,0,0,,,,,0,3,3,3,,,,,,,,,60.07225500000641,60.07225500000641,60.07225500000641,60.07225500000641,60.07225500000641,60.07225500000641,60.07225500000641,60.07225500000641,60.054224958313476,60.07225500000641,60.07225500000641,60.07225500000641,60.054224958313476,60.07225500000641,60.07225500000641,60.07225500000641,62.17456841701642,66.14110520796385,60.07225500000641,60.07225500000641,65.19571087497752,60.563563207979314,61.56898508296581,62.17456841701642,63.184878333006054,60.07225500000641,60.07225500000641,60.054224958313476,60.07225500000641,60.07225500000641,60.07225500000641,60.054224958313476,60.07225500000641,60.07225500000641,65.19571087497752,60.07225500000641,65.19571087497752,65.31048441701569,65.93824741698336,60.07225500000641,1,1,0.6738975420012139,reldom2_s029,001,2025-03-03_14h28.09.631,Vis-B-Scan_AC,2022.2.5,None,
4,First_Order,1.0,viswhere,stimulus/viswhere_stim/blank_white.png,stimulus/viswhere_stim/blank_white.png,stimulus/viswhere_stim/150-deg_dot-right_royalblue.png,stimulus/viswhere_stim/30-deg_dot-right_salmon.png,stimulus/viswhere_stim/blank_white.png,stimulus/viswhere_stim/line_box.png,stimulus/viswhere_stim/line_yes.png,stimulus/viswhere_stim/line_no.png,None,Line,None,Dot,2,0.0,0,5.125,0,5.125,0,5.125,0,0.0,0.625,0,0.0,0,0.0,1,0.5,1,2.125,0,0,0,0,0,0,0,0,0,,,,,0,4,4,4,,,,,,,,,66.14110520796385,66.14110520796385,66.14110520796385,66.14110520796385,66.14110520796385,66.14110520796385,66.14110520796385,66.14110520796385,66.12179491630134,66.14110520796385,66.14110520796385,66.14110520796385,66.12179491630134,66.14110520796385,66.14110520796385,66.14110520796385,68.25182458298514,72.28519895800855,66.14110520796385,66.14110520796385,71.2658747920068,66.62185620801756,67.63967254199088,68.25182458298514,69.27112395799486,66.14110520796385,66.14110520796385,66.12179491630134,66.14110520796385,66.14110520796385,66.14110520796385,66.12179491630134,66.14110520796385,66.14110520796385,71.2658747920068,66.14110520796385,71.2658747920068,71.36213012499502,71.99460187501973,66.14110520796385,2,1,1.1102262920467183,reldom2_s029,001,2025-03-03_14h28.09.631,Vis-B-Scan_AC,2022.2.5,None,
0,0.0,None,fixation,stimulus/viswhere_stim/blank_white.png,stimulus/viswhere_stim/blank_white.png,stimulus/viswhat_stim/blank_white.png,stimulus/viswhat_stim/blank_white.png,stimulus/viswhere_stim/blank_white.png,stimulus/viswhere_stim/blank_white.png,stimulus/viswhere_stim/blank_white.png,stimulus/viswhere_stim/blank_white.png,0.0,0.0,0.0,0.0,0,0.0,0,0.0,0,0.0,0,0.0,0,0.0,0.0,0,0.0,0,0.0,0,0.0,0,0.0,0,0,0,0,0,0,0,0,9,,,,,0,5,5,5,,,,,,,,,72.28519895800855,72.28519895800855,72.28519895800855,72.28519895800855,72.28519895800855,72.28519895800855,72.28519895800855,72.28519895800855,72.1895374583158,72.28519895800855,72.28519895800855,72.28519895800855,72.1895374583158,72.28519895800855,72.28519895800855,72.28519895800855,72.28519895800855,72.28519895800855,72.28519895800855,72.28519895800855,72.28519895800855,72.28519895800855,72.28519895800855,72.28519895800855,72.28519895800855,72.28519895800855,72.28519895800855,72.2395374583158,72.28519895800855,72.28519895800855,72.28519895800855,72.2395374583158,72.28519895800855,72.28519895800855,72.28519895800855,72.28519895800855,72.28519895800855,77.51581124996301,77.51581124996301,81.38577154197264,None,0,,reldom2_s029,001,2025-03-03_14h28.09.631,Vis-B-Scan_AC,2022.2.5,None,
5,Second_Order,1.0,viswhere,stimulus/viswhere_stim/90-deg_dot-left_mediumslateblue.png,stimulus/viswhere_stim/30-deg_dot-left_slateblue.png,stimulus/viswhere_stim/90-deg_dot-left_royalblue.png,stimulus/viswhere_stim/90-deg_dot-right_goldenrod.png,stimulus/viswhere_stim/match_blank.png,stimulus/viswhere_stim/match_box.png,stimulus/viswhere_stim/match_yes.png,stimulus/viswhere_stim/match_no.png,2.0,Match,Dot,Line,2,5.125,0,5.125,0,5.125,0,5.125,0,0.75,0.75,1,0.5,1,2.125,1,0.5,1,2.125,0,0,0,0,0,0,0,0,0,,,,,0,6,6,6,,,,,,,,,81.38577154197264,86.49784070800524,81.8699987080181,82.86865420796676,83.49054883298231,84.4886108749779,81.38577154197264,81.38577154197264,81.38469779168177,81.38577154197264,81.38577154197264,81.38577154197264,81.38469779168177,81.38577154197264,86.49784070800524,87.29247899999609,89.36941983300494,93.22885887499433,87.29247899999609,87.29247899999609,92.41901816701284,87.73669391701696,88.75550866697449,89.36941983300494,90.37703204201534,87.29247899999609,87.29247899999609,87.2813793330104,87.29247899999609,87.29247899999609,87.29247899999609,87.2813793330104,87.29247899999609,87.29247899999609,92.41901816701284,87.29247899999609,92.41901816701284,92.48949645797256,93.2649493329809,87.29247899999609,2,1,1.1281146660330705,reldom2_s029,001,2025-03-03_14h28.09.631,Vis-B-Scan_AC,2022.2.5,None,
6,Second_Order,1.0,viswhere,stimulus/viswhere_stim/30-deg_dot-right_turquoise.png,stimulus/viswhere_stim/30-deg_dot-left_goldenrod.png,stimulus/viswhere_stim/60-deg_dot-left_salmon.png,stimulus/viswhere_stim/60-deg_dot-right_slateblue.png,stimulus/viswhere_stim/match_blank.png,stimulus/viswhere_stim/match_box.png,stimulus/viswhere_stim/match_yes.png,stimulus/viswhere_stim/match_no.png,1.0,Match,Line,Line,1,5.125,0,5.125,0,5.125,0,5.125,0,0.625,0.625,1,0.5,1,2.125,1,0.5,1,2.125,0,0,0,0,0,0,0,0,0,,,,,0,7,7,7,,,,,,,,,93.2649493329809,98.38716024998575,93.74732537497766,94.74568512500264,95.36755483300658,96.36575912497938,93.2649493329809,93.2649493329809,93.27885887499433,93.2649493329809,93.2649493329809,93.2649493329809,93.27885887499433,93.2649493329809,98.38716024998575,99.06256370799383,101.14191045798361,105.17201458301861,99.06256370799383,99.06256370799383,104.18760691699572,99.52248920797138,100.53299504198367,101.14191045798361,102.16211529198335,99.06256370799383,99.06256370799383,99.03909154132319,99.06256370799383,99.06256370799383,99.06256370799383,99.03909154132319,99.06256370799383,99.06256370799383,104.18760691699572,99.06256370799383,104.18760691699572,104.2572175830137,104.87825299997348,99.06256370799383,1,1,0.7250819590408355,reldom2_s029,001,2025-03-03_14h28.09.631,Vis-B-Scan_AC,2022.2.5,None,
0,0.0,None,fixation,stimulus/viswhere_stim/blank_white.png,stimulus/viswhere_stim/blank_white.png,stimulus/viswhat_stim/blank_white.png,stimulus/viswhat_stim/blank_white.png,stimulus/viswhere_stim/blank_white.png,stimulus/viswhere_stim/blank_white.png,stimulus/viswhere_stim/blank_white.png,stimulus/viswhere_stim/blank_white.png,0.0,0.0,0.0,0.0,0,0.0,0,0.0,0,0.0,0,0.0,0,0.0,0.0,0,0.0,0,0.0,0,0.0,0,0.0,0,0,0,0,0,0,0,0,9,,,,,0,8,8,8,,,,,,,,,105.17201458301861,105.17201458301861,105.17201458301861,105.17201458301861,105.17201458301861,105.17201458301861,105.17201458301861,105.17201458301861,105.07546433331056,105.17201458301861,105.17201458301861,105.17201458301861,105.07546433331056,105.17201458301861,105.17201458301861,105.17201458301861,105.17201458301861,105.17201458301861,105.17201458301861,105.17201458301861,105.17201458301861,105.17201458301861,105.17201458301861,105.17201458301861,105.17201458301861,105.17201458301861,105.17201458301861,105.12546433331056,105.17201458301861,105.17201458301861,105.17201458301861,105.12546433331056,105.17201458301861,105.17201458301861,105.17201458301861,105.17201458301861,105.17201458301861,110.37724474997958,110.37724474997958,114.3624403749709,None,0,,reldom2_s029,001,2025-03-03_14h28.09.631,Vis-B-Scan_AC,2022.2.5,None,
7,First_Order,2.0,viswhere,stimulus/viswhere_stim/blank_white.png,stimulus/viswhere_stim/blank_white.png,stimulus/viswhere_stim/60-deg_dot-right_peru.png,stimulus/viswhere_stim/120-deg_dot-right_goldenrod.png,stimulus/viswhere_stim/blank_white.png,stimulus/viswhere_stim/line_box.png,stimulus/viswhere_stim/line_yes.png,stimulus/viswhere_stim/line_no.png,None,Line,None,Dot,2,0.0,0,5.125,0,5.125,0,5.125,0,0.0,0.625,0,0.0,0,0.0,1,0.5,1,2.125,0,0,0,0,0,0,0,0,0,,,,,0,9,9,9,,,,,,,,,114.3624403749709,114.3624403749709,114.3624403749709,114.3624403749709,114.3624403749709,114.3624403749709,114.3624403749709,114.3624403749709,114.34292762468492,114.3624403749709,114.3624403749709,114.3624403749709,114.34292762468492,114.3624403749709,114.3624403749709,114.3624403749709,116.46122704201844,120.44051270798082,114.3624403749709,114.3624403749709,119.50200791697716,114.83855758298887,115.85247479198733,116.46122704201844,117.47726820799289,114.3624403749709,114.3624403749709,114.34292762468492,114.3624403749709,114.3624403749709,114.3624403749709,114.34292762468492,114.3624403749709,114.3624403749709,119.50200791697716,114.3624403749709,119.50200791697716,119.58533833298134,120.21049870800925,114.3624403749709,1,0,2.667151500005275,reldom2_s029,001,2025-03-03_14h28.09.631,Vis-B-Scan_AC,2022.2.5,None,
8,First_Order,2.0,viswhere,stimulus/viswhere_stim/blank_white.png,stimulus/viswhere_stim/blank_white.png,stimulus/viswhere_stim/90-deg_dot-left_turquoise.png,stimulus/viswhere_stim/90-deg_dot-right_peru.png,stimulus/viswhere_stim/blank_white.png,stimulus/viswhere_stim/line_box.png,stimulus/viswhere_stim/line_yes.png,stimulus/viswhere_stim/line_no.png,None,Line,None,Line,1,0.0,0,5.125,0,5.125,0,5.125,0,0.0,0.625,0,0.0,0,0.0,1,0.5,1,2.125,0,0,0,0,0,0,0,0,0,,,,,0,10,10,10,,,,,,,,,120.44051270798082,120.44051270798082,120.44051270798082,120.44051270798082,120.44051270798082,120.44051270798082,120.44051270798082,120.44051270798082,120.42063083332808,120.44051270798082,120.44051270798082,120.44051270798082,120.42063083332808,120.44051270798082,120.44051270798082,120.44051270798082,122.55026666697813,126.50966608297313,120.44051270798082,120.44051270798082,125.57158008299302,120.91952941700583,121.93925412499812,122.55026666697813,123.57241912500467,120.44051270798082,120.44051270798082,120.43729749999474,120.44051270798082,120.44051270798082,120.44051270798082,120.43729749999474,120.44051270798082,120.44051270798082,125.57158008299302,120.44051270798082,125.57158008299302,125.66855945799034,126.29469708300894,120.44051270798082,1,1,1.3445540830143727,reldom2_s029,001,2025-03-03_14h28.09.631,Vis-B-Scan_AC,2022.2.5,None,
9,First_Order,2.0,viswhere,stimulus/viswhere_stim/blank_white.png,stimulus/viswhere_stim/blank_white.png,stimulus/viswhere_stim/60-deg_dot-right_seagreen.png,stimulus/viswhere_stim/120-deg_dot-right_salmon.png,stimulus/viswhere_stim/blank_white.png,stimulus/viswhere_stim/dot_box.png,stimulus/viswhere_stim/dot_yes.png,stimulus/viswhere_stim/dot_no.png,None,Dot,None,Dot,1,0.0,0,5.125,0,5.125,0,5.125,0,0.0,0.625,0,0.0,0,0.0,1,0.5,1,2.125,0,0,0,0,0,0,0,0,0,,,,,0,11,11,11,,,,,,,,,126.50966608297313,126.50966608297313,126.50966608297313,126.50966608297313,126.50966608297313,126.50966608297313,126.50966608297313,126.50966608297313,126.48877600035242,126.50966608297313,126.50966608297313,126.50966608297313,126.48877600035242,126.50966608297313,126.50966608297313,126.50966608297313,128.61045754200313,132.57620520796627,126.50966608297313,126.50966608297313,131.63482379197376,126.9863934579771,128.00040454196278,128.61045754200313,129.62703887501266,126.50966608297313,126.50966608297313,126.50544266701908,126.50966608297313,126.50966608297313,126.50966608297313,126.50544266701908,126.50966608297313,126.50966608297313,131.63482379197376,126.50966608297313,131.63482379197376,131.7327352919965,132.36182695801836,126.50966608297313,1,1,1.0252149170264602,reldom2_s029,001,2025-03-03_14h28.09.631,Vis-B-Scan_AC,2022.2.5,None,
10,First_Order,2.0,viswhere,stimulus/viswhere_stim/blank_white.png,stimulus/viswhere_stim/blank_white.png,stimulus/viswhere_stim/120-deg_dot-right_cyan.png,stimulus/viswhere_stim/120-deg_dot-left_turquoise.png,stimulus/viswhere_stim/blank_white.png,stimulus/viswhere_stim/line_box.png,stimulus/viswhere_stim/line_yes.png,stimulus/viswhere_stim/line_no.png,None,Line,None,Line,1,0.0,0,5.125,0,5.125,0,5.125,0,0.0,0.625,0,0.0,0,0.0,1,0.5,1,2.125,0,0,0,0,0,0,0,0,0,,,,,0,12,12,12,,,,,,,,,132.57620520796627,132.57620520796627,132.57620520796627,132.57620520796627,132.57620520796627,132.57620520796627,132.57620520796627,132.57620520796627,132.55559100032164,132.57620520796627,132.57620520796627,132.57620520796627,132.55559100032164,132.57620520796627,132.57620520796627,132.57620520796627,134.68381804198725,138.7203728329623,132.57620520796627,132.57620520796627,137.69999820797238,133.05550979200052,134.07266308297403,134.68381804198725,135.68856983300066,132.57620520796627,132.57620520796627,132.57225766698832,132.57620520796627,132.57620520796627,132.57620520796627,132.57225766698832,132.57620520796627,132.57620520796627,137.69999820797238,132.57620520796627,137.69999820797238,137.7969359169947,138.4258167920052,132.57620520796627,1,1,1.3171729590394534,reldom2_s029,001,2025-03-03_14h28.09.631,Vis-B-Scan_AC,2022.2.5,None,
0,0.0,None,fixation,stimulus/viswhere_stim/blank_white.png,stimulus/viswhere_stim/blank_white.png,stimulus/viswhat_stim/blank_white.png,stimulus/viswhat_stim/blank_white.png,stimulus/viswhere_stim/blank_white.png,stimulus/viswhere_stim/blank_white.png,stimulus/viswhere_stim/blank_white.png,stimulus/viswhere_stim/blank_white.png,0.0,0.0,0.0,0.0,0,0.0,0,0.0,0,0.0,0,0.0,0,0.0,0.0,0,0.0,0,0.0,0,0.0,0,0.0,0,0,0,0,0,0,0,0,8,,,,,0,13,13,13,,,,,,,,,138.7203728329623,138.7203728329623,138.7203728329623,138.7203728329623,138.7203728329623,138.7203728329623,138.7203728329623,138.7203728329623,138.62271625032494,138.7203728329623,138.7203728329623,138.7203728329623,138.62271625032494,138.7203728329623,138.7203728329623,138.7203728329623,138.7203728329623,138.7203728329623,138.7203728329623,138.7203728329623,138.7203728329623,138.7203728329623,138.7203728329623,138.7203728329623,138.7203728329623,138.7203728329623,138.7203728329623,138.67271625032495,138.7203728329623,138.7203728329623,138.7203728329623,138.67271625032495,138.7203728329623,138.7203728329623,138.7203728329623,138.7203728329623,138.7203728329623,143.91662679199362,143.91662679199362,146.87076129199704,None,0,,reldom2_s029,001,2025-03-03_14h28.09.631,Vis-B-Scan_AC,2022.2.5,None,
11,Second_Order,2.0,viswhere,stimulus/viswhere_stim/120-deg_dot-left_slateblue.png,stimulus/viswhere_stim/60-deg_dot-left_seagreen.png,stimulus/viswhere_stim/90-deg_dot-right_seagreen.png,stimulus/viswhere_stim/30-deg_dot-right_mediumslateblue.png,stimulus/viswhere_stim/match_blank.png,stimulus/viswhere_stim/match_box.png,stimulus/viswhere_stim/match_yes.png,stimulus/viswhere_stim/match_no.png,1.0,Match,Dot,Dot,1,5.125,0,5.125,0,5.125,0,5.125,0,0.75,0.75,1,0.5,1,2.125,1,0.5,1,2.125,0,0,0,0,0,0,0,0,0,,,,,0,14,14,14,,,,,,,,,146.87076129199704,151.99446529196575,147.3541488329647,148.35293175000697,148.97458120796364,149.9734287079773,146.87076129199704,146.87076129199704,146.8844892083163,146.87076129199704,146.87076129199704,146.87076129199704,146.8844892083163,146.87076129199704,151.99446529196575,152.78941229201155,154.8724026249838,158.7562359580188,152.78941229201155,152.78941229201155,157.92664529196918,153.23458454199135,154.2379436250194,154.8724026249838,155.87996074999683,152.78941229201155,152.78941229201155,152.76291325031394,152.78941229201155,152.78941229201155,152.78941229201155,152.76291325031394,152.78941229201155,152.78941229201155,157.92664529196918,152.78941229201155,157.92664529196918,157.98185270797694,158.7562359580188,152.78941229201155,1,1,2.122205000021495,reldom2_s029,001,2025-03-03_14h28.09.631,Vis-B-Scan_AC,2022.2.5,None,
12,Second_Order,2.0,viswhere,stimulus/viswhere_stim/90-deg_dot-right_cyan.png,stimulus/viswhere_stim/90-deg_dot-left_salmon.png,stimulus/viswhere_stim/30-deg_dot-left_goldenrod.png,stimulus/viswhere_stim/60-deg_dot-left_turquoise.png,stimulus/viswhere_stim/match_blank.png,stimulus/viswhere_stim/match_box.png,stimulus/viswhere_stim/match_yes.png,stimulus/viswhere_stim/match_no.png,2.0,Match,Line,Dot,2,5.125,0,5.125,0,5.125,0,5.125,0,0.625,0.625,1,0.5,1,2.125,1,0.5,1,2.125,0,0,0,0,0,0,0,0,0,,,,,0,15,15,15,,,,,,,,,158.7562359580188,163.8774148329976,159.2317154170014,160.23032162501477,160.86976062500617,161.86740979197202,158.7562359580188,158.7562359580188,158.7697308749892,158.7562359580188,158.7562359580188,158.7562359580188,158.7697308749892,158.7562359580188,163.8774148329976,164.54725100001087,166.62203629198484,170.6684534579981,164.54725100001087,164.54725100001087,169.67872583301505,165.01043283299077,166.02857995801605,166.62203629198484,167.6264357920154,164.54725100001087,164.54725100001087,164.52343133331357,164.54725100001087,164.54725100001087,164.54725100001087,164.52343133331357,164.54725100001087,164.54725100001087,169.67872583301505,164.54725100001087,169.67872583301505,169.74864412500756,170.37383062497247,164.54725100001087,2,1,0.8947057080222294,reldom2_s029,001,2025-03-03_14h28.09.631,Vis-B-Scan_AC,2022.2.5,None,
0,0.0,None,fixation,stimulus/viswhere_stim/blank_white.png,stimulus/viswhere_stim/blank_white.png,stimulus/viswhat_stim/blank_white.png,stimulus/viswhat_stim/blank_white.png,stimulus/viswhere_stim/blank_white.png,stimulus/viswhere_stim/blank_white.png,stimulus/viswhere_stim/blank_white.png,stimulus/viswhere_stim/blank_white.png,0.0,0.0,0.0,0.0,0,0.0,0,0.0,0,0.0,0,0.0,0,0.0,0.0,0,0.0,0,0.0,0,0.0,0,0.0,0,0,0,0,0,0,0,0,10,,,,,0,16,16,16,,,,,,,,,170.6684534579981,170.6684534579981,170.6684534579981,170.6684534579981,170.6684534579981,170.6684534579981,170.6684534579981,170.6684534579981,170.56957120834463,170.6684534579981,170.6684534579981,170.6684534579981,170.56957120834463,170.6684534579981,170.6684534579981,170.6684534579981,170.6684534579981,170.6684534579981,170.6684534579981,170.6684534579981,170.6684534579981,170.6684534579981,170.6684534579981,170.6684534579981,170.6684534579981,170.6684534579981,170.6684534579981,170.61957120834464,170.6684534579981,170.6684534579981,170.6684534579981,170.61957120834464,170.6684534579981,170.6684534579981,170.6684534579981,170.6684534579981,170.6684534579981,175.88358116697054,175.88358116697054,180.95561454200651,None,0,,reldom2_s029,001,2025-03-03_14h28.09.631,Vis-B-Scan_AC,2022.2.5,None,
13,First_Order,3.0,viswhat,stimulus/viswhat_stim/blank_white.png,stimulus/viswhat_stim/blank_white.png,stimulus/viswhat_stim/land_animal-moose.png,stimulus/viswhat_stim/water_animal-whale (1).png,stimulus/viswhat_stim/blank_white.png,stimulus/viswhat_stim/type_box.png,stimulus/viswhat_stim/type_yes.png,stimulus/viswhat_stim/type_no.png,None,Type,None,Type,1,0.0,0,5.125,0,5.125,0,5.125,0,0.0,0.625,0,0.0,0,0.0,1,0.5,1,2.125,0,0,0,0,0,0,0,0,0,,,,,0,17,17,17,,,,,,,,,180.95561454200651,180.95561454200651,180.95561454200651,180.95561454200651,180.95561454200651,180.95561454200651,180.95561454200651,180.95561454200651,180.85421549963456,180.95561454200651,180.95561454200651,180.95561454200651,180.85421549963456,180.95561454200651,180.95561454200651,180.95561454200651,183.06336429197108,,180.95561454200651,180.95561454200651,186.16824145801365,181.42318404198159,182.4789369580103,183.06336429197108,184.12183579197153,180.95561454200651,180.95561454200651,180.90421549963455,180.95561454200651,180.95561454200651,180.95561454200651,180.90421549963455,180.95561454200651,180.95561454200651,186.16824145801365,180.95561454200651,186.16824145801365,186.16824145801365,186.99896408297354,180.95561454200651,1,1,1.4639583330135792,reldom2_s029,001,2025-03-03_14h28.09.631,Vis-B-Scan_AC,2022.2.5,None,
14,First_Order,3.0,viswhat,stimulus/viswhat_stim/blank_white.png,stimulus/viswhat_stim/blank_white.png,stimulus/viswhat_stim/land_vehicle-trolley.png,stimulus/viswhat_stim/water_vehicle-jetski.png,stimulus/viswhat_stim/blank_white.png,stimulus/viswhat_stim/location_box.png,stimulus/viswhat_stim/location_yes.png,stimulus/viswhat_stim/location_no.png,None,Location,None,Type,2,0.0,0,5.125,0,5.125,0,5.125,0,0.0,0.625,0,0.0,0,0.0,1,0.5,1,2.125,0,0,0,0,0,0,0,0,0,,,,,0,18,18,18,,,,,,,,,186.99896408297354,186.99896408297354,186.99896408297354,186.99896408297354,186.99896408297354,186.99896408297354,186.99896408297354,186.99896408297354,186.96838983367587,186.99896408297354,186.99896408297354,186.99896408297354,186.96838983367587,186.99896408297354,186.99896408297354,186.99896408297354,189.09210700000403,193.06661995797185,186.99896408297354,186.99896408297354,192.14711016701767,187.47855554200942,188.48594199999934,189.09210700000403,190.10575449996395,186.99896408297354,186.99896408297354,186.98505650034252,186.99896408297354,186.99896408297354,186.99896408297354,186.98505650034252,186.99896408297354,186.99896408297354,192.14711016701767,186.99896408297354,192.14711016701767,192.22447812499013,192.8648740829667,186.99896408297354,2,1,1.789756958023645,reldom2_s029,001,2025-03-03_14h28.09.631,Vis-B-Scan_AC,2022.2.5,None,
15,First_Order,3.0,viswhat,stimulus/viswhat_stim/blank_white.png,stimulus/viswhat_stim/blank_white.png,stimulus/viswhat_stim/land_animal-ostrich.png,stimulus/viswhat_stim/land_vehicle-train.png,stimulus/viswhat_stim/blank_white.png,stimulus/viswhat_stim/location_box.png,stimulus/viswhat_stim/location_yes.png,stimulus/viswhat_stim/location_no.png,None,Location,None,Location,1,0.0,0,5.125,0,5.125,0,5.125,0,0.0,0.625,0,0.0,0,0.0,1,0.5,1,2.125,0,0,0,0,0,0,0,0,0,,,,,0,19,19,19,,,,,,,,,193.06661995797185,193.06661995797185,193.06661995797185,193.06661995797185,193.06661995797185,193.06661995797185,193.06661995797185,193.06661995797185,193.04216612499442,193.06661995797185,193.06661995797185,193.06661995797185,193.04216612499442,193.06661995797185,193.06661995797185,193.06661995797185,195.16610058298102,199.4611897499999,193.06661995797185,193.06661995797185,198.1975993749802,193.5524168749689,194.56842066696845,195.16610058298102,196.18758112500655,193.06661995797185,193.06661995797185,193.05883279166108,193.06661995797185,193.06661995797185,193.06661995797185,193.05883279166108,193.06661995797185,193.06661995797185,198.1975993749802,193.06661995797185,198.1975993749802,198.28418270801194,198.90867633296875,193.06661995797185,1,1,1.2893182080588304,reldom2_s029,001,2025-03-03_14h28.09.631,Vis-B-Scan_AC,2022.2.5,None,
16,First_Order,3.0,viswhat,stimulus/viswhat_stim/blank_white.png,stimulus/viswhat_stim/blank_white.png,stimulus/viswhat_stim/water_animal-lobster.png,stimulus/viswhat_stim/land_animal-moose.png,stimulus/viswhat_stim/blank_white.png,stimulus/viswhat_stim/location_box.png,stimulus/viswhat_stim/location_yes.png,stimulus/viswhat_stim/location_no.png,None,Location,None,Type,2,0.0,0,5.125,0,5.125,0,5.125,0,0.0,0.625,0,0.0,0,0.0,1,0.5,1,2.125,0,0,0,0,0,0,0,0,0,,,,,0,20,20,20,,,,,,,,,199.4611897499999,199.4611897499999,199.4611897499999,199.4611897499999,199.4611897499999,199.4611897499999,199.4611897499999,199.4611897499999,199.09452033330066,199.4611897499999,199.4611897499999,199.4611897499999,199.09452033330066,199.4611897499999,199.4611897499999,199.4611897499999,201.42943904199637,,199.4611897499999,199.4611897499999,204.82689312496223,199.82008329196833,201.0719865830033,201.42943904199637,202.6834362919908,199.4611897499999,199.4611897499999,199.29452033330068,199.4611897499999,199.4611897499999,199.4611897499999,199.29452033330068,199.4611897499999,199.4611897499999,204.82689312496223,199.4611897499999,204.82689312496223,204.6534719580086,,199.4611897499999,2,1,1.955324417038355,reldom2_s029,001,2025-03-03_14h28.09.631,Vis-B-Scan_AC,2022.2.5,None,
0,0.0,None,fixation,stimulus/viswhere_stim/blank_white.png,stimulus/viswhere_stim/blank_white.png,stimulus/viswhat_stim/blank_white.png,stimulus/viswhat_stim/blank_white.png,stimulus/viswhere_stim/blank_white.png,stimulus/viswhere_stim/blank_white.png,stimulus/viswhere_stim/blank_white.png,stimulus/viswhere_stim/blank_white.png,0.0,0.0,0.0,0.0,0,0.0,0,0.0,0,0.0,0,0.0,0,0.0,0.0,0,0.0,0,0.0,0,0.0,0,0.0,0,0,0,0,0,0,0,0,8,,,,,0,21,21,21,,,,,,,,,205.50126704201102,205.50126704201102,205.50126704201102,205.50126704201102,205.50126704201102,205.50126704201102,205.50126704201102,205.50126704201102,205.39991254199995,205.50126704201102,205.50126704201102,205.50126704201102,205.39991254199995,205.50126704201102,205.50126704201102,205.50126704201102,205.50126704201102,205.50126704201102,205.50126704201102,205.50126704201102,205.50126704201102,205.50126704201102,205.50126704201102,205.50126704201102,205.50126704201102,205.50126704201102,205.50126704201102,205.44991254199996,205.50126704201102,205.50126704201102,205.50126704201102,205.44991254199996,205.50126704201102,205.50126704201102,205.50126704201102,205.50126704201102,205.50126704201102,210.7059912919649,210.7059912919649,213.64069541700883,None,0,,reldom2_s029,001,2025-03-03_14h28.09.631,Vis-B-Scan_AC,2022.2.5,None,
17,Second_Order,3.0,viswhat,stimulus/viswhat_stim/land_animal-giraffe.png,stimulus/viswhat_stim/water_animal-stingray.png,stimulus/viswhat_stim/water_animal-squid.png,stimulus/viswhat_stim/water_vehicle-yacht.png,stimulus/viswhere_stim/match_blank.png,stimulus/viswhere_stim/match_box.png,stimulus/viswhere_stim/match_yes.png,stimulus/viswhere_stim/match_no.png,2.0,Match,Type,Location,2,5.125,0,5.125,0,5.125,0,5.125,0,0.75,0.75,1,0.5,1,2.125,1,0.5,1,2.125,0,0,0,0,0,0,0,0,0,,,,,0,22,22,22,,,,,,,,,213.64069541700883,218.7535050419974,214.09160662500653,215.0902638749685,215.7125587919727,216.71079737500986,213.64069541700883,213.64069541700883,213.64095012497856,213.64069541700883,213.64069541700883,213.64069541700883,213.64095012497856,213.64069541700883,218.7535050419974,219.58768854197115,221.67014858301263,225.5769803749863,219.58768854197115,219.58768854197115,224.7384213329642,220.04203533299733,221.06368520797696,221.67014858301263,222.6966663749772,219.58768854197115,219.58768854197115,219.55410504168057,219.58768854197115,219.58768854197115,219.58768854197115,219.55410504168057,219.58768854197115,219.58768854197115,224.7384213329642,219.58768854197115,224.7384213329642,224.77068595797755,,219.58768854197115,2,1,0.7675415410194546,reldom2_s029,001,2025-03-03_14h28.09.631,Vis-B-Scan_AC,2022.2.5,None,
18,Second_Order,3.0,viswhat,stimulus/viswhat_stim/water_animal-whale (1).png,stimulus/viswhat_stim/land_animal-tiger.png,stimulus/viswhat_stim/water_animal-orka.png,stimulus/viswhat_stim/water_vehicle-cargoboat.png,stimulus/viswhere_stim/match_blank.png,stimulus/viswhere_stim/match_box.png,stimulus/viswhere_stim/match_yes.png,stimulus/viswhere_stim/match_no.png,2.0,Match,Type,Location,2,5.125,0,5.125,0,5.125,0,5.125,0,0.625,0.625,1,0.5,1,2.125,1,0.5,1,2.125,0,0,0,0,0,0,0,0,0,,,,,0,23,23,23,,,,,,,,,225.5769803749863,230.69801095797447,226.0362273749779,227.03457937500207,227.65672604198335,228.65560995799024,225.5769803749863,225.5769803749863,225.57968804201812,225.5769803749863,225.5769803749863,225.5769803749863,225.57968804201812,225.5769803749863,230.69801095797447,231.4689754169667,233.5120403749752,,231.4689754169667,231.4689754169667,236.68126074998872,231.86535629199352,232.91861125000287,233.5120403749752,234.5695700829965,231.4689754169667,231.4689754169667,231.4109874579823,231.4689754169667,231.4689754169667,231.4689754169667,231.4109874579823,231.4689754169667,231.4689754169667,236.68126074998872,231.4689754169667,236.68126074998872,236.6210316249635,237.56261154200183,231.4689754169667,2,1,0.8451824170188047,reldom2_s029,001,2025-03-03_14h28.09.631,Vis-B-Scan_AC,2022.2.5,None,
0,0.0,None,fixation,stimulus/viswhere_stim/blank_white.png,stimulus/viswhere_stim/blank_white.png,stimulus/viswhat_stim/blank_white.png,stimulus/viswhat_stim/blank_white.png,stimulus/viswhere_stim/blank_white.png,stimulus/viswhere_stim/blank_white.png,stimulus/viswhere_stim/blank_white.png,stimulus/viswhere_stim/blank_white.png,0.0,0.0,0.0,0.0,0,0.0,0,0.0,0,0.0,0,0.0,0,0.0,0.0,0,0.0,0,0.0,0,0.0,0,0.0,0,0,0,0,0,0,0,0,9,,,,,0,24,24,24,,,,,,,,,237.56261154200183,237.56261154200183,237.56261154200183,237.56261154200183,237.56261154200183,237.56261154200183,237.56261154200183,237.56261154200183,237.46670500030353,237.56261154200183,237.56261154200183,237.56261154200183,237.46670500030353,237.56261154200183,237.56261154200183,237.56261154200183,237.56261154200183,237.56261154200183,237.56261154200183,237.56261154200183,237.56261154200183,237.56261154200183,237.56261154200183,237.56261154200183,237.56261154200183,237.56261154200183,237.56261154200183,237.51670500030355,237.56261154200183,237.56261154200183,237.56261154200183,237.51670500030355,237.56261154200183,237.56261154200183,237.56261154200183,237.56261154200183,237.56261154200183,242.79120174999116,242.79120174999116,246.78494508296717,None,0,,reldom2_s029,001,2025-03-03_14h28.09.631,Vis-B-Scan_AC,2022.2.5,None,
19,First_Order,4.0,viswhat,stimulus/viswhat_stim/blank_white.png,stimulus/viswhat_stim/blank_white.png,stimulus/viswhat_stim/water_animal-dolphin.png,stimulus/viswhat_stim/water_vehicle-canoe.png,stimulus/viswhat_stim/blank_white.png,stimulus/viswhat_stim/type_box.png,stimulus/viswhat_stim/type_yes.png,stimulus/viswhat_stim/type_no.png,None,Type,None,Location,2,0.0,0,5.125,0,5.125,0,5.125,0,0.0,0.625,0,0.0,0,0.0,1,0.5,1,2.125,0,0,0,0,0,0,0,0,0,,,,,0,25,25,25,,,,,,,,,246.78494508296717,246.78494508296717,246.78494508296717,246.78494508296717,246.78494508296717,246.78494508296717,246.78494508296717,246.78494508296717,246.74421512467478,246.78494508296717,246.78494508296717,246.78494508296717,246.74421512467478,246.78494508296717,246.78494508296717,246.78494508296717,248.87246995797614,252.93691462499555,246.78494508296717,246.78494508296717,251.93101025000215,247.24904316698667,248.26482404198032,248.87246995797614,249.89548999996623,246.78494508296717,246.78494508296717,246.76088179134143,246.78494508296717,246.78494508296717,246.78494508296717,246.76088179134143,246.78494508296717,246.78494508296717,251.93101025000215,246.78494508296717,251.93101025000215,252.00156716699712,252.63498041697312,246.78494508296717,2,1,1.4373454170417972,reldom2_s029,001,2025-03-03_14h28.09.631,Vis-B-Scan_AC,2022.2.5,None,
20,First_Order,4.0,viswhat,stimulus/viswhat_stim/blank_white.png,stimulus/viswhat_stim/blank_white.png,stimulus/viswhat_stim/land_animal-elephant.png,stimulus/viswhat_stim/land_vehicle-pickuptruck.png,stimulus/viswhat_stim/blank_white.png,stimulus/viswhat_stim/type_box.png,stimulus/viswhat_stim/type_yes.png,stimulus/viswhat_stim/type_no.png,None,Type,None,Location,2,0.0,0,5.125,0,5.125,0,5.125,0,0.0,0.625,0,0.0,0,0.0,1,0.5,1,2.125,0,0,0,0,0,0,0,0,0,,,,,0,26,26,26,,,,,,,,,252.93691462499555,252.93691462499555,252.93691462499555,252.93691462499555,252.93691462499555,252.93691462499555,252.93691462499555,252.93691462499555,252.82836270800328,252.93691462499555,252.93691462499555,252.93691462499555,252.82836270800328,252.93691462499555,252.93691462499555,252.93691462499555,255.02338754199445,259.21413287497126,252.93691462499555,252.93691462499555,258.11959129199386,253.412155582977,254.486468374962,255.02338754199445,256.1004181249882,252.93691462499555,252.93691462499555,252.87836270800327,252.93691462499555,252.93691462499555,252.93691462499555,252.87836270800327,252.93691462499555,252.93691462499555,258.11959129199386,252.93691462499555,258.11959129199386,258.11959129199386,258.8216047079768,252.93691462499555,2,1,0.9672299170051701,reldom2_s029,001,2025-03-03_14h28.09.631,Vis-B-Scan_AC,2022.2.5,None,
21,First_Order,4.0,viswhat,stimulus/viswhat_stim/blank_white.png,stimulus/viswhat_stim/blank_white.png,stimulus/viswhat_stim/water_vehicle-cruiseship.png,stimulus/viswhat_stim/land_vehicle-oldcar.png,stimulus/viswhat_stim/blank_white.png,stimulus/viswhat_stim/type_box.png,stimulus/viswhat_stim/type_yes.png,stimulus/viswhat_stim/type_no.png,None,Type,None,Type,1,0.0,0,5.125,0,5.125,0,5.125,0,0.0,0.625,0,0.0,0,0.0,1,0.5,1,2.125,0,0,0,0,0,0,0,0,0,,,,,0,27,27,27,,,,,,,,,259.21413287497126,259.21413287497126,259.21413287497126,259.21413287497126,259.21413287497126,259.21413287497126,259.21413287497126,259.21413287497126,258.98827137464343,259.21413287497126,259.21413287497126,259.21413287497126,258.98827137464343,259.21413287497126,259.21413287497126,259.21413287497126,261.29273766698316,265.3581432499923,259.21413287497126,259.21413287497126,264.52244320797035,259.67771174997324,260.832057541993,261.29273766698316,262.44842316699214,259.21413287497126,259.21413287497126,259.1049380413101,259.21413287497126,259.21413287497126,259.21413287497126,259.1049380413101,259.21413287497126,259.21413287497126,264.52244320797035,259.21413287497126,264.52244320797035,264.4127342919819,,259.21413287497126,1,1,1.4913255000137724,reldom2_s029,001,2025-03-03_14h28.09.631,Vis-B-Scan_AC,2022.2.5,None,
22,First_Order,4.0,viswhat,stimulus/viswhat_stim/blank_white.png,stimulus/viswhat_stim/blank_white.png,stimulus/viswhat_stim/water_vehicle-pirateship.png,stimulus/viswhat_stim/water_animal-orka.png,stimulus/viswhat_stim/blank_white.png,stimulus/viswhat_stim/location_box.png,stimulus/viswhat_stim/location_yes.png,stimulus/viswhat_stim/location_no.png,None,Location,None,Location,1,0.0,0,5.125,0,5.125,0,5.125,0,0.0,0.625,0,0.0,0,0.0,1,0.5,1,2.125,0,0,0,0,0,0,0,0,0,,,,,0,28,28,28,,,,,,,,,265.3581432499923,265.3581432499923,265.3581432499923,265.3581432499923,265.3581432499923,265.3581432499923,265.3581432499923,265.3581432499923,265.22779187467336,265.3581432499923,265.3581432499923,265.3581432499923,265.22779187467336,265.3581432499923,265.3581432499923,265.3581432499923,267.4451398749952,271.50430520798545,265.3581432499923,265.3581432499923,270.5491560829687,265.8308363329852,266.9064448749996,267.4451398749952,268.52980341698276,265.3581432499923,265.3581432499923,265.29445854134,265.3581432499923,265.3581432499923,265.3581432499923,265.29445854134,265.3581432499923,265.3581432499923,270.5491560829687,265.3581432499923,270.5491560829687,270.5491560829687,271.2270442500012,265.3581432499923,1,1,1.215913750056643,reldom2_s029,001,2025-03-03_14h28.09.631,Vis-B-Scan_AC,2022.2.5,None,
0,0.0,None,fixation,stimulus/viswhere_stim/blank_white.png,stimulus/viswhere_stim/blank_white.png,stimulus/viswhat_stim/blank_white.png,stimulus/viswhat_stim/blank_white.png,stimulus/viswhere_stim/blank_white.png,stimulus/viswhere_stim/blank_white.png,stimulus/viswhere_stim/blank_white.png,stimulus/viswhere_stim/blank_white.png,0.0,0.0,0.0,0.0,0,0.0,0,0.0,0,0.0,0,0.0,0,0.0,0.0,0,0.0,0,0.0,0,0.0,0,0.0,0,0,0,0,0,0,0,0,10,,,,,0,29,29,29,,,,,,,,,271.50430520798545,271.50430520798545,271.50430520798545,271.50430520798545,271.50430520798545,271.50430520798545,271.50430520798545,271.50430520798545,271.41037758333454,271.50430520798545,271.50430520798545,271.50430520798545,271.41037758333454,271.50430520798545,271.50430520798545,271.50430520798545,271.50430520798545,271.50430520798545,271.50430520798545,271.50430520798545,271.50430520798545,271.50430520798545,271.50430520798545,271.50430520798545,271.50430520798545,271.50430520798545,271.50430520798545,271.4603775833345,271.50430520798545,271.50430520798545,271.50430520798545,271.4603775833345,271.50430520798545,271.50430520798545,271.50430520798545,271.50430520798545,271.50430520798545,276.7153728749836,276.7153728749836,281.6327308329637,None,0,,reldom2_s029,001,2025-03-03_14h28.09.631,Vis-B-Scan_AC,2022.2.5,None,
23,Second_Order,4.0,viswhat,stimulus/viswhat_stim/land_vehicle-pickuptruck.png,stimulus/viswhat_stim/land_animal-lion.png,stimulus/viswhat_stim/water_animal-jellyfish.png,stimulus/viswhat_stim/water_vehicle-cabincruiser.png,stimulus/viswhere_stim/match_blank.png,stimulus/viswhere_stim/match_box.png,stimulus/viswhere_stim/match_yes.png,stimulus/viswhere_stim/match_no.png,1.0,Match,Location,Location,1,5.125,0,5.125,0,5.125,0,5.125,0,0.75,0.75,1,0.5,1,2.125,1,0.5,1,2.125,0,0,0,0,0,0,0,0,0,,,,,0,30,30,30,,,,,,,,,281.6327308329637,286.75574312498793,282.0988126670127,283.0972063749796,283.7195775419823,284.71799291699426,281.6327308329637,281.6327308329637,281.64575775000264,281.6327308329637,281.6327308329637,281.6327308329637,281.64575775000264,281.6327308329637,286.75574312498793,287.60139312496176,289.67901629197877,293.5898711250047,287.60139312496176,287.60139312496176,292.7658271249966,288.0411932080169,289.0788055830053,289.67901629197877,290.72389679198386,287.60139312496176,287.60139312496176,287.55774266664326,287.60139312496176,287.60139312496176,287.60139312496176,287.55774266664326,287.60139312496176,287.60139312496176,292.7658271249966,287.60139312496176,292.7658271249966,292.7658271249966,,287.60139312496176,1,1,2.745541917043738,reldom2_s029,001,2025-03-03_14h28.09.631,Vis-B-Scan_AC,2022.2.5,None,
24,Second_Order,4.0,viswhat,stimulus/viswhat_stim/water_vehicle-pirateship.png,stimulus/viswhat_stim/land_vehicle-oldcar.png,stimulus/viswhat_stim/land_animal-zebra.png,stimulus/viswhat_stim/water_animal-seahorse.png,stimulus/viswhere_stim/match_blank.png,stimulus/viswhere_stim/match_box.png,stimulus/viswhere_stim/match_yes.png,stimulus/viswhere_stim/match_no.png,1.0,Match,Type,Type,1,5.125,0,5.125,0,5.125,0,5.125,0,0.625,0.625,1,0.5,1,2.125,1,0.5,1,2.125,0,0,0,0,0,0,0,0,0,,,,,0,31,31,31,,,,,,,,,293.5898711250047,298.70523541700095,294.0431262499769,295.04206000000704,295.67647470801603,296.66507908300264,293.5898711250047,293.5898711250047,293.6033094586727,293.5898711250047,293.5898711250047,293.5898711250047,293.6033094586727,293.5898711250047,298.70523541700095,299.39179883297766,301.4691149580176,305.51345683296677,299.39179883297766,299.39179883297766,304.53059466701234,299.83523583301576,300.86044666700764,301.4691149580176,302.47686229198007,299.39179883297766,299.39179883297766,299.3684006669908,299.39179883297766,299.39179883297766,299.39179883297766,299.3684006669908,299.39179883297766,299.39179883297766,304.53059466701234,299.39179883297766,304.53059466701234,304.5865397080197,305.2248855829821,299.39179883297766,2,0,2.644045459048357,reldom2_s029,001,2025-03-03_14h28.09.631,Vis-B-Scan_AC,2022.2.5,None,
0,0.0,None,fixation,stimulus/viswhere_stim/blank_white.png,stimulus/viswhere_stim/blank_white.png,stimulus/viswhat_stim/blank_white.png,stimulus/viswhat_stim/blank_white.png,stimulus/viswhere_stim/blank_white.png,stimulus/viswhere_stim/blank_white.png,stimulus/viswhere_stim/blank_white.png,stimulus/viswhere_stim/blank_white.png,0.0,0.0,0.0,0.0,0,0.0,0,0.0,0,0.0,0,0.0,0,0.0,0.0,0,0.0,0,0.0,0,0.0,0,0.0,0,0,0,0,0,0,0,0,9,,,,,0,32,32,32,,,,,,,,,305.51345683296677,305.51345683296677,305.51345683296677,305.51345683296677,305.51345683296677,305.51345683296677,305.51345683296677,305.51345683296677,305.41916491698936,305.51345683296677,305.51345683296677,305.51345683296677,305.41916491698936,305.51345683296677,305.51345683296677,305.51345683296677,305.51345683296677,305.51345683296677,305.51345683296677,305.51345683296677,305.51345683296677,305.51345683296677,305.51345683296677,305.51345683296677,305.51345683296677,305.51345683296677,305.51345683296677,305.46916491698937,305.51345683296677,305.51345683296677,305.51345683296677,305.46916491698937,305.51345683296677,305.51345683296677,305.51345683296677,305.51345683296677,305.51345683296677,310.7433036249713,310.7433036249713,314.72059704200365,None,0,,reldom2_s029,001,2025-03-03_14h28.09.631,Vis-B-Scan_AC,2022.2.5,None,
25,First_Order,5.0,viswhere,stimulus/viswhere_stim/blank_white.png,stimulus/viswhere_stim/blank_white.png,stimulus/viswhere_stim/90-deg_dot-right_seagreen.png,stimulus/viswhere_stim/150-deg_dot-right_turquoise.png,stimulus/viswhere_stim/blank_white.png,stimulus/viswhere_stim/line_box.png,stimulus/viswhere_stim/line_yes.png,stimulus/viswhere_stim/line_no.png,None,Line,None,Dot,2,0.0,0,5.125,0,5.125,0,5.125,0,0.0,0.625,0,0.0,0,0.0,1,0.5,1,2.125,0,0,0,0,0,0,0,0,0,,,,,0,33,33,33,,,,,,,,,314.72059704200365,314.72059704200365,314.72059704200365,314.72059704200365,314.72059704200365,314.72059704200365,314.72059704200365,314.72059704200365,314.7021729586801,314.72059704200365,314.72059704200365,314.72059704200365,314.7021729586801,314.72059704200365,314.72059704200365,314.72059704200365,316.82517658296274,320.78834654198727,314.72059704200365,314.72059704200365,319.84399895800743,315.2041993329767,316.20963870798005,316.82517658296274,317.8346682499978,314.72059704200365,314.72059704200365,314.7021729586801,314.72059704200365,314.72059704200365,314.72059704200365,314.7021729586801,314.72059704200365,314.72059704200365,319.84399895800743,314.72059704200365,319.84399895800743,319.94560812501004,320.5712371249683,314.72059704200365,2,1,1.1048304170253687,reldom2_s029,001,2025-03-03_14h28.09.631,Vis-B-Scan_AC,2022.2.5,None,
26,First_Order,5.0,viswhere,stimulus/viswhere_stim/blank_white.png,stimulus/viswhere_stim/blank_white.png,stimulus/viswhere_stim/150-deg_dot-left_seagreen.png,stimulus/viswhere_stim/150-deg_dot-right_seagreen.png,stimulus/viswhere_stim/blank_white.png,stimulus/viswhere_stim/dot_box.png,stimulus/viswhere_stim/dot_yes.png,stimulus/viswhere_stim/dot_no.png,None,Dot,None,Line,2,0.0,0,5.125,0,5.125,0,5.125,0,0.0,0.625,0,0.0,0,0.0,1,0.5,1,2.125,0,0,0,0,0,0,0,0,0,,,,,0,34,34,34,,,,,,,,,320.78834654198727,320.78834654198727,320.78834654198727,320.78834654198727,320.78834654198727,320.78834654198727,320.78834654198727,320.78834654198727,320.76680816630443,320.78834654198727,320.78834654198727,320.78834654198727,320.76680816630443,320.78834654198727,320.78834654198727,320.78834654198727,322.89655829197727,326.8543293749681,320.78834654198727,320.78834654198727,325.92918320797617,321.2719475000049,322.2784334169701,322.89655829197727,323.911372957984,320.78834654198727,320.78834654198727,320.7834748329711,320.78834654198727,320.78834654198727,320.78834654198727,320.7834748329711,320.78834654198727,320.78834654198727,325.92918320797617,320.78834654198727,325.92918320797617,326.0123158749775,326.63840229198104,320.78834654198727,2,1,1.6984931250335649,reldom2_s029,001,2025-03-03_14h28.09.631,Vis-B-Scan_AC,2022.2.5,None,
27,First_Order,5.0,viswhere,stimulus/viswhere_stim/blank_white.png,stimulus/viswhere_stim/blank_white.png,stimulus/viswhere_stim/90-deg_dot-left_turquoise.png,stimulus/viswhere_stim/90-deg_dot-right_seagreen.png,stimulus/viswhere_stim/blank_white.png,stimulus/viswhere_stim/line_box.png,stimulus/viswhere_stim/line_yes.png,stimulus/viswhere_stim/line_no.png,None,Line,None,Line,1,0.0,0,5.125,0,5.125,0,5.125,0,0.0,0.625,0,0.0,0,0.0,1,0.5,1,2.125,0,0,0,0,0,0,0,0,0,,,,,0,35,35,35,,,,,,,,,326.8543293749681,326.8543293749681,326.8543293749681,326.8543293749681,326.8543293749681,326.8543293749681,326.8543293749681,326.8543293749681,326.8333395003186,326.8543293749681,326.8543293749681,326.8543293749681,326.8333395003186,326.8543293749681,326.8543293749681,326.8543293749681,328.95413770800224,332.92250250000507,326.8543293749681,326.8543293749681,331.99305583297973,327.3362090419978,328.3396253329702,328.95413770800224,329.9632782500121,326.8543293749681,326.8543293749681,326.8500061669852,326.8543293749681,326.8543293749681,326.8543293749681,326.8500061669852,326.8543293749681,326.8543293749681,331.99305583297973,326.8543293749681,331.99305583297973,332.0764422499924,332.70799316698685,326.8543293749681,1,1,1.0754822079907171,reldom2_s029,001,2025-03-03_14h28.09.631,Vis-B-Scan_AC,2022.2.5,None,
28,First_Order,5.0,viswhere,stimulus/viswhere_stim/blank_white.png,stimulus/viswhere_stim/blank_white.png,stimulus/viswhere_stim/120-deg_dot-right_mediumslateblue.png,stimulus/viswhere_stim/90-deg_dot-right_lightsseagreen.png,stimulus/viswhere_stim/blank_white.png,stimulus/viswhere_stim/dot_box.png,stimulus/viswhere_stim/dot_yes.png,stimulus/viswhere_stim/dot_no.png,None,Dot,None,Dot,1,0.0,0,5.125,0,5.125,0,5.125,0,0.0,0.625,0,0.0,0,0.0,1,0.5,1,2.125,0,0,0,0,0,0,0,0,0,,,,,0,36,36,36,,,,,,,,,332.92250250000507,332.92250250000507,332.92250250000507,332.92250250000507,332.92250250000507,332.92250250000507,332.92250250000507,332.92250250000507,332.90200991633657,332.92250250000507,332.92250250000507,332.92250250000507,332.90200991633657,332.92250250000507,332.92250250000507,332.92250250000507,335.03026924998267,339.0634586249944,332.92250250000507,332.92250250000507,338.0478019170114,333.4019972499809,334.419313374965,335.03026924998267,336.03208062500926,332.92250250000507,332.92250250000507,332.9186765830032,332.92250250000507,332.92250250000507,332.92250250000507,332.9186765830032,332.92250250000507,332.92250250000507,338.0478019170114,332.92250250000507,338.0478019170114,338.1446299579693,338.7719218750135,332.92250250000507,1,1,1.3254273750353605,reldom2_s029,001,2025-03-03_14h28.09.631,Vis-B-Scan_AC,2022.2.5,None,
0,0.0,None,fixation,stimulus/viswhere_stim/blank_white.png,stimulus/viswhere_stim/blank_white.png,stimulus/viswhat_stim/blank_white.png,stimulus/viswhat_stim/blank_white.png,stimulus/viswhere_stim/blank_white.png,stimulus/viswhere_stim/blank_white.png,stimulus/viswhere_stim/blank_white.png,stimulus/viswhere_stim/blank_white.png,0.0,0.0,0.0,0.0,0,0.0,0,0.0,0,0.0,0,0.0,0,0.0,0.0,0,0.0,0,0.0,0,0.0,0,0.0,0,0,0,0,0,0,0,0,10,,,,,0,37,37,37,,,,,,,,,339.0634586249944,339.0634586249944,339.0634586249944,339.0634586249944,339.0634586249944,339.0634586249944,339.0634586249944,339.0634586249944,338.96604895832326,339.0634586249944,339.0634586249944,339.0634586249944,338.96604895832326,339.0634586249944,339.0634586249944,339.0634586249944,339.0634586249944,339.0634586249944,339.0634586249944,339.0634586249944,339.0634586249944,339.0634586249944,339.0634586249944,339.0634586249944,339.0634586249944,339.0634586249944,339.0634586249944,339.01604895832327,339.0634586249944,339.0634586249944,339.0634586249944,339.01604895832327,339.0634586249944,339.0634586249944,339.0634586249944,339.0634586249944,339.0634586249944,344.27035287499893,344.27035287499893,349.21601754199946,None,0,,reldom2_s029,001,2025-03-03_14h28.09.631,Vis-B-Scan_AC,2022.2.5,None,
29,Second_Order,5.0,viswhere,stimulus/viswhere_stim/30-deg_dot-right_peru.png,stimulus/viswhere_stim/120-deg_dot-right_royalblue.png,stimulus/viswhere_stim/120-deg_dot-left_lightsseagreen.png,stimulus/viswhere_stim/90-deg_dot-left_seagreen.png,stimulus/viswhere_stim/match_blank.png,stimulus/viswhere_stim/match_box.png,stimulus/viswhere_stim/match_yes.png,stimulus/viswhere_stim/match_no.png,1.0,Match,Dot,Dot,1,5.125,0,5.125,0,5.125,0,5.125,0,0.75,0.75,1,0.5,1,2.125,1,0.5,1,2.125,0,0,0,0,0,0,0,0,0,,,,,0,38,38,38,,,,,,,,,349.21601754199946,354.33386766701005,349.70098504197085,350.6907106669969,351.3256922920118,352.32380962499883,349.21601754199946,349.21601754199946,349.23028325030657,349.21601754199946,349.21601754199946,349.21601754199946,349.23028325030657,349.21601754199946,354.33386766701005,355.12500154197915,357.21047087496845,361.0931112499675,355.12500154197915,355.12500154197915,360.26364124997053,355.5722975829849,356.57562466699164,357.21047087496845,358.2203140420024,355.12500154197915,355.12500154197915,355.10033775034435,355.12500154197915,355.12500154197915,355.12500154197915,355.10033775034435,355.12500154197915,355.12500154197915,360.26364124997053,355.12500154197915,360.26364124997053,360.319311750005,361.0931112499675,355.12500154197915,1,1,0.9475698340684175,reldom2_s029,001,2025-03-03_14h28.09.631,Vis-B-Scan_AC,2022.2.5,None,
30,Second_Order,5.0,viswhere,stimulus/viswhere_stim/60-deg_dot-right_seagreen.png,stimulus/viswhere_stim/60-deg_dot-left_slateblue.png,stimulus/viswhere_stim/120-deg_dot-left_seagreen.png,stimulus/viswhere_stim/30-deg_dot-left_cyan.png,stimulus/viswhere_stim/match_blank.png,stimulus/viswhere_stim/match_box.png,stimulus/viswhere_stim/match_yes.png,stimulus/viswhere_stim/match_no.png,2.0,Match,Line,Dot,2,5.125,0,5.125,0,5.125,0,5.125,0,0.625,0.625,1,0.5,1,2.125,1,0.5,1,2.125,0,0,0,0,0,0,0,0,0,,,,,0,39,39,39,,,,,,,,,361.0931112499675,366.21059466700535,361.57877154200105,362.56932387501,363.2036785829696,364.2016560829943,361.0931112499675,361.0931112499675,361.1066630829708,361.0931112499675,361.0931112499675,361.0931112499675,361.1066630829708,361.0931112499675,366.21059466700535,366.8805667079869,368.95995383296395,372.99821070797043,366.8805667079869,366.8805667079869,372.0078149579931,367.34409258299274,368.3464330830029,368.95995383296395,369.9683925419813,366.8805667079869,366.8805667079869,366.8574959583425,366.8805667079869,366.8805667079869,366.8805667079869,366.8574959583425,366.8805667079869,366.8805667079869,372.0078149579931,366.8805667079869,372.0078149579931,372.0764495829935,372.7035462919739,366.8805667079869,2,1,0.6818006249959581,reldom2_s029,001,2025-03-03_14h28.09.631,Vis-B-Scan_AC,2022.2.5,None,
0,0.0,None,fixation,stimulus/viswhere_stim/blank_white.png,stimulus/viswhere_stim/blank_white.png,stimulus/viswhat_stim/blank_white.png,stimulus/viswhat_stim/blank_white.png,stimulus/viswhere_stim/blank_white.png,stimulus/viswhere_stim/blank_white.png,stimulus/viswhere_stim/blank_white.png,stimulus/viswhere_stim/blank_white.png,0.0,0.0,0.0,0.0,0,0.0,0,0.0,0,0.0,0,0.0,0,0.0,0.0,0,0.0,0,0.0,0,0.0,0,0.0,0,0,0,0,0,0,0,0,9,,,,,0,40,40,40,,,,,,,,,372.99821070797043,372.99821070797043,372.99821070797043,372.99821070797043,372.99821070797043,372.99821070797043,372.99821070797043,372.99821070797043,372.8975183753258,372.99821070797043,372.99821070797043,372.99821070797043,372.8975183753258,372.99821070797043,372.99821070797043,372.99821070797043,372.99821070797043,372.99821070797043,372.99821070797043,372.99821070797043,372.99821070797043,372.99821070797043,372.99821070797043,372.99821070797043,372.99821070797043,372.99821070797043,372.99821070797043,372.9475183753258,372.99821070797043,372.99821070797043,372.99821070797043,372.9475183753258,372.99821070797043,372.99821070797043,372.99821070797043,372.99821070797043,372.99821070797043,378.1932198330178,378.1932198330178,382.1796894170111,None,0,,reldom2_s029,001,2025-03-03_14h28.09.631,Vis-B-Scan_AC,2022.2.5,None,
31,First_Order,6.0,viswhere,stimulus/viswhere_stim/blank_white.png,stimulus/viswhere_stim/blank_white.png,stimulus/viswhere_stim/120-deg_dot-left_royalblue.png,stimulus/viswhere_stim/30-deg_dot-left_goldenrod.png,stimulus/viswhere_stim/blank_white.png,stimulus/viswhere_stim/dot_box.png,stimulus/viswhere_stim/dot_yes.png,stimulus/viswhere_stim/dot_no.png,None,Dot,None,Dot,1,0.0,0,5.125,0,5.125,0,5.125,0,0.0,0.625,0,0.0,0,0.0,1,0.5,1,2.125,0,0,0,0,0,0,0,0,0,,,,,0,41,41,41,,,,,,,,,382.1796894170111,382.1796894170111,382.1796894170111,382.1796894170111,382.1796894170111,382.1796894170111,382.1796894170111,382.1796894170111,382.16001404168003,382.1796894170111,382.1796894170111,382.1796894170111,382.16001404168003,382.1796894170111,382.1796894170111,382.1796894170111,384.2833189580124,388.24638887500623,382.1796894170111,382.1796894170111,387.31491737498436,382.65839408297325,383.67254945798777,384.2833189580124,385.30127037497004,382.1796894170111,382.1796894170111,382.16001404168003,382.1796894170111,382.1796894170111,382.1796894170111,382.16001404168003,382.1796894170111,382.1796894170111,387.31491737498436,382.1796894170111,387.31491737498436,387.39830529200844,388.0295373330009,382.1796894170111,1,1,2.7169688750291243,reldom2_s029,001,2025-03-03_14h28.09.631,Vis-B-Scan_AC,2022.2.5,None,
32,First_Order,6.0,viswhere,stimulus/viswhere_stim/blank_white.png,stimulus/viswhere_stim/blank_white.png,stimulus/viswhere_stim/150-deg_dot-left_salmon.png,stimulus/viswhere_stim/150-deg_dot-right_salmon.png,stimulus/viswhere_stim/blank_white.png,stimulus/viswhere_stim/dot_box.png,stimulus/viswhere_stim/dot_yes.png,stimulus/viswhere_stim/dot_no.png,None,Dot,None,Line,2,0.0,0,5.125,0,5.125,0,5.125,0,0.0,0.625,0,0.0,0,0.0,1,0.5,1,2.125,0,0,0,0,0,0,0,0,0,,,,,0,42,42,42,,,,,,,,,388.24638887500623,388.24638887500623,388.24638887500623,388.24638887500623,388.24638887500623,388.24638887500623,388.24638887500623,388.24638887500623,388.22529212532874,388.24638887500623,388.24638887500623,388.24638887500623,388.22529212532874,388.24638887500623,388.24638887500623,388.24638887500623,390.353895541979,394.3155680419877,388.24638887500623,388.24638887500623,393.3812615830102,388.7304700000095,389.73675387498224,390.353895541979,391.3660713749705,388.24638887500623,388.24638887500623,388.2419587919954,388.24638887500623,388.24638887500623,388.24638887500623,388.2419587919954,388.24638887500623,388.24638887500623,393.3812615830102,388.24638887500623,393.3812615830102,393.4654743329738,394.09996816696366,388.24638887500623,2,1,1.5147601659991778,reldom2_s029,001,2025-03-03_14h28.09.631,Vis-B-Scan_AC,2022.2.5,None,
33,First_Order,6.0,viswhere,stimulus/viswhere_stim/blank_white.png,stimulus/viswhere_stim/blank_white.png,stimulus/viswhere_stim/150-deg_dot-left_cyan.png,stimulus/viswhere_stim/150-deg_dot-right_seagreen.png,stimulus/viswhere_stim/blank_white.png,stimulus/viswhere_stim/line_box.png,stimulus/viswhere_stim/line_yes.png,stimulus/viswhere_stim/line_no.png,None,Line,None,Line,1,0.0,0,5.125,0,5.125,0,5.125,0,0.0,0.625,0,0.0,0,0.0,1,0.5,1,2.125,0,0,0,0,0,0,0,0,0,,,,,0,43,43,43,,,,,,,,,394.3155680419877,394.3155680419877,394.3155680419877,394.3155680419877,394.3155680419877,394.3155680419877,394.3155680419877,394.3155680419877,394.2941951663427,394.3155680419877,394.3155680419877,394.3155680419877,394.2941951663427,394.3155680419877,394.3155680419877,394.3155680419877,396.42953870800557,400.3767969579785,394.3155680419877,394.3155680419877,399.44882350001717,394.8000017919694,395.8099125419976,396.42953870800557,397.4436111669638,394.3155680419877,394.3155680419877,394.31086183300937,394.3155680419877,394.3155680419877,394.3155680419877,394.31086183300937,394.3155680419877,394.3155680419877,399.44882350001717,394.3155680419877,399.44882350001717,399.5473335830029,400.17485504201613,394.3155680419877,1,1,1.5523655410506763,reldom2_s029,001,2025-03-03_14h28.09.631,Vis-B-Scan_AC,2022.2.5,None,
34,First_Order,6.0,viswhere,stimulus/viswhere_stim/blank_white.png,stimulus/viswhere_stim/blank_white.png,stimulus/viswhere_stim/150-deg_dot-right_cyan.png,stimulus/viswhere_stim/120-deg_dot-right_cyan.png,stimulus/viswhere_stim/blank_white.png,stimulus/viswhere_stim/line_box.png,stimulus/viswhere_stim/line_yes.png,stimulus/viswhere_stim/line_no.png,None,Line,None,Dot,2,0.0,0,5.125,0,5.125,0,5.125,0,0.0,0.625,0,0.0,0,0.0,1,0.5,1,2.125,0,0,0,0,0,0,0,0,0,,,,,0,44,44,44,,,,,,,,,400.3767969579785,400.3767969579785,400.3767969579785,400.3767969579785,400.3767969579785,400.3767969579785,400.3767969579785,400.3767969579785,400.35547729129513,400.3767969579785,400.3767969579785,400.3767969579785,400.35547729129513,400.3767969579785,400.3767969579785,400.3767969579785,402.47912133298814,406.51512541697593,400.3767969579785,400.3767969579785,405.51513208297547,400.85888154199347,401.86338704201626,402.47912133298814,403.4884290419868,400.3767969579785,400.3767969579785,400.3721439579618,400.3767969579785,400.3767969579785,400.3767969579785,400.3721439579618,400.3767969579785,400.3767969579785,405.51513208297547,400.3767969579785,405.51513208297547,405.59984429198084,406.2221292919712,400.3767969579785,2,1,0.8835490840720013,reldom2_s029,001,2025-03-03_14h28.09.631,Vis-B-Scan_AC,2022.2.5,None,
0,0.0,None,fixation,stimulus/viswhere_stim/blank_white.png,stimulus/viswhere_stim/blank_white.png,stimulus/viswhat_stim/blank_white.png,stimulus/viswhat_stim/blank_white.png,stimulus/viswhere_stim/blank_white.png,stimulus/viswhere_stim/blank_white.png,stimulus/viswhere_stim/blank_white.png,stimulus/viswhere_stim/blank_white.png,0.0,0.0,0.0,0.0,0,0.0,0,0.0,0,0.0,0,0.0,0,0.0,0.0,0,0.0,0,0.0,0,0.0,0,0.0,0,0,0,0,0,0,0,0,8,,,,,0,45,45,45,,,,,,,,,406.51512541697593,406.51512541697593,406.51512541697593,406.51512541697593,406.51512541697593,406.51512541697593,406.51512541697593,406.51512541697593,406.4170187503526,406.51512541697593,406.51512541697593,406.51512541697593,406.4170187503526,406.51512541697593,406.51512541697593,406.51512541697593,406.51512541697593,406.51512541697593,406.51512541697593,406.51512541697593,406.51512541697593,406.51512541697593,406.51512541697593,406.51512541697593,406.51512541697593,406.51512541697593,406.51512541697593,406.4670187503526,406.51512541697593,406.51512541697593,406.51512541697593,406.4670187503526,406.51512541697593,406.51512541697593,406.51512541697593,406.51512541697593,406.51512541697593,411.72461554198526,411.72461554198526,414.6346821669722,None,0,,reldom2_s029,001,2025-03-03_14h28.09.631,Vis-B-Scan_AC,2022.2.5,None,
35,Second_Order,6.0,viswhere,stimulus/viswhere_stim/60-deg_dot-right_cyan.png,stimulus/viswhere_stim/60-deg_dot-left_goldenrod.png,stimulus/viswhere_stim/150-deg_dot-left_salmon.png,stimulus/viswhere_stim/150-deg_dot-right_goldenrod.png,stimulus/viswhere_stim/match_blank.png,stimulus/viswhere_stim/match_box.png,stimulus/viswhere_stim/match_yes.png,stimulus/viswhere_stim/match_no.png,1.0,Match,Line,Line,1,5.125,0,5.125,0,5.125,0,5.125,0,0.75,0.75,1,0.5,1,2.125,1,0.5,1,2.125,0,0,0,0,0,0,0,0,0,,,,,0,46,46,46,,,,,,,,,414.6346821669722,419.7516636669752,415.1060208749841,416.092410458019,416.74378262500977,417.74193083296996,414.6346821669722,414.6346821669722,414.6482557913133,414.6346821669722,414.6346821669722,414.6346821669722,414.6482557913133,414.6346821669722,419.7516636669752,420.5468102080049,422.61718595796265,426.5138994579902,420.5468102080049,420.5468102080049,425.66820299997926,420.9984069580096,422.01419874996645,422.61718595796265,423.6376266250154,420.5468102080049,420.5468102080049,420.53532262496884,420.5468102080049,420.5468102080049,420.5468102080049,420.53532262496884,420.5468102080049,420.5468102080049,425.66820299997926,420.5468102080049,425.66820299997926,425.74300437496277,426.5138994579902,420.5468102080049,2,0,1.1502030410338193,reldom2_s029,001,2025-03-03_14h28.09.631,Vis-B-Scan_AC,2022.2.5,None,
36,Second_Order,6.0,viswhere,stimulus/viswhere_stim/120-deg_dot-right_slateblue.png,stimulus/viswhere_stim/120-deg_dot-left_royalblue.png,stimulus/viswhere_stim/150-deg_dot-right_royalblue.png,stimulus/viswhere_stim/150-deg_dot-left_salmon.png,stimulus/viswhere_stim/match_blank.png,stimulus/viswhere_stim/match_box.png,stimulus/viswhere_stim/match_yes.png,stimulus/viswhere_stim/match_no.png,1.0,Match,Line,Line,1,5.125,0,5.125,0,5.125,0,5.125,0,0.625,0.625,1,0.5,1,2.125,1,0.5,1,2.125,0,0,0,0,0,0,0,0,0,,,,,0,47,47,47,,,,,,,,,426.5138994579902,431.62797525001224,427.00055175001035,427.99887820798904,428.6211837080191,429.619111292006,426.5138994579902,426.5138994579902,426.52770462499467,426.5138994579902,426.5138994579902,426.5138994579902,426.52770462499467,426.5138994579902,431.62797525001224,432.29919941700064,434.3827554580057,438.4100629579625,432.29919941700064,432.29919941700064,437.42459633300314,432.748999457981,433.76172125001904,434.3827554580057,435.39796795800794,432.29919941700064,432.29919941700064,432.2753776663526,432.29919941700064,432.29919941700064,432.29919941700064,432.2753776663526,432.29919941700064,432.29919941700064,437.42459633300314,432.29919941700064,437.42459633300314,437.4948194170138,438.1295348330168,432.29919941700064,2,0,1.3355348750483245,reldom2_s029,001,2025-03-03_14h28.09.631,Vis-B-Scan_AC,2022.2.5,None,
0,0.0,None,fixation,stimulus/viswhere_stim/blank_white.png,stimulus/viswhere_stim/blank_white.png,stimulus/viswhat_stim/blank_white.png,stimulus/viswhat_stim/blank_white.png,stimulus/viswhere_stim/blank_white.png,stimulus/viswhere_stim/blank_white.png,stimulus/viswhere_stim/blank_white.png,stimulus/viswhere_stim/blank_white.png,0.0,0.0,0.0,0.0,0,0.0,0,0.0,0,0.0,0,0.0,0,0.0,0.0,0,0.0,0,0.0,0,0.0,0,0.0,0,0,0,0,0,0,0,0,10,,,,,0,48,48,48,,,,,,,,,438.4100629579625,438.4100629579625,438.4100629579625,438.4100629579625,438.4100629579625,438.4100629579625,438.4100629579625,438.4100629579625,438.30999554131023,438.4100629579625,438.4100629579625,438.4100629579625,438.30999554131023,438.4100629579625,438.4100629579625,438.4100629579625,438.4100629579625,438.4100629579625,438.4100629579625,438.4100629579625,438.4100629579625,438.4100629579625,438.4100629579625,438.4100629579625,438.4100629579625,438.4100629579625,438.4100629579625,438.35999554131024,438.4100629579625,438.4100629579625,438.4100629579625,438.35999554131024,438.4100629579625,438.4100629579625,438.4100629579625,438.4100629579625,438.4100629579625,443.6043488329742,443.6043488329742,448.681502582971,None,0,,reldom2_s029,001,2025-03-03_14h28.09.631,Vis-B-Scan_AC,2022.2.5,None,
37,First_Order,7.0,viswhat,stimulus/viswhat_stim/blank_white.png,stimulus/viswhat_stim/blank_white.png,stimulus/viswhat_stim/water_vehicle-sailboat.png,stimulus/viswhat_stim/land_vehicle-bus.png,stimulus/viswhat_stim/blank_white.png,stimulus/viswhat_stim/location_box.png,stimulus/viswhat_stim/location_yes.png,stimulus/viswhat_stim/location_no.png,None,Location,None,Type,2,0.0,0,5.125,0,5.125,0,5.125,0,0.0,0.625,0,0.0,0,0.0,1,0.5,1,2.125,0,0,0,0,0,0,0,0,0,,,,,0,49,49,49,,,,,,,,,448.681502582971,448.681502582971,448.681502582971,448.681502582971,448.681502582971,448.681502582971,448.681502582971,448.681502582971,448.5898473336516,448.681502582971,448.681502582971,448.681502582971,448.5898473336516,448.681502582971,448.681502582971,448.681502582971,450.76398520800285,454.816573292017,448.681502582971,448.681502582971,453.8535620420007,449.16226645797724,450.2324291669647,450.76398520800285,451.8318888329668,448.681502582971,448.681502582971,448.63984733365163,448.681502582971,448.681502582971,448.681502582971,448.63984733365163,448.681502582971,448.681502582971,453.8535620420007,448.681502582971,453.8535620420007,453.90114608296426,454.56523050001124,448.681502582971,2,1,2.1080123750143684,reldom2_s029,001,2025-03-03_14h28.09.631,Vis-B-Scan_AC,2022.2.5,None,
38,First_Order,7.0,viswhat,stimulus/viswhat_stim/blank_white.png,stimulus/viswhat_stim/blank_white.png,stimulus/viswhat_stim/land_vehicle-tank.png,stimulus/viswhat_stim/land_animal-elephant.png,stimulus/viswhat_stim/blank_white.png,stimulus/viswhat_stim/type_box.png,stimulus/viswhat_stim/type_yes.png,stimulus/viswhat_stim/type_no.png,None,Type,None,Location,2,0.0,0,5.125,0,5.125,0,5.125,0,0.0,0.625,0,0.0,0,0.0,1,0.5,1,2.125,0,0,0,0,0,0,0,0,0,,,,,0,50,50,50,,,,,,,,,454.816573292017,454.816573292017,454.816573292017,454.816573292017,454.816573292017,454.816573292017,454.816573292017,454.816573292017,454.7152305000112,454.816573292017,454.816573292017,454.816573292017,454.7152305000112,454.816573292017,454.816573292017,454.816573292017,456.8956493330188,460.8988378329668,454.816573292017,454.816573292017,460.01984941697447,455.27857774996664,456.31942170800176,456.8956493330188,457.943047208013,454.816573292017,454.816573292017,454.7652305000112,454.816573292017,454.816573292017,454.816573292017,454.7652305000112,454.816573292017,454.816573292017,460.01984941697447,454.816573292017,460.01984941697447,460.01984941697447,460.69810662500095,454.816573292017,2,1,0.8900242089875974,reldom2_s029,001,2025-03-03_14h28.09.631,Vis-B-Scan_AC,2022.2.5,None,
39,First_Order,7.0,viswhat,stimulus/viswhat_stim/blank_white.png,stimulus/viswhat_stim/blank_white.png,stimulus/viswhat_stim/land_animal-ostrich.png,stimulus/viswhat_stim/water_animal-whale.png,stimulus/viswhat_stim/blank_white.png,stimulus/viswhat_stim/location_box.png,stimulus/viswhat_stim/location_yes.png,stimulus/viswhat_stim/location_no.png,None,Location,None,Type,2,0.0,0,5.125,0,5.125,0,5.125,0,0.0,0.625,0,0.0,0,0.0,1,0.5,1,2.125,0,0,0,0,0,0,0,0,0,,,,,0,51,51,51,,,,,,,,,460.8988378329668,460.8988378329668,460.8988378329668,460.8988378329668,460.8988378329668,460.8988378329668,460.8988378329668,460.8988378329668,460.8647732916676,460.8988378329668,460.8988378329668,460.8988378329668,460.8647732916676,460.8988378329668,460.8988378329668,460.8988378329668,462.9974275419954,466.96953729196684,460.8988378329668,460.8988378329668,466.050986874965,461.3687994169886,462.39175458298996,462.9974275419954,464.0268649170175,460.8988378329668,460.8988378329668,460.8814399583343,460.8988378329668,460.8988378329668,460.8988378329668,460.8814399583343,460.8988378329668,460.8988378329668,466.050986874965,460.8988378329668,466.050986874965,466.1170864169835,466.75123470800463,460.8988378329668,2,1,1.3046988330315799,reldom2_s029,001,2025-03-03_14h28.09.631,Vis-B-Scan_AC,2022.2.5,None,
40,First_Order,7.0,viswhat,stimulus/viswhat_stim/blank_white.png,stimulus/viswhat_stim/blank_white.png,stimulus/viswhat_stim/land_vehicle-truck.png,stimulus/viswhat_stim/land_animal-fox.png,stimulus/viswhat_stim/blank_white.png,stimulus/viswhat_stim/location_box.png,stimulus/viswhat_stim/location_yes.png,stimulus/viswhat_stim/location_no.png,None,Location,None,Location,1,0.0,0,5.125,0,5.125,0,5.125,0,0.0,0.625,0,0.0,0,0.0,1,0.5,1,2.125,0,0,0,0,0,0,0,0,0,,,,,0,52,52,52,,,,,,,,,466.96953729196684,466.96953729196684,466.96953729196684,466.96953729196684,466.96953729196684,466.96953729196684,466.96953729196684,466.96953729196684,466.93861520799106,466.96953729196684,466.96953729196684,466.96953729196684,466.93861520799106,466.96953729196684,466.96953729196684,466.96953729196684,469.0616569169797,473.1157442079857,466.96953729196684,466.96953729196684,472.1034326250083,467.4388611249742,468.450920082978,469.0616569169797,470.07881508301944,466.96953729196684,466.96953729196684,466.95528187465777,466.96953729196684,466.96953729196684,466.96953729196684,466.95528187465777,466.96953729196684,466.96953729196684,472.1034326250083,466.96953729196684,472.1034326250083,472.1935558330151,472.82070683297934,466.96953729196684,1,1,3.110390832996927,reldom2_s029,001,2025-03-03_14h28.09.631,Vis-B-Scan_AC,2022.2.5,None,
0,0.0,None,fixation,stimulus/viswhere_stim/blank_white.png,stimulus/viswhere_stim/blank_white.png,stimulus/viswhat_stim/blank_white.png,stimulus/viswhat_stim/blank_white.png,stimulus/viswhere_stim/blank_white.png,stimulus/viswhere_stim/blank_white.png,stimulus/viswhere_stim/blank_white.png,stimulus/viswhere_stim/blank_white.png,0.0,0.0,0.0,0.0,0,0.0,0,0.0,0,0.0,0,0.0,0,0.0,0.0,0,0.0,0,0.0,0,0.0,0,0.0,0,0,0,0,0,0,0,0,8,,,,,0,53,53,53,,,,,,,,,473.1157442079857,473.1157442079857,473.1157442079857,473.1157442079857,473.1157442079857,473.1157442079857,473.1157442079857,473.1157442079857,473.00984870830627,473.1157442079857,473.1157442079857,473.1157442079857,473.00984870830627,473.1157442079857,473.1157442079857,473.1157442079857,473.1157442079857,473.1157442079857,473.1157442079857,473.1157442079857,473.1157442079857,473.1157442079857,473.1157442079857,473.1157442079857,473.1157442079857,473.1157442079857,473.1157442079857,473.0765153749729,473.1157442079857,473.1157442079857,473.1157442079857,473.0765153749729,473.1157442079857,473.1157442079857,473.1157442079857,473.1157442079857,473.1157442079857,478.3356107500149,478.3356107500149,481.2560807080008,None,0,,reldom2_s029,001,2025-03-03_14h28.09.631,Vis-B-Scan_AC,2022.2.5,None,
41,Second_Order,7.0,viswhat,stimulus/viswhat_stim/water_animal-whale (1).png,stimulus/viswhat_stim/water_vehicle-canoe(1).png,stimulus/viswhat_stim/land_animal-tiger.png,stimulus/viswhat_stim/land_vehicle-train.png,stimulus/viswhere_stim/match_blank.png,stimulus/viswhere_stim/match_box.png,stimulus/viswhere_stim/match_yes.png,stimulus/viswhere_stim/match_no.png,1.0,Match,Location,Location,1,5.125,0,5.125,0,5.125,0,5.125,0,0.75,0.75,1,0.5,1,2.125,1,0.5,1,2.125,0,0,0,0,0,0,0,0,0,,,,,0,54,54,54,,,,,,,,,481.2560807080008,486.37252783298027,481.7267112499685,482.7254063329892,483.3477469169884,484.3461747079855,481.2560807080008,481.2560807080008,481.2625827913017,481.2560807080008,481.2560807080008,481.2560807080008,481.2625827913017,481.2560807080008,486.37252783298027,487.1951498329872,489.2498254579841,,487.1951498329872,487.1951498329872,492.35241658298764,487.63391979201697,488.6777337079984,489.2498254579841,490.2986189170042,487.1951498329872,487.1951498329872,487.17299154163726,487.1951498329872,487.1951498329872,487.1951498329872,487.17299154163726,487.1951498329872,487.1951498329872,492.35241658298764,487.1951498329872,492.35241658298764,492.3807067499729,,487.1951498329872,1,1,1.1011817500111647,reldom2_s029,001,2025-03-03_14h28.09.631,Vis-B-Scan_AC,2022.2.5,None,
42,Second_Order,7.0,viswhat,stimulus/viswhat_stim/land_vehicle-buldozer.png,stimulus/viswhat_stim/water_vehicle-jetski.png,stimulus/viswhat_stim/water_animal-whale.png,stimulus/viswhat_stim/land_animal-fox.png,stimulus/viswhere_stim/match_blank.png,stimulus/viswhere_stim/match_box.png,stimulus/viswhere_stim/match_yes.png,stimulus/viswhere_stim/match_no.png,1.0,Match,Type,Type,1,5.125,0,5.125,0,5.125,0,5.125,0,0.625,0.625,1,0.5,1,2.125,1,0.5,1,2.125,0,0,0,0,0,0,0,0,0,,,,,0,55,55,55,,,,,,,,,493.1649946249672,498.282950791996,493.6335937079857,494.6234087079647,495.25899329199456,496.25666529196315,493.1649946249672,493.1649946249672,493.1642767913484,493.1649946249672,493.1649946249672,493.1649946249672,493.1642767913484,493.1649946249672,498.282950791996,498.968936249963,501.0529121669824,505.0778600000194,498.968936249963,498.968936249963,504.11568524996983,499.41806295799324,500.4493387499824,501.0529121669824,502.06215095799416,498.968936249963,498.968936249963,498.9459808329819,498.968936249963,498.968936249963,498.968936249963,498.9459808329819,498.968936249963,498.968936249963,504.11568524996983,498.968936249963,504.11568524996983,504.1574575830018,504.797604708001,498.968936249963,1,1,0.5760110000264831,reldom2_s029,001,2025-03-03_14h28.09.631,Vis-B-Scan_AC,2022.2.5,None,
0,0.0,None,fixation,stimulus/viswhere_stim/blank_white.png,stimulus/viswhere_stim/blank_white.png,stimulus/viswhat_stim/blank_white.png,stimulus/viswhat_stim/blank_white.png,stimulus/viswhere_stim/blank_white.png,stimulus/viswhere_stim/blank_white.png,stimulus/viswhere_stim/blank_white.png,stimulus/viswhere_stim/blank_white.png,0.0,0.0,0.0,0.0,0,0.0,0,0.0,0,0.0,0,0.0,0,0.0,0.0,0,0.0,0,0.0,0,0.0,0,0.0,0,0,0,0,0,0,0,0,9,,,,,0,56,56,56,,,,,,,,,505.0778600000194,505.0778600000194,505.0778600000194,505.0778600000194,505.0778600000194,505.0778600000194,505.0778600000194,505.0778600000194,504.97948416697324,505.0778600000194,505.0778600000194,505.0778600000194,504.97948416697324,505.0778600000194,505.0778600000194,505.0778600000194,505.0778600000194,505.0778600000194,505.0778600000194,505.0778600000194,505.0778600000194,505.0778600000194,505.0778600000194,505.0778600000194,505.0778600000194,505.0778600000194,505.0778600000194,505.02948416697325,505.0778600000194,505.0778600000194,505.0778600000194,505.02948416697325,505.0778600000194,505.0778600000194,505.0778600000194,505.0778600000194,505.0778600000194,510.2664428749704,510.2664428749704,514.2781324579846,None,0,,reldom2_s029,001,2025-03-03_14h28.09.631,Vis-B-Scan_AC,2022.2.5,None,
43,First_Order,8.0,viswhat,stimulus/viswhat_stim/blank_white.png,stimulus/viswhat_stim/blank_white.png,stimulus/viswhat_stim/land_animal-fox.png,stimulus/viswhat_stim/land_vehicle-motorcycle.png,stimulus/viswhat_stim/blank_white.png,stimulus/viswhat_stim/type_box.png,stimulus/viswhat_stim/type_yes.png,stimulus/viswhat_stim/type_no.png,None,Type,None,Location,2,0.0,0,5.125,0,5.125,0,5.125,0,0.0,0.625,0,0.0,0,0.0,1,0.5,1,2.125,0,0,0,0,0,0,0,0,0,,,,,0,57,57,57,,,,,,,,,514.2781324579846,514.2781324579846,514.2781324579846,514.2781324579846,514.2781324579846,514.2781324579846,514.2781324579846,514.2781324579846,514.2360341666305,514.2781324579846,514.2781324579846,514.2781324579846,514.2360341666305,514.2781324579846,514.2781324579846,514.2781324579846,516.3691055419622,520.3453130419948,514.2781324579846,514.2781324579846,519.4374242079793,514.7628366249846,515.7942386249779,516.3691055419622,517.4041180419736,514.2781324579846,514.2781324579846,514.2527008332971,514.2781324579846,514.2781324579846,514.2781324579846,514.2527008332971,514.2781324579846,514.2781324579846,519.4374242079793,514.2781324579846,519.4374242079793,519.486864208011,520.1335102079902,514.2781324579846,2,1,2.2079056249931455,reldom2_s029,001,2025-03-03_14h28.09.631,Vis-B-Scan_AC,2022.2.5,None,
44,First_Order,8.0,viswhat,stimulus/viswhat_stim/blank_white.png,stimulus/viswhat_stim/blank_white.png,stimulus/viswhat_stim/land_animal-pig.png,stimulus/viswhat_stim/land_vehicle-firetruck.png,stimulus/viswhat_stim/blank_white.png,stimulus/viswhat_stim/location_box.png,stimulus/viswhat_stim/location_yes.png,stimulus/viswhat_stim/location_no.png,None,Location,None,Location,1,0.0,0,5.125,0,5.125,0,5.125,0,0.0,0.625,0,0.0,0,0.0,1,0.5,1,2.125,0,0,0,0,0,0,0,0,0,,,,,0,58,58,58,,,,,,,,,520.3453130419948,520.3453130419948,520.3453130419948,520.3453130419948,520.3453130419948,520.3453130419948,520.3453130419948,520.3453130419948,520.3078960419749,520.3453130419948,520.3453130419948,520.3453130419948,520.3078960419749,520.3453130419948,520.3453130419948,520.3453130419948,522.4384045000188,526.4752632079762,520.3453130419948,520.3453130419948,525.4759122079704,520.8152865419979,521.8277916249936,522.4384045000188,523.4535506250104,520.3453130419948,520.3453130419948,520.3245627086416,520.3453130419948,520.3453130419948,520.3453130419948,520.3245627086416,520.3453130419948,520.3453130419948,525.4759122079704,520.3453130419948,525.4759122079704,525.5660671669757,526.2085439999937,520.3453130419948,1,1,1.7343111659865826,reldom2_s029,001,2025-03-03_14h28.09.631,Vis-B-Scan_AC,2022.2.5,None,
45,First_Order,8.0,viswhat,stimulus/viswhat_stim/blank_white.png,stimulus/viswhat_stim/blank_white.png,stimulus/viswhat_stim/land_vehicle-trolley.png,stimulus/viswhat_stim/water_vehicle-sailboat.png,stimulus/viswhat_stim/blank_white.png,stimulus/viswhat_stim/type_box.png,stimulus/viswhat_stim/type_yes.png,stimulus/viswhat_stim/type_no.png,None,Type,None,Type,1,0.0,0,5.125,0,5.125,0,5.125,0,0.0,0.625,0,0.0,0,0.0,1,0.5,1,2.125,0,0,0,0,0,0,0,0,0,,,,,0,59,59,59,,,,,,,,,526.4752632079762,526.4752632079762,526.4752632079762,526.4752632079762,526.4752632079762,526.4752632079762,526.4752632079762,526.4752632079762,526.3817863333,526.4752632079762,526.4752632079762,526.4752632079762,526.3817863333,526.4752632079762,526.4752632079762,526.4752632079762,528.5760470830137,,526.4752632079762,526.4752632079762,531.651273083,526.9148285419797,527.9909307080088,528.5760470830137,529.6540512499632,526.4752632079762,526.4752632079762,526.4317863333,526.4752632079762,526.4752632079762,526.4752632079762,526.4317863333,526.4752632079762,526.4752632079762,531.651273083,526.4752632079762,531.651273083,531.6948134580161,532.5112134169904,526.4752632079762,1,1,1.1629062500433065,reldom2_s029,001,2025-03-03_14h28.09.631,Vis-B-Scan_AC,2022.2.5,None,
46,First_Order,8.0,viswhat,stimulus/viswhat_stim/blank_white.png,stimulus/viswhat_stim/blank_white.png,stimulus/viswhat_stim/water_vehicle-canoe(1).png,stimulus/viswhat_stim/land_vehicle-truck.png,stimulus/viswhat_stim/blank_white.png,stimulus/viswhat_stim/type_box.png,stimulus/viswhat_stim/type_yes.png,stimulus/viswhat_stim/type_no.png,None,Type,None,Type,1,0.0,0,5.125,0,5.125,0,5.125,0,0.0,0.625,0,0.0,0,0.0,1,0.5,1,2.125,0,0,0,0,0,0,0,0,0,,,,,0,60,60,60,,,,,,,,,532.5112134169904,532.5112134169904,532.5112134169904,532.5112134169904,532.5112134169904,532.5112134169904,532.5112134169904,532.5112134169904,532.491372374969,532.5112134169904,532.5112134169904,532.5112134169904,532.491372374969,532.5112134169904,532.5112134169904,532.5112134169904,534.6175232499954,538.6593573749997,532.5112134169904,532.5112134169904,537.6505182079854,532.994574707991,534.0070350000169,534.6175232499954,535.6325061249663,532.5112134169904,532.5112134169904,532.491372374969,532.5112134169904,532.5112134169904,532.5112134169904,532.491372374969,532.5112134169904,532.5112134169904,537.6505182079854,532.5112134169904,537.6505182079854,537.7320871250122,538.3721154169762,532.5112134169904,1,1,1.7189744590432383,reldom2_s029,001,2025-03-03_14h28.09.631,Vis-B-Scan_AC,2022.2.5,None,
0,0.0,None,fixation,stimulus/viswhere_stim/blank_white.png,stimulus/viswhere_stim/blank_white.png,stimulus/viswhat_stim/blank_white.png,stimulus/viswhat_stim/blank_white.png,stimulus/viswhere_stim/blank_white.png,stimulus/viswhere_stim/blank_white.png,stimulus/viswhere_stim/blank_white.png,stimulus/viswhere_stim/blank_white.png,0.0,0.0,0.0,0.0,0,0.0,0,0.0,0,0.0,0,0.0,0,0.0,0.0,0,0.0,0,0.0,0,0.0,0,0.0,0,0,0,0,0,0,0,0,9,,,,,0,61,61,61,,,,,,,,,538.6593573749997,538.6593573749997,538.6593573749997,538.6593573749997,538.6593573749997,538.6593573749997,538.6593573749997,538.6593573749997,538.5556262913354,538.6593573749997,538.6593573749997,538.6593573749997,538.5556262913354,538.6593573749997,538.6593573749997,538.6593573749997,538.6593573749997,538.6593573749997,538.6593573749997,538.6593573749997,538.6593573749997,538.6593573749997,538.6593573749997,538.6593573749997,538.6593573749997,538.6593573749997,538.6593573749997,538.6056262913354,538.6593573749997,538.6593573749997,538.6593573749997,538.6056262913354,538.6593573749997,538.6593573749997,538.6593573749997,538.6593573749997,538.6593573749997,543.8667618749896,543.8667618749896,547.8059349579853,None,0,,reldom2_s029,001,2025-03-03_14h28.09.631,Vis-B-Scan_AC,2022.2.5,None,
47,Second_Order,8.0,viswhat,stimulus/viswhat_stim/water_animal-seaturtle.png,stimulus/viswhat_stim/water_vehicle-kayak.png,stimulus/viswhat_stim/water_vehicle-motorboatraft.png,stimulus/viswhat_stim/land_vehicle-tank.png,stimulus/viswhere_stim/match_blank.png,stimulus/viswhere_stim/match_box.png,stimulus/viswhere_stim/match_yes.png,stimulus/viswhere_stim/match_no.png,2.0,Match,Location,Type,2,5.125,0,5.125,0,5.125,0,5.125,0,0.75,0.75,1,0.5,1,2.125,1,0.5,1,2.125,0,0,0,0,0,0,0,0,0,,,,,0,62,62,62,,,,,,,,,547.8059349579853,552.9253710419871,548.2763842080021,549.2663886669907,549.9016172499978,550.8997344999807,547.8059349579853,547.8059349579853,547.8092935832993,547.8059349579853,547.8059349579853,547.8059349579853,547.8092935832993,547.8059349579853,552.9253710419871,553.7196726250113,555.805241666967,559.7141048749909,553.7196726250113,553.7196726250113,558.8480774170021,554.1763391669956,555.1860723330174,555.805241666967,556.8204406250152,553.7196726250113,553.7196726250113,553.6920300003335,553.7196726250113,553.7196726250113,553.7196726250113,553.6920300003335,553.7196726250113,553.7196726250113,558.8480774170021,553.7196726250113,558.8480774170021,558.9081139579648,559.7141048749909,553.7196726250113,2,1,2.4402851670747623,reldom2_s029,001,2025-03-03_14h28.09.631,Vis-B-Scan_AC,2022.2.5,None,
48,Second_Order,8.0,viswhat,stimulus/viswhat_stim/land_vehicle-rv.png,stimulus/viswhat_stim/water_vehicle-cargoboat.png,stimulus/viswhat_stim/water_animal-squid.png,stimulus/viswhat_stim/land_animal-dog.png,stimulus/viswhere_stim/match_blank.png,stimulus/viswhere_stim/match_box.png,stimulus/viswhere_stim/match_yes.png,stimulus/viswhere_stim/match_no.png,1.0,Match,Type,Type,1,5.125,0,5.125,0,5.125,0,5.125,0,0.625,0.625,1,0.5,1,2.125,1,0.5,1,2.125,0,0,0,0,0,0,0,0,0,,,,,0,63,63,63,,,,,,,,,559.7141048749909,564.836021916999,560.1914342920063,561.189935708011,561.8123468330014,562.8102887080167,559.7141048749909,559.7141048749909,559.7188467499916,559.7141048749909,559.7141048749909,559.7141048749909,559.7188467499916,559.7141048749909,564.836021916999,565.534792624996,567.5982006249833,571.6479369169683,565.534792624996,565.534792624996,570.6963514579693,565.9725180419628,567.003390124999,567.5982006249833,568.6349905829993,565.534792624996,565.534792624996,565.499713332986,565.534792624996,565.534792624996,565.534792624996,565.499713332986,565.534792624996,565.534792624996,570.6963514579693,565.534792624996,570.6963514579693,570.7220568750054,571.3610247499892,565.534792624996,1,1,0.661479541042354,reldom2_s029,001,2025-03-03_14h28.09.631,Vis-B-Scan_AC,2022.2.5,None,
0,0.0,None,fixation,stimulus/viswhere_stim/blank_white.png,stimulus/viswhere_stim/blank_white.png,stimulus/viswhat_stim/blank_white.png,stimulus/viswhat_stim/blank_white.png,stimulus/viswhere_stim/blank_white.png,stimulus/viswhere_stim/blank_white.png,stimulus/viswhere_stim/blank_white.png,stimulus/viswhere_stim/blank_white.png,0.0,0.0,0.0,0.0,0,0.0,0,0.0,0,0.0,0,0.0,0,0.0,0.0,0,0.0,0,0.0,0,0.0,0,0.0,0,0,0,0,0,0,0,0,16,,,,,0,64,64,64,,,,,,,,,571.6479369169683,571.6479369169683,571.6479369169683,571.6479369169683,571.6479369169683,571.6479369169683,571.6479369169683,571.6479369169683,571.5541534996863,571.6479369169683,571.6479369169683,571.6479369169683,571.5541534996863,571.6479369169683,571.6479369169683,571.6479369169683,571.6479369169683,571.6479369169683,571.6479369169683,571.6479369169683,571.6479369169683,571.6479369169683,571.6479369169683,571.6479369169683,571.6479369169683,571.6479369169683,571.6479369169683,571.6041534996863,571.6479369169683,571.6479369169683,571.6479369169683,571.6041534996863,571.6479369169683,571.6479369169683,571.6479369169683,571.6479369169683,571.6479369169683,576.8389269170002,576.8389269170002,587.8008057919797,None,0,,reldom2_s029,001,2025-03-03_14h28.09.631,Vis-B-Scan_AC,2022.2.5,None,
