Trial,Order,Block,Type,Stimuli_File1,Stimuli_File2,Stimuli_File3,Stimuli_File4,Cue_File1,Cue_File2,Response_File_Yes,Response_File_No,Match,Cue_Dimension,Pair1_Dimension,Pair2_Dimension,Key,Cue1_Duration,Cue1_Onset,Cue2_Duration,Cue2_Onset,ResponseYes_Duration,ResponseYes_Onset,ResponseNo_Duration,ResponseNo_Onset,ITI_Within,ITI_Between,Image1_Duration,Image1_Onset,Image2_Duration,Image2_Onset,Image3_Duration,Image3_Onset,Image4_Duration,Image4_Onset,Sound1_Duration,Sound1_Onset,Sound2_Duration,Sound2_Onset,Sound3_Duration,Sound3_Onset,Sound4_Duration,Sound4_Onset,Fixation_Duration,trials_2.thisRepN,trials_2.thisTrialN,trials_2.thisN,trials_2.thisIndex,trials.thisRepN,trials.thisTrialN,trials.thisN,trials.thisIndex,text_start.started,key_resp_start.started,key_resp_start.keys,key_resp_start.rt,text2.started,key_resp_2.started,key_resp_2.keys,key_resp_2.rt,cue_file1.started,cue_file1.stopped,image_1.started,image_1.stopped,image_2.started,image_2.stopped,sound_icon1.started,sound_icon1.stopped,sound_1.started,sound_1.stopped,sound_icon2.started,sound_icon2.stopped,sound_2.started,sound_2.stopped,image_blank_1.started,image_blank_1.stopped,key_press.started,key_press.stopped,fixation_text.started,cue_file2.started,cue_file2.stopped,image_3.started,image_3.stopped,image_4.started,image_4.stopped,sound_icon3.started,sound_icon3.stopped,sound_3.started,sound_3.stopped,sound_icon4.started,sound_icon4.stopped,sound_4.started,sound_4.stopped,response_yes.started,response_yes.stopped,response_no.started,response_no.stopped,iti_blank.started,iti_blank.stopped,fixation_text.stopped,key_press.keys,key_press.corr,key_press.rt,participant,session,date,expName,psychopyVersion,frameRate,
,,,,,,,,,,,,,,,,,,,,,,,,,,,,,,,,,,,,,,,,,,,,,,,,,,,,9.588677666000422,9.588677666000422,2,1.1139327500000036,,,,,,,,,,,,,,,,,,,,,,,,,,,,,,,,,,,,,,,,,,,,,,,,reldom2_s039,001,2025-03-19_16h21.36.758,Aud-B-Scan_AC,2022.2.5,None,
,,,,,,,,,,,,,,,,,,,,,,,,,,,,,,,,,,,,,,,,,,,,0,0,0,0,,,,,,,,,10.740164416000425,10.740164416000425,5,15.900355792000028,,,,,,,,,,,,,,,,,,,,,,,,,,,,,,,,,,,,,,,,,,,,reldom2_s039,001,2025-03-19_16h21.36.758,Aud-B-Scan_AC,2022.2.5,None,
,,,,,,,,,,,,,,,,,,,,,,,,,,,,,,,,,,,,,,,,,,,,1,0,1,0,,,,,,,,,26.656808916000045,26.656808916000045,5,1.9834526249996998,,,,,,,,,,,,,,,,,,,,,,,,,,,,,,,,,,,,,,,,,,,,reldom2_s039,001,2025-03-19_16h21.36.758,Aud-B-Scan_AC,2022.2.5,None,
,,,,,,,,,,,,,,,,,,,,,,,,,,,,,,,,,,,,,,,,,,,,2,0,2,0,,,,,,,,,28.669259416000386,28.669259416000386,5,1.973332874999869,,,,,,,,,,,,,,,,,,,,,,,,,,,,,,,,,,,,,,,,,,,,reldom2_s039,001,2025-03-19_16h21.36.758,Aud-B-Scan_AC,2022.2.5,None,
,,,,,,,,,,,,,,,,,,,,,,,,,,,,,,,,,,,,,,,,,,,,3,0,3,0,,,,,,,,,30.656583124999997,30.656583124999997,5,1.9849236250001923,,,,,,,,,,,,,,,,,,,,,,,,,,,,,,,,,,,,,,,,,,,,reldom2_s039,001,2025-03-19_16h21.36.758,Aud-B-Scan_AC,2022.2.5,None,
0,0.0,None,fixation,stimulus/audwhat_stim/blank_white.png,stimulus/audwhat_stim/blank_white.png,stimulus/audwhere_stim/blank_white.png,stimulus/audwhere_stim/blank_white.png,stimulus/audwhat_stim/blank_white.png,stimulus/audwhat_stim/blank_white.png,stimulus/audwhat_stim/blank_white.png,stimulus/audwhat_stim/blank_white.png,0.0,0.0,0.0,0.0,0,0.0,0,0.0,0,0.0,0,0.0,0,0.0,0.0,0,0,0,0,0,0,0,0,0,0.0,0,0.0,0,0.0,0,0.0,16,,,,,0,0,0,0,,,,,,,,,32.85687795800004,32.85687795800004,32.85687795800004,32.85687795800004,32.85687795800004,32.85687795800004,32.85687795800004,32.85687795800004,32.76133537466682,32.85687795800004,32.85687795800004,32.85687795800004,32.76133537466682,32.85687795800004,32.85687795800004,32.85687795800004,32.85687795800004,32.85687795800004,32.85687795800004,32.85687795800004,32.85687795800004,32.85687795800004,32.85687795800004,32.85687795800004,32.85687795800004,32.85687795800004,32.85687795800004,32.81133537466682,32.85687795800004,32.85687795800004,32.85687795800004,32.81133537466682,32.85687795800004,32.85687795800004,32.85687795800004,32.85687795800004,32.85687795800004,38.075936041000205,38.075936041000205,49.07370958299998,None,0,,reldom2_s039,001,2025-03-19_16h21.36.758,Aud-B-Scan_AC,2022.2.5,None,
1,First_Order,1.0,audwhat,stimulus/audwhat_stim/dummy.wav,stimulus/audwhat_stim/dummy.wav,stimulus/audwhat_stim/string viola_low-pitch_F_loud.wav,stimulus/audwhat_stim/string cello_high-pitch_Dtri_loud.wav,stimulus/audwhat_stim/blank_white.png,stimulus/audwhat_stim/pitch_box.png,stimulus/audwhat_stim/pitch_yes.png,stimulus/audwhat_stim/pitch_no.png,None,Pitch,None,Category,2,0.0,0,5.125,0,5.125,0,5.125,0,0.0,0.625,0,0,0,0,0,0,0,0,0,0.0,0,0.0,1,0.5,1,2.125,0,,,,,0,1,1,1,,,,,,,,,49.07370958299998,49.07370958299998,49.07370958299998,49.07370958299998,49.07370958299998,49.07370958299998,49.07370958299998,49.07370958299998,49.006029583000235,49.07370958299998,49.07370958299998,49.07370958299998,49.006029583000235,49.07370958299998,49.07370958299998,49.07370958299998,51.151272166000126,55.184781291000036,49.07370958299998,49.07370958299998,54.24216541600026,49.07370958299998,49.07370958299998,49.07370958299998,49.07370958299998,49.560865207999996,50.620440625000356,49.53326762466692,,51.151272166000126,52.214232416000414,51.123475041666794,,49.07370958299998,54.24216541600026,49.07370958299998,54.24216541600026,54.28114108300042,54.94416225000032,49.07370958299998,1,0,1.1935513329999594,reldom2_s039,001,2025-03-19_16h21.36.758,Aud-B-Scan_AC,2022.2.5,None,
2,First_Order,1.0,audwhat,stimulus/audwhat_stim/dummy.wav,stimulus/audwhat_stim/dummy.wav,stimulus/audwhat_stim/percussion xylophone_high-pitch_Ftri_loud.wav,stimulus/audwhat_stim/string viola_high-pitch_Ftri_loud.wav,stimulus/audwhat_stim/blank_white.png,stimulus/audwhat_stim/pitch_box.png,stimulus/audwhat_stim/pitch_yes.png,stimulus/audwhat_stim/pitch_no.png,None,Pitch,None,Pitch,1,0.0,0,5.125,0,5.125,0,5.125,0,0.0,0.625,0,0,0,0,0,0,0,0,0,0.0,0,0.0,1,0.5,1,2.125,0,,,,,0,2,2,2,,,,,,,,,55.184781291000036,55.184781291000036,55.184781291000036,55.184781291000036,55.184781291000036,55.184781291000036,55.184781291000036,55.184781291000036,55.116209333333366,55.184781291000036,55.184781291000036,55.184781291000036,55.116209333333366,55.184781291000036,55.184781291000036,55.184781291000036,57.26693954100028,,55.184781291000036,55.184781291000036,60.3751292500001,55.184781291000036,55.184781291000036,55.184781291000036,55.184781291000036,55.67134666600032,56.736082416000045,55.64375066666686,56.69173645800038,57.26693954100028,58.333400083000015,57.23939229166696,,55.184781291000036,60.3751292500001,55.184781291000036,60.3751292500001,60.414132750000135,61.076681916000325,55.184781291000036,1,1,1.5124457079996318,reldom2_s039,001,2025-03-19_16h21.36.758,Aud-B-Scan_AC,2022.2.5,None,
3,First_Order,1.0,audwhat,stimulus/audwhat_stim/dummy.wav,stimulus/audwhat_stim/dummy.wav,stimulus/audwhat_stim/string viola_low-pitch_Dtri_loud.wav,stimulus/audwhat_stim/percussion mallet_low-pitch_Dtri_loud.wav,stimulus/audwhat_stim/blank_white.png,stimulus/audwhat_stim/category_box.png,stimulus/audwhat_stim/category_yes.png,stimulus/audwhat_stim/category_no.png,None,Category,None,Pitch,2,0.0,0,5.125,0,5.125,0,5.125,0,0.0,0.625,0,0,0,0,0,0,0,0,0,0.0,0,0.0,1,0.5,1,2.125,0,,,,,0,3,3,3,,,,,,,,,61.279846125000404,61.279846125000404,61.279846125000404,61.279846125000404,61.279846125000404,61.279846125000404,61.279846125000404,61.279846125000404,61.21001524933366,61.279846125000404,61.279846125000404,61.279846125000404,61.21001524933366,61.279846125000404,61.279846125000404,61.279846125000404,63.37723900000037,,61.279846125000404,61.279846125000404,66.46641083300028,61.279846125000404,61.279846125000404,61.279846125000404,61.279846125000404,61.77098366600012,62.798121541,61.742897707666785,,63.37723900000037,64.407892833,63.34906762466677,,61.279846125000404,66.46641083300028,61.279846125000404,66.46641083300028,66.50602929100023,67.17571483300026,61.279846125000404,2,1,0.6156089999999494,reldom2_s039,001,2025-03-19_16h21.36.758,Aud-B-Scan_AC,2022.2.5,None,
4,First_Order,1.0,audwhat,stimulus/audwhat_stim/dummy.wav,stimulus/audwhat_stim/dummy.wav,stimulus/audwhat_stim/percussion mallet_low-pitch_D_loud.wav,stimulus/audwhat_stim/percussion xylophone_high-pitch_Dtri_loud.wav,stimulus/audwhat_stim/blank_white.png,stimulus/audwhat_stim/pitch_box.png,stimulus/audwhat_stim/pitch_yes.png,stimulus/audwhat_stim/pitch_no.png,None,Pitch,None,Category,2,0.0,0,5.125,0,5.125,0,5.125,0,0.0,0.625,0,0,0,0,0,0,0,0,0,0.0,0,0.0,1,0.5,1,2.125,0,,,,,0,4,4,4,,,,,,,,,67.38044454100009,67.38044454100009,67.38044454100009,67.38044454100009,67.38044454100009,67.38044454100009,67.38044454100009,67.38044454100009,67.30904816633358,67.38044454100009,67.38044454100009,67.38044454100009,67.30904816633358,67.38044454100009,67.38044454100009,67.38044454100009,69.4816087080003,,67.38044454100009,67.38044454100009,72.5318862500003,67.38044454100009,67.38044454100009,67.38044454100009,67.38044454100009,67.82729979100031,68.85665279100022,67.79911704166695,,69.4816087080003,70.51388533300042,69.45350308266667,70.51388533300042,67.38044454100009,72.5318862500003,67.38044454100009,72.5318862500003,72.61061233300006,73.2824014580001,67.38044454100009,2,1,0.8662728750000497,reldom2_s039,001,2025-03-19_16h21.36.758,Aud-B-Scan_AC,2022.2.5,None,
0,0.0,None,fixation,stimulus/audwhat_stim/blank_white.png,stimulus/audwhat_stim/blank_white.png,stimulus/audwhere_stim/blank_white.png,stimulus/audwhere_stim/blank_white.png,stimulus/audwhat_stim/blank_white.png,stimulus/audwhat_stim/blank_white.png,stimulus/audwhat_stim/blank_white.png,stimulus/audwhat_stim/blank_white.png,0.0,0.0,0.0,0.0,0,0.0,0,0.0,0,0.0,0,0.0,0,0.0,0.0,0,0,0,0,0,0,0,0,0,0.0,0,0.0,0,0.0,0,0.0,8,,,,,0,5,5,5,,,,,,,,,73.50725187500029,73.50725187500029,73.50725187500029,73.50725187500029,73.50725187500029,73.50725187500029,73.50725187500029,73.50725187500029,73.41573479133342,73.50725187500029,73.50725187500029,73.50725187500029,73.41573479133342,73.50725187500029,73.50725187500029,73.50725187500029,73.50725187500029,73.50725187500029,73.50725187500029,73.50725187500029,73.50725187500029,73.50725187500029,73.50725187500029,73.50725187500029,73.50725187500029,73.50725187500029,73.50725187500029,73.46573479133343,73.50725187500029,73.50725187500029,73.50725187500029,73.46573479133343,73.50725187500029,73.50725187500029,73.50725187500029,73.50725187500029,73.50725187500029,78.71290250000038,78.71290250000038,81.64313791600034,None,0,,reldom2_s039,001,2025-03-19_16h21.36.758,Aud-B-Scan_AC,2022.2.5,None,
5,Second_Order,1.0,audwhat,stimulus/audwhat_stim/percussion mallet_high-pitch_Dtri_loud.wav,stimulus/audwhat_stim/string cello_high-pitch_Dtri_loud.wav,stimulus/audwhat_stim/string viola_low-pitch_F_loud.wav,stimulus/audwhat_stim/percussion mallet_low-pitch_F_loud.wav,stimulus/audwhat_stim/match_blank.png,stimulus/audwhat_stim/match_box.png,stimulus/audwhat_stim/match_yes.png,stimulus/audwhat_stim/match_no.png,1.0,Match,Pitch,Pitch,1,5.125,0,5.125,0,5.125,0,5.125,0,0.75,0.75,0,0,0,0,0,0,0,0,1,0.5,1,2.125,1,0.5,1,2.125,0,,,,,0,6,6,6,,,,,,,,,81.64313791600034,86.75737816600031,81.64313791600034,81.64313791600034,81.64313791600034,81.64313791600034,82.09522870800038,83.08137745800013,82.10842829166701,,83.71580895800025,84.71456933300033,83.72861616666684,,86.75737816600031,87.60986462500023,89.6669937910001,93.59290312500025,87.60986462500023,87.60986462500023,92.7664688750001,87.60986462500023,87.60986462500023,87.60986462500023,87.60986462500023,88.05631183300011,89.08495012499998,88.02862441666709,,89.6669937910001,90.702358,89.63872624966668,,87.60986462500023,92.7664688750001,87.60986462500023,92.7664688750001,92.7664688750001,,87.60986462500023,1,1,1.3840224159998797,reldom2_s039,001,2025-03-19_16h21.36.758,Aud-B-Scan_AC,2022.2.5,None,
6,Second_Order,1.0,audwhat,stimulus/audwhat_stim/percussion mallet_low-pitch_F_loud.wav,stimulus/audwhat_stim/percussion mallet_high-pitch_Dtri_loud.wav,stimulus/audwhat_stim/string viola_low-pitch_Ftri_loud.wav,stimulus/audwhat_stim/percussion mallet_low-pitch_Ftri_loud.wav,stimulus/audwhat_stim/match_blank.png,stimulus/audwhat_stim/match_box.png,stimulus/audwhat_stim/match_yes.png,stimulus/audwhat_stim/match_no.png,2.0,Match,Category,Pitch,2,5.125,0,5.125,0,5.125,0,5.125,0,0.625,0.625,0,0,0,0,0,0,0,0,1,0.5,1,2.125,1,0.5,1,2.125,0,,,,,0,7,7,7,,,,,,,,,93.59290312500025,98.71831233300009,93.59290312500025,93.59290312500025,93.59290312500025,93.59290312500025,94.05283929100005,95.04268979100016,94.05585720766682,95.04268979100016,95.67770087500003,96.67547704100025,95.69022899966673,,98.71831233300009,99.44684154100014,101.49852450000026,,99.44684154100014,99.44684154100014,104.6384470830003,99.44684154100014,99.44684154100014,99.44684154100014,99.44684154100014,99.89200433300039,100.96322429100019,99.86406645766671,,101.49852450000026,102.5325216250003,101.47060554166707,,99.44684154100014,104.6384470830003,99.44684154100014,104.6384470830003,104.6384470830003,105.31024766600012,99.44684154100014,2,1,0.6752342919999137,reldom2_s039,001,2025-03-19_16h21.36.758,Aud-B-Scan_AC,2022.2.5,None,
0,0.0,None,fixation,stimulus/audwhat_stim/blank_white.png,stimulus/audwhat_stim/blank_white.png,stimulus/audwhere_stim/blank_white.png,stimulus/audwhere_stim/blank_white.png,stimulus/audwhat_stim/blank_white.png,stimulus/audwhat_stim/blank_white.png,stimulus/audwhat_stim/blank_white.png,stimulus/audwhat_stim/blank_white.png,0.0,0.0,0.0,0.0,0,0.0,0,0.0,0,0.0,0,0.0,0,0.0,0.0,0,0,0,0,0,0,0,0,0,0.0,0,0.0,0,0.0,0,0.0,10,,,,,0,8,8,8,,,,,,,,,105.53482125000028,105.53482125000028,105.53482125000028,105.53482125000028,105.53482125000028,105.53482125000028,105.53482125000028,105.53482125000028,105.44358099933345,105.53482125000028,105.53482125000028,105.53482125000028,105.44358099933345,105.53482125000028,105.53482125000028,105.53482125000028,105.53482125000028,105.53482125000028,105.53482125000028,105.53482125000028,105.53482125000028,105.53482125000028,105.53482125000028,105.53482125000028,105.53482125000028,105.53482125000028,105.53482125000028,105.49358099933346,105.53482125000028,105.53482125000028,105.53482125000028,105.49358099933346,105.53482125000028,105.53482125000028,105.53482125000028,105.53482125000028,105.53482125000028,110.73937550000028,110.73937550000028,115.7958926250003,None,0,,reldom2_s039,001,2025-03-19_16h21.36.758,Aud-B-Scan_AC,2022.2.5,None,
7,First_Order,2.0,audwhat,stimulus/audwhat_stim/dummy.wav,stimulus/audwhat_stim/dummy.wav,stimulus/audwhat_stim/percussion xylophone_high-pitch_F_loud.wav,stimulus/audwhat_stim/percussion mallet_low-pitch_D_loud.wav,stimulus/audwhat_stim/blank_white.png,stimulus/audwhat_stim/category_box.png,stimulus/audwhat_stim/category_yes.png,stimulus/audwhat_stim/category_no.png,None,Category,None,Category,1,0.0,0,5.125,0,5.125,0,5.125,0,0.0,0.625,0,0,0,0,0,0,0,0,0,0.0,0,0.0,1,0.5,1,2.125,0,,,,,0,9,9,9,,,,,,,,,115.7958926250003,115.7958926250003,115.7958926250003,115.7958926250003,115.7958926250003,115.7958926250003,115.7958926250003,115.7958926250003,115.72920370766694,115.7958926250003,115.7958926250003,115.7958926250003,115.72920370766694,115.7958926250003,115.7958926250003,115.7958926250003,117.89006008300021,121.91752333300019,115.7958926250003,115.7958926250003,120.94849079100004,115.7958926250003,115.7958926250003,115.7958926250003,115.7958926250003,116.25210620799999,117.298380791,116.22327274966689,117.25304200000028,117.89006008300021,118.94154612500006,117.86060087466673,,115.7958926250003,120.94849079100004,115.7958926250003,120.94849079100004,120.98873800000001,121.66919262500005,115.7958926250003,1,1,1.6043126250001478,reldom2_s039,001,2025-03-19_16h21.36.758,Aud-B-Scan_AC,2022.2.5,None,
8,First_Order,2.0,audwhat,stimulus/audwhat_stim/dummy.wav,stimulus/audwhat_stim/dummy.wav,stimulus/audwhat_stim/percussion mallet_low-pitch_D_loud.wav,stimulus/audwhat_stim/string viola_low-pitch_D_loud.wav,stimulus/audwhat_stim/blank_white.png,stimulus/audwhat_stim/pitch_box.png,stimulus/audwhat_stim/pitch_yes.png,stimulus/audwhat_stim/pitch_no.png,None,Pitch,None,Pitch,1,0.0,0,5.125,0,5.125,0,5.125,0,0.0,0.625,0,0,0,0,0,0,0,0,0,0.0,0,0.0,1,0.5,1,2.125,0,,,,,0,10,10,10,,,,,,,,,121.91752333300019,121.91752333300019,121.91752333300019,121.91752333300019,121.91752333300019,121.91752333300019,121.91752333300019,121.91752333300019,121.84251766633372,121.91752333300019,121.91752333300019,121.91752333300019,121.84251766633372,121.91752333300019,121.91752333300019,121.91752333300019,124.01065154100024,128.0372805830002,121.91752333300019,121.91752333300019,127.06527879100031,121.91752333300019,121.91752333300019,121.91752333300019,121.91752333300019,122.37234125000032,123.41907491600023,122.34331424966673,123.3735759580004,124.01065154100024,125.05905900000016,123.98197133266673,,121.91752333300019,127.06527879100031,121.91752333300019,127.06527879100031,127.14568087500038,127.82792104100008,121.91752333300019,1,1,1.353444374999981,reldom2_s039,001,2025-03-19_16h21.36.758,Aud-B-Scan_AC,2022.2.5,None,
9,First_Order,2.0,audwhat,stimulus/audwhat_stim/dummy.wav,stimulus/audwhat_stim/dummy.wav,stimulus/audwhat_stim/percussion mallet_low-pitch_D_loud.wav,stimulus/audwhat_stim/percussion mallet_high-pitch_Ftri_loud.wav,stimulus/audwhat_stim/blank_white.png,stimulus/audwhat_stim/category_box.png,stimulus/audwhat_stim/category_yes.png,stimulus/audwhat_stim/category_no.png,None,Category,None,Category,1,0.0,0,5.125,0,5.125,0,5.125,0,0.0,0.625,0,0,0,0,0,0,0,0,0,0.0,0,0.0,1,0.5,1,2.125,0,,,,,0,11,11,11,,,,,,,,,128.0372805830002,128.0372805830002,128.0372805830002,128.0372805830002,128.0372805830002,128.0372805830002,128.0372805830002,128.0372805830002,127.96125437433341,128.0372805830002,128.0372805830002,128.0372805830002,127.96125437433341,128.0372805830002,128.0372805830002,128.0372805830002,130.1477572910003,134.16731204100006,128.0372805830002,128.0372805830002,133.18831870800022,128.0372805830002,128.0372805830002,128.0372805830002,128.0372805830002,128.49521491600035,129.55219812500036,128.46598566666697,,130.1477572910003,131.21384862500008,130.1185354576667,,128.0372805830002,133.18831870800022,128.0372805830002,133.18831870800022,133.22852729100032,133.91533775000016,128.0372805830002,1,1,0.7649564170001213,reldom2_s039,001,2025-03-19_16h21.36.758,Aud-B-Scan_AC,2022.2.5,None,
10,First_Order,2.0,audwhat,stimulus/audwhat_stim/dummy.wav,stimulus/audwhat_stim/dummy.wav,stimulus/audwhat_stim/string cello_high-pitch_F_loud.wav,stimulus/audwhat_stim/percussion mallet_high-pitch_F_loud.wav,stimulus/audwhat_stim/blank_white.png,stimulus/audwhat_stim/category_box.png,stimulus/audwhat_stim/category_yes.png,stimulus/audwhat_stim/category_no.png,None,Category,None,Pitch,2,0.0,0,5.125,0,5.125,0,5.125,0,0.0,0.625,0,0,0,0,0,0,0,0,0,0.0,0,0.0,1,0.5,1,2.125,0,,,,,0,12,12,12,,,,,,,,,134.16731204100006,134.16731204100006,134.16731204100006,134.16731204100006,134.16731204100006,134.16731204100006,134.16731204100006,134.16731204100006,134.08901712433376,134.16731204100006,134.16731204100006,134.16731204100006,134.08901712433376,134.16731204100006,134.16731204100006,134.16731204100006,136.2390018750002,,134.16731204100006,134.16731204100006,139.3251787080003,134.16731204100006,134.16731204100006,134.16731204100006,134.16731204100006,134.62913120800022,135.68894879100026,134.59934262466666,,136.2390018750002,137.30230708300041,136.20967883266692,,134.16731204100006,139.3251787080003,134.16731204100006,139.3251787080003,139.36567141600017,140.01415425000005,134.16731204100006,2,1,0.5576633339996988,reldom2_s039,001,2025-03-19_16h21.36.758,Aud-B-Scan_AC,2022.2.5,None,
0,0.0,None,fixation,stimulus/audwhat_stim/blank_white.png,stimulus/audwhat_stim/blank_white.png,stimulus/audwhere_stim/blank_white.png,stimulus/audwhere_stim/blank_white.png,stimulus/audwhat_stim/blank_white.png,stimulus/audwhat_stim/blank_white.png,stimulus/audwhat_stim/blank_white.png,stimulus/audwhat_stim/blank_white.png,0.0,0.0,0.0,0.0,0,0.0,0,0.0,0,0.0,0,0.0,0,0.0,0.0,0,0,0,0,0,0,0,0,0,0.0,0,0.0,0,0.0,0,0.0,8,,,,,0,13,13,13,,,,,,,,,140.28568658300037,140.28568658300037,140.28568658300037,140.28568658300037,140.28568658300037,140.28568658300037,140.28568658300037,140.28568658300037,140.18804595833367,140.28568658300037,140.28568658300037,140.28568658300037,140.18804595833367,140.28568658300037,140.28568658300037,140.28568658300037,140.28568658300037,140.28568658300037,140.28568658300037,140.28568658300037,140.28568658300037,140.28568658300037,140.28568658300037,140.28568658300037,140.28568658300037,140.28568658300037,140.28568658300037,140.23804595833366,140.28568658300037,140.28568658300037,140.28568658300037,140.23804595833366,140.28568658300037,140.28568658300037,140.28568658300037,140.28568658300037,140.28568658300037,145.51610366600016,145.51610366600016,148.45596408300025,None,0,,reldom2_s039,001,2025-03-19_16h21.36.758,Aud-B-Scan_AC,2022.2.5,None,
11,Second_Order,2.0,audwhat,stimulus/audwhat_stim/string viola_high-pitch_Dtri_loud.wav,stimulus/audwhat_stim/string cello_low-pitch_D_loud.wav,stimulus/audwhat_stim/percussion mallet_high-pitch_Dtri_loud.wav,stimulus/audwhat_stim/percussion mallet_low-pitch_Ftri_loud.wav,stimulus/audwhat_stim/match_blank.png,stimulus/audwhat_stim/match_box.png,stimulus/audwhat_stim/match_yes.png,stimulus/audwhat_stim/match_no.png,1.0,Match,Category,Category,1,5.125,0,5.125,0,5.125,0,5.125,0,0.75,0.75,0,0,0,0,0,0,0,0,1,0.5,1,2.125,1,0.5,1,2.125,0,,,,,0,14,14,14,,,,,,,,,148.45596408300025,153.5786202080003,148.45596408300025,148.45596408300025,148.45596408300025,148.45596408300025,148.91273775000036,149.9028128330001,148.91609862466683,,150.5383414580001,151.53622750000022,150.5500417916667,,153.5786202080003,154.4279356660004,156.47211795800013,160.41098612500036,154.4279356660004,154.4279356660004,159.6153198750003,154.4279356660004,154.4279356660004,154.4279356660004,154.4279356660004,154.8824147080004,155.9263462910003,154.853777749667,,156.47211795800013,157.5253401660002,156.44313249966697,,154.4279356660004,159.6153198750003,154.4279356660004,159.6153198750003,159.6153198750003,,154.4279356660004,1,1,0.819554041000174,reldom2_s039,001,2025-03-19_16h21.36.758,Aud-B-Scan_AC,2022.2.5,None,
12,Second_Order,2.0,audwhat,stimulus/audwhat_stim/string viola_low-pitch_F_loud.wav,stimulus/audwhat_stim/string viola_high-pitch_Ftri_loud.wav,stimulus/audwhat_stim/percussion mallet_low-pitch_Ftri_loud.wav,stimulus/audwhat_stim/percussion xylophone_high-pitch_Dtri_loud.wav,stimulus/audwhat_stim/match_blank.png,stimulus/audwhat_stim/match_box.png,stimulus/audwhat_stim/match_yes.png,stimulus/audwhat_stim/match_no.png,1.0,Match,Category,Category,1,5.125,0,5.125,0,5.125,0,5.125,0,0.625,0.625,0,0,0,0,0,0,0,0,1,0.5,1,2.125,1,0.5,1,2.125,0,,,,,0,15,15,15,,,,,,,,,160.41098612500036,165.52304937500003,160.41098612500036,160.41098612500036,160.41098612500036,160.41098612500036,160.85889487500026,161.84615725000003,160.8735685826671,,162.494648375,163.48327670800018,162.4982099166671,,165.52304937500003,166.2523469580001,168.33043366600032,,166.2523469580001,166.2523469580001,171.42052816600017,166.2523469580001,166.2523469580001,166.2523469580001,166.2523469580001,166.7042330410004,167.74236625000003,166.67516066666693,,168.33043366600032,169.37853541599998,168.3014372916671,169.3323988330003,166.2523469580001,171.42052816600017,166.2523469580001,171.42052816600017,171.42052816600017,172.09919095800024,166.2523469580001,1,1,0.8101528339998367,reldom2_s039,001,2025-03-19_16h21.36.758,Aud-B-Scan_AC,2022.2.5,None,
0,0.0,None,fixation,stimulus/audwhat_stim/blank_white.png,stimulus/audwhat_stim/blank_white.png,stimulus/audwhere_stim/blank_white.png,stimulus/audwhere_stim/blank_white.png,stimulus/audwhat_stim/blank_white.png,stimulus/audwhat_stim/blank_white.png,stimulus/audwhat_stim/blank_white.png,stimulus/audwhat_stim/blank_white.png,0.0,0.0,0.0,0.0,0,0.0,0,0.0,0,0.0,0,0.0,0,0.0,0.0,0,0,0,0,0,0,0,0,0,0.0,0,0.0,0,0.0,0,0.0,9,,,,,0,16,16,16,,,,,,,,,172.33045208300018,172.33045208300018,172.33045208300018,172.33045208300018,172.33045208300018,172.33045208300018,172.33045208300018,172.33045208300018,172.2325242913336,172.33045208300018,172.33045208300018,172.33045208300018,172.2325242913336,172.33045208300018,172.33045208300018,172.33045208300018,172.33045208300018,172.33045208300018,172.33045208300018,172.33045208300018,172.33045208300018,172.33045208300018,172.33045208300018,172.33045208300018,172.33045208300018,172.33045208300018,172.33045208300018,172.28252429133357,172.33045208300018,172.33045208300018,172.33045208300018,172.28252429133357,172.33045208300018,172.33045208300018,172.33045208300018,172.33045208300018,172.33045208300018,177.55496575000006,177.55496575000006,181.56403816600005,None,0,,reldom2_s039,001,2025-03-19_16h21.36.758,Aud-B-Scan_AC,2022.2.5,None,
13,First_Order,3.0,audwhere,stimulus/audwhere_stim/dummy.wav,stimulus/audwhere_stim/dummy.wav,stimulus/audwhere_stim/left_toward_290h.wav,stimulus/audwhere_stim/right_toward_280h.wav,stimulus/audwhere_stim/blank_white.png,stimulus/audwhere_stim/direction_box.png,stimulus/audwhere_stim/direction_yes.png,stimulus/audwhere_stim/direction_no.png,None,Direction,None,Direction,1,0.0,0,5.125,0,5.125,0,5.125,0,0.0,0.625,0,0,0,0,0,0,0,0,0,0.0,0,0.0,1,0.5,1,2.125,0,,,,,0,17,17,17,,,,,,,,,181.56403816600005,181.56403816600005,181.56403816600005,181.56403816600005,181.56403816600005,181.56403816600005,181.56403816600005,181.56403816600005,181.49560683266708,181.56403816600005,181.56403816600005,181.56403816600005,181.49560683266708,181.56403816600005,181.56403816600005,181.56403816600005,183.63872212500019,,181.56403816600005,181.56403816600005,186.7199621660002,181.56403816600005,181.56403816600005,181.56403816600005,181.56403816600005,182.0236173750004,183.08614587500006,181.99392870766704,,183.63872212500019,184.69876875,183.60903524966696,,181.56403816600005,186.7199621660002,181.56403816600005,186.7199621660002,186.76062279100006,187.4121116250003,181.56403816600005,2,0,3.1846318749999227,reldom2_s039,001,2025-03-19_16h21.36.758,Aud-B-Scan_AC,2022.2.5,None,
14,First_Order,3.0,audwhere,stimulus/audwhere_stim/dummy.wav,stimulus/audwhere_stim/dummy.wav,stimulus/audwhere_stim/left_toward_270h.wav,stimulus/audwhere_stim/right_toward_290h.wav,stimulus/audwhere_stim/blank_white.png,stimulus/audwhere_stim/direction_box.png,stimulus/audwhere_stim/direction_yes.png,stimulus/audwhere_stim/direction_no.png,None,Direction,None,Direction,1,0.0,0,5.125,0,5.125,0,5.125,0,0.0,0.625,0,0,0,0,0,0,0,0,0,0.0,0,0.0,1,0.5,1,2.125,0,,,,,0,18,18,18,,,,,,,,,187.66392879100022,187.66392879100022,187.66392879100022,187.66392879100022,187.66392879100022,187.66392879100022,187.66392879100022,187.66392879100022,187.58576970833352,187.66392879100022,187.66392879100022,187.66392879100022,187.58576970833352,187.66392879100022,187.66392879100022,187.66392879100022,189.74032699999998,193.7769937500002,187.66392879100022,187.66392879100022,192.83999625000024,187.66392879100022,187.66392879100022,187.66392879100022,187.66392879100022,188.1257812910003,189.1872883750002,188.09597920766672,,189.74032699999998,190.80497975000026,189.71085616666667,,187.66392879100022,192.83999625000024,187.66392879100022,192.83999625000024,192.8810181660001,193.5664423750004,187.66392879100022,2,0,1.1890229169998747,reldom2_s039,001,2025-03-19_16h21.36.758,Aud-B-Scan_AC,2022.2.5,None,
15,First_Order,3.0,audwhere,stimulus/audwhere_stim/dummy.wav,stimulus/audwhere_stim/dummy.wav,stimulus/audwhere_stim/left_away_290h.wav,stimulus/audwhere_stim/left_toward_280h.wav,stimulus/audwhere_stim/blank_white.png,stimulus/audwhere_stim/direction_box.png,stimulus/audwhere_stim/direction_yes.png,stimulus/audwhere_stim/direction_no.png,None,Direction,None,Side,2,0.0,0,5.125,0,5.125,0,5.125,0,0.0,0.625,0,0,0,0,0,0,0,0,0,0.0,0,0.0,1,0.5,1,2.125,0,,,,,0,19,19,19,,,,,,,,,193.7769937500002,193.7769937500002,193.7769937500002,193.7769937500002,193.7769937500002,193.7769937500002,193.7769937500002,193.7769937500002,193.69977570833376,193.7769937500002,193.7769937500002,193.7769937500002,193.69977570833376,193.7769937500002,193.7769937500002,193.7769937500002,195.8588063330003,199.90260987500005,193.7769937500002,193.7769937500002,198.9618679160003,193.7769937500002,193.7769937500002,193.7769937500002,193.7769937500002,194.2413139160003,195.304667333,194.211375624667,,195.8588063330003,196.9242349580004,195.82900379166702,,193.7769937500002,198.9618679160003,193.7769937500002,198.9618679160003,199.0022905830001,199.65072708300022,193.7769937500002,2,1,1.238442749999649,reldom2_s039,001,2025-03-19_16h21.36.758,Aud-B-Scan_AC,2022.2.5,None,
16,First_Order,3.0,audwhere,stimulus/audwhere_stim/dummy.wav,stimulus/audwhere_stim/dummy.wav,stimulus/audwhere_stim/left_toward_300h.wav,stimulus/audwhere_stim/left_away_290h.wav,stimulus/audwhere_stim/blank_white.png,stimulus/audwhere_stim/direction_box.png,stimulus/audwhere_stim/direction_yes.png,stimulus/audwhere_stim/direction_no.png,None,Direction,None,Side,2,0.0,0,5.125,0,5.125,0,5.125,0,0.0,0.625,0,0,0,0,0,0,0,0,0,0.0,0,0.0,1,0.5,1,2.125,0,,,,,0,20,20,20,,,,,,,,,199.90260987500005,199.90260987500005,199.90260987500005,199.90260987500005,199.90260987500005,199.90260987500005,199.90260987500005,199.90260987500005,199.82425016633366,199.90260987500005,199.90260987500005,199.90260987500005,199.82425016633366,199.90260987500005,199.90260987500005,199.90260987500005,201.9854964580004,206.05033941600004,199.90260987500005,199.90260987500005,205.08690920800018,199.90260987500005,199.90260987500005,199.90260987500005,199.90260987500005,200.36457054100038,201.4305134580004,200.33502287466698,,201.9854964580004,203.05037950000042,201.95615974966702,,199.90260987500005,205.08690920800018,199.90260987500005,205.08690920800018,205.12718387500036,205.77852829100038,199.90260987500005,2,1,2.198509458999979,reldom2_s039,001,2025-03-19_16h21.36.758,Aud-B-Scan_AC,2022.2.5,None,
0,0.0,None,fixation,stimulus/audwhat_stim/blank_white.png,stimulus/audwhat_stim/blank_white.png,stimulus/audwhere_stim/blank_white.png,stimulus/audwhere_stim/blank_white.png,stimulus/audwhat_stim/blank_white.png,stimulus/audwhat_stim/blank_white.png,stimulus/audwhat_stim/blank_white.png,stimulus/audwhat_stim/blank_white.png,0.0,0.0,0.0,0.0,0,0.0,0,0.0,0,0.0,0,0.0,0,0.0,0.0,0,0,0,0,0,0,0,0,0,0.0,0,0.0,0,0.0,0,0.0,10,,,,,0,21,21,21,,,,,,,,,206.05033941600004,206.05033941600004,206.05033941600004,206.05033941600004,206.05033941600004,206.05033941600004,206.05033941600004,206.05033941600004,205.95241841633347,206.05033941600004,206.05033941600004,206.05033941600004,205.95241841633347,206.05033941600004,206.05033941600004,206.05033941600004,206.05033941600004,206.05033941600004,206.05033941600004,206.05033941600004,206.05033941600004,206.05033941600004,206.05033941600004,206.05033941600004,206.05033941600004,206.05033941600004,206.05033941600004,206.00241841633346,206.05033941600004,206.05033941600004,206.05033941600004,206.00241841633346,206.05033941600004,206.05033941600004,206.05033941600004,206.05033941600004,206.05033941600004,211.25548637500015,211.25548637500015,216.18321912500005,None,0,,reldom2_s039,001,2025-03-19_16h21.36.758,Aud-B-Scan_AC,2022.2.5,None,
17,Second_Order,3.0,audwhere,stimulus/audwhere_stim/right_toward_290h.wav,stimulus/audwhere_stim/right_away_290h.wav,stimulus/audwhere_stim/right_away_280h.wav,stimulus/audwhere_stim/left_away_300h.wav,stimulus/audwhat_stim/match_blank.png,stimulus/audwhat_stim/match_box.png,stimulus/audwhat_stim/match_yes.png,stimulus/audwhat_stim/match_no.png,2.0,Match,Side,Direction,2,5.125,0,5.125,0,5.125,0,5.125,0,0.75,0.75,0,0,0,0,0,0,0,0,1,0.5,1,2.125,1,0.5,1,2.125,0,,,,,0,22,22,22,,,,,,,,,216.18321912500005,221.3020719580004,216.18321912500005,216.18321912500005,216.18321912500005,216.18321912500005,216.6405621250001,217.63834791600038,216.65315345766683,217.64273629100035,218.26118383300036,219.25857754100025,218.2731456666668,,221.3020719580004,222.15261708300022,224.21090304100017,,222.15261708300022,222.15261708300022,227.3254635000003,222.15261708300022,222.15261708300022,222.15261708300022,222.15261708300022,222.60867879100033,223.66360212500012,222.5794795416671,,224.21090304100017,225.26565670800028,224.1819934996668,,222.15261708300022,227.3254635000003,222.15261708300022,227.3254635000003,227.3254635000003,,222.15261708300022,2,1,1.395587333000094,reldom2_s039,001,2025-03-19_16h21.36.758,Aud-B-Scan_AC,2022.2.5,None,
18,Second_Order,3.0,audwhere,stimulus/audwhere_stim/right_toward_270h.wav,stimulus/audwhere_stim/left_toward_270h.wav,stimulus/audwhere_stim/right_away_300h.wav,stimulus/audwhere_stim/left_away_280h.wav,stimulus/audwhat_stim/match_blank.png,stimulus/audwhat_stim/match_box.png,stimulus/audwhat_stim/match_yes.png,stimulus/audwhat_stim/match_no.png,1.0,Match,Direction,Direction,1,5.125,0,5.125,0,5.125,0,5.125,0,0.625,0.625,0,0,0,0,0,0,0,0,1,0.5,1,2.125,1,0.5,1,2.125,0,,,,,0,23,23,23,,,,,,,,,228.129608791,233.24608050000006,228.129608791,228.129608791,228.129608791,228.129608791,228.58424116600008,229.58229504100018,228.5971087076671,229.58622775000003,230.2049440410001,231.2031919580004,230.2172688326671,,233.24608050000006,233.97774420800033,236.01468708300035,240.07031858300024,233.97774420800033,233.97774420800033,239.16187312500006,233.97774420800033,233.97774420800033,233.97774420800033,233.97774420800033,234.42841850000013,235.4720875410003,234.40004212466673,,236.01468708300035,237.0651165410004,235.9861056666671,,233.97774420800033,239.16187312500006,233.97774420800033,239.16187312500006,239.16187312500006,239.8418245830003,233.97774420800033,2,0,1.0974715829997876,reldom2_s039,001,2025-03-19_16h21.36.758,Aud-B-Scan_AC,2022.2.5,None,
0,0.0,None,fixation,stimulus/audwhat_stim/blank_white.png,stimulus/audwhat_stim/blank_white.png,stimulus/audwhere_stim/blank_white.png,stimulus/audwhere_stim/blank_white.png,stimulus/audwhat_stim/blank_white.png,stimulus/audwhat_stim/blank_white.png,stimulus/audwhat_stim/blank_white.png,stimulus/audwhat_stim/blank_white.png,0.0,0.0,0.0,0.0,0,0.0,0,0.0,0,0.0,0,0.0,0,0.0,0.0,0,0,0,0,0,0,0,0,0,0.0,0,0.0,0,0.0,0,0.0,8,,,,,0,24,24,24,,,,,,,,,240.07031858300024,240.07031858300024,240.07031858300024,240.07031858300024,240.07031858300024,240.07031858300024,240.07031858300024,240.07031858300024,239.97515791633364,240.07031858300024,240.07031858300024,240.07031858300024,239.97515791633364,240.07031858300024,240.07031858300024,240.07031858300024,240.07031858300024,240.07031858300024,240.07031858300024,240.07031858300024,240.07031858300024,240.07031858300024,240.07031858300024,240.07031858300024,240.07031858300024,240.07031858300024,240.07031858300024,240.02515791633363,240.07031858300024,240.07031858300024,240.07031858300024,240.02515791633363,240.07031858300024,240.07031858300024,240.07031858300024,240.07031858300024,240.07031858300024,245.27146758300023,245.27146758300023,248.29270462500017,None,0,,reldom2_s039,001,2025-03-19_16h21.36.758,Aud-B-Scan_AC,2022.2.5,None,
19,First_Order,4.0,audwhere,stimulus/audwhere_stim/dummy.wav,stimulus/audwhere_stim/dummy.wav,stimulus/audwhere_stim/right_toward_280h.wav,stimulus/audwhere_stim/left_toward_280h.wav,stimulus/audwhere_stim/blank_white.png,stimulus/audwhere_stim/side_box.png,stimulus/audwhere_stim/side_yes.png,stimulus/audwhere_stim/side_no.png,None,Side,None,Direction,2,0.0,0,5.125,0,5.125,0,5.125,0,0.0,0.625,0,0,0,0,0,0,0,0,0,0.0,0,0.0,1,0.5,1,2.125,0,,,,,0,25,25,25,,,,,,,,,248.29270462500017,248.29270462500017,248.29270462500017,248.29270462500017,248.29270462500017,248.29270462500017,248.29270462500017,248.29270462500017,248.2257183326671,248.29270462500017,248.29270462500017,248.29270462500017,248.2257183326671,248.29270462500017,248.29270462500017,248.29270462500017,250.40497300000015,,248.29270462500017,248.29270462500017,253.44514404100028,248.29270462500017,248.29270462500017,248.29270462500017,248.29270462500017,248.752569666,249.8086255410003,248.72376045766694,,250.40497300000015,251.46816570800002,250.3759036666668,,248.29270462500017,253.44514404100028,248.29270462500017,253.44514404100028,253.48607266600038,254.1731640830003,248.29270462500017,1,0,1.4044821669999692,reldom2_s039,001,2025-03-19_16h21.36.758,Aud-B-Scan_AC,2022.2.5,None,
20,First_Order,4.0,audwhere,stimulus/audwhere_stim/dummy.wav,stimulus/audwhere_stim/dummy.wav,stimulus/audwhere_stim/left_toward_290h.wav,stimulus/audwhere_stim/right_toward_270h.wav,stimulus/audwhere_stim/blank_white.png,stimulus/audwhere_stim/side_box.png,stimulus/audwhere_stim/side_yes.png,stimulus/audwhere_stim/side_no.png,None,Side,None,Direction,2,0.0,0,5.125,0,5.125,0,5.125,0,0.0,0.625,0,0,0,0,0,0,0,0,0,0.0,0,0.0,1,0.5,1,2.125,0,,,,,0,26,26,26,,,,,,,,,254.38332570800003,254.38332570800003,254.38332570800003,254.38332570800003,254.38332570800003,254.38332570800003,254.38332570800003,254.38332570800003,254.30649741633366,254.38332570800003,254.38332570800003,254.38332570800003,254.30649741633366,254.38332570800003,254.38332570800003,254.38332570800003,256.457888208,,254.38332570800003,254.38332570800003,259.54564604100005,254.38332570800003,254.38332570800003,254.38332570800003,254.38332570800003,254.8450065410002,255.90415816600034,254.81526866666698,,256.457888208,257.52104775,256.42805454166705,,254.38332570800003,259.54564604100005,254.38332570800003,259.54564604100005,259.5863488750001,260.2338325410001,254.38332570800003,1,0,1.800919249999879,reldom2_s039,001,2025-03-19_16h21.36.758,Aud-B-Scan_AC,2022.2.5,None,
21,First_Order,4.0,audwhere,stimulus/audwhere_stim/dummy.wav,stimulus/audwhere_stim/dummy.wav,stimulus/audwhere_stim/left_toward_270h.wav,stimulus/audwhere_stim/left_away_300h.wav,stimulus/audwhere_stim/blank_white.png,stimulus/audwhere_stim/side_box.png,stimulus/audwhere_stim/side_yes.png,stimulus/audwhere_stim/side_no.png,None,Side,None,Side,1,0.0,0,5.125,0,5.125,0,5.125,0,0.0,0.625,0,0,0,0,0,0,0,0,0,0.0,0,0.0,1,0.5,1,2.125,0,,,,,0,27,27,27,,,,,,,,,260.48415345800004,260.48415345800004,260.48415345800004,260.48415345800004,260.48415345800004,260.48415345800004,260.48415345800004,260.48415345800004,260.40742162433355,260.48415345800004,260.48415345800004,260.48415345800004,260.40742162433355,260.48415345800004,260.48415345800004,260.48415345800004,262.559848375,,260.48415345800004,260.48415345800004,265.64871995800013,260.48415345800004,260.48415345800004,260.48415345800004,260.48415345800004,260.9461314580003,262.0073846250002,260.91649670766697,,262.559848375,263.6234060410002,262.53031737466677,,260.48415345800004,265.64871995800013,260.48415345800004,265.64871995800013,265.6896462910004,266.33918500000027,260.48415345800004,1,1,0.8904838749999726,reldom2_s039,001,2025-03-19_16h21.36.758,Aud-B-Scan_AC,2022.2.5,None,
22,First_Order,4.0,audwhere,stimulus/audwhere_stim/dummy.wav,stimulus/audwhere_stim/dummy.wav,stimulus/audwhere_stim/left_away_290h.wav,stimulus/audwhere_stim/left_toward_270h.wav,stimulus/audwhere_stim/blank_white.png,stimulus/audwhere_stim/side_box.png,stimulus/audwhere_stim/side_yes.png,stimulus/audwhere_stim/side_no.png,None,Side,None,Side,1,0.0,0,5.125,0,5.125,0,5.125,0,0.0,0.625,0,0,0,0,0,0,0,0,0,0.0,0,0.0,1,0.5,1,2.125,0,,,,,0,28,28,28,,,,,,,,,266.5912137080004,266.5912137080004,266.5912137080004,266.5912137080004,266.5912137080004,266.5912137080004,266.5912137080004,266.5912137080004,266.51279129133366,266.5912137080004,266.5912137080004,266.5912137080004,266.51279129133366,266.5912137080004,266.5912137080004,266.5912137080004,268.66824750000023,272.72494391600003,266.5912137080004,266.5912137080004,271.75890258300024,266.5912137080004,266.5912137080004,266.5912137080004,266.5912137080004,267.0529307500001,268.113568666,267.02364962466686,,268.66824750000023,269.73240683300037,268.63732520766666,,266.5912137080004,271.75890258300024,266.5912137080004,271.75890258300024,271.7996406250004,272.4507338330004,266.5912137080004,1,1,1.5987115420002738,reldom2_s039,001,2025-03-19_16h21.36.758,Aud-B-Scan_AC,2022.2.5,None,
0,0.0,None,fixation,stimulus/audwhat_stim/blank_white.png,stimulus/audwhat_stim/blank_white.png,stimulus/audwhere_stim/blank_white.png,stimulus/audwhere_stim/blank_white.png,stimulus/audwhat_stim/blank_white.png,stimulus/audwhat_stim/blank_white.png,stimulus/audwhat_stim/blank_white.png,stimulus/audwhat_stim/blank_white.png,0.0,0.0,0.0,0.0,0,0.0,0,0.0,0,0.0,0,0.0,0,0.0,0.0,0,0,0,0,0,0,0,0,0,0.0,0,0.0,0,0.0,0,0.0,10,,,,,0,29,29,29,,,,,,,,,272.72494391600003,272.72494391600003,272.72494391600003,272.72494391600003,272.72494391600003,272.72494391600003,272.72494391600003,272.72494391600003,272.62485329133335,272.72494391600003,272.72494391600003,272.72494391600003,272.62485329133335,272.72494391600003,272.72494391600003,272.72494391600003,272.72494391600003,272.72494391600003,272.72494391600003,272.72494391600003,272.72494391600003,272.72494391600003,272.72494391600003,272.72494391600003,272.72494391600003,272.72494391600003,272.72494391600003,272.67485329133336,272.72494391600003,272.72494391600003,272.72494391600003,272.67485329133336,272.72494391600003,272.72494391600003,272.72494391600003,272.72494391600003,272.72494391600003,277.9315149580002,277.9315149580002,282.8575680410004,None,0,,reldom2_s039,001,2025-03-19_16h21.36.758,Aud-B-Scan_AC,2022.2.5,None,
23,Second_Order,4.0,audwhere,stimulus/audwhere_stim/right_toward_300h.wav,stimulus/audwhere_stim/left_toward_270h.wav,stimulus/audwhere_stim/left_away_300h.wav,stimulus/audwhere_stim/right_away_300h.wav,stimulus/audwhat_stim/match_blank.png,stimulus/audwhat_stim/match_box.png,stimulus/audwhat_stim/match_yes.png,stimulus/audwhat_stim/match_no.png,1.0,Match,Direction,Direction,1,5.125,0,5.125,0,5.125,0,5.125,0,0.75,0.75,0,0,0,0,0,0,0,0,1,0.5,1,2.125,1,0.5,1,2.125,0,,,,,0,30,30,30,,,,,,,,,282.8575680410004,287.97282825,282.8575680410004,282.8575680410004,282.8575680410004,282.8575680410004,283.30882662500017,284.2958885410003,283.32308320766674,,284.9316441250003,285.92937020800036,284.9437784996669,285.93308937500024,287.97282825,288.81895620800015,290.87817087500025,294.80768133300035,288.81895620800015,288.81895620800015,294.00133858300023,288.81895620800015,288.81895620800015,288.81895620800015,288.81895620800015,289.27340470800027,290.32557316600014,289.24469866666664,,290.87817087500025,291.9347172910002,290.8489342496666,,288.81895620800015,294.00133858300023,288.81895620800015,294.00133858300023,294.00133858300023,,288.81895620800015,2,0,1.9754006660000414,reldom2_s039,001,2025-03-19_16h21.36.758,Aud-B-Scan_AC,2022.2.5,None,
24,Second_Order,4.0,audwhere,stimulus/audwhere_stim/right_toward_300h.wav,stimulus/audwhere_stim/left_toward_300h.wav,stimulus/audwhere_stim/left_away_290h.wav,stimulus/audwhere_stim/right_away_280h.wav,stimulus/audwhat_stim/match_blank.png,stimulus/audwhat_stim/match_box.png,stimulus/audwhat_stim/match_yes.png,stimulus/audwhat_stim/match_no.png,1.0,Match,Direction,Direction,1,5.125,0,5.125,0,5.125,0,5.125,0,0.625,0.625,0,0,0,0,0,0,0,0,1,0.5,1,2.125,1,0.5,1,2.125,0,,,,,0,31,31,31,,,,,,,,,294.80768133300035,299.9283627910004,294.80768133300035,294.80768133300035,294.80768133300035,294.80768133300035,295.26789662500005,296.2562994580003,295.2696062496668,,296.89225112500026,297.890289125,296.9046337916668,,299.9283627910004,300.6648762910004,302.7130505,306.770169291,300.6648762910004,300.6648762910004,305.8163668750003,300.6648762910004,300.6648762910004,300.6648762910004,300.6648762910004,301.1180118330003,302.1631614160001,301.0898045416668,,302.7130505,303.7652520830002,302.68351362466706,,300.6648762910004,305.8163668750003,300.6648762910004,305.8163668750003,305.85636275000024,306.5402961660002,300.6648762910004,1,1,2.0094812499996806,reldom2_s039,001,2025-03-19_16h21.36.758,Aud-B-Scan_AC,2022.2.5,None,
0,0.0,None,fixation,stimulus/audwhat_stim/blank_white.png,stimulus/audwhat_stim/blank_white.png,stimulus/audwhere_stim/blank_white.png,stimulus/audwhere_stim/blank_white.png,stimulus/audwhat_stim/blank_white.png,stimulus/audwhat_stim/blank_white.png,stimulus/audwhat_stim/blank_white.png,stimulus/audwhat_stim/blank_white.png,0.0,0.0,0.0,0.0,0,0.0,0,0.0,0,0.0,0,0.0,0,0.0,0.0,0,0,0,0,0,0,0,0,0,0.0,0,0.0,0,0.0,0,0.0,9,,,,,0,32,32,32,,,,,,,,,306.770169291,306.770169291,306.770169291,306.770169291,306.770169291,306.770169291,306.770169291,306.770169291,306.6736294993335,306.770169291,306.770169291,306.770169291,306.6736294993335,306.770169291,306.770169291,306.770169291,306.770169291,306.770169291,306.770169291,306.770169291,306.770169291,306.770169291,306.770169291,306.770169291,306.770169291,306.770169291,306.770169291,306.7236294993335,306.770169291,306.770169291,306.770169291,306.7236294993335,306.770169291,306.770169291,306.770169291,306.770169291,306.770169291,311.9809955830001,311.9809955830001,316.02850883300016,None,0,,reldom2_s039,001,2025-03-19_16h21.36.758,Aud-B-Scan_AC,2022.2.5,None,
25,First_Order,5.0,audwhat,stimulus/audwhat_stim/dummy.wav,stimulus/audwhat_stim/dummy.wav,stimulus/audwhat_stim/percussion xylophone_high-pitch_Ftri_loud.wav,stimulus/audwhat_stim/percussion mallet_low-pitch_F_loud.wav,stimulus/audwhat_stim/blank_white.png,stimulus/audwhat_stim/pitch_box.png,stimulus/audwhat_stim/pitch_yes.png,stimulus/audwhat_stim/pitch_no.png,None,Pitch,None,Category,2,0.0,0,5.125,0,5.125,0,5.125,0,0.0,0.625,0,0,0,0,0,0,0,0,0,0.0,0,0.0,1,0.5,1,2.125,0,,,,,0,33,33,33,,,,,,,,,316.02850883300016,316.02850883300016,316.02850883300016,316.02850883300016,316.02850883300016,316.02850883300016,316.02850883300016,316.02850883300016,315.9586513326668,316.02850883300016,316.02850883300016,316.02850883300016,315.9586513326668,316.02850883300016,316.02850883300016,316.02850883300016,318.10083379100024,322.1414098330001,316.02850883300016,316.02850883300016,321.197549,316.02850883300016,316.02850883300016,316.02850883300016,316.02850883300016,316.4895925000001,317.54769725000006,316.4602708746668,317.5014166660003,318.10083379100024,319.1665688330004,318.07163708266694,,316.02850883300016,321.197549,316.02850883300016,321.197549,321.2385341250001,321.8885330410003,316.02850883300016,1,0,2.4981809999999314,reldom2_s039,001,2025-03-19_16h21.36.758,Aud-B-Scan_AC,2022.2.5,None,
26,First_Order,5.0,audwhat,stimulus/audwhat_stim/dummy.wav,stimulus/audwhat_stim/dummy.wav,stimulus/audwhat_stim/percussion mallet_low-pitch_Dtri_loud.wav,stimulus/audwhat_stim/percussion xylophone_high-pitch_Ftri_loud.wav,stimulus/audwhat_stim/blank_white.png,stimulus/audwhat_stim/category_box.png,stimulus/audwhat_stim/category_yes.png,stimulus/audwhat_stim/category_no.png,None,Category,None,Category,1,0.0,0,5.125,0,5.125,0,5.125,0,0.0,0.625,0,0,0,0,0,0,0,0,0,0.0,0,0.0,1,0.5,1,2.125,0,,,,,0,34,34,34,,,,,,,,,322.1414098330001,322.1414098330001,322.1414098330001,322.1414098330001,322.1414098330001,322.1414098330001,322.1414098330001,322.1414098330001,322.06255004133357,322.1414098330001,322.1414098330001,322.1414098330001,322.06255004133357,322.1414098330001,322.1414098330001,322.1414098330001,324.22898950000035,,322.1414098330001,322.1414098330001,327.29256083300015,322.1414098330001,322.1414098330001,322.1414098330001,322.1414098330001,322.60618037500035,323.67461737500025,322.5760503326667,,324.22898950000035,325.3010900410004,324.19935862466696,325.2545089580003,322.1414098330001,327.29256083300015,322.1414098330001,327.29256083300015,327.3335174580002,327.9862997080004,322.1414098330001,1,1,0.9410075419996247,reldom2_s039,001,2025-03-19_16h21.36.758,Aud-B-Scan_AC,2022.2.5,None,
27,First_Order,5.0,audwhat,stimulus/audwhat_stim/dummy.wav,stimulus/audwhat_stim/dummy.wav,stimulus/audwhat_stim/string cello_low-pitch_Dtri_loud.wav,stimulus/audwhat_stim/percussion mallet_low-pitch_Dtri_loud.wav,stimulus/audwhat_stim/blank_white.png,stimulus/audwhat_stim/pitch_box.png,stimulus/audwhat_stim/pitch_yes.png,stimulus/audwhat_stim/pitch_no.png,None,Pitch,None,Pitch,1,0.0,0,5.125,0,5.125,0,5.125,0,0.0,0.625,0,0,0,0,0,0,0,0,0,0.0,0,0.0,1,0.5,1,2.125,0,,,,,0,35,35,35,,,,,,,,,328.23776050000015,328.23776050000015,328.23776050000015,328.23776050000015,328.23776050000015,328.23776050000015,328.23776050000015,328.23776050000015,328.1601988333333,328.23776050000015,328.23776050000015,328.23776050000015,328.1601988333333,328.23776050000015,328.23776050000015,328.23776050000015,330.3186235830003,,328.23776050000015,328.23776050000015,333.4245842080004,328.23776050000015,328.23776050000015,328.23776050000015,328.23776050000015,328.70194445800007,329.76496487500026,328.67174024966675,,330.3186235830003,331.3860997910001,330.2892338326667,,328.23776050000015,333.4245842080004,328.23776050000015,333.4245842080004,333.4656872080004,334.11772633300006,328.23776050000015,1,1,1.318302415999824,reldom2_s039,001,2025-03-19_16h21.36.758,Aud-B-Scan_AC,2022.2.5,None,
28,First_Order,5.0,audwhat,stimulus/audwhat_stim/dummy.wav,stimulus/audwhat_stim/dummy.wav,stimulus/audwhat_stim/percussion xylophone_high-pitch_Ftri_loud.wav,stimulus/audwhat_stim/percussion mallet_low-pitch_F_loud.wav,stimulus/audwhat_stim/blank_white.png,stimulus/audwhat_stim/category_box.png,stimulus/audwhat_stim/category_yes.png,stimulus/audwhat_stim/category_no.png,None,Category,None,Category,1,0.0,0,5.125,0,5.125,0,5.125,0,0.0,0.625,0,0,0,0,0,0,0,0,0,0.0,0,0.0,1,0.5,1,2.125,0,,,,,0,36,36,36,,,,,,,,,334.329612041,334.329612041,334.329612041,334.329612041,334.329612041,334.329612041,334.329612041,334.329612041,334.2510596663334,334.329612041,334.329612041,334.329612041,334.2510596663334,334.329612041,334.329612041,334.329612041,336.41931075,,334.329612041,334.329612041,339.488892375,334.329612041,334.329612041,334.329612041,334.329612041,334.79587933300036,335.8634387500001,334.76577699966697,335.8169343750001,336.41931075,337.49402425000017,336.38938524966693,,334.329612041,339.488892375,334.329612041,339.488892375,339.5302511660002,340.18390100000033,334.329612041,1,1,0.5546580000000176,reldom2_s039,001,2025-03-19_16h21.36.758,Aud-B-Scan_AC,2022.2.5,None,
0,0.0,None,fixation,stimulus/audwhat_stim/blank_white.png,stimulus/audwhat_stim/blank_white.png,stimulus/audwhere_stim/blank_white.png,stimulus/audwhere_stim/blank_white.png,stimulus/audwhat_stim/blank_white.png,stimulus/audwhat_stim/blank_white.png,stimulus/audwhat_stim/blank_white.png,stimulus/audwhat_stim/blank_white.png,0.0,0.0,0.0,0.0,0,0.0,0,0.0,0,0.0,0,0.0,0,0.0,0.0,0,0,0,0,0,0,0,0,0,0.0,0,0.0,0,0.0,0,0.0,8,,,,,0,37,37,37,,,,,,,,,340.4581105000002,340.4581105000002,340.4581105000002,340.4581105000002,340.4581105000002,340.4581105000002,340.4581105000002,340.4581105000002,340.35734620833375,340.4581105000002,340.4581105000002,340.4581105000002,340.35734620833375,340.4581105000002,340.4581105000002,340.4581105000002,340.4581105000002,340.4581105000002,340.4581105000002,340.4581105000002,340.4581105000002,340.4581105000002,340.4581105000002,340.4581105000002,340.4581105000002,340.4581105000002,340.4581105000002,340.40734620833376,340.4581105000002,340.4581105000002,340.4581105000002,340.40734620833376,340.4581105000002,340.4581105000002,340.4581105000002,340.4581105000002,340.4581105000002,345.6867596660004,345.6867596660004,348.6031642910002,None,0,,reldom2_s039,001,2025-03-19_16h21.36.758,Aud-B-Scan_AC,2022.2.5,None,
29,Second_Order,5.0,audwhat,stimulus/audwhat_stim/string viola_low-pitch_Dtri_loud.wav,stimulus/audwhat_stim/percussion mallet_low-pitch_Dtri_loud.wav,stimulus/audwhat_stim/string viola_low-pitch_Dtri_loud.wav,stimulus/audwhat_stim/string cello_high-pitch_Ftri_loud.wav,stimulus/audwhat_stim/match_blank.png,stimulus/audwhat_stim/match_box.png,stimulus/audwhat_stim/match_yes.png,stimulus/audwhat_stim/match_no.png,2.0,Match,Pitch,Category,2,5.125,0,5.125,0,5.125,0,5.125,0,0.75,0.75,0,0,0,0,0,0,0,0,1,0.5,1,2.125,1,0.5,1,2.125,0,,,,,0,38,38,38,,,,,,,,,348.6031642910002,353.7236548750002,348.6031642910002,348.6031642910002,348.6031642910002,348.6031642910002,349.0619676660003,350.06093925000005,349.07489754166704,,350.68384162500024,351.6815266660001,350.69551654166685,,353.7236548750002,354.5751881660003,356.635027541,360.5688958750002,354.5751881660003,354.5751881660003,359.7638024580001,354.5751881660003,354.5751881660003,354.5751881660003,354.5751881660003,355.03334379100033,356.08595708300027,355.0039237916669,,356.635027541,357.69422416600037,356.60590116666685,,354.5751881660003,359.7638024580001,354.5751881660003,359.7638024580001,359.7638024580001,,354.5751881660003,1,0,1.797042749999946,reldom2_s039,001,2025-03-19_16h21.36.758,Aud-B-Scan_AC,2022.2.5,None,
30,Second_Order,5.0,audwhat,stimulus/audwhat_stim/string viola_high-pitch_Ftri_loud.wav,stimulus/audwhat_stim/percussion xylophone_high-pitch_Ftri_loud.wav,stimulus/audwhat_stim/string viola_low-pitch_D_loud.wav,stimulus/audwhat_stim/percussion mallet_low-pitch_D_loud.wav,stimulus/audwhat_stim/match_blank.png,stimulus/audwhat_stim/match_box.png,stimulus/audwhat_stim/match_yes.png,stimulus/audwhat_stim/match_no.png,1.0,Match,Pitch,Pitch,1,5.125,0,5.125,0,5.125,0,5.125,0,0.625,0.625,0,0,0,0,0,0,0,0,1,0.5,1,2.125,1,0.5,1,2.125,0,,,,,0,39,39,39,,,,,,,,,360.5688958750002,365.68539120800006,360.5688958750002,360.5688958750002,360.5688958750002,360.5688958750002,361.02157141600037,362.0086932080003,361.0357137496669,,362.64457975000005,363.64239991600016,362.656697582667,363.6457705830003,365.68539120800006,366.4153741660002,368.467350375,,366.4153741660002,366.4153741660002,371.5866167080003,366.4153741660002,366.4153741660002,366.4153741660002,366.4153741660002,366.8703941250001,367.92108529100005,366.8414244576668,,368.467350375,369.52331570800015,368.4383214576667,,366.4153741660002,371.5866167080003,366.4153741660002,371.5866167080003,371.5866167080003,372.2708157500001,366.4153741660002,1,1,1.0594778750000842,reldom2_s039,001,2025-03-19_16h21.36.758,Aud-B-Scan_AC,2022.2.5,None,
0,0.0,None,fixation,stimulus/audwhat_stim/blank_white.png,stimulus/audwhat_stim/blank_white.png,stimulus/audwhere_stim/blank_white.png,stimulus/audwhere_stim/blank_white.png,stimulus/audwhat_stim/blank_white.png,stimulus/audwhat_stim/blank_white.png,stimulus/audwhat_stim/blank_white.png,stimulus/audwhat_stim/blank_white.png,0.0,0.0,0.0,0.0,0,0.0,0,0.0,0,0.0,0,0.0,0,0.0,0.0,0,0,0,0,0,0,0,0,0,0.0,0,0.0,0,0.0,0,0.0,9,,,,,0,40,40,40,,,,,,,,,372.4999607910004,372.4999607910004,372.4999607910004,372.4999607910004,372.4999607910004,372.4999607910004,372.4999607910004,372.4999607910004,372.40414908333344,372.4999607910004,372.4999607910004,372.4999607910004,372.40414908333344,372.4999607910004,372.4999607910004,372.4999607910004,372.4999607910004,372.4999607910004,372.4999607910004,372.4999607910004,372.4999607910004,372.4999607910004,372.4999607910004,372.4999607910004,372.4999607910004,372.4999607910004,372.4999607910004,372.45414908333345,372.4999607910004,372.4999607910004,372.4999607910004,372.45414908333345,372.4999607910004,372.4999607910004,372.4999607910004,372.4999607910004,372.4999607910004,377.722301625,377.722301625,381.7629678750004,None,0,,reldom2_s039,001,2025-03-19_16h21.36.758,Aud-B-Scan_AC,2022.2.5,None,
31,First_Order,6.0,audwhat,stimulus/audwhat_stim/dummy.wav,stimulus/audwhat_stim/dummy.wav,stimulus/audwhat_stim/string viola_low-pitch_D_loud.wav,stimulus/audwhat_stim/percussion mallet_low-pitch_D_loud.wav,stimulus/audwhat_stim/blank_white.png,stimulus/audwhat_stim/category_box.png,stimulus/audwhat_stim/category_yes.png,stimulus/audwhat_stim/category_no.png,None,Category,None,Pitch,2,0.0,0,5.125,0,5.125,0,5.125,0,0.0,0.625,0,0,0,0,0,0,0,0,0,0.0,0,0.0,1,0.5,1,2.125,0,,,,,0,41,41,41,,,,,,,,,381.7629678750004,381.7629678750004,381.7629678750004,381.7629678750004,381.7629678750004,381.7629678750004,381.7629678750004,381.7629678750004,381.6926536666666,381.7629678750004,381.7629678750004,381.7629678750004,381.6926536666666,381.7629678750004,381.7629678750004,381.7629678750004,383.85035454100034,,381.7629678750004,381.7629678750004,386.9127758750001,381.7629678750004,381.7629678750004,381.7629678750004,381.7629678750004,382.2266992910004,383.29541154100025,382.19719104166666,,383.85035454100034,384.920025375,383.82045012466665,,381.7629678750004,386.9127758750001,381.7629678750004,386.9127758750001,386.953705333,387.6060125830004,381.7629678750004,2,1,1.986558999999943,reldom2_s039,001,2025-03-19_16h21.36.758,Aud-B-Scan_AC,2022.2.5,None,
32,First_Order,6.0,audwhat,stimulus/audwhat_stim/dummy.wav,stimulus/audwhat_stim/dummy.wav,stimulus/audwhat_stim/percussion mallet_high-pitch_Dtri_loud.wav,stimulus/audwhat_stim/string viola_high-pitch_Dtri_loud.wav,stimulus/audwhat_stim/blank_white.png,stimulus/audwhat_stim/pitch_box.png,stimulus/audwhat_stim/pitch_yes.png,stimulus/audwhat_stim/pitch_no.png,None,Pitch,None,Pitch,1,0.0,0,5.125,0,5.125,0,5.125,0,0.0,0.625,0,0,0,0,0,0,0,0,0,0.0,0,0.0,1,0.5,1,2.125,0,,,,,0,42,42,42,,,,,,,,,387.8590921660002,387.8590921660002,387.8590921660002,387.8590921660002,387.8590921660002,387.8590921660002,387.8590921660002,387.8590921660002,387.7802821663337,387.8590921660002,387.8590921660002,387.8590921660002,387.7802821663337,387.8590921660002,387.8590921660002,387.8590921660002,389.9407137500002,393.98261337500026,387.8590921660002,387.8590921660002,393.0391852500002,387.8590921660002,387.8590921660002,387.8590921660002,387.8590921660002,388.322088291,389.3866085000004,388.2923840826668,,389.9407137500002,391.0087033330001,389.910865749667,,387.8590921660002,393.0391852500002,387.8590921660002,393.0391852500002,393.0794476250003,393.7308135830003,387.8590921660002,1,1,0.9222490830002243,reldom2_s039,001,2025-03-19_16h21.36.758,Aud-B-Scan_AC,2022.2.5,None,
33,First_Order,6.0,audwhat,stimulus/audwhat_stim/dummy.wav,stimulus/audwhat_stim/dummy.wav,stimulus/audwhat_stim/string cello_high-pitch_D_loud.wav,stimulus/audwhat_stim/string viola_low-pitch_F_loud.wav,stimulus/audwhat_stim/blank_white.png,stimulus/audwhat_stim/pitch_box.png,stimulus/audwhat_stim/pitch_yes.png,stimulus/audwhat_stim/pitch_no.png,None,Pitch,None,Category,2,0.0,0,5.125,0,5.125,0,5.125,0,0.0,0.625,0,0,0,0,0,0,0,0,0,0.0,0,0.0,1,0.5,1,2.125,0,,,,,0,43,43,43,,,,,,,,,393.98261337500026,393.98261337500026,393.98261337500026,393.98261337500026,393.98261337500026,393.98261337500026,393.98261337500026,393.98261337500026,393.9045946663333,393.98261337500026,393.98261337500026,393.98261337500026,393.9045946663333,393.98261337500026,393.98261337500026,393.98261337500026,396.063776041,400.1078311250003,393.98261337500026,393.98261337500026,399.1629683330002,393.98261337500026,393.98261337500026,393.98261337500026,393.98261337500026,394.44515500000034,395.5098085000004,394.41537508266697,,396.063776041,397.1285090000001,396.03386174966704,,393.98261337500026,399.1629683330002,393.98261337500026,399.1629683330002,399.2040535410001,399.8559597080002,393.98261337500026,2,1,1.1156957499997588,reldom2_s039,001,2025-03-19_16h21.36.758,Aud-B-Scan_AC,2022.2.5,None,
34,First_Order,6.0,audwhat,stimulus/audwhat_stim/dummy.wav,stimulus/audwhat_stim/dummy.wav,stimulus/audwhat_stim/percussion mallet_low-pitch_F_loud.wav,stimulus/audwhat_stim/string viola_low-pitch_F_loud.wav,stimulus/audwhat_stim/blank_white.png,stimulus/audwhat_stim/category_box.png,stimulus/audwhat_stim/category_yes.png,stimulus/audwhat_stim/category_no.png,None,Category,None,Pitch,2,0.0,0,5.125,0,5.125,0,5.125,0,0.0,0.625,0,0,0,0,0,0,0,0,0,0.0,0,0.0,1,0.5,1,2.125,0,,,,,0,44,44,44,,,,,,,,,400.1078311250003,400.1078311250003,400.1078311250003,400.1078311250003,400.1078311250003,400.1078311250003,400.1078311250003,400.1078311250003,400.0300606663337,400.1078311250003,400.1078311250003,400.1078311250003,400.0300606663337,400.1078311250003,400.1078311250003,400.1078311250003,402.201737416,406.2458179160003,400.1078311250003,400.1078311250003,405.2782930410003,400.1078311250003,400.1078311250003,400.1078311250003,400.1078311250003,400.57320725,401.64443770800017,400.543406999667,,402.201737416,403.2774417080004,402.1717541666669,,400.1078311250003,405.2782930410003,400.1078311250003,405.2782930410003,405.3195117080004,405.9722464160004,400.1078311250003,1,0,0.9899556249997659,reldom2_s039,001,2025-03-19_16h21.36.758,Aud-B-Scan_AC,2022.2.5,None,
0,0.0,None,fixation,stimulus/audwhat_stim/blank_white.png,stimulus/audwhat_stim/blank_white.png,stimulus/audwhere_stim/blank_white.png,stimulus/audwhere_stim/blank_white.png,stimulus/audwhat_stim/blank_white.png,stimulus/audwhat_stim/blank_white.png,stimulus/audwhat_stim/blank_white.png,stimulus/audwhat_stim/blank_white.png,0.0,0.0,0.0,0.0,0,0.0,0,0.0,0,0.0,0,0.0,0,0.0,0.0,0,0,0,0,0,0,0,0,0,0.0,0,0.0,0,0.0,0,0.0,9,,,,,0,45,45,45,,,,,,,,,406.2458179160003,406.2458179160003,406.2458179160003,406.2458179160003,406.2458179160003,406.2458179160003,406.2458179160003,406.2458179160003,406.1463587493337,406.2458179160003,406.2458179160003,406.2458179160003,406.1463587493337,406.2458179160003,406.2458179160003,406.2458179160003,406.2458179160003,406.2458179160003,406.2458179160003,406.2458179160003,406.2458179160003,406.2458179160003,406.2458179160003,406.2458179160003,406.2458179160003,406.2458179160003,406.2458179160003,406.1963587493337,406.2458179160003,406.2458179160003,406.2458179160003,406.1963587493337,406.2458179160003,406.2458179160003,406.2458179160003,406.2458179160003,406.2458179160003,411.467336875,411.467336875,415.40472012500004,None,0,,reldom2_s039,001,2025-03-19_16h21.36.758,Aud-B-Scan_AC,2022.2.5,None,
35,Second_Order,6.0,audwhat,stimulus/audwhat_stim/string cello_low-pitch_D_loud.wav,stimulus/audwhat_stim/percussion mallet_low-pitch_D_loud.wav,stimulus/audwhat_stim/percussion mallet_low-pitch_D_loud.wav,stimulus/audwhat_stim/percussion xylophone_high-pitch_Ftri_loud.wav,stimulus/audwhat_stim/match_blank.png,stimulus/audwhat_stim/match_box.png,stimulus/audwhat_stim/match_yes.png,stimulus/audwhat_stim/match_no.png,2.0,Match,Pitch,Category,2,5.125,0,5.125,0,5.125,0,5.125,0,0.75,0.75,0,0,0,0,0,0,0,0,1,0.5,1,2.125,1,0.5,1,2.125,0,,,,,0,46,46,46,,,,,,,,,415.40472012500004,420.5280696660002,415.40472012500004,415.40472012500004,415.40472012500004,415.40472012500004,415.8630587910002,416.85246533300005,415.86628999966683,,417.48784879100003,418.4860278330002,417.5000883746668,,420.5280696660002,421.3784977080004,423.44789445800006,,421.3784977080004,421.3784977080004,426.5366774580002,421.3784977080004,421.3784977080004,421.3784977080004,421.3784977080004,421.8363182500002,422.8948327910002,421.80726879166673,,423.44789445800006,424.5114607080004,423.41822033266703,424.46515150000005,421.3784977080004,426.5366774580002,421.3784977080004,426.5366774580002,426.5366774580002,,421.3784977080004,2,1,1.9559494160002941,reldom2_s039,001,2025-03-19_16h21.36.758,Aud-B-Scan_AC,2022.2.5,None,
36,Second_Order,6.0,audwhat,stimulus/audwhat_stim/string cello_low-pitch_Dtri_loud.wav,stimulus/audwhat_stim/percussion mallet_low-pitch_Dtri_loud.wav,stimulus/audwhat_stim/string viola_high-pitch_F_loud.wav,stimulus/audwhat_stim/percussion xylophone_high-pitch_F_loud.wav,stimulus/audwhat_stim/match_blank.png,stimulus/audwhat_stim/match_box.png,stimulus/audwhat_stim/match_yes.png,stimulus/audwhat_stim/match_no.png,1.0,Match,Pitch,Pitch,1,5.125,0,5.125,0,5.125,0,5.125,0,0.625,0.625,0,0,0,0,0,0,0,0,1,0.5,1,2.125,1,0.5,1,2.125,0,,,,,0,47,47,47,,,,,,,,,427.347251875,432.4722280830001,427.347251875,427.347251875,427.347251875,427.347251875,427.80693120800015,428.79638837500033,427.8103448746667,,429.43257412500043,430.4298829160002,429.44405299966706,,432.4722280830001,433.2031713330002,435.2568502080003,,433.2031713330002,433.2031713330002,438.3736952500003,433.2031713330002,433.2031713330002,433.2031713330002,433.2031713330002,433.6577005830004,434.7073001660001,433.62835191666704,,435.2568502080003,436.31320933300003,435.22727595766696,436.2677106660003,433.2031713330002,438.3736952500003,433.2031713330002,438.3736952500003,438.3736952500003,439.0216317080003,433.2031713330002,1,1,0.8036646659998041,reldom2_s039,001,2025-03-19_16h21.36.758,Aud-B-Scan_AC,2022.2.5,None,
0,0.0,None,fixation,stimulus/audwhat_stim/blank_white.png,stimulus/audwhat_stim/blank_white.png,stimulus/audwhere_stim/blank_white.png,stimulus/audwhere_stim/blank_white.png,stimulus/audwhat_stim/blank_white.png,stimulus/audwhat_stim/blank_white.png,stimulus/audwhat_stim/blank_white.png,stimulus/audwhat_stim/blank_white.png,0.0,0.0,0.0,0.0,0,0.0,0,0.0,0,0.0,0,0.0,0,0.0,0.0,0,0,0,0,0,0,0,0,0,0.0,0,0.0,0,0.0,0,0.0,10,,,,,0,48,48,48,,,,,,,,,439.293620291,439.293620291,439.293620291,439.293620291,439.293620291,439.293620291,439.293620291,439.293620291,439.1955889993334,439.293620291,439.293620291,439.293620291,439.1955889993334,439.293620291,439.293620291,439.293620291,439.293620291,439.293620291,439.293620291,439.293620291,439.293620291,439.293620291,439.293620291,439.293620291,439.293620291,439.293620291,439.293620291,439.2455889993334,439.293620291,439.293620291,439.293620291,439.2455889993334,439.293620291,439.293620291,439.293620291,439.293620291,439.293620291,444.5237887080002,444.5237887080002,449.5237865830004,None,0,,reldom2_s039,001,2025-03-19_16h21.36.758,Aud-B-Scan_AC,2022.2.5,None,
37,First_Order,7.0,audwhere,stimulus/audwhere_stim/dummy.wav,stimulus/audwhere_stim/dummy.wav,stimulus/audwhere_stim/right_toward_300h.wav,stimulus/audwhere_stim/left_toward_290h.wav,stimulus/audwhere_stim/blank_white.png,stimulus/audwhere_stim/direction_box.png,stimulus/audwhere_stim/direction_yes.png,stimulus/audwhere_stim/direction_no.png,None,Direction,None,Direction,1,0.0,0,5.125,0,5.125,0,5.125,0,0.0,0.625,0,0,0,0,0,0,0,0,0,0.0,0,0.0,1,0.5,1,2.125,0,,,,,0,49,49,49,,,,,,,,,449.5237865830004,449.5237865830004,449.5237865830004,449.5237865830004,449.5237865830004,449.5237865830004,449.5237865830004,449.5237865830004,449.45284633266704,449.5237865830004,449.5237865830004,449.5237865830004,449.45284633266704,449.5237865830004,449.5237865830004,449.5237865830004,451.6170899580002,,449.5237865830004,449.5237865830004,454.6827391660004,449.5237865830004,449.5237865830004,449.5237865830004,449.5237865830004,449.9896832500003,451.0599178330003,449.95948599966664,,451.6170899580002,452.68654166600027,451.58695929166674,,449.5237865830004,454.6827391660004,449.5237865830004,454.6827391660004,454.724205041,455.37788308300014,449.5237865830004,2,0,1.7754357500002698,reldom2_s039,001,2025-03-19_16h21.36.758,Aud-B-Scan_AC,2022.2.5,None,
38,First_Order,7.0,audwhere,stimulus/audwhere_stim/dummy.wav,stimulus/audwhere_stim/dummy.wav,stimulus/audwhere_stim/right_toward_290h.wav,stimulus/audwhere_stim/right_away_270h.wav,stimulus/audwhere_stim/blank_white.png,stimulus/audwhere_stim/side_box.png,stimulus/audwhere_stim/side_yes.png,stimulus/audwhere_stim/side_no.png,None,Side,None,Side,1,0.0,0,5.125,0,5.125,0,5.125,0,0.0,0.625,0,0,0,0,0,0,0,0,0,0.0,0,0.0,1,0.5,1,2.125,0,,,,,0,50,50,50,,,,,,,,,455.62990666600035,455.62990666600035,455.62990666600035,455.62990666600035,455.62990666600035,455.62990666600035,455.62990666600035,455.62990666600035,455.5516975833335,455.62990666600035,455.62990666600035,455.62990666600035,455.5516975833335,455.62990666600035,455.62990666600035,455.62990666600035,457.7122819580004,461.7510621250003,455.62990666600035,455.62990666600035,460.8058739160001,455.62990666600035,455.62990666600035,455.62990666600035,455.62990666600035,456.0917917910001,457.15756308300024,456.06230887466677,,457.7122819580004,458.7739692910004,457.68279329166694,,455.62990666600035,460.8058739160001,455.62990666600035,460.8058739160001,460.8469986660002,461.49871545800033,455.62990666600035,1,1,1.9797994999998991,reldom2_s039,001,2025-03-19_16h21.36.758,Aud-B-Scan_AC,2022.2.5,None,
39,First_Order,7.0,audwhere,stimulus/audwhere_stim/dummy.wav,stimulus/audwhere_stim/dummy.wav,stimulus/audwhere_stim/left_away_290h.wav,stimulus/audwhere_stim/left_toward_290h.wav,stimulus/audwhere_stim/blank_white.png,stimulus/audwhere_stim/direction_box.png,stimulus/audwhere_stim/direction_yes.png,stimulus/audwhere_stim/direction_no.png,None,Direction,None,Side,2,0.0,0,5.125,0,5.125,0,5.125,0,0.0,0.625,0,0,0,0,0,0,0,0,0,0.0,0,0.0,1,0.5,1,2.125,0,,,,,0,51,51,51,,,,,,,,,461.7510621250003,461.7510621250003,461.7510621250003,461.7510621250003,461.7510621250003,461.7510621250003,461.7510621250003,461.7510621250003,461.67261412433356,461.7510621250003,461.7510621250003,461.7510621250003,461.67261412433356,461.7510621250003,461.7510621250003,461.7510621250003,463.8415024580004,,461.7510621250003,461.7510621250003,466.9150393330001,461.7510621250003,461.7510621250003,461.7510621250003,461.7510621250003,462.2150612500004,463.28341908300035,462.18537316666675,,463.8415024580004,464.9147604580003,463.81138662466697,,461.7510621250003,466.9150393330001,461.7510621250003,466.9150393330001,466.9561627500002,467.6076222500001,461.7510621250003,1,0,1.075011916999756,reldom2_s039,001,2025-03-19_16h21.36.758,Aud-B-Scan_AC,2022.2.5,None,
40,First_Order,7.0,audwhere,stimulus/audwhere_stim/dummy.wav,stimulus/audwhere_stim/dummy.wav,stimulus/audwhere_stim/right_away_280h.wav,stimulus/audwhere_stim/right_toward_290h.wav,stimulus/audwhere_stim/blank_white.png,stimulus/audwhere_stim/direction_box.png,stimulus/audwhere_stim/direction_yes.png,stimulus/audwhere_stim/direction_no.png,None,Direction,None,Side,2,0.0,0,5.125,0,5.125,0,5.125,0,0.0,0.625,0,0,0,0,0,0,0,0,0,0.0,0,0.0,1,0.5,1,2.125,0,,,,,0,52,52,52,,,,,,,,,467.86002666600007,467.86002666600007,467.86002666600007,467.86002666600007,467.86002666600007,467.86002666600007,467.86002666600007,467.86002666600007,467.7819120833334,467.86002666600007,467.86002666600007,467.86002666600007,467.7819120833334,467.86002666600007,467.86002666600007,467.86002666600007,469.95251054100027,473.9995928750004,467.86002666600007,467.86002666600007,473.03167650000023,467.86002666600007,467.86002666600007,467.86002666600007,467.86002666600007,468.3245791250001,469.39483225000004,468.2951582916669,,469.95251054100027,471.02790870800027,469.92263329166667,,467.86002666600007,473.03167650000023,467.86002666600007,473.03167650000023,473.07280770800025,473.7258285410003,467.86002666600007,1,0,2.2607156250001026,reldom2_s039,001,2025-03-19_16h21.36.758,Aud-B-Scan_AC,2022.2.5,None,
0,0.0,None,fixation,stimulus/audwhat_stim/blank_white.png,stimulus/audwhat_stim/blank_white.png,stimulus/audwhere_stim/blank_white.png,stimulus/audwhere_stim/blank_white.png,stimulus/audwhat_stim/blank_white.png,stimulus/audwhat_stim/blank_white.png,stimulus/audwhat_stim/blank_white.png,stimulus/audwhat_stim/blank_white.png,0.0,0.0,0.0,0.0,0,0.0,0,0.0,0,0.0,0,0.0,0,0.0,0.0,0,0,0,0,0,0,0,0,0,0.0,0,0.0,0,0.0,0,0.0,8,,,,,0,53,53,53,,,,,,,,,473.9995928750004,473.9995928750004,473.9995928750004,473.9995928750004,473.9995928750004,473.9995928750004,473.9995928750004,473.9995928750004,473.9000263743334,473.9995928750004,473.9995928750004,473.9995928750004,473.9000263743334,473.9995928750004,473.9995928750004,473.9995928750004,473.9995928750004,473.9995928750004,473.9995928750004,473.9995928750004,473.9995928750004,473.9995928750004,473.9995928750004,473.9995928750004,473.9995928750004,473.9995928750004,473.9995928750004,473.9500263743334,473.9995928750004,473.9995928750004,473.9995928750004,473.9500263743334,473.9995928750004,473.9995928750004,473.9995928750004,473.9995928750004,473.9995928750004,479.2274838750004,479.2274838750004,482.1449607080003,None,0,,reldom2_s039,001,2025-03-19_16h21.36.758,Aud-B-Scan_AC,2022.2.5,None,
41,Second_Order,7.0,audwhere,stimulus/audwhere_stim/left_toward_300h.wav,stimulus/audwhere_stim/right_toward_280h.wav,stimulus/audwhere_stim/right_toward_270h.wav,stimulus/audwhere_stim/right_away_290h.wav,stimulus/audwhat_stim/match_blank.png,stimulus/audwhat_stim/match_box.png,stimulus/audwhat_stim/match_yes.png,stimulus/audwhat_stim/match_no.png,2.0,Match,Direction,Side,2,5.125,0,5.125,0,5.125,0,5.125,0,0.75,0.75,0,0,0,0,0,0,0,0,1,0.5,1,2.125,1,0.5,1,2.125,0,,,,,0,54,54,54,,,,,,,,,482.1449607080003,487.2657368330001,482.1449607080003,482.1449607080003,482.1449607080003,482.1449607080003,482.6045760830002,483.60262541600014,482.61766124966675,,484.22504800000024,485.223157375,484.23732845766676,,487.2657368330001,488.11732466600006,490.18544687500025,,488.11732466600006,488.11732466600006,493.2836430000002,488.11732466600006,488.11732466600006,488.11732466600006,488.11732466600006,488.57507187500005,489.6327556250003,488.54547541666693,,490.18544687500025,491.2483829160001,490.15562579166703,,488.11732466600006,493.2836430000002,488.11732466600006,493.2836430000002,493.2836430000002,,488.11732466600006,1,0,2.0648768749997544,reldom2_s039,001,2025-03-19_16h21.36.758,Aud-B-Scan_AC,2022.2.5,None,
42,Second_Order,7.0,audwhere,stimulus/audwhere_stim/right_toward_290h.wav,stimulus/audwhere_stim/left_toward_270h.wav,stimulus/audwhere_stim/left_toward_290h.wav,stimulus/audwhere_stim/left_away_280h.wav,stimulus/audwhat_stim/match_blank.png,stimulus/audwhat_stim/match_box.png,stimulus/audwhat_stim/match_yes.png,stimulus/audwhat_stim/match_no.png,2.0,Match,Direction,Side,2,5.125,0,5.125,0,5.125,0,5.125,0,0.625,0.625,0,0,0,0,0,0,0,0,1,0.5,1,2.125,1,0.5,1,2.125,0,,,,,0,55,55,55,,,,,,,,,494.0920806250001,499.21028079100006,494.0920806250001,494.0920806250001,494.0920806250001,494.0920806250001,494.5482151660003,495.5470166660002,494.56097145766694,,496.16906091600003,497.16757695800015,496.1817235826668,,499.21028079100006,499.9405705830004,501.99609608300034,,499.9405705830004,499.9405705830004,505.1181522500001,499.9405705830004,499.9405705830004,499.9405705830004,499.9405705830004,500.3955137080002,501.447563875,500.3661623326668,,501.99609608300034,503.0570133750002,501.966750207667,,499.9405705830004,505.1181522500001,499.9405705830004,505.1181522500001,505.1181522500001,505.8016687500003,499.9405705830004,1,0,0.8269675839997035,reldom2_s039,001,2025-03-19_16h21.36.758,Aud-B-Scan_AC,2022.2.5,None,
0,0.0,None,fixation,stimulus/audwhat_stim/blank_white.png,stimulus/audwhat_stim/blank_white.png,stimulus/audwhere_stim/blank_white.png,stimulus/audwhere_stim/blank_white.png,stimulus/audwhat_stim/blank_white.png,stimulus/audwhat_stim/blank_white.png,stimulus/audwhat_stim/blank_white.png,stimulus/audwhat_stim/blank_white.png,0.0,0.0,0.0,0.0,0,0.0,0,0.0,0,0.0,0,0.0,0,0.0,0.0,0,0,0,0,0,0,0,0,0,0.0,0,0.0,0,0.0,0,0.0,10,,,,,0,56,56,56,,,,,,,,,506.03249429100015,506.03249429100015,506.03249429100015,506.03249429100015,506.03249429100015,506.03249429100015,506.03249429100015,506.03249429100015,505.93500208333364,506.03249429100015,506.03249429100015,506.03249429100015,505.93500208333364,506.03249429100015,506.03249429100015,506.03249429100015,506.03249429100015,506.03249429100015,506.03249429100015,506.03249429100015,506.03249429100015,506.03249429100015,506.03249429100015,506.03249429100015,506.03249429100015,506.03249429100015,506.03249429100015,505.98500208333365,506.03249429100015,506.03249429100015,506.03249429100015,505.98500208333365,506.03249429100015,506.03249429100015,506.03249429100015,506.03249429100015,506.03249429100015,511.22444587500013,511.22444587500013,516.2896595830002,None,0,,reldom2_s039,001,2025-03-19_16h21.36.758,Aud-B-Scan_AC,2022.2.5,None,
43,First_Order,8.0,audwhere,stimulus/audwhere_stim/dummy.wav,stimulus/audwhere_stim/dummy.wav,stimulus/audwhere_stim/right_toward_270h.wav,stimulus/audwhere_stim/left_toward_300h.wav,stimulus/audwhere_stim/blank_white.png,stimulus/audwhere_stim/side_box.png,stimulus/audwhere_stim/side_yes.png,stimulus/audwhere_stim/side_no.png,None,Side,None,Direction,2,0.0,0,5.125,0,5.125,0,5.125,0,0.0,0.625,0,0,0,0,0,0,0,0,0,0.0,0,0.0,1,0.5,1,2.125,0,,,,,0,57,57,57,,,,,,,,,516.2896595830002,516.2896595830002,516.2896595830002,516.2896595830002,516.2896595830002,516.2896595830002,516.2896595830002,516.2896595830002,516.2188972496666,516.2896595830002,516.2896595830002,516.2896595830002,516.2188972496666,516.2896595830002,516.2896595830002,516.2896595830002,518.3658086660002,522.404008166,516.2896595830002,516.2896595830002,521.4604168750002,516.2896595830002,516.2896595830002,516.2896595830002,516.2896595830002,516.7523176250002,517.8126955000002,516.7227163326668,,518.3658086660002,519.4318423330001,518.3359209166667,,516.2896595830002,521.4604168750002,516.2896595830002,521.4604168750002,521.50144275,522.1519774160001,516.2896595830002,1,0,0.9933395419998305,reldom2_s039,001,2025-03-19_16h21.36.758,Aud-B-Scan_AC,2022.2.5,None,
44,First_Order,8.0,audwhere,stimulus/audwhere_stim/dummy.wav,stimulus/audwhere_stim/dummy.wav,stimulus/audwhere_stim/right_toward_270h.wav,stimulus/audwhere_stim/left_toward_280h.wav,stimulus/audwhere_stim/blank_white.png,stimulus/audwhere_stim/side_box.png,stimulus/audwhere_stim/side_yes.png,stimulus/audwhere_stim/side_no.png,None,Side,None,Direction,2,0.0,0,5.125,0,5.125,0,5.125,0,0.0,0.625,0,0,0,0,0,0,0,0,0,0.0,0,0.0,1,0.5,1,2.125,0,,,,,0,58,58,58,,,,,,,,,522.404008166,522.404008166,522.404008166,522.404008166,522.404008166,522.404008166,522.404008166,522.404008166,522.3259472493334,522.404008166,522.404008166,522.404008166,522.3259472493334,522.404008166,522.404008166,522.404008166,524.4834237080004,528.5224115830001,522.404008166,522.404008166,527.5786105000002,522.404008166,522.404008166,522.404008166,522.404008166,522.8672375830001,523.9289949580002,522.837395291667,,524.4834237080004,525.5475055000002,524.4538283746667,,522.404008166,527.5786105000002,522.404008166,527.5786105000002,527.619530291,528.2700958330001,522.404008166,1,0,1.1237452079999457,reldom2_s039,001,2025-03-19_16h21.36.758,Aud-B-Scan_AC,2022.2.5,None,
45,First_Order,8.0,audwhere,stimulus/audwhere_stim/dummy.wav,stimulus/audwhere_stim/dummy.wav,stimulus/audwhere_stim/right_toward_270h.wav,stimulus/audwhere_stim/left_toward_290h.wav,stimulus/audwhere_stim/blank_white.png,stimulus/audwhere_stim/direction_box.png,stimulus/audwhere_stim/direction_yes.png,stimulus/audwhere_stim/direction_no.png,None,Direction,None,Direction,1,0.0,0,5.125,0,5.125,0,5.125,0,0.0,0.625,0,0,0,0,0,0,0,0,0,0.0,0,0.0,1,0.5,1,2.125,0,,,,,0,59,59,59,,,,,,,,,528.5224115830001,528.5224115830001,528.5224115830001,528.5224115830001,528.5224115830001,528.5224115830001,528.5224115830001,528.5224115830001,528.4439703333334,528.5224115830001,528.5224115830001,528.5224115830001,528.4439703333334,528.5224115830001,528.5224115830001,528.5224115830001,530.6162067910004,,528.5224115830001,528.5224115830001,533.6849524160002,528.5224115830001,528.5224115830001,528.5224115830001,528.5224115830001,528.9888577080001,530.0580136660001,528.9591560826668,,530.6162067910004,531.6874985410004,530.5856594996669,,528.5224115830001,533.6849524160002,528.5224115830001,533.6849524160002,533.7259971660001,534.380619,528.5224115830001,1,1,2.0581003330003114,reldom2_s039,001,2025-03-19_16h21.36.758,Aud-B-Scan_AC,2022.2.5,None,
46,First_Order,8.0,audwhere,stimulus/audwhere_stim/dummy.wav,stimulus/audwhere_stim/dummy.wav,stimulus/audwhere_stim/left_away_300h.wav,stimulus/audwhere_stim/left_toward_300h.wav,stimulus/audwhere_stim/blank_white.png,stimulus/audwhere_stim/side_box.png,stimulus/audwhere_stim/side_yes.png,stimulus/audwhere_stim/side_no.png,None,Side,None,Side,1,0.0,0,5.125,0,5.125,0,5.125,0,0.0,0.625,0,0,0,0,0,0,0,0,0,0.0,0,0.0,1,0.5,1,2.125,0,,,,,0,60,60,60,,,,,,,,,534.633151125,534.633151125,534.633151125,534.633151125,534.633151125,534.633151125,534.633151125,534.633151125,534.5545153743334,534.633151125,534.633151125,534.633151125,534.5545153743334,534.633151125,534.633151125,534.633151125,536.7179559580004,540.7852819580003,534.633151125,534.633151125,539.8176926660003,534.633151125,534.633151125,534.633151125,534.633151125,535.09721575,536.1611809160004,535.0674346666667,,536.7179559580004,537.784445708,536.6877959996671,,534.633151125,539.8176926660003,534.633151125,539.8176926660003,539.8584340000002,540.5097971250002,534.633151125,1,1,1.1595504160000019,reldom2_s039,001,2025-03-19_16h21.36.758,Aud-B-Scan_AC,2022.2.5,None,
0,0.0,None,fixation,stimulus/audwhat_stim/blank_white.png,stimulus/audwhat_stim/blank_white.png,stimulus/audwhere_stim/blank_white.png,stimulus/audwhere_stim/blank_white.png,stimulus/audwhat_stim/blank_white.png,stimulus/audwhat_stim/blank_white.png,stimulus/audwhat_stim/blank_white.png,stimulus/audwhat_stim/blank_white.png,0.0,0.0,0.0,0.0,0,0.0,0,0.0,0,0.0,0,0.0,0,0.0,0.0,0,0,0,0,0,0,0,0,0,0.0,0,0.0,0,0.0,0,0.0,9,,,,,0,61,61,61,,,,,,,,,540.7852819580003,540.7852819580003,540.7852819580003,540.7852819580003,540.7852819580003,540.7852819580003,540.7852819580003,540.7852819580003,540.6839953333334,540.7852819580003,540.7852819580003,540.7852819580003,540.6839953333334,540.7852819580003,540.7852819580003,540.7852819580003,540.7852819580003,540.7852819580003,540.7852819580003,540.7852819580003,540.7852819580003,540.7852819580003,540.7852819580003,540.7852819580003,540.7852819580003,540.7852819580003,540.7852819580003,540.7339953333334,540.7852819580003,540.7852819580003,540.7852819580003,540.7339953333334,540.7852819580003,540.7852819580003,540.7852819580003,540.7852819580003,540.7852819580003,546.0095755830002,546.0095755830002,549.9421003750003,None,0,,reldom2_s039,001,2025-03-19_16h21.36.758,Aud-B-Scan_AC,2022.2.5,None,
47,Second_Order,8.0,audwhere,stimulus/audwhere_stim/right_away_300h.wav,stimulus/audwhere_stim/right_toward_270h.wav,stimulus/audwhere_stim/left_away_280h.wav,stimulus/audwhere_stim/left_toward_270h.wav,stimulus/audwhat_stim/match_blank.png,stimulus/audwhat_stim/match_box.png,stimulus/audwhat_stim/match_yes.png,stimulus/audwhat_stim/match_no.png,1.0,Match,Side,Side,1,5.125,0,5.125,0,5.125,0,5.125,0,0.75,0.75,0,0,0,0,0,0,0,0,1,0.5,1,2.125,1,0.5,1,2.125,0,,,,,0,62,62,62,,,,,,,,,549.9421003750003,555.056092708,549.9421003750003,549.9421003750003,549.9421003750003,549.9421003750003,550.3935315830004,551.3795579160001,550.406563291667,,552.0154673330003,553.0132741250004,552.0276604166668,,555.056092708,555.9055068750004,557.976948166,,555.9055068750004,555.9055068750004,561.0724668750004,555.9055068750004,555.9055068750004,555.9055068750004,555.9055068750004,556.3630309580003,557.4237203330003,556.333723957667,,557.976948166,559.0399320830002,557.9475072076668,,555.9055068750004,561.0724668750004,555.9055068750004,561.0724668750004,561.0724668750004,,555.9055068750004,1,1,1.6363784999998643,reldom2_s039,001,2025-03-19_16h21.36.758,Aud-B-Scan_AC,2022.2.5,None,
48,Second_Order,8.0,audwhere,stimulus/audwhere_stim/right_toward_270h.wav,stimulus/audwhere_stim/right_away_270h.wav,stimulus/audwhere_stim/left_away_280h.wav,stimulus/audwhere_stim/left_toward_290h.wav,stimulus/audwhat_stim/match_blank.png,stimulus/audwhat_stim/match_box.png,stimulus/audwhat_stim/match_yes.png,stimulus/audwhat_stim/match_no.png,1.0,Match,Side,Side,1,5.125,0,5.125,0,5.125,0,5.125,0,0.625,0.625,0,0,0,0,0,0,0,0,1,0.5,1,2.125,1,0.5,1,2.125,0,,,,,0,63,63,63,,,,,,,,,561.8816645410002,567.0007772080003,561.8816645410002,561.8816645410002,561.8816645410002,561.8816645410002,562.3381994160004,563.3369603330002,562.3511345416671,,563.9594709580001,564.9571717500003,563.9721290826667,,567.0007772080003,567.727598166,569.7810467910003,,567.727598166,567.727598166,572.9121490830003,567.727598166,567.727598166,567.727598166,567.727598166,568.1820554160004,569.2328505830001,568.1531085826671,,569.7810467910003,570.8398279580001,569.752509666667,,567.727598166,572.9121490830003,567.727598166,572.9121490830003,572.9121490830003,573.5959628330002,567.727598166,2,0,1.8390361669999038,reldom2_s039,001,2025-03-19_16h21.36.758,Aud-B-Scan_AC,2022.2.5,None,
0,0.0,None,fixation,stimulus/audwhat_stim/blank_white.png,stimulus/audwhat_stim/blank_white.png,stimulus/audwhere_stim/blank_white.png,stimulus/audwhere_stim/blank_white.png,stimulus/audwhat_stim/blank_white.png,stimulus/audwhat_stim/blank_white.png,stimulus/audwhat_stim/blank_white.png,stimulus/audwhat_stim/blank_white.png,0.0,0.0,0.0,0.0,0,0.0,0,0.0,0,0.0,0,0.0,0,0.0,0.0,0,0,0,0,0,0,0,0,0,0.0,0,0.0,0,0.0,0,0.0,16,,,,,0,64,64,64,,,,,,,,,573.8280512910001,573.8280512910001,573.8280512910001,573.8280512910001,573.8280512910001,573.8280512910001,573.8280512910001,573.8280512910001,573.7292961663335,573.8280512910001,573.8280512910001,573.8280512910001,573.7292961663335,573.8280512910001,573.8280512910001,573.8280512910001,573.8280512910001,573.8280512910001,573.8280512910001,573.8280512910001,573.8280512910001,573.8280512910001,573.8280512910001,573.8280512910001,573.8280512910001,573.8280512910001,573.8280512910001,573.7792961663334,573.8280512910001,573.8280512910001,573.8280512910001,573.7792961663334,573.8280512910001,573.8280512910001,573.8280512910001,573.8280512910001,573.8280512910001,579.026324208,579.026324208,589.9952821660004,None,0,,reldom2_s039,001,2025-03-19_16h21.36.758,Aud-B-Scan_AC,2022.2.5,None,
