Trial,Order,Block,Type,Stimuli_File1,Stimuli_File2,Stimuli_File3,Stimuli_File4,Cue_File1,Cue_File2,Response_File_Yes,Response_File_No,Match,Cue_Dimension,Pair1_Dimension,Pair2_Dimension,Key,Cue1_Duration,Cue1_Onset,Cue2_Duration,Cue2_Onset,ResponseYes_Duration,ResponseYes_Onset,ResponseNo_Duration,ResponseNo_Onset,ITI_Within,ITI_Between,Image1_Duration,Image1_Onset,Image2_Duration,Image2_Onset,Image3_Duration,Image3_Onset,Image4_Duration,Image4_Onset,Sound1_Duration,Sound1_Onset,Sound2_Duration,Sound2_Onset,Sound3_Duration,Sound3_Onset,Sound4_Duration,Sound4_Onset,Fixation_Duration,trials_2.thisRepN,trials_2.thisTrialN,trials_2.thisN,trials_2.thisIndex,trials.thisRepN,trials.thisTrialN,trials.thisN,trials.thisIndex,text_start.started,key_resp_start.started,key_resp_start.keys,key_resp_start.rt,text2.started,key_resp_2.started,key_resp_2.keys,key_resp_2.rt,cue_file1.started,cue_file1.stopped,image_1.started,image_1.stopped,image_2.started,image_2.stopped,sound_icon1.started,sound_icon1.stopped,sound_1.started,sound_1.stopped,sound_icon2.started,sound_icon2.stopped,sound_2.started,sound_2.stopped,image_blank_1.started,image_blank_1.stopped,key_press.started,key_press.stopped,fixation_text.started,cue_file2.started,cue_file2.stopped,image_3.started,image_3.stopped,image_4.started,image_4.stopped,sound_icon3.started,sound_icon3.stopped,sound_3.started,sound_3.stopped,sound_icon4.started,sound_icon4.stopped,sound_4.started,sound_4.stopped,response_yes.started,response_yes.stopped,response_no.started,response_no.stopped,iti_blank.started,iti_blank.stopped,fixation_text.stopped,key_press.keys,key_press.corr,key_press.rt,participant,session,date,expName,psychopyVersion,frameRate,
,,,,,,,,,,,,,,,,,,,,,,,,,,,,,,,,,,,,,,,,,,,,,,,,,,,,8.963231334000056,8.963231334000056,2,1.8926449989999128,,,,,,,,,,,,,,,,,,,,,,,,,,,,,,,,,,,,,,,,,,,,,,,,reldom2_s039,001,2025-03-19_16h04.33.486,Where-B-Scan_AC,2022.2.5,None,
,,,,,,,,,,,,,,,,,,,,,,,,,,,,,,,,,,,,,,,,,,,,0,0,0,0,,,,,,,,,10.890319709000096,10.890319709000096,5,17.208498998999858,,,,,,,,,,,,,,,,,,,,,,,,,,,,,,,,,,,,,,,,,,,,reldom2_s039,001,2025-03-19_16h04.33.486,Where-B-Scan_AC,2022.2.5,None,
,,,,,,,,,,,,,,,,,,,,,,,,,,,,,,,,,,,,,,,,,,,,1,0,1,0,,,,,,,,,28.119150750000017,28.119150750000017,5,1.9803435819999322,,,,,,,,,,,,,,,,,,,,,,,,,,,,,,,,,,,,,,,,,,,,reldom2_s039,001,2025-03-19_16h04.33.486,Where-B-Scan_AC,2022.2.5,None,
,,,,,,,,,,,,,,,,,,,,,,,,,,,,,,,,,,,,,,,,,,,,2,0,2,0,,,,,,,,,30.116049792000013,30.116049792000013,5,1.9838973749997422,,,,,,,,,,,,,,,,,,,,,,,,,,,,,,,,,,,,,,,,,,,,reldom2_s039,001,2025-03-19_16h04.33.486,Where-B-Scan_AC,2022.2.5,None,
,,,,,,,,,,,,,,,,,,,,,,,,,,,,,,,,,,,,,,,,,,,,3,0,3,0,,,,,,,,,32.11312766700007,32.11312766700007,5,1.9857054159999734,,,,,,,,,,,,,,,,,,,,,,,,,,,,,,,,,,,,,,,,,,,,reldom2_s039,001,2025-03-19_16h04.33.486,Where-B-Scan_AC,2022.2.5,None,
0,0.0,None,fixation,stimulus/audwhere_stim/blank_white.png,stimulus/audwhere_stim/blank_white.png,stimulus/viswhere_stim/blank_white.png,stimulus/viswhere_stim/blank_white.png,stimulus/audwhere_stim/blank_white.png,stimulus/audwhere_stim/blank_white.png,stimulus/audwhere_stim/blank_white.png,stimulus/audwhere_stim/blank_white.png,0.0,0.0,0.0,0.0,0,0.0,0,0.0,0,0.0,0,0.0,0,0.0,0.0,0,0.0,0,0.0,0,0.0,0,0.0,0,0.0,0,0.0,0,0.0,0,0.0,16,,,,,0,0,0,0,,,,,,,,,34.3190784169999,34.3190784169999,34.3190784169999,34.3190784169999,34.3190784169999,34.3190784169999,34.3190784169999,34.3190784169999,34.22316058366675,34.3190784169999,34.3190784169999,34.3190784169999,34.22316058366675,34.3190784169999,34.3190784169999,34.3190784169999,34.3190784169999,34.3190784169999,34.3190784169999,34.3190784169999,34.3190784169999,34.3190784169999,34.3190784169999,34.3190784169999,34.3190784169999,34.3190784169999,34.3190784169999,34.273160583666744,34.3190784169999,34.3190784169999,34.3190784169999,34.273160583666744,34.3190784169999,34.3190784169999,34.3190784169999,34.3190784169999,34.3190784169999,39.515531250000095,39.515531250000095,50.528876625000066,None,0,,reldom2_s039,001,2025-03-19_16h04.33.486,Where-B-Scan_AC,2022.2.5,None,
1,First_Order,1.0,audwhere,stimulus/audwhere_stim/dummy.wav,stimulus/audwhere_stim/dummy.wav,stimulus/audwhere_stim/right_away_290h.wav,stimulus/audwhere_stim/right_toward_300h.wav,stimulus/audwhere_stim/blank_white.png,stimulus/audwhere_stim/direction_box.png,stimulus/audwhere_stim/direction_yes.png,stimulus/audwhere_stim/direction_no.png,None,Direction,None,Side,2,0.0,0,5.125,0,5.125,0,5.125,0,0.0,0.625,0,0.0,0,0.0,0,0.0,0,0.0,0,0.0,0,0.0,1,0.5,1,2.125,0,,,,,0,1,1,1,,,,,,,,,50.528876625000066,50.528876625000066,50.528876625000066,50.528876625000066,50.528876625000066,50.528876625000066,50.528876625000066,50.528876625000066,50.45669987500005,50.528876625000066,50.528876625000066,50.528876625000066,50.45669987500005,50.528876625000066,50.528876625000066,50.528876625000066,52.63011449999999,,50.528876625000066,50.528876625000066,55.69251395900005,50.528876625000066,50.528876625000066,50.528876625000066,50.528876625000066,50.98701770899993,52.035065625000016,50.95757141666674,,52.63011449999999,53.68171995900002,52.60114779166658,,50.528876625000066,55.69251395900005,50.528876625000066,55.69251395900005,55.732753167000055,56.417104249999966,50.528876625000066,None,0,,reldom2_s039,001,2025-03-19_16h04.33.486,Where-B-Scan_AC,2022.2.5,None,
2,First_Order,1.0,audwhere,stimulus/audwhere_stim/dummy.wav,stimulus/audwhere_stim/dummy.wav,stimulus/audwhere_stim/left_toward_290h.wav,stimulus/audwhere_stim/right_toward_280h.wav,stimulus/audwhere_stim/blank_white.png,stimulus/audwhere_stim/side_box.png,stimulus/audwhere_stim/side_yes.png,stimulus/audwhere_stim/side_no.png,None,Side,None,Direction,2,0.0,0,5.125,0,5.125,0,5.125,0,0.0,0.625,0,0.0,0,0.0,0,0.0,0,0.0,0,0.0,0,0.0,1,0.5,1,2.125,0,,,,,0,2,2,2,,,,,,,,,56.630079541999976,56.630079541999976,56.630079541999976,56.630079541999976,56.630079541999976,56.630079541999976,56.630079541999976,56.630079541999976,56.5504375833333,56.630079541999976,56.630079541999976,56.630079541999976,56.5504375833333,56.630079541999976,56.630079541999976,56.630079541999976,58.72655208399988,,56.630079541999976,56.630079541999976,61.78461679199995,56.630079541999976,56.630079541999976,56.630079541999976,56.630079541999976,57.08649754199996,58.134046791999936,57.0573680836667,58.08703624999998,58.72655208399988,59.77809395899999,58.69757687566677,,56.630079541999976,61.78461679199995,56.630079541999976,61.78461679199995,61.825394292000055,62.5100883340001,56.630079541999976,2,1,1.5787581659999432,reldom2_s039,001,2025-03-19_16h04.33.486,Where-B-Scan_AC,2022.2.5,None,
3,First_Order,1.0,audwhere,stimulus/audwhere_stim/dummy.wav,stimulus/audwhere_stim/dummy.wav,stimulus/audwhere_stim/right_toward_280h.wav,stimulus/audwhere_stim/right_away_300h.wav,stimulus/audwhere_stim/blank_white.png,stimulus/audwhere_stim/direction_box.png,stimulus/audwhere_stim/direction_yes.png,stimulus/audwhere_stim/direction_no.png,None,Direction,None,Side,2,0.0,0,5.125,0,5.125,0,5.125,0,0.0,0.625,0,0.0,0,0.0,0,0.0,0,0.0,0,0.0,0,0.0,1,0.5,1,2.125,0,,,,,0,3,3,3,,,,,,,,,62.721507917000054,62.721507917000054,62.721507917000054,62.721507917000054,62.721507917000054,62.721507917000054,62.721507917000054,62.721507917000054,62.643421667333435,62.721507917000054,62.721507917000054,62.721507917000054,62.643421667333435,62.721507917000054,62.721507917000054,62.721507917000054,64.835745417,,62.721507917000054,62.721507917000054,67.87920970899995,62.721507917000054,62.721507917000054,62.721507917000054,62.721507917000054,63.181827083999906,64.24124595900003,63.15228975066658,,64.835745417,65.89558083399993,64.80628012566673,,62.721507917000054,67.87920970899995,62.721507917000054,67.87920970899995,67.92008762499995,68.56879104199993,62.721507917000054,1,0,1.10355433299992,reldom2_s039,001,2025-03-19_16h04.33.486,Where-B-Scan_AC,2022.2.5,None,
4,First_Order,1.0,audwhere,stimulus/audwhere_stim/dummy.wav,stimulus/audwhere_stim/dummy.wav,stimulus/audwhere_stim/left_toward_270h.wav,stimulus/audwhere_stim/right_toward_300h.wav,stimulus/audwhere_stim/blank_white.png,stimulus/audwhere_stim/direction_box.png,stimulus/audwhere_stim/direction_yes.png,stimulus/audwhere_stim/direction_no.png,None,Direction,None,Direction,1,0.0,0,5.125,0,5.125,0,5.125,0,0.0,0.625,0,0.0,0,0.0,0,0.0,0,0.0,0,0.0,0,0.0,1,0.5,1,2.125,0,,,,,0,4,4,4,,,,,,,,,68.82103341700008,68.82103341700008,68.82103341700008,68.82103341700008,68.82103341700008,68.82103341700008,68.82103341700008,68.82103341700008,68.74244600033342,68.82103341700008,68.82103341700008,68.82103341700008,68.74244600033342,68.82103341700008,68.82103341700008,68.82103341700008,70.89878883400002,74.96883520899996,68.82103341700008,68.82103341700008,74.00253945899999,68.82103341700008,68.82103341700008,68.82103341700008,68.82103341700008,69.2837955,70.34584670899994,69.25398337566664,,70.89878883400002,71.96399225000005,70.86951629166676,,68.82103341700008,74.00253945899999,68.82103341700008,74.00253945899999,74.04270966700005,74.695572417,68.82103341700008,2,0,1.4186382079999476,reldom2_s039,001,2025-03-19_16h04.33.486,Where-B-Scan_AC,2022.2.5,None,
0,0.0,None,fixation,stimulus/audwhere_stim/blank_white.png,stimulus/audwhere_stim/blank_white.png,stimulus/viswhere_stim/blank_white.png,stimulus/viswhere_stim/blank_white.png,stimulus/audwhere_stim/blank_white.png,stimulus/audwhere_stim/blank_white.png,stimulus/audwhere_stim/blank_white.png,stimulus/audwhere_stim/blank_white.png,0.0,0.0,0.0,0.0,0,0.0,0,0.0,0,0.0,0,0.0,0,0.0,0.0,0,0.0,0,0.0,0,0.0,0,0.0,0,0.0,0,0.0,0,0.0,0,0.0,10,,,,,0,5,5,5,,,,,,,,,74.96883520899996,74.96883520899996,74.96883520899996,74.96883520899996,74.96883520899996,74.96883520899996,74.96883520899996,74.96883520899996,74.86972000033336,74.96883520899996,74.96883520899996,74.96883520899996,74.86972000033336,74.96883520899996,74.96883520899996,74.96883520899996,74.96883520899996,74.96883520899996,74.96883520899996,74.96883520899996,74.96883520899996,74.96883520899996,74.96883520899996,74.96883520899996,74.96883520899996,74.96883520899996,74.96883520899996,74.91972000033337,74.96883520899996,74.96883520899996,74.96883520899996,74.91972000033337,74.96883520899996,74.96883520899996,74.96883520899996,74.96883520899996,74.96883520899996,80.18147774999989,80.18147774999989,85.11721995900007,None,0,,reldom2_s039,001,2025-03-19_16h04.33.486,Where-B-Scan_AC,2022.2.5,None,
5,Second_Order,1.0,audwhere,stimulus/audwhere_stim/right_toward_300h.wav,stimulus/audwhere_stim/left_toward_280h.wav,stimulus/audwhere_stim/right_toward_280h.wav,stimulus/audwhere_stim/right_away_280h.wav,stimulus/audwhere_stim/match_blank.png,stimulus/audwhere_stim/match_box.png,stimulus/audwhere_stim/match_yes.png,stimulus/audwhere_stim/match_no.png,2.0,Match,Direction,Side,2,5.125,0,5.125,0,5.125,0,5.125,0,0.75,0.75,0,0.0,0,0.0,0,0.0,0,0.0,1,0.5,1,2.125,1,0.5,1,2.125,0,,,,,0,6,6,6,,,,,,,,,85.11721995900007,90.24109766700008,85.11721995900007,85.11721995900007,85.11721995900007,85.11721995900007,85.57480104199999,86.56467712499989,85.57806512566664,86.56467712499989,87.20051191700009,88.197975542,87.21237354166671,,90.24109766700008,91.09280129199988,93.1461139999999,,91.09280129199988,91.09280129199988,96.27059383400001,91.09280129199988,91.09280129199988,91.09280129199988,91.09280129199988,91.5472555419999,92.59708920899993,91.51805508366671,,93.1461139999999,94.20304520900004,93.11666966666668,,91.09280129199988,96.27059383400001,91.09280129199988,96.27059383400001,96.27059383400001,,91.09280129199988,1,0,1.5215968319998865,reldom2_s039,001,2025-03-19_16h04.33.486,Where-B-Scan_AC,2022.2.5,None,
6,Second_Order,1.0,audwhere,stimulus/audwhere_stim/right_toward_270h.wav,stimulus/audwhere_stim/right_away_290h.wav,stimulus/audwhere_stim/left_toward_300h.wav,stimulus/audwhere_stim/left_away_290h.wav,stimulus/audwhere_stim/match_blank.png,stimulus/audwhere_stim/match_box.png,stimulus/audwhere_stim/match_yes.png,stimulus/audwhere_stim/match_no.png,1.0,Match,Side,Side,1,5.125,0,5.125,0,5.125,0,5.125,0,0.625,0.625,0,0.0,0,0.0,0,0.0,0,0.0,1,0.5,1,2.125,1,0.5,1,2.125,0,,,,,0,7,7,7,,,,,,,,,97.07251333399995,102.18523404200005,97.07251333399995,97.07251333399995,97.07251333399995,97.07251333399995,97.52439937500003,98.52189350000003,97.53639583366659,,99.15677237499995,100.14662816700002,99.15980183366675,,102.18523404200005,102.91280945900007,104.95486941700005,109.0129146669999,102.91280945900007,102.91280945900007,108.09723258400004,102.91280945900007,102.91280945900007,102.91280945900007,102.91280945900007,103.36365145900004,104.4099369999999,103.33466662566663,104.3647350839999,104.95486941700005,106.00405591699996,104.92632183366665,,102.91280945900007,108.09723258400004,102.91280945900007,108.09723258400004,108.09723258400004,108.78354958399996,102.91280945900007,1,1,0.9614136659999986,reldom2_s039,001,2025-03-19_16h04.33.486,Where-B-Scan_AC,2022.2.5,None,
0,0.0,None,fixation,stimulus/audwhere_stim/blank_white.png,stimulus/audwhere_stim/blank_white.png,stimulus/viswhere_stim/blank_white.png,stimulus/viswhere_stim/blank_white.png,stimulus/audwhere_stim/blank_white.png,stimulus/audwhere_stim/blank_white.png,stimulus/audwhere_stim/blank_white.png,stimulus/audwhere_stim/blank_white.png,0.0,0.0,0.0,0.0,0,0.0,0,0.0,0,0.0,0,0.0,0,0.0,0.0,0,0.0,0,0.0,0,0.0,0,0.0,0,0.0,0,0.0,0,0.0,0,0.0,9,,,,,0,8,8,8,,,,,,,,,109.0129146669999,109.0129146669999,109.0129146669999,109.0129146669999,109.0129146669999,109.0129146669999,109.0129146669999,109.0129146669999,108.91688291733328,109.0129146669999,109.0129146669999,109.0129146669999,108.91688291733328,109.0129146669999,109.0129146669999,109.0129146669999,109.0129146669999,109.0129146669999,109.0129146669999,109.0129146669999,109.0129146669999,109.0129146669999,109.0129146669999,109.0129146669999,109.0129146669999,109.0129146669999,109.0129146669999,108.9668829173333,109.0129146669999,109.0129146669999,109.0129146669999,108.9668829173333,109.0129146669999,109.0129146669999,109.0129146669999,109.0129146669999,109.0129146669999,114.22914812499994,114.22914812499994,118.254880792,None,0,,reldom2_s039,001,2025-03-19_16h04.33.486,Where-B-Scan_AC,2022.2.5,None,
7,First_Order,2.0,audwhere,stimulus/audwhere_stim/dummy.wav,stimulus/audwhere_stim/dummy.wav,stimulus/audwhere_stim/left_toward_270h.wav,stimulus/audwhere_stim/right_toward_270h.wav,stimulus/audwhere_stim/blank_white.png,stimulus/audwhere_stim/direction_box.png,stimulus/audwhere_stim/direction_yes.png,stimulus/audwhere_stim/direction_no.png,None,Direction,None,Direction,1,0.0,0,5.125,0,5.125,0,5.125,0,0.0,0.625,0,0.0,0,0.0,0,0.0,0,0.0,0,0.0,0,0.0,1,0.5,1,2.125,0,,,,,0,9,9,9,,,,,,,,,118.254880792,118.254880792,118.254880792,118.254880792,118.254880792,118.254880792,118.254880792,118.254880792,118.18399895866666,118.254880792,118.254880792,118.254880792,118.18399895866666,118.254880792,118.254880792,118.254880792,120.33905475000006,,118.254880792,118.254880792,123.44443008400003,118.254880792,118.254880792,118.254880792,118.254880792,118.71642216700002,119.78298570900006,118.6869033756666,,120.33905475000006,121.40632783399997,120.30944725066662,,118.254880792,123.44443008400003,118.254880792,123.44443008400003,123.44443008400003,124.09600262499998,118.254880792,1,1,1.0892202489999363,reldom2_s039,001,2025-03-19_16h04.33.486,Where-B-Scan_AC,2022.2.5,None,
8,First_Order,2.0,audwhere,stimulus/audwhere_stim/dummy.wav,stimulus/audwhere_stim/dummy.wav,stimulus/audwhere_stim/left_toward_280h.wav,stimulus/audwhere_stim/right_toward_290h.wav,stimulus/audwhere_stim/blank_white.png,stimulus/audwhere_stim/side_box.png,stimulus/audwhere_stim/side_yes.png,stimulus/audwhere_stim/side_no.png,None,Side,None,Direction,2,0.0,0,5.125,0,5.125,0,5.125,0,0.0,0.625,0,0.0,0,0.0,0,0.0,0,0.0,0,0.0,0,0.0,1,0.5,1,2.125,0,,,,,0,10,10,10,,,,,,,,,124.34927758399999,124.34927758399999,124.34927758399999,124.34927758399999,124.34927758399999,124.34927758399999,124.34927758399999,124.34927758399999,124.27102770833324,124.34927758399999,124.34927758399999,124.34927758399999,124.27102770833324,124.34927758399999,124.34927758399999,124.34927758399999,126.42521733400008,130.46583087499994,124.34927758399999,124.34927758399999,129.5195584170001,124.34927758399999,124.34927758399999,124.34927758399999,124.34927758399999,124.81018212499998,125.86972608399992,124.78079795866667,,126.42521733400008,127.48958625,126.39537266666663,,124.34927758399999,129.5195584170001,124.34927758399999,129.5195584170001,129.560529417,130.21257483399995,124.34927758399999,2,1,1.273134748999837,reldom2_s039,001,2025-03-19_16h04.33.486,Where-B-Scan_AC,2022.2.5,None,
9,First_Order,2.0,audwhere,stimulus/audwhere_stim/dummy.wav,stimulus/audwhere_stim/dummy.wav,stimulus/audwhere_stim/left_away_270h.wav,stimulus/audwhere_stim/left_toward_290h.wav,stimulus/audwhere_stim/blank_white.png,stimulus/audwhere_stim/side_box.png,stimulus/audwhere_stim/side_yes.png,stimulus/audwhere_stim/side_no.png,None,Side,None,Side,1,0.0,0,5.125,0,5.125,0,5.125,0,0.0,0.625,0,0.0,0,0.0,0,0.0,0,0.0,0,0.0,0,0.0,1,0.5,1,2.125,0,,,,,0,11,11,11,,,,,,,,,130.46583087499994,130.46583087499994,130.46583087499994,130.46583087499994,130.46583087499994,130.46583087499994,130.46583087499994,130.46583087499994,130.3866930003334,130.46583087499994,130.46583087499994,130.46583087499994,130.3866930003334,130.46583087499994,130.46583087499994,130.46583087499994,132.54357275000007,136.59160550000001,130.46583087499994,130.46583087499994,135.64628954199998,130.46583087499994,130.46583087499994,130.46583087499994,130.46583087499994,130.9284339169999,131.98944704199994,130.89860791666663,,132.54357275000007,133.6146463340001,132.51435512566675,,130.46583087499994,135.64628954199998,130.46583087499994,135.64628954199998,135.6873384999999,136.33964616699996,130.46583087499994,1,1,1.0219868329998008,reldom2_s039,001,2025-03-19_16h04.33.486,Where-B-Scan_AC,2022.2.5,None,
10,First_Order,2.0,audwhere,stimulus/audwhere_stim/dummy.wav,stimulus/audwhere_stim/dummy.wav,stimulus/audwhere_stim/right_away_290h.wav,stimulus/audwhere_stim/right_toward_290h.wav,stimulus/audwhere_stim/blank_white.png,stimulus/audwhere_stim/side_box.png,stimulus/audwhere_stim/side_yes.png,stimulus/audwhere_stim/side_no.png,None,Side,None,Side,1,0.0,0,5.125,0,5.125,0,5.125,0,0.0,0.625,0,0.0,0,0.0,0,0.0,0,0.0,0,0.0,0,0.0,1,0.5,1,2.125,0,,,,,0,12,12,12,,,,,,,,,136.59160550000001,136.59160550000001,136.59160550000001,136.59160550000001,136.59160550000001,136.59160550000001,136.59160550000001,136.59160550000001,136.51351666733345,136.59160550000001,136.59160550000001,136.59160550000001,136.51351666733345,136.59160550000001,136.59160550000001,136.59160550000001,138.67132370900003,142.733192917,136.59160550000001,136.59160550000001,141.76788991700005,136.59160550000001,136.59160550000001,136.59160550000001,136.59160550000001,137.0528078750001,138.11708762500007,137.0232276666666,,138.67132370900003,139.7361901669999,138.64163762566662,,136.59160550000001,141.76788991700005,136.59160550000001,141.76788991700005,141.8090118340001,142.4609297919999,136.59160550000001,1,1,1.572571790999973,reldom2_s039,001,2025-03-19_16h04.33.486,Where-B-Scan_AC,2022.2.5,None,
0,0.0,None,fixation,stimulus/audwhere_stim/blank_white.png,stimulus/audwhere_stim/blank_white.png,stimulus/viswhere_stim/blank_white.png,stimulus/viswhere_stim/blank_white.png,stimulus/audwhere_stim/blank_white.png,stimulus/audwhere_stim/blank_white.png,stimulus/audwhere_stim/blank_white.png,stimulus/audwhere_stim/blank_white.png,0.0,0.0,0.0,0.0,0,0.0,0,0.0,0,0.0,0,0.0,0,0.0,0.0,0,0.0,0,0.0,0,0.0,0,0.0,0,0.0,0,0.0,0,0.0,0,0.0,9,,,,,0,13,13,13,,,,,,,,,142.733192917,142.733192917,142.733192917,142.733192917,142.733192917,142.733192917,142.733192917,142.733192917,142.63517854233342,142.733192917,142.733192917,142.733192917,142.63517854233342,142.733192917,142.733192917,142.733192917,142.733192917,142.733192917,142.733192917,142.733192917,142.733192917,142.733192917,142.733192917,142.733192917,142.733192917,142.733192917,142.733192917,142.6851785423334,142.733192917,142.733192917,142.733192917,142.6851785423334,142.733192917,142.733192917,142.733192917,142.733192917,142.733192917,147.95563229200002,147.95563229200002,151.8899826669999,None,0,,reldom2_s039,001,2025-03-19_16h04.33.486,Where-B-Scan_AC,2022.2.5,None,
11,Second_Order,2.0,audwhere,stimulus/audwhere_stim/left_toward_280h.wav,stimulus/audwhere_stim/left_away_290h.wav,stimulus/audwhere_stim/left_away_290h.wav,stimulus/audwhere_stim/right_away_280h.wav,stimulus/audwhere_stim/match_blank.png,stimulus/audwhere_stim/match_box.png,stimulus/audwhere_stim/match_yes.png,stimulus/audwhere_stim/match_no.png,2.0,Match,Side,Direction,2,5.125,0,5.125,0,5.125,0,5.125,0,0.75,0.75,0,0.0,0,0.0,0,0.0,0,0.0,1,0.5,1,2.125,1,0.5,1,2.125,0,,,,,0,14,14,14,,,,,,,,,151.8899826669999,157.01237741699993,151.8899826669999,151.8899826669999,151.8899826669999,151.8899826669999,152.35010191700007,153.3485626669999,152.36277837566675,,153.97149908400002,154.96943216699992,153.98304525066672,,157.01237741699993,157.85926866699992,159.9237264169999,163.86120566699992,157.85926866699992,157.85926866699992,163.01135799999997,157.85926866699992,157.85926866699992,157.85926866699992,157.85926866699992,158.3175322090001,159.37261466699988,158.28837404166669,,159.9237264169999,160.9876247919999,159.89413579166674,,157.85926866699992,163.01135799999997,157.85926866699992,163.01135799999997,163.0518995,,157.85926866699992,1,0,0.8779262909999943,reldom2_s039,001,2025-03-19_16h04.33.486,Where-B-Scan_AC,2022.2.5,None,
12,Second_Order,2.0,audwhere,stimulus/audwhere_stim/left_away_270h.wav,stimulus/audwhere_stim/left_toward_280h.wav,stimulus/audwhere_stim/right_away_280h.wav,stimulus/audwhere_stim/right_toward_300h.wav,stimulus/audwhere_stim/match_blank.png,stimulus/audwhere_stim/match_box.png,stimulus/audwhere_stim/match_yes.png,stimulus/audwhere_stim/match_no.png,1.0,Match,Side,Side,1,5.125,0,5.125,0,5.125,0,5.125,0,0.625,0.625,0,0.0,0,0.0,0,0.0,0,0.0,1,0.5,1,2.125,1,0.5,1,2.125,0,,,,,0,15,15,15,,,,,,,,,163.86120566699992,168.98500387500007,163.86120566699992,163.86120566699992,163.86120566699992,163.86120566699992,164.31070099999988,165.30940791700004,164.32385333366668,,165.94435687500004,166.93364916699988,165.9475934166667,,168.98500387500007,169.71740750000004,171.76976437500002,,169.71740750000004,169.71740750000004,174.89040379199992,169.71740750000004,169.71740750000004,169.71740750000004,169.71740750000004,170.17281645899993,171.2218412919999,170.14334320866672,,171.76976437500002,172.82608479200007,171.74082400066666,,169.71740750000004,174.89040379199992,169.71740750000004,174.89040379199992,174.89040379199992,175.57700191699996,169.71740750000004,1,1,0.9967544999999518,reldom2_s039,001,2025-03-19_16h04.33.486,Where-B-Scan_AC,2022.2.5,None,
0,0.0,None,fixation,stimulus/audwhere_stim/blank_white.png,stimulus/audwhere_stim/blank_white.png,stimulus/viswhere_stim/blank_white.png,stimulus/viswhere_stim/blank_white.png,stimulus/audwhere_stim/blank_white.png,stimulus/audwhere_stim/blank_white.png,stimulus/audwhere_stim/blank_white.png,stimulus/audwhere_stim/blank_white.png,0.0,0.0,0.0,0.0,0,0.0,0,0.0,0,0.0,0,0.0,0,0.0,0.0,0,0.0,0,0.0,0,0.0,0,0.0,0,0.0,0,0.0,0,0.0,0,0.0,8,,,,,0,16,16,16,,,,,,,,,175.8072514170001,175.8072514170001,175.8072514170001,175.8072514170001,175.8072514170001,175.8072514170001,175.8072514170001,175.8072514170001,175.71033525033332,175.8072514170001,175.8072514170001,175.8072514170001,175.71033525033332,175.8072514170001,175.8072514170001,175.8072514170001,175.8072514170001,175.8072514170001,175.8072514170001,175.8072514170001,175.8072514170001,175.8072514170001,175.8072514170001,175.8072514170001,175.8072514170001,175.8072514170001,175.8072514170001,175.7603352503333,175.8072514170001,175.8072514170001,175.8072514170001,175.7603352503333,175.8072514170001,175.8072514170001,175.8072514170001,175.8072514170001,175.8072514170001,180.99354212499998,180.99354212499998,183.9951457499999,None,0,,reldom2_s039,001,2025-03-19_16h04.33.486,Where-B-Scan_AC,2022.2.5,None,
13,First_Order,3.0,viswhere,stimulus/viswhere_stim/blank_white.png,stimulus/viswhere_stim/blank_white.png,stimulus/viswhere_stim/150-deg_dot-left_seagreen.png,stimulus/viswhere_stim/150-deg_dot-right_royalblue.png,stimulus/viswhere_stim/blank_white.png,stimulus/viswhere_stim/line_box.png,stimulus/viswhere_stim/line_yes.png,stimulus/viswhere_stim/line_no.png,None,Line,None,Line,1,0.0,0,5.125,0,5.125,0,5.125,0,0.0,0.625,0,0.0,0,0.0,1,0.5,1,2.125,0,0.0,0,0.0,0,0.0,0,0.0,0,,,,,0,17,17,17,,,,,,,,,183.9951457499999,183.9951457499999,183.9951457499999,183.9951457499999,183.9951457499999,183.9951457499999,183.9951457499999,183.9951457499999,183.9719156256669,183.9951457499999,183.9951457499999,183.9951457499999,183.9719156256669,183.9951457499999,183.9951457499999,183.9951457499999,186.09165854199978,190.05248141700008,183.9951457499999,183.9951457499999,189.12134012499996,184.47777366700006,185.49729641699992,186.09165854199978,187.09791166699983,183.9951457499999,183.9951457499999,183.98858229233355,183.9951457499999,183.9951457499999,183.9951457499999,183.98858229233355,183.9951457499999,183.9951457499999,189.12134012499996,183.9951457499999,189.12134012499996,189.2185099589999,189.8509213750001,183.9951457499999,1,1,1.3657416659996215,reldom2_s039,001,2025-03-19_16h04.33.486,Where-B-Scan_AC,2022.2.5,None,
14,First_Order,3.0,viswhere,stimulus/viswhere_stim/blank_white.png,stimulus/viswhere_stim/blank_white.png,stimulus/viswhere_stim/90-deg_dot-right_cyan.png,stimulus/viswhere_stim/90-deg_dot-left_turquoise.png,stimulus/viswhere_stim/blank_white.png,stimulus/viswhere_stim/line_box.png,stimulus/viswhere_stim/line_yes.png,stimulus/viswhere_stim/line_no.png,None,Line,None,Line,1,0.0,0,5.125,0,5.125,0,5.125,0,0.0,0.625,0,0.0,0,0.0,1,0.5,1,2.125,0,0.0,0,0.0,0,0.0,0,0.0,0,,,,,0,18,18,18,,,,,,,,,190.05248141700008,190.05248141700008,190.05248141700008,190.05248141700008,190.05248141700008,190.05248141700008,190.05248141700008,190.05248141700008,190.0319648753335,190.05248141700008,190.05248141700008,190.05248141700008,190.0319648753335,190.05248141700008,190.05248141700008,190.05248141700008,192.1519529169998,196.11529749999977,190.05248141700008,190.05248141700008,195.185800084,190.52993604200014,191.54070558399985,192.1519529169998,193.154738125,190.05248141700008,190.05248141700008,190.04863154200018,190.05248141700008,190.05248141700008,190.05248141700008,190.04863154200018,190.05248141700008,190.05248141700008,195.185800084,190.05248141700008,195.185800084,195.28249437499994,195.90933070899996,190.05248141700008,1,1,1.2382427499999267,reldom2_s039,001,2025-03-19_16h04.33.486,Where-B-Scan_AC,2022.2.5,None,
15,First_Order,3.0,viswhere,stimulus/viswhere_stim/blank_white.png,stimulus/viswhere_stim/blank_white.png,stimulus/viswhere_stim/60-deg_dot-right_salmon.png,stimulus/viswhere_stim/150-deg_dot-right_turquoise.png,stimulus/viswhere_stim/blank_white.png,stimulus/viswhere_stim/dot_box.png,stimulus/viswhere_stim/dot_yes.png,stimulus/viswhere_stim/dot_no.png,None,Dot,None,Dot,1,0.0,0,5.125,0,5.125,0,5.125,0,0.0,0.625,0,0.0,0,0.0,1,0.5,1,2.125,0,0.0,0,0.0,0,0.0,0,0.0,0,,,,,0,19,19,19,,,,,,,,,196.11529749999977,196.11529749999977,196.11529749999977,196.11529749999977,196.11529749999977,196.11529749999977,196.11529749999977,196.11529749999977,196.0929592503331,196.11529749999977,196.11529749999977,196.11529749999977,196.0929592503331,196.11529749999977,196.11529749999977,196.11529749999977,198.21599958399997,202.17601787499984,196.11529749999977,196.11529749999977,201.2438088749998,196.59252116699986,197.6051547919999,198.21599958399997,199.2307085,196.11529749999977,196.11529749999977,196.1096259169998,196.11529749999977,196.11529749999977,196.11529749999977,196.1096259169998,196.11529749999977,196.11529749999977,201.2438088749998,196.11529749999977,201.2438088749998,201.3415976670001,201.9734164590002,196.11529749999977,1,1,1.3744214159999046,reldom2_s039,001,2025-03-19_16h04.33.486,Where-B-Scan_AC,2022.2.5,None,
16,First_Order,3.0,viswhere,stimulus/viswhere_stim/blank_white.png,stimulus/viswhere_stim/blank_white.png,stimulus/viswhere_stim/120-deg_dot-left_peru.png,stimulus/viswhere_stim/120-deg_dot-right_royalblue.png,stimulus/viswhere_stim/blank_white.png,stimulus/viswhere_stim/dot_box.png,stimulus/viswhere_stim/dot_yes.png,stimulus/viswhere_stim/dot_no.png,None,Dot,None,Line,2,0.0,0,5.125,0,5.125,0,5.125,0,0.0,0.625,0,0.0,0,0.0,1,0.5,1,2.125,0,0.0,0,0.0,0,0.0,0,0.0,0,,,,,0,20,20,20,,,,,,,,,202.17601787499984,202.17601787499984,202.17601787499984,202.17601787499984,202.17601787499984,202.17601787499984,202.17601787499984,202.17601787499984,202.15369975033317,202.17601787499984,202.17601787499984,202.17601787499984,202.15369975033317,202.17601787499984,202.17601787499984,202.17601787499984,204.27976179199982,208.31040254200002,202.17601787499984,202.17601787499984,207.30009262499993,202.64959599999997,203.6539220420002,204.27976179199982,205.2903570840001,202.17601787499984,202.17601787499984,202.17036641699985,202.17601787499984,202.17601787499984,202.17601787499984,202.17036641699985,202.17601787499984,202.17601787499984,207.30009262499993,202.17601787499984,207.30009262499993,207.39647766699977,208.02747887500004,202.17601787499984,2,1,0.6958508739996887,reldom2_s039,001,2025-03-19_16h04.33.486,Where-B-Scan_AC,2022.2.5,None,
0,0.0,None,fixation,stimulus/audwhere_stim/blank_white.png,stimulus/audwhere_stim/blank_white.png,stimulus/viswhere_stim/blank_white.png,stimulus/viswhere_stim/blank_white.png,stimulus/audwhere_stim/blank_white.png,stimulus/audwhere_stim/blank_white.png,stimulus/audwhere_stim/blank_white.png,stimulus/audwhere_stim/blank_white.png,0.0,0.0,0.0,0.0,0,0.0,0,0.0,0,0.0,0,0.0,0,0.0,0.0,0,0.0,0,0.0,0,0.0,0,0.0,0,0.0,0,0.0,0,0.0,0,0.0,10,,,,,0,21,21,21,,,,,,,,,208.31040254200002,208.31040254200002,208.31040254200002,208.31040254200002,208.31040254200002,208.31040254200002,208.31040254200002,208.31040254200002,208.21258829233338,208.31040254200002,208.31040254200002,208.31040254200002,208.21258829233338,208.31040254200002,208.31040254200002,208.31040254200002,208.31040254200002,208.31040254200002,208.31040254200002,208.31040254200002,208.31040254200002,208.31040254200002,208.31040254200002,208.31040254200002,208.31040254200002,208.31040254200002,208.31040254200002,208.2625882923334,208.31040254200002,208.31040254200002,208.31040254200002,208.2625882923334,208.31040254200002,208.31040254200002,208.31040254200002,208.31040254200002,208.31040254200002,213.4980348749998,213.4980348749998,218.42986425000004,None,0,,reldom2_s039,001,2025-03-19_16h04.33.486,Where-B-Scan_AC,2022.2.5,None,
17,Second_Order,3.0,viswhere,stimulus/viswhere_stim/90-deg_dot-left_lightsseagreen.png,stimulus/viswhere_stim/90-deg_dot-right_lightsseagreen.png,stimulus/viswhere_stim/120-deg_dot-right_cyan.png,stimulus/viswhere_stim/60-deg_dot-right_royalblue.png,stimulus/audwhere_stim/match_blank.png,stimulus/audwhere_stim/match_box.png,stimulus/audwhere_stim/match_yes.png,stimulus/audwhere_stim/match_no.png,2.0,Match,Line,Dot,2,5.125,0,5.125,0,5.125,0,5.125,0,0.75,0.75,1,0.5,1,2.125,1,0.5,1,2.125,0,0.0,0,0.0,0,0.0,0,0.0,0,,,,,0,22,22,22,,,,,,,,,218.42986425000004,223.54881870900022,218.91667216700012,219.9061832499999,220.5367745840001,221.52598320899983,218.42986425000004,218.42986425000004,218.4438867083335,218.42986425000004,218.42986425000004,218.42986425000004,218.4438867083335,218.42986425000004,223.54881870900022,224.342710959,226.42619308400003,230.315379292,224.342710959,224.342710959,229.467025959,224.80340579200015,225.81510270900003,226.42619308400003,227.4419168339998,224.342710959,224.342710959,224.3163771253333,224.342710959,224.342710959,224.342710959,224.3163771253333,224.342710959,224.342710959,229.467025959,224.342710959,229.467025959,229.53704816699997,230.315379292,224.342710959,2,1,1.464552374999812,reldom2_s039,001,2025-03-19_16h04.33.486,Where-B-Scan_AC,2022.2.5,None,
18,Second_Order,3.0,viswhere,stimulus/viswhere_stim/90-deg_dot-left_lightsseagreen.png,stimulus/viswhere_stim/60-deg_dot-left_mediumslateblue.png,stimulus/viswhere_stim/60-deg_dot-right_lightsseagreen.png,stimulus/viswhere_stim/30-deg_dot-right_goldenrod.png,stimulus/audwhere_stim/match_blank.png,stimulus/audwhere_stim/match_box.png,stimulus/audwhere_stim/match_yes.png,stimulus/audwhere_stim/match_no.png,1.0,Match,Dot,Dot,1,5.125,0,5.125,0,5.125,0,5.125,0,0.625,0.625,1,0.5,1,2.125,1,0.5,1,2.125,0,0.0,0,0.0,0,0.0,0,0.0,0,,,,,0,23,23,23,,,,,,,,,230.315379292,235.4382942919999,230.79928062500016,231.79656604199977,232.41858154199986,233.41685979199997,230.315379292,230.315379292,230.32900250000017,230.315379292,230.315379292,230.315379292,230.32900250000017,230.315379292,235.4382942919999,236.1149580419999,238.1954455839998,242.23653149999996,236.1149580419999,236.1149580419999,241.25326708399984,236.57563675000006,237.58554695899988,238.1954455839998,239.2087825000001,236.1149580419999,236.1149580419999,236.0895510003332,236.1149580419999,236.1149580419999,236.1149580419999,236.0895510003332,236.1149580419999,236.1149580419999,241.25326708399984,236.1149580419999,241.25326708399984,241.30842533400005,241.95226587499997,236.1149580419999,1,1,1.6307712909999736,reldom2_s039,001,2025-03-19_16h04.33.486,Where-B-Scan_AC,2022.2.5,None,
0,0.0,None,fixation,stimulus/audwhere_stim/blank_white.png,stimulus/audwhere_stim/blank_white.png,stimulus/viswhere_stim/blank_white.png,stimulus/viswhere_stim/blank_white.png,stimulus/audwhere_stim/blank_white.png,stimulus/audwhere_stim/blank_white.png,stimulus/audwhere_stim/blank_white.png,stimulus/audwhere_stim/blank_white.png,0.0,0.0,0.0,0.0,0,0.0,0,0.0,0,0.0,0,0.0,0,0.0,0.0,0,0.0,0,0.0,0,0.0,0,0.0,0,0.0,0,0.0,0,0.0,0,0.0,9,,,,,0,24,24,24,,,,,,,,,242.23653149999996,242.23653149999996,242.23653149999996,242.23653149999996,242.23653149999996,242.23653149999996,242.23653149999996,242.23653149999996,242.1360088333332,242.23653149999996,242.23653149999996,242.23653149999996,242.1360088333332,242.23653149999996,242.23653149999996,242.23653149999996,242.23653149999996,242.23653149999996,242.23653149999996,242.23653149999996,242.23653149999996,242.23653149999996,242.23653149999996,242.23653149999996,242.23653149999996,242.23653149999996,242.23653149999996,242.1860088333332,242.23653149999996,242.23653149999996,242.23653149999996,242.1860088333332,242.23653149999996,242.23653149999996,242.23653149999996,242.23653149999996,242.23653149999996,247.4470134999999,247.4470134999999,251.42979200000013,None,0,,reldom2_s039,001,2025-03-19_16h04.33.486,Where-B-Scan_AC,2022.2.5,None,
19,First_Order,4.0,viswhere,stimulus/viswhere_stim/blank_white.png,stimulus/viswhere_stim/blank_white.png,stimulus/viswhere_stim/90-deg_dot-left_seagreen.png,stimulus/viswhere_stim/150-deg_dot-left_lightsseagreen.png,stimulus/viswhere_stim/blank_white.png,stimulus/viswhere_stim/dot_box.png,stimulus/viswhere_stim/dot_yes.png,stimulus/viswhere_stim/dot_no.png,None,Dot,None,Dot,1,0.0,0,5.125,0,5.125,0,5.125,0,0.0,0.625,0,0.0,0,0.0,1,0.5,1,2.125,0,0.0,0,0.0,0,0.0,0,0.0,0,,,,,0,25,25,25,,,,,,,,,251.42979200000013,251.42979200000013,251.42979200000013,251.42979200000013,251.42979200000013,251.42979200000013,251.42979200000013,251.42979200000013,251.40960183366673,251.42979200000013,251.42979200000013,251.42979200000013,251.40960183366673,251.42979200000013,251.42979200000013,251.42979200000013,253.52450724999994,257.48575975000017,251.42979200000013,251.42979200000013,256.5617370839998,251.90922833399986,252.92943454200008,253.52450724999994,254.52883524999993,251.42979200000013,251.42979200000013,251.42626850033338,251.42979200000013,251.42979200000013,251.42979200000013,251.42626850033338,251.42979200000013,251.42979200000013,256.5617370839998,251.42979200000013,256.5617370839998,256.64400283400005,257.270840292,251.42979200000013,1,1,1.4971672499998476,reldom2_s039,001,2025-03-19_16h04.33.486,Where-B-Scan_AC,2022.2.5,None,
20,First_Order,4.0,viswhere,stimulus/viswhere_stim/blank_white.png,stimulus/viswhere_stim/blank_white.png,stimulus/viswhere_stim/30-deg_dot-left_peru.png,stimulus/viswhere_stim/30-deg_dot-right_salmon.png,stimulus/viswhere_stim/blank_white.png,stimulus/viswhere_stim/dot_box.png,stimulus/viswhere_stim/dot_yes.png,stimulus/viswhere_stim/dot_no.png,None,Dot,None,Line,2,0.0,0,5.125,0,5.125,0,5.125,0,0.0,0.625,0,0.0,0,0.0,1,0.5,1,2.125,0,0.0,0,0.0,0,0.0,0,0.0,0,,,,,0,26,26,26,,,,,,,,,257.48575975000017,257.48575975000017,257.48575975000017,257.48575975000017,257.48575975000017,257.48575975000017,257.48575975000017,257.48575975000017,257.46460858333336,257.48575975000017,257.48575975000017,257.48575975000017,257.46460858333336,257.48575975000017,257.48575975000017,257.48575975000017,259.592860125,263.5593337920002,257.48575975000017,257.48575975000017,262.6239911250002,257.9609965840002,258.96983670899976,259.592860125,260.607577084,257.48575975000017,257.48575975000017,257.48127525,257.48575975000017,257.48575975000017,257.48575975000017,257.48127525,257.48575975000017,257.48575975000017,262.6239911250002,257.48575975000017,262.6239911250002,262.70733137499997,263.3387609590002,257.48575975000017,2,1,0.9638949990001038,reldom2_s039,001,2025-03-19_16h04.33.486,Where-B-Scan_AC,2022.2.5,None,
21,First_Order,4.0,viswhere,stimulus/viswhere_stim/blank_white.png,stimulus/viswhere_stim/blank_white.png,stimulus/viswhere_stim/60-deg_dot-left_lightsseagreen.png,stimulus/viswhere_stim/30-deg_dot-left_slateblue.png,stimulus/viswhere_stim/blank_white.png,stimulus/viswhere_stim/line_box.png,stimulus/viswhere_stim/line_yes.png,stimulus/viswhere_stim/line_no.png,None,Line,None,Dot,2,0.0,0,5.125,0,5.125,0,5.125,0,0.0,0.625,0,0.0,0,0.0,1,0.5,1,2.125,0,0.0,0,0.0,0,0.0,0,0.0,0,,,,,0,27,27,27,,,,,,,,,263.5593337920002,263.5593337920002,263.5593337920002,263.5593337920002,263.5593337920002,263.5593337920002,263.5593337920002,263.5593337920002,263.5376472503331,263.5593337920002,263.5593337920002,263.5593337920002,263.5376472503331,263.5593337920002,263.5593337920002,263.5593337920002,265.6712050419999,269.6165924999998,263.5593337920002,263.5593337920002,268.6883972090002,264.0351992090002,265.04568295900003,265.6712050419999,266.68685233400015,263.5593337920002,263.5593337920002,263.5543139169998,263.5593337920002,263.5593337920002,263.5593337920002,263.5543139169998,263.5593337920002,263.5593337920002,268.6883972090002,263.5593337920002,268.6883972090002,268.78438066700005,269.41580854200015,263.5593337920002,2,1,1.2274706240002615,reldom2_s039,001,2025-03-19_16h04.33.486,Where-B-Scan_AC,2022.2.5,None,
22,First_Order,4.0,viswhere,stimulus/viswhere_stim/blank_white.png,stimulus/viswhere_stim/blank_white.png,stimulus/viswhere_stim/120-deg_dot-right_peru.png,stimulus/viswhere_stim/150-deg_dot-right_peru.png,stimulus/viswhere_stim/blank_white.png,stimulus/viswhere_stim/line_box.png,stimulus/viswhere_stim/line_yes.png,stimulus/viswhere_stim/line_no.png,None,Line,None,Dot,2,0.0,0,5.125,0,5.125,0,5.125,0,0.0,0.625,0,0.0,0,0.0,1,0.5,1,2.125,0,0.0,0,0.0,0,0.0,0,0.0,0,,,,,0,28,28,28,,,,,,,,,269.6165924999998,269.6165924999998,269.6165924999998,269.6165924999998,269.6165924999998,269.6165924999998,269.6165924999998,269.6165924999998,269.5959550833332,269.6165924999998,269.6165924999998,269.6165924999998,269.5959550833332,269.6165924999998,269.6165924999998,269.6165924999998,271.7195347919999,275.7521421670001,269.6165924999998,269.6165924999998,274.750724667,270.09477879200017,271.1095876249999,271.7195347919999,272.72204529199985,269.6165924999998,269.6165924999998,269.61262174999985,269.6165924999998,269.6165924999998,269.6165924999998,269.61262174999985,269.6165924999998,269.6165924999998,274.750724667,269.6165924999998,274.750724667,274.8469714999999,275.47342308400016,269.6165924999998,2,1,0.8964079160002711,reldom2_s039,001,2025-03-19_16h04.33.486,Where-B-Scan_AC,2022.2.5,None,
0,0.0,None,fixation,stimulus/audwhere_stim/blank_white.png,stimulus/audwhere_stim/blank_white.png,stimulus/viswhere_stim/blank_white.png,stimulus/viswhere_stim/blank_white.png,stimulus/audwhere_stim/blank_white.png,stimulus/audwhere_stim/blank_white.png,stimulus/audwhere_stim/blank_white.png,stimulus/audwhere_stim/blank_white.png,0.0,0.0,0.0,0.0,0,0.0,0,0.0,0,0.0,0,0.0,0,0.0,0.0,0,0.0,0,0.0,0,0.0,0,0.0,0,0.0,0,0.0,0,0.0,0,0.0,10,,,,,0,29,29,29,,,,,,,,,275.7521421670001,275.7521421670001,275.7521421670001,275.7521421670001,275.7521421670001,275.7521421670001,275.7521421670001,275.7521421670001,275.65355070833317,275.7521421670001,275.7521421670001,275.7521421670001,275.65355070833317,275.7521421670001,275.7521421670001,275.7521421670001,275.7521421670001,275.7521421670001,275.7521421670001,275.7521421670001,275.7521421670001,275.7521421670001,275.7521421670001,275.7521421670001,275.7521421670001,275.7521421670001,275.7521421670001,275.7035507083332,275.7521421670001,275.7521421670001,275.7521421670001,275.7035507083332,275.7521421670001,275.7521421670001,275.7521421670001,275.7521421670001,275.7521421670001,280.9490696669998,280.9490696669998,285.882810459,None,0,,reldom2_s039,001,2025-03-19_16h04.33.486,Where-B-Scan_AC,2022.2.5,None,
23,Second_Order,4.0,viswhere,stimulus/viswhere_stim/60-deg_dot-right_peru.png,stimulus/viswhere_stim/60-deg_dot-left_royalblue.png,stimulus/viswhere_stim/90-deg_dot-left_slateblue.png,stimulus/viswhere_stim/90-deg_dot-right_royalblue.png,stimulus/audwhere_stim/match_blank.png,stimulus/audwhere_stim/match_box.png,stimulus/audwhere_stim/match_yes.png,stimulus/audwhere_stim/match_no.png,1.0,Match,Line,Line,1,5.125,0,5.125,0,5.125,0,5.125,0,0.75,0.75,1,0.5,1,2.125,1,0.5,1,2.125,0,0.0,0,0.0,0,0.0,0,0.0,0,,,,,0,30,30,30,,,,,,,,,285.882810459,291.00400854199984,286.3597010420001,287.3579690419999,287.98125404200005,288.9785394170001,285.882810459,285.882810459,285.89712787533324,285.882810459,285.882810459,285.882810459,285.89712787533324,285.882810459,291.00400854199984,291.7976054590001,293.8715598749998,297.76068825000016,291.7976054590001,291.7976054590001,296.93167533400015,292.2445837500002,293.25993333400015,293.8715598749998,294.8757468340002,291.7976054590001,291.7976054590001,291.77172829233336,291.7976054590001,291.7976054590001,291.7976054590001,291.77172829233336,291.7976054590001,291.7976054590001,296.93167533400015,291.7976054590001,296.93167533400015,296.98697625,297.76068825000016,291.7976054590001,1,1,1.9761087910003425,reldom2_s039,001,2025-03-19_16h04.33.486,Where-B-Scan_AC,2022.2.5,None,
24,Second_Order,4.0,viswhere,stimulus/viswhere_stim/120-deg_dot-left_peru.png,stimulus/viswhere_stim/120-deg_dot-right_peru.png,stimulus/viswhere_stim/30-deg_dot-right_peru.png,stimulus/viswhere_stim/30-deg_dot-left_lightsseagreen.png,stimulus/audwhere_stim/match_blank.png,stimulus/audwhere_stim/match_box.png,stimulus/audwhere_stim/match_yes.png,stimulus/audwhere_stim/match_no.png,1.0,Match,Line,Line,1,5.125,0,5.125,0,5.125,0,5.125,0,0.625,0.625,1,0.5,1,2.125,1,0.5,1,2.125,0,0.0,0,0.0,0,0.0,0,0.0,0,,,,,0,31,31,31,,,,,,,,,297.76068825000016,302.88279754200016,298.236853959,299.22314900000015,299.87027762499997,300.85917008399997,297.76068825000016,297.76068825000016,297.77470391699995,297.76068825000016,297.76068825000016,297.76068825000016,297.77470391699995,297.76068825000016,302.88279754200016,303.5532139589998,305.63576829199997,309.6726703339998,303.5532139589998,303.5532139589998,308.6919878340002,304.0139257919998,305.027266459,305.63576829199997,306.6534666250002,303.5532139589998,303.5532139589998,303.5281849173332,303.5532139589998,303.5532139589998,303.5532139589998,303.5281849173332,303.5532139589998,303.5532139589998,308.6919878340002,303.5532139589998,308.6919878340002,308.74705304199983,309.3744730000001,303.5532139589998,1,1,1.5318425819998538,reldom2_s039,001,2025-03-19_16h04.33.486,Where-B-Scan_AC,2022.2.5,None,
0,0.0,None,fixation,stimulus/audwhere_stim/blank_white.png,stimulus/audwhere_stim/blank_white.png,stimulus/viswhere_stim/blank_white.png,stimulus/viswhere_stim/blank_white.png,stimulus/audwhere_stim/blank_white.png,stimulus/audwhere_stim/blank_white.png,stimulus/audwhere_stim/blank_white.png,stimulus/audwhere_stim/blank_white.png,0.0,0.0,0.0,0.0,0,0.0,0,0.0,0,0.0,0,0.0,0,0.0,0.0,0,0.0,0,0.0,0,0.0,0,0.0,0,0.0,0,0.0,0,0.0,0,0.0,9,,,,,0,32,32,32,,,,,,,,,309.6726703339998,309.6726703339998,309.6726703339998,309.6726703339998,309.6726703339998,309.6726703339998,309.6726703339998,309.6726703339998,309.5722836673331,309.6726703339998,309.6726703339998,309.6726703339998,309.5722836673331,309.6726703339998,309.6726703339998,309.6726703339998,309.6726703339998,309.6726703339998,309.6726703339998,309.6726703339998,309.6726703339998,309.6726703339998,309.6726703339998,309.6726703339998,309.6726703339998,309.6726703339998,309.6726703339998,309.62228366733314,309.6726703339998,309.6726703339998,309.6726703339998,309.62228366733314,309.6726703339998,309.6726703339998,309.6726703339998,309.6726703339998,309.6726703339998,314.8528856249998,314.8528856249998,318.9354228750001,None,0,,reldom2_s039,001,2025-03-19_16h04.33.486,Where-B-Scan_AC,2022.2.5,None,
25,First_Order,5.0,audwhere,stimulus/audwhere_stim/dummy.wav,stimulus/audwhere_stim/dummy.wav,stimulus/audwhere_stim/right_toward_280h.wav,stimulus/audwhere_stim/right_away_290h.wav,stimulus/audwhere_stim/blank_white.png,stimulus/audwhere_stim/side_box.png,stimulus/audwhere_stim/side_yes.png,stimulus/audwhere_stim/side_no.png,None,Side,None,Side,1,0.0,0,5.125,0,5.125,0,5.125,0,0.0,0.625,0,0.0,0,0.0,0,0.0,0,0.0,0,0.0,0,0.0,1,0.5,1,2.125,0,,,,,0,33,33,33,,,,,,,,,318.9354228750001,318.9354228750001,318.9354228750001,318.9354228750001,318.9354228750001,318.9354228750001,318.9354228750001,318.9354228750001,318.8630592086664,318.9354228750001,318.9354228750001,318.9354228750001,318.8630592086664,318.9354228750001,318.9354228750001,318.9354228750001,321.0163655839999,,318.9354228750001,318.9354228750001,324.1211556249998,318.9354228750001,318.9354228750001,318.9354228750001,318.9354228750001,319.3986977090001,320.460973167,319.3692215416668,,321.0163655839999,322.08193945900007,320.9862921666668,,318.9354228750001,324.1211556249998,318.9354228750001,324.1211556249998,324.16285600000015,324.81463400000007,318.9354228750001,1,1,1.1970571250001285,reldom2_s039,001,2025-03-19_16h04.33.486,Where-B-Scan_AC,2022.2.5,None,
26,First_Order,5.0,audwhere,stimulus/audwhere_stim/dummy.wav,stimulus/audwhere_stim/dummy.wav,stimulus/audwhere_stim/right_toward_300h.wav,stimulus/audwhere_stim/left_toward_270h.wav,stimulus/audwhere_stim/blank_white.png,stimulus/audwhere_stim/direction_box.png,stimulus/audwhere_stim/direction_yes.png,stimulus/audwhere_stim/direction_no.png,None,Direction,None,Direction,1,0.0,0,5.125,0,5.125,0,5.125,0,0.0,0.625,0,0.0,0,0.0,0,0.0,0,0.0,0,0.0,0,0.0,1,0.5,1,2.125,0,,,,,0,34,34,34,,,,,,,,,325.0275519999998,325.0275519999998,325.0275519999998,325.0275519999998,325.0275519999998,325.0275519999998,325.0275519999998,325.0275519999998,324.9479673333334,325.0275519999998,325.0275519999998,325.0275519999998,324.9479673333334,325.0275519999998,325.0275519999998,325.0275519999998,327.12661975000015,,325.0275519999998,325.0275519999998,330.20997929200007,325.0275519999998,325.0275519999998,325.0275519999998,325.0275519999998,325.493449542,326.5665751670001,325.46339858366673,,327.12661975000015,328.200997959,327.0962919586668,,325.0275519999998,330.20997929200007,325.0275519999998,330.20997929200007,330.2511967500002,330.90550849999977,325.0275519999998,2,0,2.5694089159999294,reldom2_s039,001,2025-03-19_16h04.33.486,Where-B-Scan_AC,2022.2.5,None,
27,First_Order,5.0,audwhere,stimulus/audwhere_stim/dummy.wav,stimulus/audwhere_stim/dummy.wav,stimulus/audwhere_stim/left_toward_290h.wav,stimulus/audwhere_stim/left_away_300h.wav,stimulus/audwhere_stim/blank_white.png,stimulus/audwhere_stim/direction_box.png,stimulus/audwhere_stim/direction_yes.png,stimulus/audwhere_stim/direction_no.png,None,Direction,None,Side,2,0.0,0,5.125,0,5.125,0,5.125,0,0.0,0.625,0,0.0,0,0.0,0,0.0,0,0.0,0,0.0,0,0.0,1,0.5,1,2.125,0,,,,,0,35,35,35,,,,,,,,,331.11892116700005,331.11892116700005,331.11892116700005,331.11892116700005,331.11892116700005,331.11892116700005,331.11892116700005,331.11892116700005,331.0388418333331,331.11892116700005,331.11892116700005,331.11892116700005,331.0388418333331,331.11892116700005,331.11892116700005,331.11892116700005,333.215543,337.24185925000006,331.11892116700005,331.11892116700005,336.2902017089998,331.11892116700005,331.11892116700005,331.11892116700005,331.11892116700005,331.5841240000002,332.65622525000003,331.5539830836665,,333.215543,334.2905924999998,333.1852330006668,,331.11892116700005,336.2902017089998,331.11892116700005,336.2902017089998,336.33127791699985,336.9880205840002,331.11892116700005,2,1,2.9154946249998375,reldom2_s039,001,2025-03-19_16h04.33.486,Where-B-Scan_AC,2022.2.5,None,
28,First_Order,5.0,audwhere,stimulus/audwhere_stim/dummy.wav,stimulus/audwhere_stim/dummy.wav,stimulus/audwhere_stim/right_away_300h.wav,stimulus/audwhere_stim/right_toward_290h.wav,stimulus/audwhere_stim/blank_white.png,stimulus/audwhere_stim/direction_box.png,stimulus/audwhere_stim/direction_yes.png,stimulus/audwhere_stim/direction_no.png,None,Direction,None,Side,2,0.0,0,5.125,0,5.125,0,5.125,0,0.0,0.625,0,0.0,0,0.0,0,0.0,0,0.0,0,0.0,0,0.0,1,0.5,1,2.125,0,,,,,0,36,36,36,,,,,,,,,337.24185925000006,337.24185925000006,337.24185925000006,337.24185925000006,337.24185925000006,337.24185925000006,337.24185925000006,337.24185925000006,337.1622765003334,337.24185925000006,337.24185925000006,337.24185925000006,337.1622765003334,337.24185925000006,337.24185925000006,337.24185925000006,339.33884245900003,343.3887337919998,337.24185925000006,337.24185925000006,342.41848429200013,337.24185925000006,337.24185925000006,337.24185925000006,337.24185925000006,337.7076528750001,338.7803181249999,337.67760237566654,,339.33884245900003,340.4143459999998,339.30863933366663,,337.24185925000006,342.41848429200013,337.24185925000006,342.41848429200013,342.4597765000001,343.114830792,337.24185925000006,2,1,2.052792540999917,reldom2_s039,001,2025-03-19_16h04.33.486,Where-B-Scan_AC,2022.2.5,None,
0,0.0,None,fixation,stimulus/audwhere_stim/blank_white.png,stimulus/audwhere_stim/blank_white.png,stimulus/viswhere_stim/blank_white.png,stimulus/viswhere_stim/blank_white.png,stimulus/audwhere_stim/blank_white.png,stimulus/audwhere_stim/blank_white.png,stimulus/audwhere_stim/blank_white.png,stimulus/audwhere_stim/blank_white.png,0.0,0.0,0.0,0.0,0,0.0,0,0.0,0,0.0,0,0.0,0,0.0,0.0,0,0.0,0,0.0,0,0.0,0,0.0,0,0.0,0,0.0,0,0.0,0,0.0,10,,,,,0,37,37,37,,,,,,,,,343.3887337919998,343.3887337919998,343.3887337919998,343.3887337919998,343.3887337919998,343.3887337919998,343.3887337919998,343.3887337919998,343.2888716673332,343.3887337919998,343.3887337919998,343.3887337919998,343.2888716673332,343.3887337919998,343.3887337919998,343.3887337919998,343.3887337919998,343.3887337919998,343.3887337919998,343.3887337919998,343.3887337919998,343.3887337919998,343.3887337919998,343.3887337919998,343.3887337919998,343.3887337919998,343.3887337919998,343.3388716673332,343.3887337919998,343.3887337919998,343.3887337919998,343.3388716673332,343.3887337919998,343.3887337919998,343.3887337919998,343.3887337919998,343.3887337919998,348.5858339170002,348.5858339170002,353.55370129200014,None,0,,reldom2_s039,001,2025-03-19_16h04.33.486,Where-B-Scan_AC,2022.2.5,None,
29,Second_Order,5.0,audwhere,stimulus/audwhere_stim/right_toward_270h.wav,stimulus/audwhere_stim/right_away_280h.wav,stimulus/audwhere_stim/left_away_270h.wav,stimulus/audwhere_stim/right_away_300h.wav,stimulus/audwhere_stim/match_blank.png,stimulus/audwhere_stim/match_box.png,stimulus/audwhere_stim/match_yes.png,stimulus/audwhere_stim/match_no.png,2.0,Match,Side,Direction,2,5.125,0,5.125,0,5.125,0,5.125,0,0.75,0.75,0,0.0,0,0.0,0,0.0,0,0.0,1,0.5,1,2.125,1,0.5,1,2.125,0,,,,,0,38,38,38,,,,,,,,,353.55370129200014,358.6773999999998,353.55370129200014,353.55370129200014,353.55370129200014,353.55370129200014,354.0119152919999,355.00085250000006,354.0136961256667,,355.6366156669999,356.63500591700017,355.6487925836668,,358.6773999999998,359.52844333400003,361.5662279999999,365.5277573750002,359.52844333400003,359.52844333400003,364.71581512499984,359.52844333400003,359.52844333400003,359.52844333400003,359.52844333400003,359.94258645900004,361.0103270000002,359.9128069586668,,361.5662279999999,362.632631875,361.5369247916665,,359.52844333400003,364.71581512499984,359.52844333400003,364.71581512499984,364.71581512499984,,359.52844333400003,2,1,2.283451998999908,reldom2_s039,001,2025-03-19_16h04.33.486,Where-B-Scan_AC,2022.2.5,None,
30,Second_Order,5.0,audwhere,stimulus/audwhere_stim/right_away_300h.wav,stimulus/audwhere_stim/right_toward_300h.wav,stimulus/audwhere_stim/left_toward_290h.wav,stimulus/audwhere_stim/left_away_270h.wav,stimulus/audwhere_stim/match_blank.png,stimulus/audwhere_stim/match_box.png,stimulus/audwhere_stim/match_yes.png,stimulus/audwhere_stim/match_no.png,1.0,Match,Side,Side,1,5.125,0,5.125,0,5.125,0,5.125,0,0.625,0.625,0,0.0,0,0.0,0,0.0,0,0.0,1,0.5,1,2.125,1,0.5,1,2.125,0,,,,,0,39,39,39,,,,,,,,,365.5277573750002,370.65071995899984,365.5277573750002,365.5277573750002,365.5277573750002,365.5277573750002,365.97500108400004,366.962802584,365.98949416666665,,367.610200459,368.59928833399977,367.6134473756665,,370.65071995899984,371.3850759999998,373.4546444169998,,371.3850759999998,371.3850759999998,376.5507544589998,371.3850759999998,371.3850759999998,371.3850759999998,371.3850759999998,371.8407423340002,372.9041951669999,371.81173216666684,,373.4546444169998,374.5170054590001,373.42503225066685,,371.3850759999998,376.5507544589998,371.3850759999998,376.5507544589998,376.5507544589998,377.2008176249999,371.3850759999998,2,0,1.077704331999712,reldom2_s039,001,2025-03-19_16h04.33.486,Where-B-Scan_AC,2022.2.5,None,
0,0.0,None,fixation,stimulus/audwhere_stim/blank_white.png,stimulus/audwhere_stim/blank_white.png,stimulus/viswhere_stim/blank_white.png,stimulus/viswhere_stim/blank_white.png,stimulus/audwhere_stim/blank_white.png,stimulus/audwhere_stim/blank_white.png,stimulus/audwhere_stim/blank_white.png,stimulus/audwhere_stim/blank_white.png,0.0,0.0,0.0,0.0,0,0.0,0,0.0,0,0.0,0,0.0,0,0.0,0.0,0,0.0,0,0.0,0,0.0,0,0.0,0,0.0,0,0.0,0,0.0,0,0.0,8,,,,,0,40,40,40,,,,,,,,,377.4749938749999,377.4749938749999,377.4749938749999,377.4749938749999,377.4749938749999,377.4749938749999,377.4749938749999,377.4749938749999,377.3749028333335,377.4749938749999,377.4749938749999,377.4749938749999,377.3749028333335,377.4749938749999,377.4749938749999,377.4749938749999,377.4749938749999,377.4749938749999,377.4749938749999,377.4749938749999,377.4749938749999,377.4749938749999,377.4749938749999,377.4749938749999,377.4749938749999,377.4749938749999,377.4749938749999,377.42490283333353,377.4749938749999,377.4749938749999,377.4749938749999,377.42490283333353,377.4749938749999,377.4749938749999,377.4749938749999,377.4749938749999,377.4749938749999,382.6883517089998,382.6883517089998,385.6977195420002,None,0,,reldom2_s039,001,2025-03-19_16h04.33.486,Where-B-Scan_AC,2022.2.5,None,
31,First_Order,6.0,audwhere,stimulus/audwhere_stim/dummy.wav,stimulus/audwhere_stim/dummy.wav,stimulus/audwhere_stim/left_toward_270h.wav,stimulus/audwhere_stim/right_toward_280h.wav,stimulus/audwhere_stim/blank_white.png,stimulus/audwhere_stim/side_box.png,stimulus/audwhere_stim/side_yes.png,stimulus/audwhere_stim/side_no.png,None,Side,None,Direction,2,0.0,0,5.125,0,5.125,0,5.125,0,0.0,0.625,0,0.0,0,0.0,0,0.0,0,0.0,0,0.0,0,0.0,1,0.5,1,2.125,0,,,,,0,41,41,41,,,,,,,,,385.6977195420002,385.6977195420002,385.6977195420002,385.6977195420002,385.6977195420002,385.6977195420002,385.6977195420002,385.6977195420002,385.6271022916666,385.6977195420002,385.6977195420002,385.6977195420002,385.6271022916666,385.6977195420002,385.6977195420002,385.6977195420002,387.782851959,,385.6977195420002,385.6977195420002,390.8841289999998,385.6977195420002,385.6977195420002,385.6977195420002,385.6977195420002,386.1628346250002,387.2275364589998,386.13236916666665,,387.782851959,388.8504922919999,387.7531194586668,,385.6977195420002,390.8841289999998,385.6977195420002,390.8841289999998,390.92520391699986,391.5765638340001,385.6977195420002,1,0,1.9306532079997396,reldom2_s039,001,2025-03-19_16h04.33.486,Where-B-Scan_AC,2022.2.5,None,
32,First_Order,6.0,audwhere,stimulus/audwhere_stim/dummy.wav,stimulus/audwhere_stim/dummy.wav,stimulus/audwhere_stim/right_toward_280h.wav,stimulus/audwhere_stim/left_toward_290h.wav,stimulus/audwhere_stim/blank_white.png,stimulus/audwhere_stim/direction_box.png,stimulus/audwhere_stim/direction_yes.png,stimulus/audwhere_stim/direction_no.png,None,Direction,None,Direction,1,0.0,0,5.125,0,5.125,0,5.125,0,0.0,0.625,0,0.0,0,0.0,0,0.0,0,0.0,0,0.0,0,0.0,1,0.5,1,2.125,0,,,,,0,42,42,42,,,,,,,,,391.7882488339999,391.7882488339999,391.7882488339999,391.7882488339999,391.7882488339999,391.7882488339999,391.7882488339999,391.7882488339999,391.70989716733345,391.7882488339999,391.7882488339999,391.7882488339999,391.70989716733345,391.7882488339999,391.7882488339999,391.7882488339999,393.8828635000002,397.9054667920002,391.7882488339999,391.7882488339999,396.95734375000006,391.7882488339999,391.7882488339999,391.7882488339999,391.7882488339999,392.25494649999996,393.32508037499997,392.22522995866666,,393.8828635000002,394.9585844169999,393.85301533366646,,391.7882488339999,396.95734375000006,391.7882488339999,396.95734375000006,396.99819145900005,397.65215775,391.7882488339999,2,0,0.9181845820000945,reldom2_s039,001,2025-03-19_16h04.33.486,Where-B-Scan_AC,2022.2.5,None,
33,First_Order,6.0,audwhere,stimulus/audwhere_stim/dummy.wav,stimulus/audwhere_stim/dummy.wav,stimulus/audwhere_stim/left_toward_270h.wav,stimulus/audwhere_stim/left_away_300h.wav,stimulus/audwhere_stim/blank_white.png,stimulus/audwhere_stim/side_box.png,stimulus/audwhere_stim/side_yes.png,stimulus/audwhere_stim/side_no.png,None,Side,None,Side,1,0.0,0,5.125,0,5.125,0,5.125,0,0.0,0.625,0,0.0,0,0.0,0,0.0,0,0.0,0,0.0,0,0.0,1,0.5,1,2.125,0,,,,,0,43,43,43,,,,,,,,,397.9054667920002,397.9054667920002,397.9054667920002,397.9054667920002,397.9054667920002,397.9054667920002,397.9054667920002,397.9054667920002,397.82637991733316,397.9054667920002,397.9054667920002,397.9054667920002,397.82637991733316,397.9054667920002,397.9054667920002,397.9054667920002,399.9920245840001,,397.9054667920002,397.9054667920002,403.09968883399983,397.9054667920002,397.9054667920002,397.9054667920002,397.9054667920002,398.3706157089998,399.4365421670002,398.34110050066647,,399.9920245840001,401.06138287499994,399.9622770836668,,397.9054667920002,403.09968883399983,397.9054667920002,403.09968883399983,403.09968883399983,403.75285070899986,397.9054667920002,1,1,0.8125052490001963,reldom2_s039,001,2025-03-19_16h04.33.486,Where-B-Scan_AC,2022.2.5,None,
34,First_Order,6.0,audwhere,stimulus/audwhere_stim/dummy.wav,stimulus/audwhere_stim/dummy.wav,stimulus/audwhere_stim/right_toward_300h.wav,stimulus/audwhere_stim/left_toward_290h.wav,stimulus/audwhere_stim/blank_white.png,stimulus/audwhere_stim/side_box.png,stimulus/audwhere_stim/side_yes.png,stimulus/audwhere_stim/side_no.png,None,Side,None,Direction,2,0.0,0,5.125,0,5.125,0,5.125,0,0.0,0.625,0,0.0,0,0.0,0,0.0,0,0.0,0,0.0,0,0.0,1,0.5,1,2.125,0,,,,,0,44,44,44,,,,,,,,,404.00651470900016,404.00651470900016,404.00651470900016,404.00651470900016,404.00651470900016,404.00651470900016,404.00651470900016,404.00651470900016,403.92729175033344,404.00651470900016,404.00651470900016,404.00651470900016,403.92729175033344,404.00651470900016,404.00651470900016,404.00651470900016,406.09730408400014,,404.00651470900016,404.00651470900016,409.16190766700015,404.00651470900016,404.00651470900016,404.00651470900016,404.00651470900016,404.47410375000004,405.5417185839999,404.44412129166676,,406.09730408400014,407.168627625,406.06770675066673,,404.00651470900016,409.16190766700015,404.00651470900016,409.16190766700015,409.203002084,409.85623125000006,404.00651470900016,1,0,0.9915927909999027,reldom2_s039,001,2025-03-19_16h04.33.486,Where-B-Scan_AC,2022.2.5,None,
0,0.0,None,fixation,stimulus/audwhere_stim/blank_white.png,stimulus/audwhere_stim/blank_white.png,stimulus/viswhere_stim/blank_white.png,stimulus/viswhere_stim/blank_white.png,stimulus/audwhere_stim/blank_white.png,stimulus/audwhere_stim/blank_white.png,stimulus/audwhere_stim/blank_white.png,stimulus/audwhere_stim/blank_white.png,0.0,0.0,0.0,0.0,0,0.0,0,0.0,0,0.0,0,0.0,0,0.0,0.0,0,0.0,0,0.0,0,0.0,0,0.0,0,0.0,0,0.0,0,0.0,0,0.0,8,,,,,0,45,45,45,,,,,,,,,410.13074404199983,410.13074404199983,410.13074404199983,410.13074404199983,410.13074404199983,410.13074404199983,410.13074404199983,410.13074404199983,410.03022445833346,410.13074404199983,410.13074404199983,410.13074404199983,410.03022445833346,410.13074404199983,410.13074404199983,410.13074404199983,410.13074404199983,410.13074404199983,410.13074404199983,410.13074404199983,410.13074404199983,410.13074404199983,410.13074404199983,410.13074404199983,410.13074404199983,410.13074404199983,410.13074404199983,410.0802244583335,410.13074404199983,410.13074404199983,410.13074404199983,410.0802244583335,410.13074404199983,410.13074404199983,410.13074404199983,410.13074404199983,410.13074404199983,415.3175108339999,415.3175108339999,418.29634329199985,None,0,,reldom2_s039,001,2025-03-19_16h04.33.486,Where-B-Scan_AC,2022.2.5,None,
35,Second_Order,6.0,audwhere,stimulus/audwhere_stim/left_toward_280h.wav,stimulus/audwhere_stim/right_toward_270h.wav,stimulus/audwhere_stim/left_away_300h.wav,stimulus/audwhere_stim/right_away_280h.wav,stimulus/audwhere_stim/match_blank.png,stimulus/audwhere_stim/match_box.png,stimulus/audwhere_stim/match_yes.png,stimulus/audwhere_stim/match_no.png,1.0,Match,Direction,Direction,1,5.125,0,5.125,0,5.125,0,5.125,0,0.75,0.75,0,0.0,0,0.0,0,0.0,0,0.0,1,0.5,1,2.125,1,0.5,1,2.125,0,,,,,0,46,46,46,,,,,,,,,418.29634329199985,423.409990292,418.29634329199985,418.29634329199985,418.29634329199985,418.29634329199985,418.7492771670002,419.7471577919998,418.76151254166643,,420.3697629589999,421.367843667,420.38226550066656,,423.409990292,424.25763808399984,426.33700250000015,430.25333562499986,424.25763808399984,424.25763808399984,429.4393553749999,424.25763808399984,424.25763808399984,424.25763808399984,424.25763808399984,424.71848962499985,425.77968824999994,424.6884264586665,,426.33700250000015,427.40569737500005,426.3068836256666,,424.25763808399984,429.4393553749999,424.25763808399984,429.4393553749999,429.4393553749999,,424.25763808399984,1,1,2.34723924900004,reldom2_s039,001,2025-03-19_16h04.33.486,Where-B-Scan_AC,2022.2.5,None,
36,Second_Order,6.0,audwhere,stimulus/audwhere_stim/left_toward_300h.wav,stimulus/audwhere_stim/right_toward_280h.wav,stimulus/audwhere_stim/left_away_300h.wav,stimulus/audwhere_stim/right_away_300h.wav,stimulus/audwhere_stim/match_blank.png,stimulus/audwhere_stim/match_box.png,stimulus/audwhere_stim/match_yes.png,stimulus/audwhere_stim/match_no.png,1.0,Match,Direction,Direction,1,5.125,0,5.125,0,5.125,0,5.125,0,0.625,0.625,0,0.0,0,0.0,0,0.0,0,0.0,1,0.5,1,2.125,1,0.5,1,2.125,0,,,,,0,47,47,47,,,,,,,,,430.25333562499986,435.3709356669999,430.25333562499986,430.25333562499986,430.25333562499986,430.25333562499986,430.70832825,431.6941939169999,430.7221724166666,,432.3302483340001,433.3284953750001,432.3431110836668,,435.3709356669999,436.09994274999985,438.16566083400016,442.218641959,436.09994274999985,436.09994274999985,441.2521784170001,436.09994274999985,436.09994274999985,436.09994274999985,436.09994274999985,436.557075125,437.612144209,436.52808062566646,,438.16566083400016,439.2244657499998,438.13532812566655,,436.09994274999985,441.2521784170001,436.09994274999985,441.2521784170001,441.29323691700006,441.94245237500013,436.09994274999985,2,0,1.7927459999998518,reldom2_s039,001,2025-03-19_16h04.33.486,Where-B-Scan_AC,2022.2.5,None,
0,0.0,None,fixation,stimulus/audwhere_stim/blank_white.png,stimulus/audwhere_stim/blank_white.png,stimulus/viswhere_stim/blank_white.png,stimulus/viswhere_stim/blank_white.png,stimulus/audwhere_stim/blank_white.png,stimulus/audwhere_stim/blank_white.png,stimulus/audwhere_stim/blank_white.png,stimulus/audwhere_stim/blank_white.png,0.0,0.0,0.0,0.0,0,0.0,0,0.0,0,0.0,0,0.0,0,0.0,0.0,0,0.0,0,0.0,0,0.0,0,0.0,0,0.0,0,0.0,0,0.0,0,0.0,10,,,,,0,48,48,48,,,,,,,,,442.218641959,442.218641959,442.218641959,442.218641959,442.218641959,442.218641959,442.218641959,442.218641959,442.11646929233336,442.218641959,442.218641959,442.218641959,442.11646929233336,442.218641959,442.218641959,442.218641959,442.218641959,442.218641959,442.218641959,442.218641959,442.218641959,442.218641959,442.218641959,442.218641959,442.218641959,442.218641959,442.218641959,442.1664692923334,442.218641959,442.218641959,442.218641959,442.1664692923334,442.218641959,442.218641959,442.218641959,442.218641959,442.218641959,447.42946529200003,447.42946529200003,452.4070733750002,None,0,,reldom2_s039,001,2025-03-19_16h04.33.486,Where-B-Scan_AC,2022.2.5,None,
37,First_Order,7.0,viswhere,stimulus/viswhere_stim/blank_white.png,stimulus/viswhere_stim/blank_white.png,stimulus/viswhere_stim/150-deg_dot-left_turquoise.png,stimulus/viswhere_stim/120-deg_dot-left_mediumslateblue.png,stimulus/viswhere_stim/blank_white.png,stimulus/viswhere_stim/line_box.png,stimulus/viswhere_stim/line_yes.png,stimulus/viswhere_stim/line_no.png,None,Line,None,Dot,2,0.0,0,5.125,0,5.125,0,5.125,0,0.0,0.625,0,0.0,0,0.0,1,0.5,1,2.125,0,0.0,0,0.0,0,0.0,0,0.0,0,,,,,0,49,49,49,,,,,,,,,452.4070733750002,452.4070733750002,452.4070733750002,452.4070733750002,452.4070733750002,452.4070733750002,452.4070733750002,452.4070733750002,452.3864565836665,452.4070733750002,452.4070733750002,452.4070733750002,452.3864565836665,452.4070733750002,452.4070733750002,452.4070733750002,454.511341917,458.4634512089999,452.4070733750002,452.4070733750002,457.53900150000004,452.88569904200017,453.8995694590001,454.511341917,455.5281604170002,452.4070733750002,452.4070733750002,452.4031232503332,452.4070733750002,452.4070733750002,452.4070733750002,452.4031232503332,452.4070733750002,452.4070733750002,457.53900150000004,452.4070733750002,457.53900150000004,457.62164366699994,458.2489118340002,452.4070733750002,2,1,1.9476191659998676,reldom2_s039,001,2025-03-19_16h04.33.486,Where-B-Scan_AC,2022.2.5,None,
38,First_Order,7.0,viswhere,stimulus/viswhere_stim/blank_white.png,stimulus/viswhere_stim/blank_white.png,stimulus/viswhere_stim/120-deg_dot-left_mediumslateblue.png,stimulus/viswhere_stim/120-deg_dot-right_seagreen.png,stimulus/viswhere_stim/blank_white.png,stimulus/viswhere_stim/dot_box.png,stimulus/viswhere_stim/dot_yes.png,stimulus/viswhere_stim/dot_no.png,None,Dot,None,Line,2,0.0,0,5.125,0,5.125,0,5.125,0,0.0,0.625,0,0.0,0,0.0,1,0.5,1,2.125,0,0.0,0,0.0,0,0.0,0,0.0,0,,,,,0,50,50,50,,,,,,,,,458.4634512089999,458.4634512089999,458.4634512089999,458.4634512089999,458.4634512089999,458.4634512089999,458.4634512089999,458.4634512089999,458.4427082083335,458.4634512089999,458.4634512089999,458.4634512089999,458.4427082083335,458.4634512089999,458.4634512089999,458.4634512089999,460.5698960000002,464.52745949999985,458.4634512089999,458.4634512089999,463.5934589589999,458.9377078750001,459.9442603340001,460.5698960000002,461.5816550420002,458.4634512089999,458.4634512089999,458.45937487500015,458.4634512089999,458.4634512089999,458.4634512089999,458.45937487500015,458.4634512089999,458.4634512089999,463.5934589589999,458.4634512089999,463.5934589589999,463.6881182499999,464.3095403340001,458.4634512089999,2,1,0.7799248320000061,reldom2_s039,001,2025-03-19_16h04.33.486,Where-B-Scan_AC,2022.2.5,None,
39,First_Order,7.0,viswhere,stimulus/viswhere_stim/blank_white.png,stimulus/viswhere_stim/blank_white.png,stimulus/viswhere_stim/60-deg_dot-right_salmon.png,stimulus/viswhere_stim/60-deg_dot-left_peru.png,stimulus/viswhere_stim/blank_white.png,stimulus/viswhere_stim/line_box.png,stimulus/viswhere_stim/line_yes.png,stimulus/viswhere_stim/line_no.png,None,Line,None,Line,1,0.0,0,5.125,0,5.125,0,5.125,0,0.0,0.625,0,0.0,0,0.0,1,0.5,1,2.125,0,0.0,0,0.0,0,0.0,0,0.0,0,,,,,0,51,51,51,,,,,,,,,464.52745949999985,464.52745949999985,464.52745949999985,464.52745949999985,464.52745949999985,464.52745949999985,464.52745949999985,464.52745949999985,464.50665391733315,464.52745949999985,464.52745949999985,464.52745949999985,464.50665391733315,464.52745949999985,464.52745949999985,464.52745949999985,466.63731674999985,470.6007117920001,464.52745949999985,464.52745949999985,469.66657624999993,465.0035304999999,466.01008754200006,466.63731674999985,467.6493754169999,464.52745949999985,464.52745949999985,464.5233205839998,464.52745949999985,464.52745949999985,464.52745949999985,464.5233205839998,464.52745949999985,464.52745949999985,469.66657624999993,464.52745949999985,469.66657624999993,469.74907899999994,470.3707417090002,464.52745949999985,1,1,1.203777915999808,reldom2_s039,001,2025-03-19_16h04.33.486,Where-B-Scan_AC,2022.2.5,None,
40,First_Order,7.0,viswhere,stimulus/viswhere_stim/blank_white.png,stimulus/viswhere_stim/blank_white.png,stimulus/viswhere_stim/60-deg_dot-right_slateblue.png,stimulus/viswhere_stim/90-deg_dot-right_royalblue.png,stimulus/viswhere_stim/blank_white.png,stimulus/viswhere_stim/dot_box.png,stimulus/viswhere_stim/dot_yes.png,stimulus/viswhere_stim/dot_no.png,None,Dot,None,Dot,1,0.0,0,5.125,0,5.125,0,5.125,0,0.0,0.625,0,0.0,0,0.0,1,0.5,1,2.125,0,0.0,0,0.0,0,0.0,0,0.0,0,,,,,0,52,52,52,,,,,,,,,470.6007117920001,470.6007117920001,470.6007117920001,470.6007117920001,470.6007117920001,470.6007117920001,470.6007117920001,470.6007117920001,470.5803054583335,470.6007117920001,470.6007117920001,470.6007117920001,470.5803054583335,470.6007117920001,470.6007117920001,470.6007117920001,472.7105722089998,476.7471383750001,470.6007117920001,470.6007117920001,475.74241741699984,471.076685625,472.0835061250002,472.7105722089998,473.7225824169998,470.6007117920001,470.6007117920001,470.59697212500015,470.6007117920001,470.6007117920001,470.6007117920001,470.59697212500015,470.6007117920001,470.6007117920001,475.74241741699984,470.6007117920001,475.74241741699984,475.8258450840001,476.4545485000001,470.6007117920001,1,1,0.995687124999904,reldom2_s039,001,2025-03-19_16h04.33.486,Where-B-Scan_AC,2022.2.5,None,
0,0.0,None,fixation,stimulus/audwhere_stim/blank_white.png,stimulus/audwhere_stim/blank_white.png,stimulus/viswhere_stim/blank_white.png,stimulus/viswhere_stim/blank_white.png,stimulus/audwhere_stim/blank_white.png,stimulus/audwhere_stim/blank_white.png,stimulus/audwhere_stim/blank_white.png,stimulus/audwhere_stim/blank_white.png,0.0,0.0,0.0,0.0,0,0.0,0,0.0,0,0.0,0,0.0,0,0.0,0.0,0,0.0,0,0.0,0,0.0,0,0.0,0,0.0,0,0.0,0,0.0,0,0.0,8,,,,,0,53,53,53,,,,,,,,,476.7471383750001,476.7471383750001,476.7471383750001,476.7471383750001,476.7471383750001,476.7471383750001,476.7471383750001,476.7471383750001,476.6478628753335,476.7471383750001,476.7471383750001,476.7471383750001,476.6478628753335,476.7471383750001,476.7471383750001,476.7471383750001,476.7471383750001,476.7471383750001,476.7471383750001,476.7471383750001,476.7471383750001,476.7471383750001,476.7471383750001,476.7471383750001,476.7471383750001,476.7471383750001,476.7471383750001,476.6978628753335,476.7471383750001,476.7471383750001,476.7471383750001,476.6978628753335,476.7471383750001,476.7471383750001,476.7471383750001,476.7471383750001,476.7471383750001,481.94309120899993,481.94309120899993,484.84875075000014,None,0,,reldom2_s039,001,2025-03-19_16h04.33.486,Where-B-Scan_AC,2022.2.5,None,
41,Second_Order,7.0,viswhere,stimulus/viswhere_stim/60-deg_dot-right_seagreen.png,stimulus/viswhere_stim/30-deg_dot-right_mediumslateblue.png,stimulus/viswhere_stim/60-deg_dot-left_mediumslateblue.png,stimulus/viswhere_stim/150-deg_dot-left_salmon.png,stimulus/audwhere_stim/match_blank.png,stimulus/audwhere_stim/match_box.png,stimulus/audwhere_stim/match_yes.png,stimulus/audwhere_stim/match_no.png,1.0,Match,Dot,Dot,1,5.125,0,5.125,0,5.125,0,5.125,0,0.75,0.75,1,0.5,1,2.125,1,0.5,1,2.125,0,0.0,0,0.0,0,0.0,0,0.0,0,,,,,0,54,54,54,,,,,,,,,484.84875075000014,489.96451358399986,485.33175108399996,486.32105820899983,486.9565624170002,487.9547844169999,484.84875075000014,484.84875075000014,484.86323704233325,484.84875075000014,484.84875075000014,484.84875075000014,484.86323704233325,484.84875075000014,489.96451358399986,490.7571864590002,492.833829167,496.7234732919999,490.7571864590002,490.7571864590002,495.880083584,491.2031264169998,492.2214597089999,492.833829167,493.84107237500007,490.7571864590002,490.7571864590002,490.7309730423333,490.7571864590002,490.7571864590002,490.7571864590002,490.7309730423333,490.7571864590002,490.7571864590002,495.880083584,490.7571864590002,495.880083584,495.949954125,496.7234732919999,490.7571864590002,2,0,1.957348832999969,reldom2_s039,001,2025-03-19_16h04.33.486,Where-B-Scan_AC,2022.2.5,None,
42,Second_Order,7.0,viswhere,stimulus/viswhere_stim/90-deg_dot-right_goldenrod.png,stimulus/viswhere_stim/120-deg_dot-right_mediumslateblue.png,stimulus/viswhere_stim/60-deg_dot-right_peru.png,stimulus/viswhere_stim/60-deg_dot-left_mediumslateblue.png,stimulus/audwhere_stim/match_blank.png,stimulus/audwhere_stim/match_box.png,stimulus/audwhere_stim/match_yes.png,stimulus/audwhere_stim/match_no.png,2.0,Match,Dot,Line,2,5.125,0,5.125,0,5.125,0,5.125,0,0.625,0.625,1,0.5,1,2.125,1,0.5,1,2.125,0,0.0,0,0.0,0,0.0,0,0.0,0,,,,,0,55,55,55,,,,,,,,,496.7234732919999,501.84091145900015,497.2093953340002,498.19791362499996,498.8344358339998,499.83210424999993,496.7234732919999,496.7234732919999,496.7376193750002,496.7234732919999,496.7234732919999,496.7234732919999,496.7376193750002,496.7234732919999,501.84091145900015,502.51163633400006,504.59456862499997,508.65036162499996,502.51163633400006,502.51163633400006,507.65193033399987,502.97297970900013,503.984501959,504.59456862499997,505.6113118750002,502.51163633400006,502.51163633400006,502.4883974173333,502.51163633400006,502.51163633400006,502.51163633400006,502.4883974173333,502.51163633400006,502.51163633400006,507.65193033399987,502.51163633400006,507.65193033399987,507.7071323339999,508.3414559999999,502.51163633400006,2,1,0.8105000819998622,reldom2_s039,001,2025-03-19_16h04.33.486,Where-B-Scan_AC,2022.2.5,None,
0,0.0,None,fixation,stimulus/audwhere_stim/blank_white.png,stimulus/audwhere_stim/blank_white.png,stimulus/viswhere_stim/blank_white.png,stimulus/viswhere_stim/blank_white.png,stimulus/audwhere_stim/blank_white.png,stimulus/audwhere_stim/blank_white.png,stimulus/audwhere_stim/blank_white.png,stimulus/audwhere_stim/blank_white.png,0.0,0.0,0.0,0.0,0,0.0,0,0.0,0,0.0,0,0.0,0,0.0,0.0,0,0.0,0,0.0,0,0.0,0,0.0,0,0.0,0,0.0,0,0.0,0,0.0,8,,,,,0,56,56,56,,,,,,,,,508.65036162499996,508.65036162499996,508.65036162499996,508.65036162499996,508.65036162499996,508.65036162499996,508.65036162499996,508.65036162499996,508.5513925003334,508.65036162499996,508.65036162499996,508.65036162499996,508.5513925003334,508.65036162499996,508.65036162499996,508.65036162499996,508.65036162499996,508.65036162499996,508.65036162499996,508.65036162499996,508.65036162499996,508.65036162499996,508.65036162499996,508.65036162499996,508.65036162499996,508.65036162499996,508.65036162499996,508.6013925003334,508.65036162499996,508.65036162499996,508.65036162499996,508.6013925003334,508.65036162499996,508.65036162499996,508.65036162499996,508.65036162499996,508.65036162499996,513.880427584,513.880427584,516.8426247919999,None,0,,reldom2_s039,001,2025-03-19_16h04.33.486,Where-B-Scan_AC,2022.2.5,None,
43,First_Order,8.0,viswhere,stimulus/viswhere_stim/blank_white.png,stimulus/viswhere_stim/blank_white.png,stimulus/viswhere_stim/120-deg_dot-left_lightsseagreen.png,stimulus/viswhere_stim/120-deg_dot-right_royalblue.png,stimulus/viswhere_stim/blank_white.png,stimulus/viswhere_stim/line_box.png,stimulus/viswhere_stim/line_yes.png,stimulus/viswhere_stim/line_no.png,None,Line,None,Line,1,0.0,0,5.125,0,5.125,0,5.125,0,0.0,0.625,0,0.0,0,0.0,1,0.5,1,2.125,0,0.0,0,0.0,0,0.0,0,0.0,0,,,,,0,57,57,57,,,,,,,,,516.8426247919999,516.8426247919999,516.8426247919999,516.8426247919999,516.8426247919999,516.8426247919999,516.8426247919999,516.8426247919999,516.8233110836667,516.8426247919999,516.8426247919999,516.8426247919999,516.8233110836667,516.8426247919999,516.8426247919999,516.8426247919999,518.9533399169998,522.9017172920001,516.8426247919999,516.8426247919999,521.9824652919999,517.3183577920001,518.3266101249999,518.9533399169998,519.9677098750001,516.8426247919999,516.8426247919999,516.8233110836667,516.8426247919999,516.8426247919999,516.8426247919999,516.8233110836667,516.8426247919999,516.8426247919999,521.9824652919999,516.8426247919999,521.9824652919999,522.0683630840001,522.7030729589999,516.8426247919999,1,1,0.7097116659999756,reldom2_s039,001,2025-03-19_16h04.33.486,Where-B-Scan_AC,2022.2.5,None,
44,First_Order,8.0,viswhere,stimulus/viswhere_stim/blank_white.png,stimulus/viswhere_stim/blank_white.png,stimulus/viswhere_stim/60-deg_dot-right_peru.png,stimulus/viswhere_stim/90-deg_dot-right_turquoise.png,stimulus/viswhere_stim/blank_white.png,stimulus/viswhere_stim/dot_box.png,stimulus/viswhere_stim/dot_yes.png,stimulus/viswhere_stim/dot_no.png,None,Dot,None,Dot,1,0.0,0,5.125,0,5.125,0,5.125,0,0.0,0.625,0,0.0,0,0.0,1,0.5,1,2.125,0,0.0,0,0.0,0,0.0,0,0.0,0,,,,,0,58,58,58,,,,,,,,,522.9017172920001,522.9017172920001,522.9017172920001,522.9017172920001,522.9017172920001,522.9017172920001,522.9017172920001,522.9017172920001,522.8809705003333,522.9017172920001,522.9017172920001,522.9017172920001,522.8809705003333,522.9017172920001,522.9017172920001,522.9017172920001,525.0150138339998,528.9687187090001,522.9017172920001,522.9017172920001,528.0300904590001,523.3774727920002,524.3886180000002,525.0150138339998,526.0267595839998,522.9017172920001,522.9017172920001,522.897637167,522.9017172920001,522.9017172920001,522.9017172920001,522.897637167,522.9017172920001,522.9017172920001,528.0300904590001,522.9017172920001,528.0300904590001,528.147073292,528.778161209,522.9017172920001,1,1,2.1714617909995013,reldom2_s039,001,2025-03-19_16h04.33.486,Where-B-Scan_AC,2022.2.5,None,
45,First_Order,8.0,viswhere,stimulus/viswhere_stim/blank_white.png,stimulus/viswhere_stim/blank_white.png,stimulus/viswhere_stim/150-deg_dot-right_lightsseagreen.png,stimulus/viswhere_stim/150-deg_dot-left_royalblue.png,stimulus/viswhere_stim/blank_white.png,stimulus/viswhere_stim/dot_box.png,stimulus/viswhere_stim/dot_yes.png,stimulus/viswhere_stim/dot_no.png,None,Dot,None,Line,2,0.0,0,5.125,0,5.125,0,5.125,0,0.0,0.625,0,0.0,0,0.0,1,0.5,1,2.125,0,0.0,0,0.0,0,0.0,0,0.0,0,,,,,0,59,59,59,,,,,,,,,528.9687187090001,528.9687187090001,528.9687187090001,528.9687187090001,528.9687187090001,528.9687187090001,528.9687187090001,528.9687187090001,528.9484509583332,528.9687187090001,528.9687187090001,528.9687187090001,528.9484509583332,528.9687187090001,528.9687187090001,528.9687187090001,531.0840667499999,535.037529125,528.9687187090001,528.9687187090001,534.107325709,529.4484020839998,530.46925575,531.0840667499999,532.0883582089998,528.9687187090001,528.9687187090001,528.9651176249998,528.9687187090001,528.9687187090001,528.9687187090001,528.9651176249998,528.9687187090001,528.9687187090001,534.107325709,528.9687187090001,534.107325709,534.1912547919999,534.8179092920002,528.9687187090001,None,0,,reldom2_s039,001,2025-03-19_16h04.33.486,Where-B-Scan_AC,2022.2.5,None,
46,First_Order,8.0,viswhere,stimulus/viswhere_stim/blank_white.png,stimulus/viswhere_stim/blank_white.png,stimulus/viswhere_stim/30-deg_dot-left_salmon.png,stimulus/viswhere_stim/150-deg_dot-left_turquoise.png,stimulus/viswhere_stim/blank_white.png,stimulus/viswhere_stim/line_box.png,stimulus/viswhere_stim/line_yes.png,stimulus/viswhere_stim/line_no.png,None,Line,None,Dot,2,0.0,0,5.125,0,5.125,0,5.125,0,0.0,0.625,0,0.0,0,0.0,1,0.5,1,2.125,0,0.0,0,0.0,0,0.0,0,0.0,0,,,,,0,60,60,60,,,,,,,,,535.037529125,535.037529125,535.037529125,535.037529125,535.037529125,535.037529125,535.037529125,535.037529125,535.0169139583332,535.037529125,535.037529125,535.037529125,535.0169139583332,535.037529125,535.037529125,535.037529125,537.1481450839999,541.1841683340001,535.037529125,535.037529125,540.1642080839999,535.517609834,536.536258375,537.1481450839999,538.1506379169998,535.037529125,535.037529125,535.0335806249999,535.037529125,535.037529125,535.037529125,535.0335806249999,535.037529125,535.037529125,540.1642080839999,535.037529125,540.1642080839999,540.2659097919998,540.89278425,535.037529125,2,1,1.7224610000000666,reldom2_s039,001,2025-03-19_16h04.33.486,Where-B-Scan_AC,2022.2.5,None,
0,0.0,None,fixation,stimulus/audwhere_stim/blank_white.png,stimulus/audwhere_stim/blank_white.png,stimulus/viswhere_stim/blank_white.png,stimulus/viswhere_stim/blank_white.png,stimulus/audwhere_stim/blank_white.png,stimulus/audwhere_stim/blank_white.png,stimulus/audwhere_stim/blank_white.png,stimulus/audwhere_stim/blank_white.png,0.0,0.0,0.0,0.0,0,0.0,0,0.0,0,0.0,0,0.0,0,0.0,0.0,0,0.0,0,0.0,0,0.0,0,0.0,0,0.0,0,0.0,0,0.0,0,0.0,9,,,,,0,61,61,61,,,,,,,,,541.1841683340001,541.1841683340001,541.1841683340001,541.1841683340001,541.1841683340001,541.1841683340001,541.1841683340001,541.1841683340001,541.0872651673332,541.1841683340001,541.1841683340001,541.1841683340001,541.0872651673332,541.1841683340001,541.1841683340001,541.1841683340001,541.1841683340001,541.1841683340001,541.1841683340001,541.1841683340001,541.1841683340001,541.1841683340001,541.1841683340001,541.1841683340001,541.1841683340001,541.1841683340001,541.1841683340001,541.1372651673331,541.1841683340001,541.1841683340001,541.1841683340001,541.1372651673331,541.1841683340001,541.1841683340001,541.1841683340001,541.1841683340001,541.1841683340001,546.3789542090001,546.3789542090001,550.3002719590002,None,0,,reldom2_s039,001,2025-03-19_16h04.33.486,Where-B-Scan_AC,2022.2.5,None,
47,Second_Order,8.0,viswhere,stimulus/viswhere_stim/90-deg_dot-left_lightsseagreen.png,stimulus/viswhere_stim/120-deg_dot-left_royalblue.png,stimulus/viswhere_stim/30-deg_dot-right_mediumslateblue.png,stimulus/viswhere_stim/60-deg_dot-right_lightsseagreen.png,stimulus/audwhere_stim/match_blank.png,stimulus/audwhere_stim/match_box.png,stimulus/audwhere_stim/match_yes.png,stimulus/audwhere_stim/match_no.png,1.0,Match,Dot,Dot,1,5.125,0,5.125,0,5.125,0,5.125,0,0.75,0.75,1,0.5,1,2.125,1,0.5,1,2.125,0,0.0,0,0.0,0,0.0,0,0.0,0,,,,,0,62,62,62,,,,,,,,,550.3002719590002,555.4149325000001,550.7828529999999,551.7723892920001,552.4080846250001,553.4061127500001,550.3002719590002,550.3002719590002,550.3151704583332,550.3002719590002,550.3002719590002,550.3002719590002,550.3151704583332,550.3002719590002,555.4149325000001,556.2019458339998,558.2888866249998,562.1788933340001,556.2019458339998,556.2019458339998,561.3354186670001,556.6629572919999,557.6757015420001,558.2888866249998,559.2904564590001,556.2019458339998,556.2019458339998,556.1834277503333,556.2019458339998,556.2019458339998,556.2019458339998,556.1834277503333,556.2019458339998,556.2019458339998,561.3354186670001,556.2019458339998,561.3354186670001,561.4041970840001,562.1788933340001,556.2019458339998,1,1,0.8179019159999825,reldom2_s039,001,2025-03-19_16h04.33.486,Where-B-Scan_AC,2022.2.5,None,
48,Second_Order,8.0,viswhere,stimulus/viswhere_stim/60-deg_dot-left_seagreen.png,stimulus/viswhere_stim/90-deg_dot-left_peru.png,stimulus/viswhere_stim/30-deg_dot-right_turquoise.png,stimulus/viswhere_stim/30-deg_dot-left_lightsseagreen.png,stimulus/audwhere_stim/match_blank.png,stimulus/audwhere_stim/match_box.png,stimulus/audwhere_stim/match_yes.png,stimulus/audwhere_stim/match_no.png,2.0,Match,Dot,Line,2,5.125,0,5.125,0,5.125,0,5.125,0,0.625,0.625,1,0.5,1,2.125,1,0.5,1,2.125,0,0.0,0,0.0,0,0.0,0,0.0,0,,,,,0,63,63,63,,,,,,,,,562.1788933340001,567.2924666669999,562.6641644170002,563.6506493750001,564.2861380840002,565.2836730000001,562.1788933340001,562.1788933340001,562.1920440419999,562.1788933340001,562.1788933340001,562.1788933340001,562.1920440419999,562.1788933340001,567.2924666669999,567.9602287089999,570.041532167,574.0786009999999,567.9602287089999,567.9602287089999,573.0868254589998,568.423210959,569.4317631669999,570.041532167,571.0619955,567.9602287089999,567.9602287089999,567.9393861673332,567.9602287089999,567.9602287089999,567.9602287089999,567.9393861673332,567.9602287089999,567.9602287089999,573.0868254589998,567.9602287089999,573.0868254589998,573.1548532089998,573.7853698339998,567.9602287089999,2,1,0.8206081239998184,reldom2_s039,001,2025-03-19_16h04.33.486,Where-B-Scan_AC,2022.2.5,None,
0,0.0,None,fixation,stimulus/audwhere_stim/blank_white.png,stimulus/audwhere_stim/blank_white.png,stimulus/viswhere_stim/blank_white.png,stimulus/viswhere_stim/blank_white.png,stimulus/audwhere_stim/blank_white.png,stimulus/audwhere_stim/blank_white.png,stimulus/audwhere_stim/blank_white.png,stimulus/audwhere_stim/blank_white.png,0.0,0.0,0.0,0.0,0,0.0,0,0.0,0,0.0,0,0.0,0,0.0,0.0,0,0.0,0,0.0,0,0.0,0,0.0,0,0.0,0,0.0,0,0.0,0,0.0,16,,,,,0,64,64,64,,,,,,,,,574.0786009999999,574.0786009999999,574.0786009999999,574.0786009999999,574.0786009999999,574.0786009999999,574.0786009999999,574.0786009999999,573.9791988753333,574.0786009999999,574.0786009999999,574.0786009999999,573.9791988753333,574.0786009999999,574.0786009999999,574.0786009999999,574.0786009999999,574.0786009999999,574.0786009999999,574.0786009999999,574.0786009999999,574.0786009999999,574.0786009999999,574.0786009999999,574.0786009999999,574.0786009999999,574.0786009999999,574.0291988753332,574.0786009999999,574.0786009999999,574.0786009999999,574.0291988753332,574.0786009999999,574.0786009999999,574.0786009999999,574.0786009999999,574.0786009999999,579.2659742090002,579.2659742090002,590.2054700840001,None,0,,reldom2_s039,001,2025-03-19_16h04.33.486,Where-B-Scan_AC,2022.2.5,None,
