Trial,Order,Block,Type,Stimuli_File1,Stimuli_File2,Stimuli_File3,Stimuli_File4,Cue_File1,Cue_File2,Response_File_Yes,Response_File_No,Match,Cue_Dimension,Pair1_Dimension,Pair2_Dimension,Key,Cue1_Duration,Cue1_Onset,Cue2_Duration,Cue2_Onset,ResponseYes_Duration,ResponseYes_Onset,ResponseNo_Duration,ResponseNo_Onset,ITI_Within,ITI_Between,Image1_Duration,Image1_Onset,Image2_Duration,Image2_Onset,Image3_Duration,Image3_Onset,Image4_Duration,Image4_Onset,Sound1_Duration,Sound1_Onset,Sound2_Duration,Sound2_Onset,Sound3_Duration,Sound3_Onset,Sound4_Duration,Sound4_Onset,Fixation_Duration,trials_2.thisRepN,trials_2.thisTrialN,trials_2.thisN,trials_2.thisIndex,trials.thisRepN,trials.thisTrialN,trials.thisN,trials.thisIndex,text_start.started,key_resp_start.started,key_resp_start.keys,key_resp_start.rt,text2.started,key_resp_2.started,key_resp_2.keys,key_resp_2.rt,cue_file1.started,cue_file1.stopped,image_1.started,image_1.stopped,image_2.started,image_2.stopped,sound_icon1.started,sound_icon1.stopped,sound_1.started,sound_1.stopped,sound_icon2.started,sound_icon2.stopped,sound_2.started,sound_2.stopped,image_blank_1.started,image_blank_1.stopped,key_press.started,key_press.stopped,fixation_text.started,cue_file2.started,cue_file2.stopped,image_3.started,image_3.stopped,image_4.started,image_4.stopped,sound_icon3.started,sound_icon3.stopped,sound_3.started,sound_3.stopped,sound_icon4.started,sound_icon4.stopped,sound_4.started,sound_4.stopped,response_yes.started,response_yes.stopped,response_no.started,response_no.stopped,iti_blank.started,iti_blank.stopped,fixation_text.stopped,key_press.keys,key_press.corr,key_press.rt,participant,session,date,expName,psychopyVersion,frameRate,
,,,,,,,,,,,,,,,,,,,,,,,,,,,,,,,,,,,,,,,,,,,,,,,,,,,,7.193189415999996,7.193189415999996,2,1.4521407499998986,,,,,,,,,,,,,,,,,,,,,,,,,,,,,,,,,,,,,,,,,,,,,,,,reldom2_s039,001,2025-03-19_15h42.20.341,Vis-B-Scan_AC,2022.2.5,None,
,,,,,,,,,,,,,,,,,,,,,,,,,,,,,,,,,,,,,,,,,,,,0,0,0,0,,,,,,,,,8.686020083000017,8.686020083000017,5,17.60958966599992,,,,,,,,,,,,,,,,,,,,,,,,,,,,,,,,,,,,,,,,,,,,reldom2_s039,001,2025-03-19_15h42.20.341,Vis-B-Scan_AC,2022.2.5,None,
,,,,,,,,,,,,,,,,,,,,,,,,,,,,,,,,,,,,,,,,,,,,1,0,1,0,,,,,,,,,26.30815300000006,26.30815300000006,5,1.9864202919999343,,,,,,,,,,,,,,,,,,,,,,,,,,,,,,,,,,,,,,,,,,,,reldom2_s039,001,2025-03-19_15h42.20.341,Vis-B-Scan_AC,2022.2.5,None,
,,,,,,,,,,,,,,,,,,,,,,,,,,,,,,,,,,,,,,,,,,,,2,0,2,0,,,,,,,,,28.319537833000027,28.319537833000027,5,1.9754398750000064,,,,,,,,,,,,,,,,,,,,,,,,,,,,,,,,,,,,,,,,,,,,reldom2_s039,001,2025-03-19_15h42.20.341,Vis-B-Scan_AC,2022.2.5,None,
,,,,,,,,,,,,,,,,,,,,,,,,,,,,,,,,,,,,,,,,,,,,3,0,3,0,,,,,,,,,30.308193125000003,30.308193125000003,5,1.987109415999953,,,,,,,,,,,,,,,,,,,,,,,,,,,,,,,,,,,,,,,,,,,,reldom2_s039,001,2025-03-19_15h42.20.341,Vis-B-Scan_AC,2022.2.5,None,
0,0.0,None,fixation,stimulus/viswhere_stim/blank_white.png,stimulus/viswhere_stim/blank_white.png,stimulus/viswhat_stim/blank_white.png,stimulus/viswhat_stim/blank_white.png,stimulus/viswhere_stim/blank_white.png,stimulus/viswhere_stim/blank_white.png,stimulus/viswhere_stim/blank_white.png,stimulus/viswhere_stim/blank_white.png,0.0,0.0,0.0,0.0,0,0.0,0,0.0,0,0.0,0,0.0,0,0.0,0.0,0,0.0,0,0.0,0,0.0,0,0.0,0,0,0,0,0,0,0,0,16,,,,,0,0,0,0,,,,,,,,,32.50771329100007,32.50771329100007,32.50771329100007,32.50771329100007,32.50771329100007,32.50771329100007,32.50771329100007,32.50771329100007,32.412547374666694,32.50771329100007,32.50771329100007,32.50771329100007,32.412547374666694,32.50771329100007,32.50771329100007,32.50771329100007,32.50771329100007,32.50771329100007,32.50771329100007,32.50771329100007,32.50771329100007,32.50771329100007,32.50771329100007,32.50771329100007,32.50771329100007,32.50771329100007,32.50771329100007,32.46254737466669,32.50771329100007,32.50771329100007,32.50771329100007,32.46254737466669,32.50771329100007,32.50771329100007,32.50771329100007,32.50771329100007,32.50771329100007,37.72629679099998,37.72629679099998,48.69305508299999,None,0,,reldom2_s039,001,2025-03-19_15h42.20.341,Vis-B-Scan_AC,2022.2.5,None,
1,First_Order,1.0,viswhere,stimulus/viswhere_stim/blank_white.png,stimulus/viswhere_stim/blank_white.png,stimulus/viswhere_stim/150-deg_dot-left_royalblue.png,stimulus/viswhere_stim/150-deg_dot-right_peru.png,stimulus/viswhere_stim/blank_white.png,stimulus/viswhere_stim/dot_box.png,stimulus/viswhere_stim/dot_yes.png,stimulus/viswhere_stim/dot_no.png,None,Dot,None,Line,2,0.0,0,5.125,0,5.125,0,5.125,0,0.0,0.625,0,0.0,0,0.0,1,0.5,1,2.125,0,0,0,0,0,0,0,0,0,,,,,0,1,1,1,,,,,,,,,48.69305508299999,48.69305508299999,48.69305508299999,48.69305508299999,48.69305508299999,48.69305508299999,48.69305508299999,48.69305508299999,48.67338774999998,48.69305508299999,48.69305508299999,48.69305508299999,48.67338774999998,48.69305508299999,48.69305508299999,48.69305508299999,50.789774958000066,54.753326875000084,48.69305508299999,48.69305508299999,53.81703879100007,49.179105666000055,50.190231916000016,50.789774958000066,51.80691970800001,48.69305508299999,48.69305508299999,48.69005441666665,48.69305508299999,48.69305508299999,48.69305508299999,48.69005441666665,48.69305508299999,48.69305508299999,53.81703879100007,48.69305508299999,53.81703879100007,53.91192283300006,54.53277866600001,48.69305508299999,2,1,1.7214413330000298,reldom2_s039,001,2025-03-19_15h42.20.341,Vis-B-Scan_AC,2022.2.5,None,
2,First_Order,1.0,viswhere,stimulus/viswhere_stim/blank_white.png,stimulus/viswhere_stim/blank_white.png,stimulus/viswhere_stim/30-deg_dot-left_salmon.png,stimulus/viswhere_stim/30-deg_dot-right_seagreen.png,stimulus/viswhere_stim/blank_white.png,stimulus/viswhere_stim/dot_box.png,stimulus/viswhere_stim/dot_yes.png,stimulus/viswhere_stim/dot_no.png,None,Dot,None,Line,2,0.0,0,5.125,0,5.125,0,5.125,0,0.0,0.625,0,0.0,0,0.0,1,0.5,1,2.125,0,0,0,0,0,0,0,0,0,,,,,0,2,2,2,,,,,,,,,54.753326875000084,54.753326875000084,54.753326875000084,54.753326875000084,54.753326875000084,54.753326875000084,54.753326875000084,54.753326875000084,54.73614041633342,54.753326875000084,54.753326875000084,54.753326875000084,54.73614041633342,54.753326875000084,54.753326875000084,54.753326875000084,56.86074866600006,60.80831091599998,54.753326875000084,54.753326875000084,59.88747245800005,55.23849675000008,56.24486020799998,56.86074866600006,57.86877362500002,54.753326875000084,54.753326875000084,54.73614041633342,54.753326875000084,54.753326875000084,54.753326875000084,54.73614041633342,54.753326875000084,54.753326875000084,59.88747245800005,54.753326875000084,59.88747245800005,59.98222079100003,60.61367858300002,54.753326875000084,2,1,1.2768004579999115,reldom2_s039,001,2025-03-19_15h42.20.341,Vis-B-Scan_AC,2022.2.5,None,
3,First_Order,1.0,viswhere,stimulus/viswhere_stim/blank_white.png,stimulus/viswhere_stim/blank_white.png,stimulus/viswhere_stim/120-deg_dot-left_goldenrod.png,stimulus/viswhere_stim/30-deg_dot-left_slateblue.png,stimulus/viswhere_stim/blank_white.png,stimulus/viswhere_stim/dot_box.png,stimulus/viswhere_stim/dot_yes.png,stimulus/viswhere_stim/dot_no.png,None,Dot,None,Dot,1,0.0,0,5.125,0,5.125,0,5.125,0,0.0,0.625,0,0.0,0,0.0,1,0.5,1,2.125,0,0,0,0,0,0,0,0,0,,,,,0,3,3,3,,,,,,,,,60.80831091599998,60.80831091599998,60.80831091599998,60.80831091599998,60.80831091599998,60.80831091599998,60.80831091599998,60.80831091599998,60.79061554133337,60.80831091599998,60.80831091599998,60.80831091599998,60.79061554133337,60.80831091599998,60.80831091599998,60.80831091599998,62.92048545800003,66.87644883300004,60.80831091599998,60.80831091599998,65.94266470800005,61.29342274999999,62.304467208000005,62.92048545800003,63.935614625000085,60.80831091599998,60.80831091599998,60.79061554133337,60.80831091599998,60.80831091599998,60.80831091599998,60.79061554133337,60.80831091599998,60.80831091599998,65.94266470800005,60.80831091599998,65.94266470800005,66.03664062500002,66.66777741600004,60.80831091599998,1,1,1.6986552079998773,reldom2_s039,001,2025-03-19_15h42.20.341,Vis-B-Scan_AC,2022.2.5,None,
4,First_Order,1.0,viswhere,stimulus/viswhere_stim/blank_white.png,stimulus/viswhere_stim/blank_white.png,stimulus/viswhere_stim/150-deg_dot-right_royalblue.png,stimulus/viswhere_stim/30-deg_dot-right_salmon.png,stimulus/viswhere_stim/blank_white.png,stimulus/viswhere_stim/line_box.png,stimulus/viswhere_stim/line_yes.png,stimulus/viswhere_stim/line_no.png,None,Line,None,Dot,2,0.0,0,5.125,0,5.125,0,5.125,0,0.0,0.625,0,0.0,0,0.0,1,0.5,1,2.125,0,0,0,0,0,0,0,0,0,,,,,0,4,4,4,,,,,,,,,66.87644883300004,66.87644883300004,66.87644883300004,66.87644883300004,66.87644883300004,66.87644883300004,66.87644883300004,66.87644883300004,66.85829516633335,66.87644883300004,66.87644883300004,66.87644883300004,66.85829516633335,66.87644883300004,66.87644883300004,66.87644883300004,68.98097841600008,73.03037600000005,66.87644883300004,66.87644883300004,72.00387308300003,67.35133800000006,68.35751708300006,68.98097841600008,69.989738375,66.87644883300004,66.87644883300004,66.85829516633335,66.87644883300004,66.87644883300004,66.87644883300004,66.85829516633335,66.87644883300004,66.87644883300004,72.00387308300003,66.87644883300004,72.00387308300003,72.09768054100005,72.72566491600003,66.87644883300004,2,1,1.4191429579999522,reldom2_s039,001,2025-03-19_15h42.20.341,Vis-B-Scan_AC,2022.2.5,None,
0,0.0,None,fixation,stimulus/viswhere_stim/blank_white.png,stimulus/viswhere_stim/blank_white.png,stimulus/viswhat_stim/blank_white.png,stimulus/viswhat_stim/blank_white.png,stimulus/viswhere_stim/blank_white.png,stimulus/viswhere_stim/blank_white.png,stimulus/viswhere_stim/blank_white.png,stimulus/viswhere_stim/blank_white.png,0.0,0.0,0.0,0.0,0,0.0,0,0.0,0,0.0,0,0.0,0,0.0,0.0,0,0.0,0,0.0,0,0.0,0,0.0,0,0,0,0,0,0,0,0,9,,,,,0,5,5,5,,,,,,,,,73.03037600000005,73.03037600000005,73.03037600000005,73.03037600000005,73.03037600000005,73.03037600000005,73.03037600000005,73.03037600000005,72.9391454993334,73.03037600000005,73.03037600000005,73.03037600000005,72.9391454993334,73.03037600000005,73.03037600000005,73.03037600000005,73.03037600000005,73.03037600000005,73.03037600000005,73.03037600000005,73.03037600000005,73.03037600000005,73.03037600000005,73.03037600000005,73.03037600000005,73.03037600000005,73.03037600000005,72.9891454993334,73.03037600000005,73.03037600000005,73.03037600000005,72.9891454993334,73.03037600000005,73.03037600000005,73.03037600000005,73.03037600000005,73.03037600000005,78.25589183300008,78.25589183300008,82.15824370799999,None,0,,reldom2_s039,001,2025-03-19_15h42.20.341,Vis-B-Scan_AC,2022.2.5,None,
5,Second_Order,1.0,viswhere,stimulus/viswhere_stim/90-deg_dot-left_mediumslateblue.png,stimulus/viswhere_stim/30-deg_dot-left_slateblue.png,stimulus/viswhere_stim/90-deg_dot-left_royalblue.png,stimulus/viswhere_stim/90-deg_dot-right_goldenrod.png,stimulus/viswhere_stim/match_blank.png,stimulus/viswhere_stim/match_box.png,stimulus/viswhere_stim/match_yes.png,stimulus/viswhere_stim/match_no.png,2.0,Match,Dot,Line,2,5.125,0,5.125,0,5.125,0,5.125,0,0.75,0.75,1,0.5,1,2.125,1,0.5,1,2.125,0,0,0,0,0,0,0,0,0,,,,,0,6,6,6,,,,,,,,,82.15824370799999,87.27835229100003,82.63281466600006,83.619268541,84.26615866600002,85.25611170800005,82.15824370799999,82.15824370799999,82.15834995766669,82.15824370799999,82.15824370799999,82.15824370799999,82.15834995766669,82.15824370799999,87.27835229100003,88.07283800000005,90.142670791,94.00805700000001,88.07283800000005,88.07283800000005,93.20971754100003,88.531826916,89.53740479100009,90.142670791,91.15548945800003,88.07283800000005,88.07283800000005,88.061374541,88.07283800000005,88.07283800000005,88.07283800000005,88.061374541,88.07283800000005,88.07283800000005,93.20971754100003,88.07283800000005,93.20971754100003,93.26644429100008,94.04390008300004,88.07283800000005,2,1,0.7936943749999728,reldom2_s039,001,2025-03-19_15h42.20.341,Vis-B-Scan_AC,2022.2.5,None,
6,Second_Order,1.0,viswhere,stimulus/viswhere_stim/30-deg_dot-right_turquoise.png,stimulus/viswhere_stim/30-deg_dot-left_goldenrod.png,stimulus/viswhere_stim/60-deg_dot-left_salmon.png,stimulus/viswhere_stim/60-deg_dot-right_slateblue.png,stimulus/viswhere_stim/match_blank.png,stimulus/viswhere_stim/match_box.png,stimulus/viswhere_stim/match_yes.png,stimulus/viswhere_stim/match_no.png,1.0,Match,Line,Line,1,5.125,0,5.125,0,5.125,0,5.125,0,0.625,0.625,1,0.5,1,2.125,1,0.5,1,2.125,0,0,0,0,0,0,0,0,0,,,,,0,7,7,7,,,,,,,,,94.04390008300004,99.16743912499999,94.527296708,95.525716666,96.14817779100008,97.14595333300008,94.04390008300004,94.04390008300004,94.058057,94.04390008300004,94.04390008300004,94.04390008300004,94.058057,94.04390008300004,99.16743912499999,99.842868458,101.92788016600002,105.95649154099999,99.842868458,99.842868458,104.97324375000005,100.29696704100002,101.30939420800007,101.92788016600002,102.93144287500002,99.842868458,99.842868458,99.81909649933337,99.842868458,99.842868458,99.842868458,99.81909649933337,99.842868458,99.842868458,104.97324375000005,99.842868458,104.97324375000005,105.04035429100009,105.671153,99.842868458,1,1,1.1341927910000322,reldom2_s039,001,2025-03-19_15h42.20.341,Vis-B-Scan_AC,2022.2.5,None,
0,0.0,None,fixation,stimulus/viswhere_stim/blank_white.png,stimulus/viswhere_stim/blank_white.png,stimulus/viswhat_stim/blank_white.png,stimulus/viswhat_stim/blank_white.png,stimulus/viswhere_stim/blank_white.png,stimulus/viswhere_stim/blank_white.png,stimulus/viswhere_stim/blank_white.png,stimulus/viswhere_stim/blank_white.png,0.0,0.0,0.0,0.0,0,0.0,0,0.0,0,0.0,0,0.0,0,0.0,0.0,0,0.0,0,0.0,0,0.0,0,0.0,0,0,0,0,0,0,0,0,9,,,,,0,8,8,8,,,,,,,,,105.95649154099999,105.95649154099999,105.95649154099999,105.95649154099999,105.95649154099999,105.95649154099999,105.95649154099999,105.95649154099999,105.86162729133339,105.95649154099999,105.95649154099999,105.95649154099999,105.86162729133339,105.95649154099999,105.95649154099999,105.95649154099999,105.95649154099999,105.95649154099999,105.95649154099999,105.95649154099999,105.95649154099999,105.95649154099999,105.95649154099999,105.95649154099999,105.95649154099999,105.95649154099999,105.95649154099999,105.91162729133339,105.95649154099999,105.95649154099999,105.95649154099999,105.91162729133339,105.95649154099999,105.95649154099999,105.95649154099999,105.95649154099999,105.95649154099999,111.16676695800004,111.16676695800004,115.13899212500007,None,0,,reldom2_s039,001,2025-03-19_15h42.20.341,Vis-B-Scan_AC,2022.2.5,None,
7,First_Order,2.0,viswhere,stimulus/viswhere_stim/blank_white.png,stimulus/viswhere_stim/blank_white.png,stimulus/viswhere_stim/60-deg_dot-right_peru.png,stimulus/viswhere_stim/120-deg_dot-right_goldenrod.png,stimulus/viswhere_stim/blank_white.png,stimulus/viswhere_stim/line_box.png,stimulus/viswhere_stim/line_yes.png,stimulus/viswhere_stim/line_no.png,None,Line,None,Dot,2,0.0,0,5.125,0,5.125,0,5.125,0,0.0,0.625,0,0.0,0,0.0,1,0.5,1,2.125,0,0,0,0,0,0,0,0,0,,,,,0,9,9,9,,,,,,,,,115.13899212500007,115.13899212500007,115.13899212500007,115.13899212500007,115.13899212500007,115.13899212500007,115.13899212500007,115.13899212500007,115.10737650000002,115.13899212500007,115.13899212500007,115.13899212500007,115.10737650000002,115.13899212500007,115.13899212500007,115.13899212500007,117.23896875000003,121.19204241600005,115.13899212500007,115.13899212500007,120.269298166,115.61274620799998,116.61634800000002,117.23896875000003,118.244994958,115.13899212500007,115.13899212500007,115.12404316666668,115.13899212500007,115.13899212500007,115.13899212500007,115.12404316666668,115.13899212500007,115.13899212500007,120.269298166,115.13899212500007,120.269298166,120.36794616600002,120.99664633300006,115.13899212500007,2,1,2.0384252919999426,reldom2_s039,001,2025-03-19_15h42.20.341,Vis-B-Scan_AC,2022.2.5,None,
8,First_Order,2.0,viswhere,stimulus/viswhere_stim/blank_white.png,stimulus/viswhere_stim/blank_white.png,stimulus/viswhere_stim/90-deg_dot-left_turquoise.png,stimulus/viswhere_stim/90-deg_dot-right_peru.png,stimulus/viswhere_stim/blank_white.png,stimulus/viswhere_stim/line_box.png,stimulus/viswhere_stim/line_yes.png,stimulus/viswhere_stim/line_no.png,None,Line,None,Line,1,0.0,0,5.125,0,5.125,0,5.125,0,0.0,0.625,0,0.0,0,0.0,1,0.5,1,2.125,0,0,0,0,0,0,0,0,0,,,,,0,10,10,10,,,,,,,,,121.19204241600005,121.19204241600005,121.19204241600005,121.19204241600005,121.19204241600005,121.19204241600005,121.19204241600005,121.19204241600005,121.17344983333335,121.19204241600005,121.19204241600005,121.19204241600005,121.17344983333335,121.19204241600005,121.19204241600005,121.19204241600005,123.29934466600002,127.25699866600007,121.19204241600005,121.19204241600005,126.33289133300002,121.665520625,122.67300845800003,123.29934466600002,124.31258350000007,121.19204241600005,121.19204241600005,121.17344983333335,121.19204241600005,121.19204241600005,121.19204241600005,121.17344983333335,121.19204241600005,121.19204241600005,126.33289133300002,121.19204241600005,126.33289133300002,126.41992441600007,127.047491208,121.19204241600005,1,1,2.733663374999878,reldom2_s039,001,2025-03-19_15h42.20.341,Vis-B-Scan_AC,2022.2.5,None,
9,First_Order,2.0,viswhere,stimulus/viswhere_stim/blank_white.png,stimulus/viswhere_stim/blank_white.png,stimulus/viswhere_stim/60-deg_dot-right_seagreen.png,stimulus/viswhere_stim/120-deg_dot-right_salmon.png,stimulus/viswhere_stim/blank_white.png,stimulus/viswhere_stim/dot_box.png,stimulus/viswhere_stim/dot_yes.png,stimulus/viswhere_stim/dot_no.png,None,Dot,None,Dot,1,0.0,0,5.125,0,5.125,0,5.125,0,0.0,0.625,0,0.0,0,0.0,1,0.5,1,2.125,0,0,0,0,0,0,0,0,0,,,,,0,11,11,11,,,,,,,,,127.25699866600007,127.25699866600007,127.25699866600007,127.25699866600007,127.25699866600007,127.25699866600007,127.25699866600007,127.25699866600007,127.2379172083334,127.25699866600007,127.25699866600007,127.25699866600007,127.2379172083334,127.25699866600007,127.25699866600007,127.25699866600007,129.358339291,133.31436954100002,127.25699866600007,127.25699866600007,132.38902404100008,127.73047604100009,128.734526125,129.358339291,130.36646233300007,127.25699866600007,127.25699866600007,127.2379172083334,127.25699866600007,127.25699866600007,127.25699866600007,127.2379172083334,127.25699866600007,127.25699866600007,132.38902404100008,127.25699866600007,132.38902404100008,132.48371362500006,133.12824037500002,127.25699866600007,1,1,0.8425618750000012,reldom2_s039,001,2025-03-19_15h42.20.341,Vis-B-Scan_AC,2022.2.5,None,
10,First_Order,2.0,viswhere,stimulus/viswhere_stim/blank_white.png,stimulus/viswhere_stim/blank_white.png,stimulus/viswhere_stim/120-deg_dot-right_cyan.png,stimulus/viswhere_stim/120-deg_dot-left_turquoise.png,stimulus/viswhere_stim/blank_white.png,stimulus/viswhere_stim/line_box.png,stimulus/viswhere_stim/line_yes.png,stimulus/viswhere_stim/line_no.png,None,Line,None,Line,1,0.0,0,5.125,0,5.125,0,5.125,0,0.0,0.625,0,0.0,0,0.0,1,0.5,1,2.125,0,0,0,0,0,0,0,0,0,,,,,0,12,12,12,,,,,,,,,133.31436954100002,133.31436954100002,133.31436954100002,133.31436954100002,133.31436954100002,133.31436954100002,133.31436954100002,133.31436954100002,133.29521674933332,133.31436954100002,133.31436954100002,133.31436954100002,133.29521674933332,133.31436954100002,133.31436954100002,133.31436954100002,135.420898125,139.45260504100008,133.31436954100002,133.31436954100002,138.44420558299998,133.789831208,134.79734162500006,135.420898125,136.43121587500002,133.31436954100002,133.31436954100002,133.29521674933332,133.31436954100002,133.31436954100002,133.31436954100002,133.29521674933332,133.31436954100002,133.31436954100002,138.44420558299998,133.31436954100002,138.44420558299998,138.537856541,139.16274679100002,133.31436954100002,1,1,1.3697101669999938,reldom2_s039,001,2025-03-19_15h42.20.341,Vis-B-Scan_AC,2022.2.5,None,
0,0.0,None,fixation,stimulus/viswhere_stim/blank_white.png,stimulus/viswhere_stim/blank_white.png,stimulus/viswhat_stim/blank_white.png,stimulus/viswhat_stim/blank_white.png,stimulus/viswhere_stim/blank_white.png,stimulus/viswhere_stim/blank_white.png,stimulus/viswhere_stim/blank_white.png,stimulus/viswhere_stim/blank_white.png,0.0,0.0,0.0,0.0,0,0.0,0,0.0,0,0.0,0,0.0,0,0.0,0.0,0,0.0,0,0.0,0,0.0,0,0.0,0,0,0,0,0,0,0,0,8,,,,,0,13,13,13,,,,,,,,,139.45260504100008,139.45260504100008,139.45260504100008,139.45260504100008,139.45260504100008,139.45260504100008,139.45260504100008,139.45260504100008,139.3589903743334,139.45260504100008,139.45260504100008,139.45260504100008,139.3589903743334,139.45260504100008,139.45260504100008,139.45260504100008,139.45260504100008,139.45260504100008,139.45260504100008,139.45260504100008,139.45260504100008,139.45260504100008,139.45260504100008,139.45260504100008,139.45260504100008,139.45260504100008,139.45260504100008,139.4089903743334,139.45260504100008,139.45260504100008,139.45260504100008,139.4089903743334,139.45260504100008,139.45260504100008,139.45260504100008,139.45260504100008,139.45260504100008,144.67773179100004,144.67773179100004,147.591223625,None,0,,reldom2_s039,001,2025-03-19_15h42.20.341,Vis-B-Scan_AC,2022.2.5,None,
11,Second_Order,2.0,viswhere,stimulus/viswhere_stim/120-deg_dot-left_slateblue.png,stimulus/viswhere_stim/60-deg_dot-left_seagreen.png,stimulus/viswhere_stim/90-deg_dot-right_seagreen.png,stimulus/viswhere_stim/30-deg_dot-right_mediumslateblue.png,stimulus/viswhere_stim/match_blank.png,stimulus/viswhere_stim/match_box.png,stimulus/viswhere_stim/match_yes.png,stimulus/viswhere_stim/match_no.png,1.0,Match,Dot,Dot,1,5.125,0,5.125,0,5.125,0,5.125,0,0.75,0.75,1,0.5,1,2.125,1,0.5,1,2.125,0,0,0,0,0,0,0,0,0,,,,,0,14,14,14,,,,,,,,,147.591223625,152.711537958,148.06781550000005,149.06606299999999,149.700519375,150.68969866600003,147.591223625,147.591223625,147.59112033266672,147.591223625,147.591223625,147.591223625,147.59112033266672,147.591223625,152.711537958,153.507631791,155.58707687499998,159.44310258300004,153.507631791,153.507631791,158.64626637499998,153.96697975000006,154.978228458,155.58707687499998,156.605393875,153.507631791,153.507631791,153.496123458,153.507631791,153.507631791,153.507631791,153.496123458,153.507631791,153.507631791,158.64626637499998,153.507631791,158.64626637499998,158.70115566599998,159.47906341600003,153.507631791,1,1,2.0925507089999655,reldom2_s039,001,2025-03-19_15h42.20.341,Vis-B-Scan_AC,2022.2.5,None,
12,Second_Order,2.0,viswhere,stimulus/viswhere_stim/90-deg_dot-right_cyan.png,stimulus/viswhere_stim/90-deg_dot-left_salmon.png,stimulus/viswhere_stim/30-deg_dot-left_goldenrod.png,stimulus/viswhere_stim/60-deg_dot-left_turquoise.png,stimulus/viswhere_stim/match_blank.png,stimulus/viswhere_stim/match_box.png,stimulus/viswhere_stim/match_yes.png,stimulus/viswhere_stim/match_no.png,2.0,Match,Line,Dot,2,5.125,0,5.125,0,5.125,0,5.125,0,0.625,0.625,1,0.5,1,2.125,1,0.5,1,2.125,0,0,0,0,0,0,0,0,0,,,,,0,15,15,15,,,,,,,,,159.47906341600003,164.602084708,159.96149920800008,160.947997333,161.58304162500008,162.58073995799998,159.47906341600003,159.47906341600003,159.49310258300005,159.47906341600003,159.47906341600003,159.47906341600003,159.49310258300005,159.47906341600003,164.602084708,165.27583000000004,167.36105591600005,171.39411000000007,165.27583000000004,165.27583000000004,170.40274025000008,165.731793875,166.73609654100005,167.36105591600005,168.37188508300005,165.27583000000004,165.27583000000004,165.25323449933336,165.27583000000004,165.27583000000004,165.27583000000004,165.25323449933336,165.27583000000004,165.27583000000004,170.40274025000008,165.27583000000004,170.40274025000008,170.47168454100006,171.09583433300008,165.27583000000004,2,1,2.02564766699993,reldom2_s039,001,2025-03-19_15h42.20.341,Vis-B-Scan_AC,2022.2.5,None,
0,0.0,None,fixation,stimulus/viswhere_stim/blank_white.png,stimulus/viswhere_stim/blank_white.png,stimulus/viswhat_stim/blank_white.png,stimulus/viswhat_stim/blank_white.png,stimulus/viswhere_stim/blank_white.png,stimulus/viswhere_stim/blank_white.png,stimulus/viswhere_stim/blank_white.png,stimulus/viswhere_stim/blank_white.png,0.0,0.0,0.0,0.0,0,0.0,0,0.0,0,0.0,0,0.0,0,0.0,0.0,0,0.0,0,0.0,0,0.0,0,0.0,0,0,0,0,0,0,0,0,10,,,,,0,16,16,16,,,,,,,,,171.39411000000007,171.39411000000007,171.39411000000007,171.39411000000007,171.39411000000007,171.39411000000007,171.39411000000007,171.39411000000007,171.29953387433338,171.39411000000007,171.39411000000007,171.39411000000007,171.29953387433338,171.39411000000007,171.39411000000007,171.39411000000007,171.39411000000007,171.39411000000007,171.39411000000007,171.39411000000007,171.39411000000007,171.39411000000007,171.39411000000007,171.39411000000007,171.39411000000007,171.39411000000007,171.39411000000007,171.3495338743334,171.39411000000007,171.39411000000007,171.39411000000007,171.3495338743334,171.39411000000007,171.39411000000007,171.39411000000007,171.39411000000007,171.39411000000007,176.601572916,176.601572916,181.67672804100005,None,0,,reldom2_s039,001,2025-03-19_15h42.20.341,Vis-B-Scan_AC,2022.2.5,None,
13,First_Order,3.0,viswhat,stimulus/viswhat_stim/blank_white.png,stimulus/viswhat_stim/blank_white.png,stimulus/viswhat_stim/land_animal-moose.png,stimulus/viswhat_stim/water_animal-whale (1).png,stimulus/viswhat_stim/blank_white.png,stimulus/viswhat_stim/type_box.png,stimulus/viswhat_stim/type_yes.png,stimulus/viswhat_stim/type_no.png,None,Type,None,Type,1,0.0,0,5.125,0,5.125,0,5.125,0,0.0,0.625,0,0.0,0,0.0,1,0.5,1,2.125,0,0,0,0,0,0,0,0,0,,,,,0,17,17,17,,,,,,,,,181.67672804100005,181.67672804100005,181.67672804100005,181.67672804100005,181.67672804100005,181.67672804100005,181.67672804100005,181.67672804100005,181.57848604166674,181.67672804100005,181.67672804100005,181.67672804100005,181.57848604166674,181.67672804100005,181.67672804100005,181.67672804100005,183.76933404099998,187.74312929100006,181.67672804100005,181.67672804100005,186.86307554100006,182.14207145800003,183.18886658300005,183.76933404099998,184.82012437499998,181.67672804100005,181.67672804100005,181.62848604166672,181.67672804100005,181.67672804100005,181.67672804100005,181.62848604166672,181.67672804100005,181.67672804100005,186.86307554100006,181.67672804100005,186.86307554100006,186.86307554100006,187.547257875,181.67672804100005,1,1,1.418145582999955,reldom2_s039,001,2025-03-19_15h42.20.341,Vis-B-Scan_AC,2022.2.5,None,
14,First_Order,3.0,viswhat,stimulus/viswhat_stim/blank_white.png,stimulus/viswhat_stim/blank_white.png,stimulus/viswhat_stim/land_vehicle-trolley.png,stimulus/viswhat_stim/water_vehicle-jetski.png,stimulus/viswhat_stim/blank_white.png,stimulus/viswhat_stim/location_box.png,stimulus/viswhat_stim/location_yes.png,stimulus/viswhat_stim/location_no.png,None,Location,None,Type,2,0.0,0,5.125,0,5.125,0,5.125,0,0.0,0.625,0,0.0,0,0.0,1,0.5,1,2.125,0,0,0,0,0,0,0,0,0,,,,,0,18,18,18,,,,,,,,,187.74312929100006,187.74312929100006,187.74312929100006,187.74312929100006,187.74312929100006,187.74312929100006,187.74312929100006,187.74312929100006,187.7139245416667,187.74312929100006,187.74312929100006,187.74312929100006,187.7139245416667,187.74312929100006,187.74312929100006,187.74312929100006,189.84372866600006,193.80899525000007,187.74312929100006,187.74312929100006,192.876358083,188.21753337500002,189.24418037500004,189.84372866600006,190.87348150000003,187.74312929100006,187.74312929100006,187.73059120833335,187.74312929100006,187.74312929100006,187.74312929100006,187.73059120833335,187.74312929100006,187.74312929100006,192.876358083,187.74312929100006,192.876358083,192.953328875,193.58914600000003,187.74312929100006,2,1,1.0427648329998647,reldom2_s039,001,2025-03-19_15h42.20.341,Vis-B-Scan_AC,2022.2.5,None,
15,First_Order,3.0,viswhat,stimulus/viswhat_stim/blank_white.png,stimulus/viswhat_stim/blank_white.png,stimulus/viswhat_stim/land_animal-ostrich.png,stimulus/viswhat_stim/land_vehicle-train.png,stimulus/viswhat_stim/blank_white.png,stimulus/viswhat_stim/location_box.png,stimulus/viswhat_stim/location_yes.png,stimulus/viswhat_stim/location_no.png,None,Location,None,Location,1,0.0,0,5.125,0,5.125,0,5.125,0,0.0,0.625,0,0.0,0,0.0,1,0.5,1,2.125,0,0,0,0,0,0,0,0,0,,,,,0,19,19,19,,,,,,,,,193.80899525000007,193.80899525000007,193.80899525000007,193.80899525000007,193.80899525000007,193.80899525000007,193.80899525000007,193.80899525000007,193.78457079100008,193.80899525000007,193.80899525000007,193.80899525000007,193.78457079100008,193.80899525000007,193.80899525000007,193.80899525000007,195.91666233299998,200.21515900000009,193.80899525000007,193.80899525000007,198.942029875,194.29162529100006,195.300908541,195.91666233299998,196.927280708,193.80899525000007,193.80899525000007,193.80123745766673,193.80899525000007,193.80899525000007,193.80899525000007,193.80123745766673,193.80899525000007,193.80899525000007,198.942029875,193.80899525000007,198.942029875,199.02761754100004,199.69870150000008,193.80899525000007,1,1,1.318937582999979,reldom2_s039,001,2025-03-19_15h42.20.341,Vis-B-Scan_AC,2022.2.5,None,
16,First_Order,3.0,viswhat,stimulus/viswhat_stim/blank_white.png,stimulus/viswhat_stim/blank_white.png,stimulus/viswhat_stim/water_animal-lobster.png,stimulus/viswhat_stim/land_animal-moose.png,stimulus/viswhat_stim/blank_white.png,stimulus/viswhat_stim/location_box.png,stimulus/viswhat_stim/location_yes.png,stimulus/viswhat_stim/location_no.png,None,Location,None,Type,2,0.0,0,5.125,0,5.125,0,5.125,0,0.0,0.625,0,0.0,0,0.0,1,0.5,1,2.125,0,0,0,0,0,0,0,0,0,,,,,0,20,20,20,,,,,,,,,200.21515900000009,200.21515900000009,200.21515900000009,200.21515900000009,200.21515900000009,200.21515900000009,200.21515900000009,200.21515900000009,199.85140133333343,200.21515900000009,200.21515900000009,200.21515900000009,199.85140133333343,200.21515900000009,200.21515900000009,200.21515900000009,202.18219045800004,,200.21515900000009,200.21515900000009,205.57789983300006,200.57404329100007,201.82452850000004,202.18219045800004,203.43785233300002,200.21515900000009,200.21515900000009,200.03473466666676,200.21515900000009,200.21515900000009,200.21515900000009,200.03473466666676,200.21515900000009,200.21515900000009,205.57789983300006,200.21515900000009,205.57789983300006,205.404844916,,200.21515900000009,2,1,1.2715555829998948,reldom2_s039,001,2025-03-19_15h42.20.341,Vis-B-Scan_AC,2022.2.5,None,
0,0.0,None,fixation,stimulus/viswhere_stim/blank_white.png,stimulus/viswhere_stim/blank_white.png,stimulus/viswhat_stim/blank_white.png,stimulus/viswhat_stim/blank_white.png,stimulus/viswhere_stim/blank_white.png,stimulus/viswhere_stim/blank_white.png,stimulus/viswhere_stim/blank_white.png,stimulus/viswhere_stim/blank_white.png,0.0,0.0,0.0,0.0,0,0.0,0,0.0,0,0.0,0,0.0,0,0.0,0.0,0,0.0,0,0.0,0,0.0,0,0.0,0,0,0,0,0,0,0,0,8,,,,,0,21,21,21,,,,,,,,,206.25097512500008,206.25097512500008,206.25097512500008,206.25097512500008,206.25097512500008,206.25097512500008,206.25097512500008,206.25097512500008,206.151012791,206.25097512500008,206.25097512500008,206.25097512500008,206.151012791,206.25097512500008,206.25097512500008,206.25097512500008,206.25097512500008,206.25097512500008,206.25097512500008,206.25097512500008,206.25097512500008,206.25097512500008,206.25097512500008,206.25097512500008,206.25097512500008,206.25097512500008,206.25097512500008,206.201012791,206.25097512500008,206.25097512500008,206.25097512500008,206.201012791,206.25097512500008,206.25097512500008,206.25097512500008,206.25097512500008,206.25097512500008,211.44701954100003,211.44701954100003,214.40755204100003,None,0,,reldom2_s039,001,2025-03-19_15h42.20.341,Vis-B-Scan_AC,2022.2.5,None,
17,Second_Order,3.0,viswhat,stimulus/viswhat_stim/land_animal-giraffe.png,stimulus/viswhat_stim/water_animal-stingray.png,stimulus/viswhat_stim/water_animal-squid.png,stimulus/viswhat_stim/water_vehicle-yacht.png,stimulus/viswhere_stim/match_blank.png,stimulus/viswhere_stim/match_box.png,stimulus/viswhere_stim/match_yes.png,stimulus/viswhere_stim/match_no.png,2.0,Match,Type,Location,2,5.125,0,5.125,0,5.125,0,5.125,0,0.75,0.75,1,0.5,1,2.125,1,0.5,1,2.125,0,0,0,0,0,0,0,0,0,,,,,0,22,22,22,,,,,,,,,214.40755204100003,219.52851087500005,214.85417633300005,215.84055120800008,216.476313291,217.47394870800008,214.40755204100003,214.40755204100003,214.409695416,214.40755204100003,214.40755204100003,214.40755204100003,214.409695416,214.40755204100003,219.52851087500005,220.36781708299998,222.425106625,,220.36781708299998,220.36781708299998,225.53528304100007,220.814118666,221.86331770800007,222.425106625,223.47918033300004,220.36781708299998,220.36781708299998,220.3304889996667,220.36781708299998,220.36781708299998,220.36781708299998,220.3304889996667,220.36781708299998,220.36781708299998,225.53528304100007,220.36781708299998,225.53528304100007,225.53528304100007,,220.36781708299998,2,1,0.7645194579999952,reldom2_s039,001,2025-03-19_15h42.20.341,Vis-B-Scan_AC,2022.2.5,None,
18,Second_Order,3.0,viswhat,stimulus/viswhat_stim/water_animal-whale (1).png,stimulus/viswhat_stim/land_animal-tiger.png,stimulus/viswhat_stim/water_animal-orka.png,stimulus/viswhat_stim/water_vehicle-cargoboat.png,stimulus/viswhere_stim/match_blank.png,stimulus/viswhere_stim/match_box.png,stimulus/viswhere_stim/match_yes.png,stimulus/viswhere_stim/match_no.png,2.0,Match,Type,Location,2,5.125,0,5.125,0,5.125,0,5.125,0,0.625,0.625,1,0.5,1,2.125,1,0.5,1,2.125,0,0,0,0,0,0,0,0,0,,,,,0,23,23,23,,,,,,,,,226.333995125,231.45652670800007,226.795255291,227.78431799999998,228.4203261250001,229.418501333,226.333995125,226.333995125,226.33804650000002,226.333995125,226.333995125,226.333995125,226.33804650000002,226.333995125,231.45652670800007,232.23046816600004,234.29467187500006,,232.23046816600004,232.23046816600004,237.39976166600002,232.68103300000007,233.778823,234.29467187500006,235.39628679100008,232.23046816600004,232.23046816600004,232.17408416600006,232.23046816600004,232.23046816600004,232.23046816600004,232.17408416600006,232.23046816600004,232.23046816600004,237.39976166600002,232.23046816600004,237.39976166600002,237.39976166600002,238.32279037500007,232.23046816600004,2,1,1.0563085829999181,reldom2_s039,001,2025-03-19_15h42.20.341,Vis-B-Scan_AC,2022.2.5,None,
0,0.0,None,fixation,stimulus/viswhere_stim/blank_white.png,stimulus/viswhere_stim/blank_white.png,stimulus/viswhat_stim/blank_white.png,stimulus/viswhat_stim/blank_white.png,stimulus/viswhere_stim/blank_white.png,stimulus/viswhere_stim/blank_white.png,stimulus/viswhere_stim/blank_white.png,stimulus/viswhere_stim/blank_white.png,0.0,0.0,0.0,0.0,0,0.0,0,0.0,0,0.0,0,0.0,0,0.0,0.0,0,0.0,0,0.0,0,0.0,0,0.0,0,0,0,0,0,0,0,0,9,,,,,0,24,24,24,,,,,,,,,238.32279037500007,238.32279037500007,238.32279037500007,238.32279037500007,238.32279037500007,238.32279037500007,238.32279037500007,238.32279037500007,238.2171319576667,238.32279037500007,238.32279037500007,238.32279037500007,238.2171319576667,238.32279037500007,238.32279037500007,238.32279037500007,238.32279037500007,238.32279037500007,238.32279037500007,238.32279037500007,238.32279037500007,238.32279037500007,238.32279037500007,238.32279037500007,238.32279037500007,238.32279037500007,238.32279037500007,238.28379862433337,238.32279037500007,238.32279037500007,238.32279037500007,238.28379862433337,238.32279037500007,238.32279037500007,238.32279037500007,238.32279037500007,238.32279037500007,243.54412691599998,243.54412691599998,247.52014320800004,None,0,,reldom2_s039,001,2025-03-19_15h42.20.341,Vis-B-Scan_AC,2022.2.5,None,
19,First_Order,4.0,viswhat,stimulus/viswhat_stim/blank_white.png,stimulus/viswhat_stim/blank_white.png,stimulus/viswhat_stim/water_animal-dolphin.png,stimulus/viswhat_stim/water_vehicle-canoe.png,stimulus/viswhat_stim/blank_white.png,stimulus/viswhat_stim/type_box.png,stimulus/viswhat_stim/type_yes.png,stimulus/viswhat_stim/type_no.png,None,Type,None,Location,2,0.0,0,5.125,0,5.125,0,5.125,0,0.0,0.625,0,0.0,0,0.0,1,0.5,1,2.125,0,0,0,0,0,0,0,0,0,,,,,0,25,25,25,,,,,,,,,247.52014320800004,247.52014320800004,247.52014320800004,247.52014320800004,247.52014320800004,247.52014320800004,247.52014320800004,247.52014320800004,247.48362187466677,247.52014320800004,247.52014320800004,247.52014320800004,247.48362187466677,247.52014320800004,247.52014320800004,247.52014320800004,249.61809062500004,253.674981625,247.52014320800004,247.52014320800004,252.67659183299997,247.98044916600008,249.01556225000002,249.61809062500004,250.63248658300006,247.52014320800004,247.52014320800004,247.50028854133342,247.52014320800004,247.52014320800004,247.52014320800004,247.50028854133342,247.52014320800004,247.52014320800004,252.67659183299997,247.52014320800004,252.67659183299997,252.74618762500006,253.39866054100003,247.52014320800004,1,0,2.353924749999919,reldom2_s039,001,2025-03-19_15h42.20.341,Vis-B-Scan_AC,2022.2.5,None,
20,First_Order,4.0,viswhat,stimulus/viswhat_stim/blank_white.png,stimulus/viswhat_stim/blank_white.png,stimulus/viswhat_stim/land_animal-elephant.png,stimulus/viswhat_stim/land_vehicle-pickuptruck.png,stimulus/viswhat_stim/blank_white.png,stimulus/viswhat_stim/type_box.png,stimulus/viswhat_stim/type_yes.png,stimulus/viswhat_stim/type_no.png,None,Type,None,Location,2,0.0,0,5.125,0,5.125,0,5.125,0,0.0,0.625,0,0.0,0,0.0,1,0.5,1,2.125,0,0,0,0,0,0,0,0,0,,,,,0,26,26,26,,,,,,,,,253.674981625,253.674981625,253.674981625,253.674981625,253.674981625,253.674981625,253.674981625,253.674981625,253.56702554100002,253.674981625,253.674981625,253.674981625,253.56702554100002,253.674981625,253.674981625,253.674981625,255.74939975000007,,253.674981625,253.674981625,258.88339766600006,254.149169916,255.21732433300008,255.74939975000007,256.8145662080001,253.674981625,253.674981625,253.617025541,253.674981625,253.674981625,253.674981625,253.617025541,253.674981625,253.674981625,258.88339766600006,253.674981625,258.88339766600006,258.88339766600006,259.916375541,253.674981625,2,1,1.5037680829999545,reldom2_s039,001,2025-03-19_15h42.20.341,Vis-B-Scan_AC,2022.2.5,None,
21,First_Order,4.0,viswhat,stimulus/viswhat_stim/blank_white.png,stimulus/viswhat_stim/blank_white.png,stimulus/viswhat_stim/water_vehicle-cruiseship.png,stimulus/viswhat_stim/land_vehicle-oldcar.png,stimulus/viswhat_stim/blank_white.png,stimulus/viswhat_stim/type_box.png,stimulus/viswhat_stim/type_yes.png,stimulus/viswhat_stim/type_no.png,None,Type,None,Type,1,0.0,0,5.125,0,5.125,0,5.125,0,0.0,0.625,0,0.0,0,0.0,1,0.5,1,2.125,0,0,0,0,0,0,0,0,0,,,,,0,27,27,27,,,,,,,,,259.916375541,259.916375541,259.916375541,259.916375541,259.916375541,259.916375541,259.916375541,259.916375541,259.6924867916666,259.916375541,259.916375541,259.916375541,259.6924867916666,259.916375541,259.916375541,259.916375541,261.987292333,,259.916375541,259.916375541,265.209450791,260.37837579100005,261.52790766600003,261.987292333,263.14329050000003,259.916375541,259.916375541,259.8091534583333,259.916375541,259.916375541,259.916375541,259.8091534583333,259.916375541,259.916375541,265.209450791,259.916375541,265.209450791,265.10002962500005,,259.916375541,1,1,0.9733984580000197,reldom2_s039,001,2025-03-19_15h42.20.341,Vis-B-Scan_AC,2022.2.5,None,
22,First_Order,4.0,viswhat,stimulus/viswhat_stim/blank_white.png,stimulus/viswhat_stim/blank_white.png,stimulus/viswhat_stim/water_vehicle-pirateship.png,stimulus/viswhat_stim/water_animal-orka.png,stimulus/viswhat_stim/blank_white.png,stimulus/viswhat_stim/location_box.png,stimulus/viswhat_stim/location_yes.png,stimulus/viswhat_stim/location_no.png,None,Location,None,Location,1,0.0,0,5.125,0,5.125,0,5.125,0,0.0,0.625,0,0.0,0,0.0,1,0.5,1,2.125,0,0,0,0,0,0,0,0,0,,,,,0,28,28,28,,,,,,,,,266.04161558300007,266.04161558300007,266.04161558300007,266.04161558300007,266.04161558300007,266.04161558300007,266.04161558300007,266.04161558300007,265.91314020766663,266.04161558300007,266.04161558300007,266.04161558300007,265.91314020766663,266.04161558300007,266.04161558300007,266.04161558300007,268.10469845800003,272.186161833,266.04161558300007,266.04161558300007,271.242726541,266.5100439160001,267.57339745800004,268.10469845800003,269.179389,266.04161558300007,266.04161558300007,265.9798068743333,266.04161558300007,266.04161558300007,266.04161558300007,265.9798068743333,266.04161558300007,266.04161558300007,271.242726541,266.04161558300007,271.242726541,271.242726541,271.911356458,266.04161558300007,1,1,0.5865894999999455,reldom2_s039,001,2025-03-19_15h42.20.341,Vis-B-Scan_AC,2022.2.5,None,
0,0.0,None,fixation,stimulus/viswhere_stim/blank_white.png,stimulus/viswhere_stim/blank_white.png,stimulus/viswhat_stim/blank_white.png,stimulus/viswhat_stim/blank_white.png,stimulus/viswhere_stim/blank_white.png,stimulus/viswhere_stim/blank_white.png,stimulus/viswhere_stim/blank_white.png,stimulus/viswhere_stim/blank_white.png,0.0,0.0,0.0,0.0,0,0.0,0,0.0,0,0.0,0,0.0,0,0.0,0.0,0,0.0,0,0.0,0,0.0,0,0.0,0,0,0,0,0,0,0,0,10,,,,,0,29,29,29,,,,,,,,,272.186161833,272.186161833,272.186161833,272.186161833,272.186161833,272.186161833,272.186161833,272.186161833,272.09468979133334,272.186161833,272.186161833,272.186161833,272.09468979133334,272.186161833,272.186161833,272.186161833,272.186161833,272.186161833,272.186161833,272.186161833,272.186161833,272.186161833,272.186161833,272.186161833,272.186161833,272.186161833,272.186161833,272.1446897913333,272.186161833,272.186161833,272.186161833,272.1446897913333,272.186161833,272.186161833,272.186161833,272.186161833,272.186161833,277.393649458,277.393649458,282.3099772500001,None,0,,reldom2_s039,001,2025-03-19_15h42.20.341,Vis-B-Scan_AC,2022.2.5,None,
23,Second_Order,4.0,viswhat,stimulus/viswhat_stim/land_vehicle-pickuptruck.png,stimulus/viswhat_stim/land_animal-lion.png,stimulus/viswhat_stim/water_animal-jellyfish.png,stimulus/viswhat_stim/water_vehicle-cabincruiser.png,stimulus/viswhere_stim/match_blank.png,stimulus/viswhere_stim/match_box.png,stimulus/viswhere_stim/match_yes.png,stimulus/viswhere_stim/match_no.png,1.0,Match,Location,Location,1,5.125,0,5.125,0,5.125,0,5.125,0,0.75,0.75,1,0.5,1,2.125,1,0.5,1,2.125,0,0,0,0,0,0,0,0,0,,,,,0,30,30,30,,,,,,,,,282.3099772500001,287.4236285410001,282.778640333,283.77703120800004,284.399515875,285.397886375,282.3099772500001,282.3099772500001,282.30826570833335,282.3099772500001,282.3099772500001,282.3099772500001,282.30826570833335,282.3099772500001,287.4236285410001,288.262845708,290.322903625,,288.262845708,288.262845708,293.4192877500001,288.69753537500003,289.728336333,290.322903625,291.35903858300003,288.262845708,288.262845708,288.22387141666667,288.262845708,288.262845708,288.262845708,288.22387141666667,288.262845708,288.262845708,293.4192877500001,288.262845708,293.4192877500001,293.453552875,,288.262845708,1,1,0.6963121249998494,reldom2_s039,001,2025-03-19_15h42.20.341,Vis-B-Scan_AC,2022.2.5,None,
24,Second_Order,4.0,viswhat,stimulus/viswhat_stim/water_vehicle-pirateship.png,stimulus/viswhat_stim/land_vehicle-oldcar.png,stimulus/viswhat_stim/land_animal-zebra.png,stimulus/viswhat_stim/water_animal-seahorse.png,stimulus/viswhere_stim/match_blank.png,stimulus/viswhere_stim/match_box.png,stimulus/viswhere_stim/match_yes.png,stimulus/viswhere_stim/match_no.png,1.0,Match,Type,Type,1,5.125,0,5.125,0,5.125,0,5.125,0,0.625,0.625,1,0.5,1,2.125,1,0.5,1,2.125,0,0,0,0,0,0,0,0,0,,,,,0,31,31,31,,,,,,,,,294.23649745800003,299.35130066600004,294.6901179580001,295.688596083,296.322814416,297.31145845800006,294.23649745800003,294.23649745800003,294.235359708,294.23649745800003,294.23649745800003,294.23649745800003,294.235359708,294.23649745800003,299.35130066600004,300.038289166,302.113265833,306.154085291,300.038289166,300.038289166,305.167491166,300.47505004100003,301.48744791600006,302.113265833,303.136192875,300.038289166,300.038289166,300.0148965,300.038289166,300.038289166,300.038289166,300.0148965,300.038289166,300.038289166,305.167491166,300.038289166,305.167491166,305.223045791,305.85426466600006,300.038289166,1,1,1.0862986249999267,reldom2_s039,001,2025-03-19_15h42.20.341,Vis-B-Scan_AC,2022.2.5,None,
0,0.0,None,fixation,stimulus/viswhere_stim/blank_white.png,stimulus/viswhere_stim/blank_white.png,stimulus/viswhat_stim/blank_white.png,stimulus/viswhat_stim/blank_white.png,stimulus/viswhere_stim/blank_white.png,stimulus/viswhere_stim/blank_white.png,stimulus/viswhere_stim/blank_white.png,stimulus/viswhere_stim/blank_white.png,0.0,0.0,0.0,0.0,0,0.0,0,0.0,0,0.0,0,0.0,0,0.0,0.0,0,0.0,0,0.0,0,0.0,0,0.0,0,0,0,0,0,0,0,0,9,,,,,0,32,32,32,,,,,,,,,306.154085291,306.154085291,306.154085291,306.154085291,306.154085291,306.154085291,306.154085291,306.154085291,306.06457433300005,306.154085291,306.154085291,306.154085291,306.06457433300005,306.154085291,306.154085291,306.154085291,306.154085291,306.154085291,306.154085291,306.154085291,306.154085291,306.154085291,306.154085291,306.154085291,306.154085291,306.154085291,306.154085291,306.11457433300006,306.154085291,306.154085291,306.154085291,306.11457433300006,306.154085291,306.154085291,306.154085291,306.154085291,306.154085291,311.33820404100004,311.33820404100004,315.353747666,None,0,,reldom2_s039,001,2025-03-19_15h42.20.341,Vis-B-Scan_AC,2022.2.5,None,
25,First_Order,5.0,viswhere,stimulus/viswhere_stim/blank_white.png,stimulus/viswhere_stim/blank_white.png,stimulus/viswhere_stim/90-deg_dot-right_seagreen.png,stimulus/viswhere_stim/150-deg_dot-right_turquoise.png,stimulus/viswhere_stim/blank_white.png,stimulus/viswhere_stim/line_box.png,stimulus/viswhere_stim/line_yes.png,stimulus/viswhere_stim/line_no.png,None,Line,None,Dot,2,0.0,0,5.125,0,5.125,0,5.125,0,0.0,0.625,0,0.0,0,0.0,1,0.5,1,2.125,0,0,0,0,0,0,0,0,0,,,,,0,33,33,33,,,,,,,,,315.353747666,315.353747666,315.353747666,315.353747666,315.353747666,315.353747666,315.353747666,315.353747666,315.33640158266667,315.353747666,315.353747666,315.353747666,315.33640158266667,315.353747666,315.353747666,315.353747666,317.45846100000006,321.41673304100004,315.353747666,315.353747666,320.48809266600006,315.832179333,316.847271666,317.45846100000006,318.4781722910001,315.353747666,315.353747666,315.33640158266667,315.353747666,315.353747666,315.353747666,315.33640158266667,315.353747666,315.353747666,320.48809266600006,315.353747666,320.48809266600006,320.57201087500005,321.198545708,315.353747666,2,1,2.252901874999907,reldom2_s039,001,2025-03-19_15h42.20.341,Vis-B-Scan_AC,2022.2.5,None,
26,First_Order,5.0,viswhere,stimulus/viswhere_stim/blank_white.png,stimulus/viswhere_stim/blank_white.png,stimulus/viswhere_stim/150-deg_dot-left_seagreen.png,stimulus/viswhere_stim/150-deg_dot-right_seagreen.png,stimulus/viswhere_stim/blank_white.png,stimulus/viswhere_stim/dot_box.png,stimulus/viswhere_stim/dot_yes.png,stimulus/viswhere_stim/dot_no.png,None,Dot,None,Line,2,0.0,0,5.125,0,5.125,0,5.125,0,0.0,0.625,0,0.0,0,0.0,1,0.5,1,2.125,0,0,0,0,0,0,0,0,0,,,,,0,34,34,34,,,,,,,,,321.41673304100004,321.41673304100004,321.41673304100004,321.41673304100004,321.41673304100004,321.41673304100004,321.41673304100004,321.41673304100004,321.39635424933334,321.41673304100004,321.41673304100004,321.41673304100004,321.39635424933334,321.41673304100004,321.41673304100004,321.41673304100004,323.532172791,327.483276791,321.41673304100004,321.41673304100004,326.553859,321.89556970800004,322.898692125,323.532172791,324.536334583,321.41673304100004,321.41673304100004,321.413020916,321.41673304100004,321.41673304100004,321.41673304100004,321.413020916,321.41673304100004,321.41673304100004,326.553859,321.41673304100004,326.553859,326.63594245800005,327.26804608300006,321.41673304100004,2,1,1.737674666999851,reldom2_s039,001,2025-03-19_15h42.20.341,Vis-B-Scan_AC,2022.2.5,None,
27,First_Order,5.0,viswhere,stimulus/viswhere_stim/blank_white.png,stimulus/viswhere_stim/blank_white.png,stimulus/viswhere_stim/90-deg_dot-left_turquoise.png,stimulus/viswhere_stim/90-deg_dot-right_seagreen.png,stimulus/viswhere_stim/blank_white.png,stimulus/viswhere_stim/line_box.png,stimulus/viswhere_stim/line_yes.png,stimulus/viswhere_stim/line_no.png,None,Line,None,Line,1,0.0,0,5.125,0,5.125,0,5.125,0,0.0,0.625,0,0.0,0,0.0,1,0.5,1,2.125,0,0,0,0,0,0,0,0,0,,,,,0,35,35,35,,,,,,,,,327.483276791,327.483276791,327.483276791,327.483276791,327.483276791,327.483276791,327.483276791,327.483276791,327.46268970833336,327.483276791,327.483276791,327.483276791,327.46268970833336,327.483276791,327.483276791,327.483276791,329.583603833,333.548704791,327.483276791,327.483276791,332.60818300000005,327.9608054160001,328.974145875,329.583603833,330.6015905830001,327.483276791,327.483276791,327.479356375,327.483276791,327.483276791,327.483276791,327.479356375,327.483276791,327.483276791,332.60818300000005,327.483276791,332.60818300000005,332.705872958,333.33443275,327.483276791,1,1,1.172337582999944,reldom2_s039,001,2025-03-19_15h42.20.341,Vis-B-Scan_AC,2022.2.5,None,
28,First_Order,5.0,viswhere,stimulus/viswhere_stim/blank_white.png,stimulus/viswhere_stim/blank_white.png,stimulus/viswhere_stim/120-deg_dot-right_mediumslateblue.png,stimulus/viswhere_stim/90-deg_dot-right_lightsseagreen.png,stimulus/viswhere_stim/blank_white.png,stimulus/viswhere_stim/dot_box.png,stimulus/viswhere_stim/dot_yes.png,stimulus/viswhere_stim/dot_no.png,None,Dot,None,Dot,1,0.0,0,5.125,0,5.125,0,5.125,0,0.0,0.625,0,0.0,0,0.0,1,0.5,1,2.125,0,0,0,0,0,0,0,0,0,,,,,0,36,36,36,,,,,,,,,333.548704791,333.548704791,333.548704791,333.548704791,333.548704791,333.548704791,333.548704791,333.548704791,333.52823762433337,333.548704791,333.548704791,333.548704791,333.52823762433337,333.548704791,333.548704791,333.548704791,335.66036654100003,339.694493791,333.548704791,333.548704791,338.67220387500004,334.02490687500006,335.03525379100006,335.66036654100003,336.67363475,333.548704791,333.548704791,333.544904291,333.548704791,333.548704791,333.548704791,333.544904291,333.548704791,333.548704791,338.67220387500004,333.548704791,338.67220387500004,338.7869799580001,339.41490583300003,333.548704791,1,1,1.017472790999932,reldom2_s039,001,2025-03-19_15h42.20.341,Vis-B-Scan_AC,2022.2.5,None,
0,0.0,None,fixation,stimulus/viswhere_stim/blank_white.png,stimulus/viswhere_stim/blank_white.png,stimulus/viswhat_stim/blank_white.png,stimulus/viswhat_stim/blank_white.png,stimulus/viswhere_stim/blank_white.png,stimulus/viswhere_stim/blank_white.png,stimulus/viswhere_stim/blank_white.png,stimulus/viswhere_stim/blank_white.png,0.0,0.0,0.0,0.0,0,0.0,0,0.0,0,0.0,0,0.0,0,0.0,0.0,0,0.0,0,0.0,0,0.0,0,0.0,0,0,0,0,0,0,0,0,10,,,,,0,37,37,37,,,,,,,,,339.694493791,339.694493791,339.694493791,339.694493791,339.694493791,339.694493791,339.694493791,339.694493791,339.5983918333333,339.694493791,339.694493791,339.694493791,339.5983918333333,339.694493791,339.694493791,339.694493791,339.694493791,339.694493791,339.694493791,339.694493791,339.694493791,339.694493791,339.694493791,339.694493791,339.694493791,339.694493791,339.694493791,339.64839183333333,339.694493791,339.694493791,339.694493791,339.64839183333333,339.694493791,339.694493791,339.694493791,339.694493791,339.694493791,344.91664308300005,344.91664308300005,349.827551375,None,0,,reldom2_s039,001,2025-03-19_15h42.20.341,Vis-B-Scan_AC,2022.2.5,None,
29,Second_Order,5.0,viswhere,stimulus/viswhere_stim/30-deg_dot-right_peru.png,stimulus/viswhere_stim/120-deg_dot-right_royalblue.png,stimulus/viswhere_stim/120-deg_dot-left_lightsseagreen.png,stimulus/viswhere_stim/90-deg_dot-left_seagreen.png,stimulus/viswhere_stim/match_blank.png,stimulus/viswhere_stim/match_box.png,stimulus/viswhere_stim/match_yes.png,stimulus/viswhere_stim/match_no.png,1.0,Match,Dot,Dot,1,5.125,0,5.125,0,5.125,0,5.125,0,0.75,0.75,1,0.5,1,2.125,1,0.5,1,2.125,0,0,0,0,0,0,0,0,0,,,,,0,38,38,38,,,,,,,,,349.827551375,354.94605541600004,350.30092916600006,351.29946966600005,351.934609583,352.92305320800006,349.827551375,349.827551375,349.8266299576667,349.827551375,349.827551375,349.827551375,349.8266299576667,349.827551375,354.94605541600004,355.7390196250001,357.824295,361.705817333,355.7390196250001,355.7390196250001,360.873263083,356.20067166600006,357.21409295800004,357.824295,358.826090291,355.7390196250001,355.7390196250001,355.71380212433337,355.7390196250001,355.7390196250001,355.7390196250001,355.71380212433337,355.7390196250001,355.7390196250001,360.873263083,355.7390196250001,360.873263083,360.92871445800006,361.705817333,355.7390196250001,1,1,0.7539155419999588,reldom2_s039,001,2025-03-19_15h42.20.341,Vis-B-Scan_AC,2022.2.5,None,
30,Second_Order,5.0,viswhere,stimulus/viswhere_stim/60-deg_dot-right_seagreen.png,stimulus/viswhere_stim/60-deg_dot-left_slateblue.png,stimulus/viswhere_stim/120-deg_dot-left_seagreen.png,stimulus/viswhere_stim/30-deg_dot-left_cyan.png,stimulus/viswhere_stim/match_blank.png,stimulus/viswhere_stim/match_box.png,stimulus/viswhere_stim/match_yes.png,stimulus/viswhere_stim/match_no.png,2.0,Match,Line,Dot,2,5.125,0,5.125,0,5.125,0,5.125,0,0.625,0.625,1,0.5,1,2.125,1,0.5,1,2.125,0,0,0,0,0,0,0,0,0,,,,,0,39,39,39,,,,,,,,,361.705817333,366.82308516600006,362.19136170800004,363.18097550000005,363.81665025000007,364.814322833,361.705817333,361.705817333,361.71958312500004,361.705817333,361.705817333,361.705817333,361.71958312500004,361.705817333,366.82308516600006,367.49330933300007,369.56858887500005,373.60658441600003,367.49330933300007,367.49330933300007,372.6205251250001,367.953064875,368.96142395800007,369.56858887500005,370.58326387500006,367.49330933300007,367.49330933300007,367.47025383333335,367.49330933300007,367.49330933300007,367.49330933300007,367.47025383333335,367.49330933300007,367.49330933300007,372.6205251250001,367.49330933300007,372.6205251250001,372.688685125,373.313344875,367.49330933300007,2,1,0.9941225419999,reldom2_s039,001,2025-03-19_15h42.20.341,Vis-B-Scan_AC,2022.2.5,None,
0,0.0,None,fixation,stimulus/viswhere_stim/blank_white.png,stimulus/viswhere_stim/blank_white.png,stimulus/viswhat_stim/blank_white.png,stimulus/viswhat_stim/blank_white.png,stimulus/viswhere_stim/blank_white.png,stimulus/viswhere_stim/blank_white.png,stimulus/viswhere_stim/blank_white.png,stimulus/viswhere_stim/blank_white.png,0.0,0.0,0.0,0.0,0,0.0,0,0.0,0,0.0,0,0.0,0,0.0,0.0,0,0.0,0,0.0,0,0.0,0,0.0,0,0,0,0,0,0,0,0,9,,,,,0,40,40,40,,,,,,,,,373.60658441600003,373.60658441600003,373.60658441600003,373.60658441600003,373.60658441600003,373.60658441600003,373.60658441600003,373.60658441600003,373.51018633333337,373.60658441600003,373.60658441600003,373.60658441600003,373.51018633333337,373.60658441600003,373.60658441600003,373.60658441600003,373.60658441600003,373.60658441600003,373.60658441600003,373.60658441600003,373.60658441600003,373.60658441600003,373.60658441600003,373.60658441600003,373.60658441600003,373.60658441600003,373.60658441600003,373.5601863333334,373.60658441600003,373.60658441600003,373.60658441600003,373.5601863333334,373.60658441600003,373.60658441600003,373.60658441600003,373.60658441600003,373.60658441600003,378.815692958,378.815692958,382.79873858300004,None,0,,reldom2_s039,001,2025-03-19_15h42.20.341,Vis-B-Scan_AC,2022.2.5,None,
31,First_Order,6.0,viswhere,stimulus/viswhere_stim/blank_white.png,stimulus/viswhere_stim/blank_white.png,stimulus/viswhere_stim/120-deg_dot-left_royalblue.png,stimulus/viswhere_stim/30-deg_dot-left_goldenrod.png,stimulus/viswhere_stim/blank_white.png,stimulus/viswhere_stim/dot_box.png,stimulus/viswhere_stim/dot_yes.png,stimulus/viswhere_stim/dot_no.png,None,Dot,None,Dot,1,0.0,0,5.125,0,5.125,0,5.125,0,0.0,0.625,0,0.0,0,0.0,1,0.5,1,2.125,0,0,0,0,0,0,0,0,0,,,,,0,41,41,41,,,,,,,,,382.79873858300004,382.79873858300004,382.79873858300004,382.79873858300004,382.79873858300004,382.79873858300004,382.79873858300004,382.79873858300004,382.7802527076667,382.79873858300004,382.79873858300004,382.79873858300004,382.7802527076667,382.79873858300004,382.79873858300004,382.79873858300004,384.90602045800006,388.85559775,382.79873858300004,382.79873858300004,387.933717958,383.27576787500004,384.27988925,384.90602045800006,385.918305291,382.79873858300004,382.79873858300004,382.7802527076667,382.79873858300004,382.79873858300004,382.79873858300004,382.7802527076667,382.79873858300004,382.79873858300004,387.933717958,382.79873858300004,387.933717958,388.034391916,388.685397375,382.79873858300004,1,1,0.9152628749999394,reldom2_s039,001,2025-03-19_15h42.20.341,Vis-B-Scan_AC,2022.2.5,None,
32,First_Order,6.0,viswhere,stimulus/viswhere_stim/blank_white.png,stimulus/viswhere_stim/blank_white.png,stimulus/viswhere_stim/150-deg_dot-left_salmon.png,stimulus/viswhere_stim/150-deg_dot-right_salmon.png,stimulus/viswhere_stim/blank_white.png,stimulus/viswhere_stim/dot_box.png,stimulus/viswhere_stim/dot_yes.png,stimulus/viswhere_stim/dot_no.png,None,Dot,None,Line,2,0.0,0,5.125,0,5.125,0,5.125,0,0.0,0.625,0,0.0,0,0.0,1,0.5,1,2.125,0,0,0,0,0,0,0,0,0,,,,,0,42,42,42,,,,,,,,,388.85559775,388.85559775,388.85559775,388.85559775,388.85559775,388.85559775,388.85559775,388.85559775,388.83551924933334,388.85559775,388.85559775,388.85559775,388.83551924933334,388.85559775,388.85559775,388.85559775,390.96363525000004,394.91676937500006,388.85559775,388.85559775,393.98554045800006,389.334700375,390.351416375,390.96363525000004,391.966517416,388.85559775,388.85559775,388.852185916,388.85559775,388.85559775,388.85559775,388.852185916,388.85559775,388.85559775,393.98554045800006,388.85559775,393.98554045800006,394.083382916,394.715777916,388.85559775,2,1,1.2787574999999833,reldom2_s039,001,2025-03-19_15h42.20.341,Vis-B-Scan_AC,2022.2.5,None,
33,First_Order,6.0,viswhere,stimulus/viswhere_stim/blank_white.png,stimulus/viswhere_stim/blank_white.png,stimulus/viswhere_stim/150-deg_dot-left_cyan.png,stimulus/viswhere_stim/150-deg_dot-right_seagreen.png,stimulus/viswhere_stim/blank_white.png,stimulus/viswhere_stim/line_box.png,stimulus/viswhere_stim/line_yes.png,stimulus/viswhere_stim/line_no.png,None,Line,None,Line,1,0.0,0,5.125,0,5.125,0,5.125,0,0.0,0.625,0,0.0,0,0.0,1,0.5,1,2.125,0,0,0,0,0,0,0,0,0,,,,,0,43,43,43,,,,,,,,,394.91676937500006,394.91676937500006,394.91676937500006,394.91676937500006,394.91676937500006,394.91676937500006,394.91676937500006,394.91676937500006,394.89635233333337,394.91676937500006,394.91676937500006,394.91676937500006,394.89635233333337,394.91676937500006,394.91676937500006,394.91676937500006,397.01719104100005,400.981123625,394.91676937500006,394.91676937500006,400.047054041,395.39945575,396.40281275000007,397.01719104100005,398.023202375,394.91676937500006,394.91676937500006,394.913019,394.91676937500006,394.91676937500006,394.91676937500006,394.913019,394.91676937500006,394.91676937500006,400.047054041,394.91676937500006,400.047054041,400.14496395800006,400.77978600000006,394.91676937500006,1,1,1.520271708999985,reldom2_s039,001,2025-03-19_15h42.20.341,Vis-B-Scan_AC,2022.2.5,None,
34,First_Order,6.0,viswhere,stimulus/viswhere_stim/blank_white.png,stimulus/viswhere_stim/blank_white.png,stimulus/viswhere_stim/150-deg_dot-right_cyan.png,stimulus/viswhere_stim/120-deg_dot-right_cyan.png,stimulus/viswhere_stim/blank_white.png,stimulus/viswhere_stim/line_box.png,stimulus/viswhere_stim/line_yes.png,stimulus/viswhere_stim/line_no.png,None,Line,None,Dot,2,0.0,0,5.125,0,5.125,0,5.125,0,0.0,0.625,0,0.0,0,0.0,1,0.5,1,2.125,0,0,0,0,0,0,0,0,0,,,,,0,44,44,44,,,,,,,,,400.981123625,400.981123625,400.981123625,400.981123625,400.981123625,400.981123625,400.981123625,400.981123625,400.9602691663334,400.981123625,400.981123625,400.981123625,400.9602691663334,400.981123625,400.981123625,400.981123625,403.083473541,407.11722695800006,400.981123625,400.981123625,406.10891741600005,401.4586867080001,402.47321675,403.083473541,404.102206208,400.981123625,400.981123625,400.976935833,400.981123625,400.981123625,400.981123625,400.976935833,400.981123625,400.981123625,406.10891741600005,400.981123625,406.10891741600005,406.209276166,406.8406643750001,400.981123625,2,1,2.2378480419998823,reldom2_s039,001,2025-03-19_15h42.20.341,Vis-B-Scan_AC,2022.2.5,None,
0,0.0,None,fixation,stimulus/viswhere_stim/blank_white.png,stimulus/viswhere_stim/blank_white.png,stimulus/viswhat_stim/blank_white.png,stimulus/viswhat_stim/blank_white.png,stimulus/viswhere_stim/blank_white.png,stimulus/viswhere_stim/blank_white.png,stimulus/viswhere_stim/blank_white.png,stimulus/viswhere_stim/blank_white.png,0.0,0.0,0.0,0.0,0,0.0,0,0.0,0,0.0,0,0.0,0,0.0,0.0,0,0.0,0,0.0,0,0.0,0,0.0,0,0,0,0,0,0,0,0,8,,,,,0,45,45,45,,,,,,,,,407.11722695800006,407.11722695800006,407.11722695800006,407.11722695800006,407.11722695800006,407.11722695800006,407.11722695800006,407.11722695800006,407.0208272913333,407.11722695800006,407.11722695800006,407.11722695800006,407.0208272913333,407.11722695800006,407.11722695800006,407.11722695800006,407.11722695800006,407.11722695800006,407.11722695800006,407.11722695800006,407.11722695800006,407.11722695800006,407.11722695800006,407.11722695800006,407.11722695800006,407.11722695800006,407.11722695800006,407.07082729133333,407.11722695800006,407.11722695800006,407.11722695800006,407.07082729133333,407.11722695800006,407.11722695800006,407.11722695800006,407.11722695800006,407.11722695800006,412.34188670800006,412.34188670800006,415.227592166,None,0,,reldom2_s039,001,2025-03-19_15h42.20.341,Vis-B-Scan_AC,2022.2.5,None,
35,Second_Order,6.0,viswhere,stimulus/viswhere_stim/60-deg_dot-right_cyan.png,stimulus/viswhere_stim/60-deg_dot-left_goldenrod.png,stimulus/viswhere_stim/150-deg_dot-left_salmon.png,stimulus/viswhere_stim/150-deg_dot-right_goldenrod.png,stimulus/viswhere_stim/match_blank.png,stimulus/viswhere_stim/match_box.png,stimulus/viswhere_stim/match_yes.png,stimulus/viswhere_stim/match_no.png,1.0,Match,Line,Line,1,5.125,0,5.125,0,5.125,0,5.125,0,0.75,0.75,1,0.5,1,2.125,1,0.5,1,2.125,0,0,0,0,0,0,0,0,0,,,,,0,46,46,46,,,,,,,,,415.227592166,420.347624666,415.70219595800006,416.7009689160001,417.33573975,418.32507854100004,415.227592166,415.227592166,415.2263484166667,415.227592166,415.227592166,415.227592166,415.2263484166667,415.227592166,420.347624666,421.13996829100006,423.227757333,427.104034083,421.13996829100006,421.13996829100006,426.27238120800007,421.587664,422.593055875,423.227757333,424.236581958,421.13996829100006,421.13996829100006,421.1146669583334,421.13996829100006,421.13996829100006,421.13996829100006,421.1146669583334,421.13996829100006,421.13996829100006,426.27238120800007,421.13996829100006,426.27238120800007,426.328708333,427.104034083,421.13996829100006,1,1,1.3564974169999005,reldom2_s039,001,2025-03-19_15h42.20.341,Vis-B-Scan_AC,2022.2.5,None,
36,Second_Order,6.0,viswhere,stimulus/viswhere_stim/120-deg_dot-right_slateblue.png,stimulus/viswhere_stim/120-deg_dot-left_royalblue.png,stimulus/viswhere_stim/150-deg_dot-right_royalblue.png,stimulus/viswhere_stim/150-deg_dot-left_salmon.png,stimulus/viswhere_stim/match_blank.png,stimulus/viswhere_stim/match_box.png,stimulus/viswhere_stim/match_yes.png,stimulus/viswhere_stim/match_no.png,1.0,Match,Line,Line,1,5.125,0,5.125,0,5.125,0,5.125,0,0.625,0.625,1,0.5,1,2.125,1,0.5,1,2.125,0,0,0,0,0,0,0,0,0,,,,,0,47,47,47,,,,,,,,,427.104034083,432.224390666,427.579819875,428.578288791,429.217456375,430.21543095800007,427.104034083,427.104034083,427.117666916,427.104034083,427.104034083,427.104034083,427.117666916,427.104034083,432.224390666,432.89525212500007,434.97735350000005,439.0176835,432.89525212500007,432.89525212500007,438.03291112500006,433.36024025000006,434.38102425,434.97735350000005,435.984956625,432.89525212500007,432.89525212500007,432.8719516243333,432.89525212500007,432.89525212500007,432.89525212500007,432.8719516243333,432.89525212500007,432.89525212500007,438.03291112500006,432.89525212500007,438.03291112500006,438.0879113330001,438.71144937500003,432.89525212500007,2,0,0.535868915999913,reldom2_s039,001,2025-03-19_15h42.20.341,Vis-B-Scan_AC,2022.2.5,None,
0,0.0,None,fixation,stimulus/viswhere_stim/blank_white.png,stimulus/viswhere_stim/blank_white.png,stimulus/viswhat_stim/blank_white.png,stimulus/viswhat_stim/blank_white.png,stimulus/viswhere_stim/blank_white.png,stimulus/viswhere_stim/blank_white.png,stimulus/viswhere_stim/blank_white.png,stimulus/viswhere_stim/blank_white.png,0.0,0.0,0.0,0.0,0,0.0,0,0.0,0,0.0,0,0.0,0,0.0,0.0,0,0.0,0,0.0,0,0.0,0,0.0,0,0,0,0,0,0,0,0,10,,,,,0,48,48,48,,,,,,,,,439.0176835,439.0176835,439.0176835,439.0176835,439.0176835,439.0176835,439.0176835,439.0176835,438.9199777083333,439.0176835,439.0176835,439.0176835,438.9199777083333,439.0176835,439.0176835,439.0176835,439.0176835,439.0176835,439.0176835,439.0176835,439.0176835,439.0176835,439.0176835,439.0176835,439.0176835,439.0176835,439.0176835,438.9699777083333,439.0176835,439.0176835,439.0176835,438.9699777083333,439.0176835,439.0176835,439.0176835,439.0176835,439.0176835,444.23612683300007,444.23612683300007,449.30396458300004,None,0,,reldom2_s039,001,2025-03-19_15h42.20.341,Vis-B-Scan_AC,2022.2.5,None,
37,First_Order,7.0,viswhat,stimulus/viswhat_stim/blank_white.png,stimulus/viswhat_stim/blank_white.png,stimulus/viswhat_stim/water_vehicle-sailboat.png,stimulus/viswhat_stim/land_vehicle-bus.png,stimulus/viswhat_stim/blank_white.png,stimulus/viswhat_stim/location_box.png,stimulus/viswhat_stim/location_yes.png,stimulus/viswhat_stim/location_no.png,None,Location,None,Type,2,0.0,0,5.125,0,5.125,0,5.125,0,0.0,0.625,0,0.0,0,0.0,1,0.5,1,2.125,0,0,0,0,0,0,0,0,0,,,,,0,49,49,49,,,,,,,,,449.30396458300004,449.30396458300004,449.30396458300004,449.30396458300004,449.30396458300004,449.30396458300004,449.30396458300004,449.30396458300004,449.2164142496666,449.30396458300004,449.30396458300004,449.30396458300004,449.2164142496666,449.30396458300004,449.30396458300004,449.30396458300004,451.37103750000006,455.4522430410001,449.30396458300004,449.30396458300004,454.491210583,449.782250708,450.84235550000005,451.37103750000006,452.43257970800005,449.30396458300004,449.30396458300004,449.26641424966664,449.30396458300004,449.30396458300004,449.30396458300004,449.26641424966664,449.30396458300004,449.30396458300004,454.491210583,449.30396458300004,454.491210583,454.491210583,455.15086725000003,449.30396458300004,2,1,1.388249665999865,reldom2_s039,001,2025-03-19_15h42.20.341,Vis-B-Scan_AC,2022.2.5,None,
38,First_Order,7.0,viswhat,stimulus/viswhat_stim/blank_white.png,stimulus/viswhat_stim/blank_white.png,stimulus/viswhat_stim/land_vehicle-tank.png,stimulus/viswhat_stim/land_animal-elephant.png,stimulus/viswhat_stim/blank_white.png,stimulus/viswhat_stim/type_box.png,stimulus/viswhat_stim/type_yes.png,stimulus/viswhat_stim/type_no.png,None,Type,None,Location,2,0.0,0,5.125,0,5.125,0,5.125,0,0.0,0.625,0,0.0,0,0.0,1,0.5,1,2.125,0,0,0,0,0,0,0,0,0,,,,,0,50,50,50,,,,,,,,,455.4522430410001,455.4522430410001,455.4522430410001,455.4522430410001,455.4522430410001,455.4522430410001,455.4522430410001,455.4522430410001,455.34788012499996,455.4522430410001,455.4522430410001,455.4522430410001,455.34788012499996,455.4522430410001,455.4522430410001,455.4522430410001,457.528561458,,455.4522430410001,455.4522430410001,460.64316120800004,455.9135183750001,457.01000187500006,457.528561458,458.57072033300005,455.4522430410001,455.4522430410001,455.397880125,455.4522430410001,455.4522430410001,455.4522430410001,455.397880125,455.4522430410001,455.4522430410001,460.64316120800004,455.4522430410001,460.64316120800004,460.64316120800004,461.317612833,455.4522430410001,2,1,0.8493805839999595,reldom2_s039,001,2025-03-19_15h42.20.341,Vis-B-Scan_AC,2022.2.5,None,
39,First_Order,7.0,viswhat,stimulus/viswhat_stim/blank_white.png,stimulus/viswhat_stim/blank_white.png,stimulus/viswhat_stim/land_animal-ostrich.png,stimulus/viswhat_stim/water_animal-whale.png,stimulus/viswhat_stim/blank_white.png,stimulus/viswhat_stim/location_box.png,stimulus/viswhat_stim/location_yes.png,stimulus/viswhat_stim/location_no.png,None,Location,None,Type,2,0.0,0,5.125,0,5.125,0,5.125,0,0.0,0.625,0,0.0,0,0.0,1,0.5,1,2.125,0,0,0,0,0,0,0,0,0,,,,,0,51,51,51,,,,,,,,,461.517311833,461.517311833,461.517311833,461.517311833,461.517311833,461.517311833,461.517311833,461.517311833,461.4842794996666,461.517311833,461.517311833,461.517311833,461.4842794996666,461.517311833,461.517311833,461.517311833,463.604362916,467.584716041,461.517311833,461.517311833,466.6705385,461.983259666,463.00065525,463.604362916,464.6366400410001,461.517311833,461.517311833,461.50094616633334,461.517311833,461.517311833,461.517311833,461.50094616633334,461.517311833,461.517311833,466.6705385,461.517311833,466.6705385,466.7360975,467.368376958,461.517311833,2,1,1.4619458329999588,reldom2_s039,001,2025-03-19_15h42.20.341,Vis-B-Scan_AC,2022.2.5,None,
40,First_Order,7.0,viswhat,stimulus/viswhat_stim/blank_white.png,stimulus/viswhat_stim/blank_white.png,stimulus/viswhat_stim/land_vehicle-truck.png,stimulus/viswhat_stim/land_animal-fox.png,stimulus/viswhat_stim/blank_white.png,stimulus/viswhat_stim/location_box.png,stimulus/viswhat_stim/location_yes.png,stimulus/viswhat_stim/location_no.png,None,Location,None,Location,1,0.0,0,5.125,0,5.125,0,5.125,0,0.0,0.625,0,0.0,0,0.0,1,0.5,1,2.125,0,0,0,0,0,0,0,0,0,,,,,0,52,52,52,,,,,,,,,467.584716041,467.584716041,467.584716041,467.584716041,467.584716041,467.584716041,467.584716041,467.584716041,467.555184,467.584716041,467.584716041,467.584716041,467.555184,467.584716041,467.584716041,467.584716041,469.68097512500003,473.725887125,467.584716041,467.584716041,472.72374379100006,468.0721585,469.09847045800007,469.68097512500003,470.69276308300005,467.584716041,467.584716041,467.5718506666667,467.584716041,467.584716041,467.584716041,467.5718506666667,467.584716041,467.584716041,472.72374379100006,467.584716041,472.72374379100006,472.8129317500001,473.46660487500003,467.584716041,1,1,0.7938847909998685,reldom2_s039,001,2025-03-19_15h42.20.341,Vis-B-Scan_AC,2022.2.5,None,
0,0.0,None,fixation,stimulus/viswhere_stim/blank_white.png,stimulus/viswhere_stim/blank_white.png,stimulus/viswhat_stim/blank_white.png,stimulus/viswhat_stim/blank_white.png,stimulus/viswhere_stim/blank_white.png,stimulus/viswhere_stim/blank_white.png,stimulus/viswhere_stim/blank_white.png,stimulus/viswhere_stim/blank_white.png,0.0,0.0,0.0,0.0,0,0.0,0,0.0,0,0.0,0,0.0,0,0.0,0.0,0,0.0,0,0.0,0,0.0,0,0.0,0,0,0,0,0,0,0,0,8,,,,,0,53,53,53,,,,,,,,,473.725887125,473.725887125,473.725887125,473.725887125,473.725887125,473.725887125,473.725887125,473.725887125,473.62032833333336,473.725887125,473.725887125,473.725887125,473.62032833333336,473.725887125,473.725887125,473.725887125,473.725887125,473.725887125,473.725887125,473.725887125,473.725887125,473.725887125,473.725887125,473.725887125,473.725887125,473.725887125,473.725887125,473.686995,473.725887125,473.725887125,473.725887125,473.686995,473.725887125,473.725887125,473.725887125,473.725887125,473.725887125,478.907094208,478.907094208,481.861060833,None,0,,reldom2_s039,001,2025-03-19_15h42.20.341,Vis-B-Scan_AC,2022.2.5,None,
41,Second_Order,7.0,viswhat,stimulus/viswhat_stim/water_animal-whale (1).png,stimulus/viswhat_stim/water_vehicle-canoe(1).png,stimulus/viswhat_stim/land_animal-tiger.png,stimulus/viswhat_stim/land_vehicle-train.png,stimulus/viswhere_stim/match_blank.png,stimulus/viswhere_stim/match_box.png,stimulus/viswhere_stim/match_yes.png,stimulus/viswhere_stim/match_no.png,1.0,Match,Location,Location,1,5.125,0,5.125,0,5.125,0,5.125,0,0.75,0.75,1,0.5,1,2.125,1,0.5,1,2.125,0,0,0,0,0,0,0,0,0,,,,,0,54,54,54,,,,,,,,,481.861060833,486.984339375,482.33843525,483.32516675,483.960548666,484.95892125,481.861060833,481.861060833,481.8687973333333,481.861060833,481.861060833,481.861060833,481.8687973333333,481.861060833,486.984339375,487.807741041,489.87650458300004,493.79054837499996,487.807741041,487.807741041,492.9576860000001,488.239818625,489.2758112910001,489.87650458300004,490.91744570799995,487.807741041,487.807741041,487.7849339166667,487.807741041,487.807741041,487.807741041,487.7849339166667,487.807741041,487.807741041,492.9576860000001,487.807741041,492.9576860000001,492.98593533299993,,487.807741041,1,1,0.8575399999999718,reldom2_s039,001,2025-03-19_15h42.20.341,Vis-B-Scan_AC,2022.2.5,None,
42,Second_Order,7.0,viswhat,stimulus/viswhat_stim/land_vehicle-buldozer.png,stimulus/viswhat_stim/water_vehicle-jetski.png,stimulus/viswhat_stim/water_animal-whale.png,stimulus/viswhat_stim/land_animal-fox.png,stimulus/viswhere_stim/match_blank.png,stimulus/viswhere_stim/match_box.png,stimulus/viswhere_stim/match_yes.png,stimulus/viswhere_stim/match_no.png,1.0,Match,Type,Type,1,5.125,0,5.125,0,5.125,0,5.125,0,0.625,0.625,1,0.5,1,2.125,1,0.5,1,2.125,0,0,0,0,0,0,0,0,0,,,,,0,55,55,55,,,,,,,,,493.79054837499996,498.912025708,494.25063216599995,495.2489247500001,495.883904833,496.8727701660001,493.79054837499996,493.79054837499996,493.79122745833337,493.79054837499996,493.79054837499996,493.79054837499996,493.79122745833337,493.79054837499996,498.912025708,499.60203508300003,501.66480683299994,505.7110437079999,499.60203508300003,499.60203508300003,504.754290041,500.0462281660001,501.066127833,501.66480683299994,502.6907132079999,499.60203508300003,499.60203508300003,499.5757411660001,499.60203508300003,499.60203508300003,499.60203508300003,499.5757411660001,499.60203508300003,499.60203508300003,504.754290041,499.60203508300003,504.754290041,504.79560312499996,505.433042583,499.60203508300003,1,1,0.8037666249999802,reldom2_s039,001,2025-03-19_15h42.20.341,Vis-B-Scan_AC,2022.2.5,None,
0,0.0,None,fixation,stimulus/viswhere_stim/blank_white.png,stimulus/viswhere_stim/blank_white.png,stimulus/viswhat_stim/blank_white.png,stimulus/viswhat_stim/blank_white.png,stimulus/viswhere_stim/blank_white.png,stimulus/viswhere_stim/blank_white.png,stimulus/viswhere_stim/blank_white.png,stimulus/viswhere_stim/blank_white.png,0.0,0.0,0.0,0.0,0,0.0,0,0.0,0,0.0,0,0.0,0,0.0,0.0,0,0.0,0,0.0,0,0.0,0,0.0,0,0,0,0,0,0,0,0,9,,,,,0,56,56,56,,,,,,,,,505.7110437079999,505.7110437079999,505.7110437079999,505.7110437079999,505.7110437079999,505.7110437079999,505.7110437079999,505.7110437079999,505.6148694999999,505.7110437079999,505.7110437079999,505.7110437079999,505.6148694999999,505.7110437079999,505.7110437079999,505.7110437079999,505.7110437079999,505.7110437079999,505.7110437079999,505.7110437079999,505.7110437079999,505.7110437079999,505.7110437079999,505.7110437079999,505.7110437079999,505.7110437079999,505.7110437079999,505.6648694999999,505.7110437079999,505.7110437079999,505.7110437079999,505.6648694999999,505.7110437079999,505.7110437079999,505.7110437079999,505.7110437079999,505.7110437079999,510.93511912500014,510.93511912500014,514.901372916,None,0,,reldom2_s039,001,2025-03-19_15h42.20.341,Vis-B-Scan_AC,2022.2.5,None,
43,First_Order,8.0,viswhat,stimulus/viswhat_stim/blank_white.png,stimulus/viswhat_stim/blank_white.png,stimulus/viswhat_stim/land_animal-fox.png,stimulus/viswhat_stim/land_vehicle-motorcycle.png,stimulus/viswhat_stim/blank_white.png,stimulus/viswhat_stim/type_box.png,stimulus/viswhat_stim/type_yes.png,stimulus/viswhat_stim/type_no.png,None,Type,None,Location,2,0.0,0,5.125,0,5.125,0,5.125,0,0.0,0.625,0,0.0,0,0.0,1,0.5,1,2.125,0,0,0,0,0,0,0,0,0,,,,,0,57,57,57,,,,,,,,,514.901372916,514.901372916,514.901372916,514.901372916,514.901372916,514.901372916,514.901372916,514.901372916,514.8603612916665,514.901372916,514.901372916,514.901372916,514.8603612916665,514.901372916,514.901372916,514.901372916,517.0097145410001,520.979100791,514.901372916,514.901372916,520.0574236250001,515.3840596250001,516.4088923329999,517.0097145410001,518.04040625,514.901372916,514.901372916,514.8770279583332,514.901372916,514.901372916,514.901372916,514.8770279583332,514.901372916,514.901372916,520.0574236250001,514.901372916,520.0574236250001,520.1062587079999,520.7456478330001,514.901372916,2,1,0.9551197079997564,reldom2_s039,001,2025-03-19_15h42.20.341,Vis-B-Scan_AC,2022.2.5,None,
44,First_Order,8.0,viswhat,stimulus/viswhat_stim/blank_white.png,stimulus/viswhat_stim/blank_white.png,stimulus/viswhat_stim/land_animal-pig.png,stimulus/viswhat_stim/land_vehicle-firetruck.png,stimulus/viswhat_stim/blank_white.png,stimulus/viswhat_stim/location_box.png,stimulus/viswhat_stim/location_yes.png,stimulus/viswhat_stim/location_no.png,None,Location,None,Location,1,0.0,0,5.125,0,5.125,0,5.125,0,0.0,0.625,0,0.0,0,0.0,1,0.5,1,2.125,0,0,0,0,0,0,0,0,0,,,,,0,58,58,58,,,,,,,,,520.979100791,520.979100791,520.979100791,520.979100791,520.979100791,520.979100791,520.979100791,520.979100791,520.942835458,520.979100791,520.979100791,520.979100791,520.942835458,520.979100791,520.979100791,520.979100791,523.0833417499999,527.111126916,520.979100791,520.979100791,526.123431916,521.446919541,522.4534878329999,523.0833417499999,524.0898282500001,520.979100791,520.979100791,520.9595021246666,520.979100791,520.979100791,520.979100791,520.9595021246666,520.979100791,520.979100791,526.123431916,520.979100791,526.123431916,526.194069458,526.8328371660001,520.979100791,1,1,1.0899596670001301,reldom2_s039,001,2025-03-19_15h42.20.341,Vis-B-Scan_AC,2022.2.5,None,
45,First_Order,8.0,viswhat,stimulus/viswhat_stim/blank_white.png,stimulus/viswhat_stim/blank_white.png,stimulus/viswhat_stim/land_vehicle-trolley.png,stimulus/viswhat_stim/water_vehicle-sailboat.png,stimulus/viswhat_stim/blank_white.png,stimulus/viswhat_stim/type_box.png,stimulus/viswhat_stim/type_yes.png,stimulus/viswhat_stim/type_no.png,None,Type,None,Type,1,0.0,0,5.125,0,5.125,0,5.125,0,0.0,0.625,0,0.0,0,0.0,1,0.5,1,2.125,0,0,0,0,0,0,0,0,0,,,,,0,59,59,59,,,,,,,,,527.111126916,527.111126916,527.111126916,527.111126916,527.111126916,527.111126916,527.111126916,527.111126916,527.0217816243335,527.111126916,527.111126916,527.111126916,527.0217816243335,527.111126916,527.111126916,527.111126916,529.1975296250001,,527.111126916,527.111126916,532.2986237910001,527.598518208,528.665120791,529.1975296250001,530.2671981249999,527.111126916,527.111126916,527.0717816243334,527.111126916,527.111126916,527.111126916,527.0717816243334,527.111126916,527.111126916,532.2986237910001,527.111126916,532.2986237910001,532.2986237910001,532.9863287910001,527.111126916,1,1,1.090756957999929,reldom2_s039,001,2025-03-19_15h42.20.341,Vis-B-Scan_AC,2022.2.5,None,
46,First_Order,8.0,viswhat,stimulus/viswhat_stim/blank_white.png,stimulus/viswhat_stim/blank_white.png,stimulus/viswhat_stim/water_vehicle-canoe(1).png,stimulus/viswhat_stim/land_vehicle-truck.png,stimulus/viswhat_stim/blank_white.png,stimulus/viswhat_stim/type_box.png,stimulus/viswhat_stim/type_yes.png,stimulus/viswhat_stim/type_no.png,None,Type,None,Type,1,0.0,0,5.125,0,5.125,0,5.125,0,0.0,0.625,0,0.0,0,0.0,1,0.5,1,2.125,0,0,0,0,0,0,0,0,0,,,,,0,60,60,60,,,,,,,,,533.155060791,533.155060791,533.155060791,533.155060791,533.155060791,533.155060791,533.155060791,533.155060791,533.1196621243334,533.155060791,533.155060791,533.155060791,533.1196621243334,533.155060791,533.155060791,533.155060791,535.2489474160001,539.3056048750001,533.155060791,533.155060791,538.2865197080001,533.634052,534.6599420000001,535.2489474160001,536.2573120000001,533.155060791,533.155060791,533.1363287910001,533.155060791,533.155060791,533.155060791,533.1363287910001,533.155060791,533.155060791,538.2865197080001,533.155060791,538.2865197080001,538.369484666,539.0016708750001,533.155060791,1,1,0.850197499999922,reldom2_s039,001,2025-03-19_15h42.20.341,Vis-B-Scan_AC,2022.2.5,None,
0,0.0,None,fixation,stimulus/viswhere_stim/blank_white.png,stimulus/viswhere_stim/blank_white.png,stimulus/viswhat_stim/blank_white.png,stimulus/viswhat_stim/blank_white.png,stimulus/viswhere_stim/blank_white.png,stimulus/viswhere_stim/blank_white.png,stimulus/viswhere_stim/blank_white.png,stimulus/viswhere_stim/blank_white.png,0.0,0.0,0.0,0.0,0,0.0,0,0.0,0,0.0,0,0.0,0,0.0,0.0,0,0.0,0,0.0,0,0.0,0,0.0,0,0,0,0,0,0,0,0,9,,,,,0,61,61,61,,,,,,,,,539.3056048750001,539.3056048750001,539.3056048750001,539.3056048750001,539.3056048750001,539.3056048750001,539.3056048750001,539.3056048750001,539.2017997913333,539.3056048750001,539.3056048750001,539.3056048750001,539.2017997913333,539.3056048750001,539.3056048750001,539.3056048750001,539.3056048750001,539.3056048750001,539.3056048750001,539.3056048750001,539.3056048750001,539.3056048750001,539.3056048750001,539.3056048750001,539.3056048750001,539.3056048750001,539.3056048750001,539.2517997913333,539.3056048750001,539.3056048750001,539.3056048750001,539.2517997913333,539.3056048750001,539.3056048750001,539.3056048750001,539.3056048750001,539.3056048750001,544.485032875,544.485032875,548.460835666,None,0,,reldom2_s039,001,2025-03-19_15h42.20.341,Vis-B-Scan_AC,2022.2.5,None,
47,Second_Order,8.0,viswhat,stimulus/viswhat_stim/water_animal-seaturtle.png,stimulus/viswhat_stim/water_vehicle-kayak.png,stimulus/viswhat_stim/water_vehicle-motorboatraft.png,stimulus/viswhat_stim/land_vehicle-tank.png,stimulus/viswhere_stim/match_blank.png,stimulus/viswhere_stim/match_box.png,stimulus/viswhere_stim/match_yes.png,stimulus/viswhere_stim/match_no.png,2.0,Match,Location,Type,2,5.125,0,5.125,0,5.125,0,5.125,0,0.75,0.75,1,0.5,1,2.125,1,0.5,1,2.125,0,0,0,0,0,0,0,0,0,,,,,0,62,62,62,,,,,,,,,548.460835666,553.5838809160001,548.9265825000001,549.9253580000001,550.5480456250001,551.545840875,548.460835666,548.460835666,548.4639559583334,548.460835666,548.460835666,548.460835666,548.4639559583334,548.460835666,553.5838809160001,554.3787925,556.4486215830001,560.3613555000001,554.3787925,554.3787925,559.5051084160001,554.83161975,555.8537219579999,556.4486215830001,557.4562623329999,554.3787925,554.3787925,554.3519407493333,554.3787925,554.3787925,554.3787925,554.3519407493333,554.3787925,554.3787925,559.5051084160001,554.3787925,559.5051084160001,559.582317,560.3613555000001,554.3787925,2,1,1.9543129169999247,reldom2_s039,001,2025-03-19_15h42.20.341,Vis-B-Scan_AC,2022.2.5,None,
48,Second_Order,8.0,viswhat,stimulus/viswhat_stim/land_vehicle-rv.png,stimulus/viswhat_stim/water_vehicle-cargoboat.png,stimulus/viswhat_stim/water_animal-squid.png,stimulus/viswhat_stim/land_animal-dog.png,stimulus/viswhere_stim/match_blank.png,stimulus/viswhere_stim/match_box.png,stimulus/viswhere_stim/match_yes.png,stimulus/viswhere_stim/match_no.png,1.0,Match,Type,Type,1,5.125,0,5.125,0,5.125,0,5.125,0,0.625,0.625,1,0.5,1,2.125,1,0.5,1,2.125,0,0,0,0,0,0,0,0,0,,,,,0,63,63,63,,,,,,,,,560.3613555000001,565.4829927500001,560.8376583329999,561.8361476250001,562.4595498750001,563.456728625,560.3613555000001,560.3613555000001,560.36514075,560.3613555000001,560.3613555000001,560.3613555000001,560.36514075,560.3613555000001,565.4829927500001,566.182565708,568.2549581659999,,566.182565708,566.182565708,571.319477916,566.6173521250001,567.6369484160001,568.2549581659999,569.2811540829999,566.182565708,566.182565708,566.1461128750001,566.182565708,566.182565708,566.182565708,566.1461128750001,566.182565708,566.182565708,571.319477916,566.182565708,571.319477916,571.369836041,572.0277145829999,566.182565708,1,1,0.624641999999767,reldom2_s039,001,2025-03-19_15h42.20.341,Vis-B-Scan_AC,2022.2.5,None,
0,0.0,None,fixation,stimulus/viswhere_stim/blank_white.png,stimulus/viswhere_stim/blank_white.png,stimulus/viswhat_stim/blank_white.png,stimulus/viswhat_stim/blank_white.png,stimulus/viswhere_stim/blank_white.png,stimulus/viswhere_stim/blank_white.png,stimulus/viswhere_stim/blank_white.png,stimulus/viswhere_stim/blank_white.png,0.0,0.0,0.0,0.0,0,0.0,0,0.0,0,0.0,0,0.0,0,0.0,0.0,0,0.0,0,0.0,0,0.0,0,0.0,0,0,0,0,0,0,0,0,16,,,,,0,64,64,64,,,,,,,,,572.283307666,572.283307666,572.283307666,572.283307666,572.283307666,572.283307666,572.283307666,572.283307666,572.1943086666668,572.283307666,572.283307666,572.283307666,572.1943086666668,572.283307666,572.283307666,572.283307666,572.283307666,572.283307666,572.283307666,572.283307666,572.283307666,572.283307666,572.283307666,572.283307666,572.283307666,572.283307666,572.283307666,572.2443086666667,572.283307666,572.283307666,572.283307666,572.2443086666667,572.283307666,572.283307666,572.283307666,572.283307666,572.283307666,577.466449333,577.466449333,588.4299157500001,None,0,,reldom2_s039,001,2025-03-19_15h42.20.341,Vis-B-Scan_AC,2022.2.5,None,
