Trial,Order,Block,Type,Stimuli_File1,Stimuli_File2,Stimuli_File3,Stimuli_File4,Cue_File1,Cue_File2,Response_File_Yes,Response_File_No,Match,Cue_Dimension,Pair1_Dimension,Pair2_Dimension,Key,Cue1_Duration,Cue1_Onset,Cue2_Duration,Cue2_Onset,ResponseYes_Duration,ResponseYes_Onset,ResponseNo_Duration,ResponseNo_Onset,ITI_Within,ITI_Between,Image1_Duration,Image1_Onset,Image2_Duration,Image2_Onset,Image3_Duration,Image3_Onset,Image4_Duration,Image4_Onset,Sound1_Duration,Sound1_Onset,Sound2_Duration,Sound2_Onset,Sound3_Duration,Sound3_Onset,Sound4_Duration,Sound4_Onset,Fixation_Duration,trials_2.thisRepN,trials_2.thisTrialN,trials_2.thisN,trials_2.thisIndex,trials.thisRepN,trials.thisTrialN,trials.thisN,trials.thisIndex,text_start.started,key_resp_start.started,key_resp_start.keys,key_resp_start.rt,text2.started,key_resp_2.started,key_resp_2.keys,key_resp_2.rt,cue_file1.started,cue_file1.stopped,image_1.started,image_1.stopped,image_2.started,image_2.stopped,sound_icon1.started,sound_icon1.stopped,sound_1.started,sound_1.stopped,sound_icon2.started,sound_icon2.stopped,sound_2.started,sound_2.stopped,image_blank_1.started,image_blank_1.stopped,key_press.started,key_press.stopped,fixation_text.started,cue_file2.started,cue_file2.stopped,image_3.started,image_3.stopped,image_4.started,image_4.stopped,sound_icon3.started,sound_icon3.stopped,sound_3.started,sound_3.stopped,sound_icon4.started,sound_icon4.stopped,sound_4.started,sound_4.stopped,response_yes.started,response_yes.stopped,response_no.started,response_no.stopped,iti_blank.started,iti_blank.stopped,fixation_text.stopped,key_press.keys,key_press.corr,key_press.rt,participant,session,date,expName,psychopyVersion,frameRate,
,,,,,,,,,,,,,,,,,,,,,,,,,,,,,,,,,,,,,,,,,,,,,,,,,,,,7.056292458000144,7.056292458000144,2,3.827403125000046,,,,,,,,,,,,,,,,,,,,,,,,,,,,,,,,,,,,,,,,,,,,,,,,reldom2_s039,001,2025-03-19_15h53.26.933,What-B-Scan_AC,2022.2.5,None,
,,,,,,,,,,,,,,,,,,,,,,,,,,,,,,,,,,,,,,,,,,,,0,0,0,0,,,,,,,,,10.92023816699998,10.92023816699998,5,17.85320425000009,,,,,,,,,,,,,,,,,,,,,,,,,,,,,,,,,,,,,,,,,,,,reldom2_s039,001,2025-03-19_15h53.26.933,What-B-Scan_AC,2022.2.5,None,
,,,,,,,,,,,,,,,,,,,,,,,,,,,,,,,,,,,,,,,,,,,,1,0,1,0,,,,,,,,,28.78778129200009,28.78778129200009,5,1.986332874999789,,,,,,,,,,,,,,,,,,,,,,,,,,,,,,,,,,,,,,,,,,,,reldom2_s039,001,2025-03-19_15h53.26.933,What-B-Scan_AC,2022.2.5,None,
,,,,,,,,,,,,,,,,,,,,,,,,,,,,,,,,,,,,,,,,,,,,2,0,2,0,,,,,,,,,30.791813042000058,30.791813042000058,5,1.98156333299994,,,,,,,,,,,,,,,,,,,,,,,,,,,,,,,,,,,,,,,,,,,,reldom2_s039,001,2025-03-19_15h53.26.933,What-B-Scan_AC,2022.2.5,None,
,,,,,,,,,,,,,,,,,,,,,,,,,,,,,,,,,,,,,,,,,,,,3,0,3,0,,,,,,,,,32.78945020800006,32.78945020800006,5,1.9842700419999346,,,,,,,,,,,,,,,,,,,,,,,,,,,,,,,,,,,,,,,,,,,,reldom2_s039,001,2025-03-19_15h53.26.933,What-B-Scan_AC,2022.2.5,None,
0,0.0,None,fixation,stimulus/viswhat_stim/blank_white.png,stimulus/viswhat_stim/blank_white.png,stimulus/audwhat_stim/blank_white.png,stimulus/audwhat_stim/blank_white.png,stimulus/viswhat_stim/blank_white.png,stimulus/viswhat_stim/blank_white.png,stimulus/viswhat_stim/blank_white.png,stimulus/viswhat_stim/blank_white.png,0.0,0.0,0.0,0.0,0,0.0,0,0.0,0,0.0,0,0.0,0,0.0,0.0,0,0.0,0,0.0,0,0.0,0,0.0,0,0.0,0,0.0,0,0.0,0,0.0,16,,,,,0,0,0,0,,,,,,,,,35.002244292000114,35.002244292000114,35.002244292000114,35.002244292000114,35.002244292000114,35.002244292000114,35.002244292000114,35.002244292000114,34.90161695866674,35.002244292000114,35.002244292000114,35.002244292000114,34.90161695866674,35.002244292000114,35.002244292000114,35.002244292000114,35.002244292000114,35.002244292000114,35.002244292000114,35.002244292000114,35.002244292000114,35.002244292000114,35.002244292000114,35.002244292000114,35.002244292000114,35.002244292000114,35.002244292000114,34.95161695866674,35.002244292000114,35.002244292000114,35.002244292000114,34.95161695866674,35.002244292000114,35.002244292000114,35.002244292000114,35.002244292000114,35.002244292000114,40.177196042000105,40.177196042000105,51.463686167000105,None,0,,reldom2_s039,001,2025-03-19_15h53.26.933,What-B-Scan_AC,2022.2.5,None,
1,First_Order,1.0,viswhat,stimulus/viswhat_stim/blank_white.png,stimulus/viswhat_stim/blank_white.png,stimulus/viswhat_stim/water_vehicle-pirateship.png,stimulus/viswhat_stim/water_animal-lobster.png,stimulus/viswhat_stim/blank_white.png,stimulus/viswhat_stim/location_box.png,stimulus/viswhat_stim/location_yes.png,stimulus/viswhat_stim/location_no.png,None,Location,None,Location,1,0.0,0,5.125,0,5.125,0,5.125,0,0.0,0.625,0,0.0,0,0.0,1,0.5,1,2.125,0,0.0,0,0.0,0,0.0,0,0.0,0,,,,,0,1,1,1,,,,,,,,,51.463686167000105,51.463686167000105,51.463686167000105,51.463686167000105,51.463686167000105,51.463686167000105,51.463686167000105,51.463686167000105,51.17511849999996,51.463686167000105,51.463686167000105,51.463686167000105,51.17511849999996,51.463686167000105,51.463686167000105,51.463686167000105,53.49177241699999,,51.463686167000105,51.463686167000105,56.83255441699998,51.89865141700011,53.05665262499997,53.49177241699999,54.65457929200011,51.463686167000105,51.463686167000105,51.32511849999996,51.463686167000105,51.463686167000105,51.463686167000105,51.32511849999996,51.463686167000105,51.463686167000105,56.83255441699998,51.463686167000105,56.83255441699998,56.545910750000075,,51.463686167000105,1,1,2.0252682079997157,reldom2_s039,001,2025-03-19_15h53.26.933,What-B-Scan_AC,2022.2.5,None,
2,First_Order,1.0,viswhat,stimulus/viswhat_stim/blank_white.png,stimulus/viswhat_stim/blank_white.png,stimulus/viswhat_stim/land_vehicle-firetruck.png,stimulus/viswhat_stim/water_vehicle-jetski.png,stimulus/viswhat_stim/blank_white.png,stimulus/viswhat_stim/location_box.png,stimulus/viswhat_stim/location_yes.png,stimulus/viswhat_stim/location_no.png,None,Location,None,Type,2,0.0,0,5.125,0,5.125,0,5.125,0,0.0,0.625,0,0.0,0,0.0,1,0.5,1,2.125,0,0.0,0,0.0,0,0.0,0,0.0,0,,,,,0,2,2,2,,,,,,,,,57.4808794170001,57.4808794170001,57.4808794170001,57.4808794170001,57.4808794170001,57.4808794170001,57.4808794170001,57.4808794170001,57.44490629133346,57.4808794170001,57.4808794170001,57.4808794170001,57.44490629133346,57.4808794170001,57.4808794170001,57.4808794170001,59.59060695800008,63.61872100000005,57.4808794170001,57.4808794170001,62.61174645799997,57.946155999999974,58.976971750000075,59.59060695800008,60.5981495420001,57.4808794170001,57.4808794170001,57.461572958000126,57.4808794170001,57.4808794170001,57.4808794170001,57.461572958000126,57.4808794170001,57.4808794170001,62.61174645799997,57.4808794170001,62.61174645799997,62.70592475000012,63.348183125000105,57.4808794170001,2,1,1.5873089579999942,reldom2_s039,001,2025-03-19_15h53.26.933,What-B-Scan_AC,2022.2.5,None,
3,First_Order,1.0,viswhat,stimulus/viswhat_stim/blank_white.png,stimulus/viswhat_stim/blank_white.png,stimulus/viswhat_stim/land_animal-moose.png,stimulus/viswhat_stim/water_animal-jellyfish.png,stimulus/viswhat_stim/blank_white.png,stimulus/viswhat_stim/type_box.png,stimulus/viswhat_stim/type_yes.png,stimulus/viswhat_stim/type_no.png,None,Type,None,Type,1,0.0,0,5.125,0,5.125,0,5.125,0,0.0,0.625,0,0.0,0,0.0,1,0.5,1,2.125,0,0.0,0,0.0,0,0.0,0,0.0,0,,,,,0,3,3,3,,,,,,,,,63.61872100000005,63.61872100000005,63.61872100000005,63.61872100000005,63.61872100000005,63.61872100000005,63.61872100000005,63.61872100000005,63.52288237499997,63.61872100000005,63.61872100000005,63.61872100000005,63.52288237499997,63.61872100000005,63.61872100000005,63.61872100000005,65.70975958300005,,63.61872100000005,63.61872100000005,68.81500879200007,64.09650912500001,65.17170475000012,65.70975958300005,66.78726487500012,63.61872100000005,63.61872100000005,63.57288237499997,63.61872100000005,63.61872100000005,63.61872100000005,63.57288237499997,63.61872100000005,63.61872100000005,68.81500879200007,63.61872100000005,68.81500879200007,68.81500879200007,69.68159220799998,63.61872100000005,1,1,0.6892870409997158,reldom2_s039,001,2025-03-19_15h53.26.933,What-B-Scan_AC,2022.2.5,None,
4,First_Order,1.0,viswhat,stimulus/viswhat_stim/blank_white.png,stimulus/viswhat_stim/blank_white.png,stimulus/viswhat_stim/land_animal-tiger.png,stimulus/viswhat_stim/land_vehicle-rv.png,stimulus/viswhat_stim/blank_white.png,stimulus/viswhat_stim/type_box.png,stimulus/viswhat_stim/type_yes.png,stimulus/viswhat_stim/type_no.png,None,Type,None,Location,2,0.0,0,5.125,0,5.125,0,5.125,0,0.0,0.625,0,0.0,0,0.0,1,0.5,1,2.125,0,0.0,0,0.0,0,0.0,0,0.0,0,,,,,0,4,4,4,,,,,,,,,69.68159220799998,69.68159220799998,69.68159220799998,69.68159220799998,69.68159220799998,69.68159220799998,69.68159220799998,69.68159220799998,69.6314802496667,69.68159220799998,69.68159220799998,69.68159220799998,69.6314802496667,69.68159220799998,69.68159220799998,69.68159220799998,71.78781787499997,75.81763679200003,69.68159220799998,69.68159220799998,74.82396349999999,70.1627712500001,71.20122458300011,71.78781787499997,72.8258390420001,69.68159220799998,69.68159220799998,69.64814691633336,69.68159220799998,69.68159220799998,69.68159220799998,69.64814691633336,69.68159220799998,69.68159220799998,74.82396349999999,69.68159220799998,74.82396349999999,74.91052600000012,75.57601612500002,69.68159220799998,2,1,1.249128748999965,reldom2_s039,001,2025-03-19_15h53.26.933,What-B-Scan_AC,2022.2.5,None,
0,0.0,None,fixation,stimulus/viswhat_stim/blank_white.png,stimulus/viswhat_stim/blank_white.png,stimulus/audwhat_stim/blank_white.png,stimulus/audwhat_stim/blank_white.png,stimulus/viswhat_stim/blank_white.png,stimulus/viswhat_stim/blank_white.png,stimulus/viswhat_stim/blank_white.png,stimulus/viswhat_stim/blank_white.png,0.0,0.0,0.0,0.0,0,0.0,0,0.0,0,0.0,0,0.0,0,0.0,0.0,0,0.0,0,0.0,0,0.0,0,0.0,0,0.0,0,0.0,0,0.0,0,0.0,9,,,,,0,5,5,5,,,,,,,,,75.81763679200003,75.81763679200003,75.81763679200003,75.81763679200003,75.81763679200003,75.81763679200003,75.81763679200003,75.81763679200003,75.72140924966662,75.81763679200003,75.81763679200003,75.81763679200003,75.72140924966662,75.81763679200003,75.81763679200003,75.81763679200003,75.81763679200003,75.81763679200003,75.81763679200003,75.81763679200003,75.81763679200003,75.81763679200003,75.81763679200003,75.81763679200003,75.81763679200003,75.81763679200003,75.81763679200003,75.77140924966663,75.81763679200003,75.81763679200003,75.81763679200003,75.77140924966663,75.81763679200003,75.81763679200003,75.81763679200003,75.81763679200003,75.81763679200003,81.02955529199994,81.02955529199994,84.9807941250001,None,0,,reldom2_s039,001,2025-03-19_15h53.26.933,What-B-Scan_AC,2022.2.5,None,
5,Second_Order,1.0,viswhat,stimulus/viswhat_stim/land_animal-bunny.png,stimulus/viswhat_stim/land_vehicle-motorcycle.png,stimulus/viswhat_stim/water_animal-octopus.png,stimulus/viswhat_stim/land_animal-fox.png,stimulus/viswhat_stim/match_blank.png,stimulus/viswhat_stim/match_box.png,stimulus/viswhat_stim/match_yes.png,stimulus/viswhat_stim/match_no.png,2.0,Match,Location,Type,2,5.125,0,5.125,0,5.125,0,5.125,0,0.75,0.75,1,0.5,1,2.125,1,0.5,1,2.125,0,0.0,0,0.0,0,0.0,0,0.0,0,,,,,0,6,6,6,,,,,,,,,84.9807941250001,90.10088270799997,85.42243520800002,86.42079820799995,87.04308637500003,88.04129200000011,84.9807941250001,84.9807941250001,84.9922055836668,84.9807941250001,84.9807941250001,84.9807941250001,84.9922055836668,84.9807941250001,90.10088270799997,90.92107795800007,92.99650879199999,,90.92107795800007,90.92107795800007,96.07419125000001,91.3525924170001,92.37540604200012,92.99650879199999,94.02551670799994,90.92107795800007,90.92107795800007,90.9005409996667,90.92107795800007,90.92107795800007,90.92107795800007,90.9005409996667,90.92107795800007,90.92107795800007,96.07419125000001,90.92107795800007,96.07419125000001,96.1000495830001,,90.92107795800007,2,1,0.7472471659998519,reldom2_s039,001,2025-03-19_15h53.26.933,What-B-Scan_AC,2022.2.5,None,
6,Second_Order,1.0,viswhat,stimulus/viswhat_stim/land_vehicle-tank.png,stimulus/viswhat_stim/land_animal-wolf.png,stimulus/viswhat_stim/water_vehicle-motorboatraft.png,stimulus/viswhat_stim/water_animal-squid.png,stimulus/viswhat_stim/match_blank.png,stimulus/viswhat_stim/match_box.png,stimulus/viswhat_stim/match_yes.png,stimulus/viswhat_stim/match_no.png,1.0,Match,Location,Location,1,5.125,0,5.125,0,5.125,0,5.125,0,0.625,0.625,1,0.5,1,2.125,1,0.5,1,2.125,0,0.0,0,0.0,0,0.0,0,0.0,0,,,,,0,7,7,7,,,,,,,,,96.879518125,101.99478787500016,97.36284316699994,98.35161495800003,98.98844899999995,99.9854344580001,96.879518125,96.879518125,96.88153016666666,96.879518125,96.879518125,96.879518125,96.88153016666666,96.879518125,101.99478787500016,102.68953024999996,104.76280674999998,108.8155441670001,102.68953024999996,102.68953024999996,107.827138375,103.128638292,104.14928424999994,104.76280674999998,105.79933708299995,102.68953024999996,102.68953024999996,102.65846812499994,102.68953024999996,102.68953024999996,102.68953024999996,102.65846812499994,102.68953024999996,102.68953024999996,107.827138375,102.68953024999996,107.827138375,107.87425304199996,108.51544737500012,102.68953024999996,1,1,0.6005836670001372,reldom2_s039,001,2025-03-19_15h53.26.933,What-B-Scan_AC,2022.2.5,None,
0,0.0,None,fixation,stimulus/viswhat_stim/blank_white.png,stimulus/viswhat_stim/blank_white.png,stimulus/audwhat_stim/blank_white.png,stimulus/audwhat_stim/blank_white.png,stimulus/viswhat_stim/blank_white.png,stimulus/viswhat_stim/blank_white.png,stimulus/viswhat_stim/blank_white.png,stimulus/viswhat_stim/blank_white.png,0.0,0.0,0.0,0.0,0,0.0,0,0.0,0,0.0,0,0.0,0,0.0,0.0,0,0.0,0,0.0,0,0.0,0,0.0,0,0.0,0,0.0,0,0.0,0,0.0,9,,,,,0,8,8,8,,,,,,,,,108.8155441670001,108.8155441670001,108.8155441670001,108.8155441670001,108.8155441670001,108.8155441670001,108.8155441670001,108.8155441670001,108.70990216699997,108.8155441670001,108.8155441670001,108.8155441670001,108.70990216699997,108.8155441670001,108.8155441670001,108.8155441670001,108.8155441670001,108.8155441670001,108.8155441670001,108.8155441670001,108.8155441670001,108.8155441670001,108.8155441670001,108.8155441670001,108.8155441670001,108.8155441670001,108.8155441670001,108.77656883366664,108.8155441670001,108.8155441670001,108.8155441670001,108.77656883366664,108.8155441670001,108.8155441670001,108.8155441670001,108.8155441670001,108.8155441670001,113.99791462500002,113.99791462500002,118.27345050000008,None,0,,reldom2_s039,001,2025-03-19_15h53.26.933,What-B-Scan_AC,2022.2.5,None,
7,First_Order,2.0,viswhat,stimulus/viswhat_stim/blank_white.png,stimulus/viswhat_stim/blank_white.png,stimulus/viswhat_stim/water_animal-lobster.png,stimulus/viswhat_stim/water_vehicle-canoe.png,stimulus/viswhat_stim/blank_white.png,stimulus/viswhat_stim/location_box.png,stimulus/viswhat_stim/location_yes.png,stimulus/viswhat_stim/location_no.png,None,Location,None,Location,1,0.0,0,5.125,0,5.125,0,5.125,0,0.0,0.625,0,0.0,0,0.0,1,0.5,1,2.125,0,0.0,0,0.0,0,0.0,0,0.0,0,,,,,0,9,9,9,,,,,,,,,118.27345050000008,118.27345050000008,118.27345050000008,118.27345050000008,118.27345050000008,118.27345050000008,118.27345050000008,118.27345050000008,117.99467162466674,118.27345050000008,118.27345050000008,118.27345050000008,117.99467162466674,118.27345050000008,118.27345050000008,118.27345050000008,120.36646945799998,,118.27345050000008,118.27345050000008,123.65044558299996,118.71971174999999,119.9182289580001,120.36646945799998,121.56202533300007,118.27345050000008,118.27345050000008,118.12800495800006,118.27345050000008,118.27345050000008,118.27345050000008,118.12800495800006,118.27345050000008,118.27345050000008,123.65044558299996,118.27345050000008,123.65044558299996,123.50669362500003,,118.27345050000008,1,1,1.2885593739999877,reldom2_s039,001,2025-03-19_15h53.26.933,What-B-Scan_AC,2022.2.5,None,
8,First_Order,2.0,viswhat,stimulus/viswhat_stim/blank_white.png,stimulus/viswhat_stim/blank_white.png,stimulus/viswhat_stim/water_animal-jellyfish.png,stimulus/viswhat_stim/land_animal-bunny.png,stimulus/viswhat_stim/blank_white.png,stimulus/viswhat_stim/type_box.png,stimulus/viswhat_stim/type_yes.png,stimulus/viswhat_stim/type_no.png,None,Type,None,Type,1,0.0,0,5.125,0,5.125,0,5.125,0,0.0,0.625,0,0.0,0,0.0,1,0.5,1,2.125,0,0.0,0,0.0,0,0.0,0,0.0,0,,,,,0,10,10,10,,,,,,,,,124.36999941700014,124.36999941700014,124.36999941700014,124.36999941700014,124.36999941700014,124.36999941700014,124.36999941700014,124.36999941700014,124.28826787500006,124.36999941700014,124.36999941700014,124.36999941700014,124.28826787500006,124.36999941700014,124.36999941700014,124.36999941700014,126.4543637920001,,124.36999941700014,124.36999941700014,129.53003650000005,124.839569042,125.88158045800014,126.4543637920001,127.50237770800004,124.36999941700014,124.36999941700014,124.32160120833339,124.36999941700014,124.36999941700014,124.36999941700014,124.32160120833339,124.36999941700014,124.36999941700014,129.53003650000005,124.36999941700014,129.53003650000005,129.57670041699998,130.42551787499997,124.36999941700014,1,1,0.5748722920000091,reldom2_s039,001,2025-03-19_15h53.26.933,What-B-Scan_AC,2022.2.5,None,
9,First_Order,2.0,viswhat,stimulus/viswhat_stim/blank_white.png,stimulus/viswhat_stim/blank_white.png,stimulus/viswhat_stim/land_animal-cat.png,stimulus/viswhat_stim/water_animal-whale (1).png,stimulus/viswhat_stim/blank_white.png,stimulus/viswhat_stim/location_box.png,stimulus/viswhat_stim/location_yes.png,stimulus/viswhat_stim/location_no.png,None,Location,None,Type,2,0.0,0,5.125,0,5.125,0,5.125,0,0.0,0.625,0,0.0,0,0.0,1,0.5,1,2.125,0,0.0,0,0.0,0,0.0,0,0.0,0,,,,,0,11,11,11,,,,,,,,,130.42551787499997,130.42551787499997,130.42551787499997,130.42551787499997,130.42551787499997,130.42551787499997,130.42551787499997,130.42551787499997,130.37721245799995,130.42551787499997,130.42551787499997,130.42551787499997,130.37721245799995,130.42551787499997,130.42551787499997,130.42551787499997,132.53626545800012,,130.42551787499997,130.42551787499997,135.58077437500015,130.90736295800002,131.92914641700008,132.53626545800012,133.56525416700015,130.42551787499997,130.42551787499997,130.39387912466663,130.42551787499997,130.42551787499997,130.42551787499997,130.39387912466663,130.42551787499997,130.42551787499997,135.58077437500015,130.42551787499997,135.58077437500015,135.63370604200009,136.29077595800004,130.42551787499997,2,1,1.51292295799999,reldom2_s039,001,2025-03-19_15h53.26.933,What-B-Scan_AC,2022.2.5,None,
10,First_Order,2.0,viswhat,stimulus/viswhat_stim/blank_white.png,stimulus/viswhat_stim/blank_white.png,stimulus/viswhat_stim/water_animal-shark.png,stimulus/viswhat_stim/water_vehicle-yacht.png,stimulus/viswhat_stim/blank_white.png,stimulus/viswhat_stim/type_box.png,stimulus/viswhat_stim/type_yes.png,stimulus/viswhat_stim/type_no.png,None,Type,None,Location,2,0.0,0,5.125,0,5.125,0,5.125,0,0.0,0.625,0,0.0,0,0.0,1,0.5,1,2.125,0,0.0,0,0.0,0,0.0,0,0.0,0,,,,,0,12,12,12,,,,,,,,,136.524263625,136.524263625,136.524263625,136.524263625,136.524263625,136.524263625,136.524263625,136.524263625,136.44299879200014,136.524263625,136.524263625,136.524263625,136.44299879200014,136.524263625,136.524263625,136.524263625,138.62576679200015,,136.524263625,136.524263625,141.70999025000015,136.99850945799994,138.02849008299995,138.62576679200015,139.65720750000014,136.524263625,136.524263625,136.49299879200012,136.524263625,136.524263625,136.524263625,136.49299879200012,136.524263625,136.524263625,141.70999025000015,136.524263625,141.70999025000015,141.746959542,142.414312375,136.524263625,2,1,1.521117249999861,reldom2_s039,001,2025-03-19_15h53.26.933,What-B-Scan_AC,2022.2.5,None,
0,0.0,None,fixation,stimulus/viswhat_stim/blank_white.png,stimulus/viswhat_stim/blank_white.png,stimulus/audwhat_stim/blank_white.png,stimulus/audwhat_stim/blank_white.png,stimulus/viswhat_stim/blank_white.png,stimulus/viswhat_stim/blank_white.png,stimulus/viswhat_stim/blank_white.png,stimulus/viswhat_stim/blank_white.png,0.0,0.0,0.0,0.0,0,0.0,0,0.0,0,0.0,0,0.0,0,0.0,0.0,0,0.0,0,0.0,0,0.0,0,0.0,0,0.0,0,0.0,0,0.0,0,0.0,10,,,,,0,13,13,13,,,,,,,,,142.64246904200013,142.64246904200013,142.64246904200013,142.64246904200013,142.64246904200013,142.64246904200013,142.64246904200013,142.64246904200013,142.54764570833336,142.64246904200013,142.64246904200013,142.64246904200013,142.54764570833336,142.64246904200013,142.64246904200013,142.64246904200013,142.64246904200013,142.64246904200013,142.64246904200013,142.64246904200013,142.64246904200013,142.64246904200013,142.64246904200013,142.64246904200013,142.64246904200013,142.64246904200013,142.64246904200013,142.59764570833335,142.64246904200013,142.64246904200013,142.64246904200013,142.59764570833335,142.64246904200013,142.64246904200013,142.64246904200013,142.64246904200013,142.64246904200013,147.8551217920001,147.8551217920001,152.76450216700005,None,0,,reldom2_s039,001,2025-03-19_15h53.26.933,What-B-Scan_AC,2022.2.5,None,
11,Second_Order,2.0,viswhat,stimulus/viswhat_stim/land_animal-ostrich.png,stimulus/viswhat_stim/water_animal-stingray.png,stimulus/viswhat_stim/water_vehicle-cruiseship.png,stimulus/viswhat_stim/water_animal-seaturtle.png,stimulus/viswhat_stim/match_blank.png,stimulus/viswhat_stim/match_box.png,stimulus/viswhat_stim/match_yes.png,stimulus/viswhat_stim/match_no.png,2.0,Match,Type,Location,2,5.125,0,5.125,0,5.125,0,5.125,0,0.75,0.75,1,0.5,1,2.125,1,0.5,1,2.125,0,0.0,0,0.0,0,0.0,0,0.0,0,,,,,0,14,14,14,,,,,,,,,152.76450216700005,157.88600154200003,153.24555787500003,154.24394637499995,154.86633299999994,155.86442699999998,152.76450216700005,152.76450216700005,152.77671108333348,152.76450216700005,152.76450216700005,152.76450216700005,152.77671108333348,152.76450216700005,157.88600154200003,158.86346470800004,160.87380958300014,,158.86346470800004,158.86346470800004,164.08722754199994,159.265585417,160.37023445800014,160.87380958300014,161.9802272080001,158.86346470800004,158.86346470800004,158.77086950000003,158.86346470800004,158.86346470800004,158.86346470800004,158.77086950000003,158.86346470800004,158.86346470800004,164.08722754199994,158.86346470800004,164.08722754199994,163.992231125,,158.86346470800004,2,1,0.8636767489999784,reldom2_s039,001,2025-03-19_15h53.26.933,What-B-Scan_AC,2022.2.5,None,
12,Second_Order,2.0,viswhat,stimulus/viswhat_stim/land_animal-ostrich.png,stimulus/viswhat_stim/land_vehicle-oldcar.png,stimulus/viswhat_stim/water_vehicle-ship.png,stimulus/viswhat_stim/land_vehicle-vespa.png,stimulus/viswhat_stim/match_blank.png,stimulus/viswhat_stim/match_box.png,stimulus/viswhat_stim/match_yes.png,stimulus/viswhat_stim/match_no.png,2.0,Match,Location,Type,2,5.125,0,5.125,0,5.125,0,5.125,0,0.625,0.625,1,0.5,1,2.125,1,0.5,1,2.125,0,0.0,0,0.0,0,0.0,0,0.0,0,,,,,0,15,15,15,,,,,,,,,164.78451070799997,169.90190404200007,165.23924954200015,166.22486841700015,166.86078191699994,167.85907866699995,164.78451070799997,164.78451070799997,164.7937245413334,164.78451070799997,164.78451070799997,164.78451070799997,164.7937245413334,164.78451070799997,169.90190404200007,170.679570583,172.713760417,,170.679570583,170.679570583,175.91145670800006,171.086088667,172.17018350000012,172.713760417,173.80523279199997,170.679570583,170.679570583,170.614921083,170.679570583,170.679570583,170.679570583,170.614921083,170.679570583,170.679570583,175.91145670800006,170.679570583,175.91145670800006,175.84858104199998,176.7547098330001,170.679570583,2,1,0.5941679160000604,reldom2_s039,001,2025-03-19_15h53.26.933,What-B-Scan_AC,2022.2.5,None,
0,0.0,None,fixation,stimulus/viswhat_stim/blank_white.png,stimulus/viswhat_stim/blank_white.png,stimulus/audwhat_stim/blank_white.png,stimulus/audwhat_stim/blank_white.png,stimulus/viswhat_stim/blank_white.png,stimulus/viswhat_stim/blank_white.png,stimulus/viswhat_stim/blank_white.png,stimulus/viswhat_stim/blank_white.png,0.0,0.0,0.0,0.0,0,0.0,0,0.0,0,0.0,0,0.0,0,0.0,0.0,0,0.0,0,0.0,0,0.0,0,0.0,0,0.0,0,0.0,0,0.0,0,0.0,9,,,,,0,16,16,16,,,,,,,,,176.7547098330001,176.7547098330001,176.7547098330001,176.7547098330001,176.7547098330001,176.7547098330001,176.7547098330001,176.7547098330001,176.65741529133328,176.7547098330001,176.7547098330001,176.7547098330001,176.65741529133328,176.7547098330001,176.7547098330001,176.7547098330001,176.7547098330001,176.7547098330001,176.7547098330001,176.7547098330001,176.7547098330001,176.7547098330001,176.7547098330001,176.7547098330001,176.7547098330001,176.7547098330001,176.7547098330001,176.7074152913333,176.7547098330001,176.7547098330001,176.7547098330001,176.7074152913333,176.7547098330001,176.7547098330001,176.7547098330001,176.7547098330001,176.7547098330001,181.96931720800012,181.96931720800012,186.0151685830001,None,0,,reldom2_s039,001,2025-03-19_15h53.26.933,What-B-Scan_AC,2022.2.5,None,
13,First_Order,3.0,audwhat,stimulus/audwhat_stim/dummy.wav,stimulus/audwhat_stim/dummy.wav,stimulus/audwhat_stim/percussion mallet_low-pitch_Ftri_loud.wav,stimulus/audwhat_stim/percussion xylophone_high-pitch_Dtri_loud.wav,stimulus/audwhat_stim/blank_white.png,stimulus/audwhat_stim/pitch_box.png,stimulus/audwhat_stim/pitch_yes.png,stimulus/audwhat_stim/pitch_no.png,None,Pitch,None,Category,2,0.0,0,5.125,0,5.125,0,5.125,0,0.0,0.625,0,0.0,0,0.0,0,0.0,0,0.0,0,0.0,0,0.0,1,0.5,1,2.125,0,,,,,0,17,17,17,,,,,,,,,186.0151685830001,186.0151685830001,186.0151685830001,186.0151685830001,186.0151685830001,186.0151685830001,186.0151685830001,186.0151685830001,185.94232141666674,186.0151685830001,186.0151685830001,186.0151685830001,185.94232141666674,186.0151685830001,186.0151685830001,186.0151685830001,188.08406949999994,,186.0151685830001,186.0151685830001,191.17275775000007,186.0151685830001,186.0151685830001,186.0151685830001,186.0151685830001,186.47560662499995,187.53256345800014,186.44596858366666,,188.08406949999994,189.14457908300005,188.05524212466665,189.0987868750001,186.0151685830001,191.17275775000007,186.0151685830001,191.17275775000007,191.21325420800008,191.86318237499995,186.0151685830001,1,0,2.300097457999982,reldom2_s039,001,2025-03-19_15h53.26.933,What-B-Scan_AC,2022.2.5,None,
14,First_Order,3.0,audwhat,stimulus/audwhat_stim/dummy.wav,stimulus/audwhat_stim/dummy.wav,stimulus/audwhat_stim/string cello_low-pitch_D_loud.wav,stimulus/audwhat_stim/percussion mallet_low-pitch_D_loud.wav,stimulus/audwhat_stim/blank_white.png,stimulus/audwhat_stim/pitch_box.png,stimulus/audwhat_stim/pitch_yes.png,stimulus/audwhat_stim/pitch_no.png,None,Pitch,None,Pitch,1,0.0,0,5.125,0,5.125,0,5.125,0,0.0,0.625,0,0.0,0,0.0,0,0.0,0,0.0,0,0.0,0,0.0,1,0.5,1,2.125,0,,,,,0,18,18,18,,,,,,,,,192.1172348330001,192.1172348330001,192.1172348330001,192.1172348330001,192.1172348330001,192.1172348330001,192.1172348330001,192.1172348330001,192.03700654133345,192.1172348330001,192.1172348330001,192.1172348330001,192.03700654133345,192.1172348330001,192.1172348330001,192.1172348330001,194.19591749999995,198.24611750000008,192.1172348330001,192.1172348330001,197.29673183299997,192.1172348330001,192.1172348330001,192.1172348330001,192.1172348330001,192.57831083299993,193.64157891700006,192.5488895416668,,194.19591749999995,195.26180262499997,194.16596483366678,,192.1172348330001,197.29673183299997,192.1172348330001,197.29673183299997,197.33800516700012,197.99123229199995,192.1172348330001,2,0,1.3337672499999371,reldom2_s039,001,2025-03-19_15h53.26.933,What-B-Scan_AC,2022.2.5,None,
15,First_Order,3.0,audwhat,stimulus/audwhat_stim/dummy.wav,stimulus/audwhat_stim/dummy.wav,stimulus/audwhat_stim/string cello_high-pitch_D_loud.wav,stimulus/audwhat_stim/string cello_low-pitch_Ftri_loud.wav,stimulus/audwhat_stim/blank_white.png,stimulus/audwhat_stim/category_box.png,stimulus/audwhat_stim/category_yes.png,stimulus/audwhat_stim/category_no.png,None,Category,None,Category,1,0.0,0,5.125,0,5.125,0,5.125,0,0.0,0.625,0,0.0,0,0.0,0,0.0,0,0.0,0,0.0,0,0.0,1,0.5,1,2.125,0,,,,,0,19,19,19,,,,,,,,,198.24611750000008,198.24611750000008,198.24611750000008,198.24611750000008,198.24611750000008,198.24611750000008,198.24611750000008,198.24611750000008,198.16533900033338,198.24611750000008,198.24611750000008,198.24611750000008,198.16533900033338,198.24611750000008,198.24611750000008,198.24611750000008,200.33754454199993,,198.24611750000008,198.24611750000008,203.40234350000014,198.24611750000008,198.24611750000008,198.24611750000008,198.24611750000008,198.7141325,199.78286370800015,198.6838922496668,,200.33754454199993,201.406450833,200.3084597086668,,198.24611750000008,203.40234350000014,198.24611750000008,203.40234350000014,203.4436905,204.09657262500014,198.24611750000008,1,1,1.280666540999846,reldom2_s039,001,2025-03-19_15h53.26.933,What-B-Scan_AC,2022.2.5,None,
16,First_Order,3.0,audwhat,stimulus/audwhat_stim/dummy.wav,stimulus/audwhat_stim/dummy.wav,stimulus/audwhat_stim/string viola_low-pitch_F_loud.wav,stimulus/audwhat_stim/percussion mallet_low-pitch_F_loud.wav,stimulus/audwhat_stim/blank_white.png,stimulus/audwhat_stim/category_box.png,stimulus/audwhat_stim/category_yes.png,stimulus/audwhat_stim/category_no.png,None,Category,None,Pitch,2,0.0,0,5.125,0,5.125,0,5.125,0,0.0,0.625,0,0.0,0,0.0,0,0.0,0,0.0,0,0.0,0,0.0,1,0.5,1,2.125,0,,,,,0,20,20,20,,,,,,,,,204.350084208,204.350084208,204.350084208,204.350084208,204.350084208,204.350084208,204.350084208,204.350084208,204.2704568753335,204.350084208,204.350084208,204.350084208,204.2704568753335,204.350084208,204.350084208,204.350084208,206.43852333300015,,204.350084208,204.350084208,209.50777754199999,204.350084208,204.350084208,204.350084208,204.350084208,204.81620245800013,205.88188908300003,204.78466612466676,,206.43852333300015,207.512221125,206.4088918336668,,204.350084208,209.50777754199999,204.350084208,209.50777754199999,209.54942925,210.20307079200006,204.350084208,2,1,0.846272708000015,reldom2_s039,001,2025-03-19_15h53.26.933,What-B-Scan_AC,2022.2.5,None,
0,0.0,None,fixation,stimulus/viswhat_stim/blank_white.png,stimulus/viswhat_stim/blank_white.png,stimulus/audwhat_stim/blank_white.png,stimulus/audwhat_stim/blank_white.png,stimulus/viswhat_stim/blank_white.png,stimulus/viswhat_stim/blank_white.png,stimulus/viswhat_stim/blank_white.png,stimulus/viswhat_stim/blank_white.png,0.0,0.0,0.0,0.0,0,0.0,0,0.0,0,0.0,0,0.0,0,0.0,0.0,0,0.0,0,0.0,0,0.0,0,0.0,0,0.0,0,0.0,0,0.0,0,0.0,9,,,,,0,21,21,21,,,,,,,,,210.47569954200003,210.47569954200003,210.47569954200003,210.47569954200003,210.47569954200003,210.47569954200003,210.47569954200003,210.47569954200003,210.3766714583334,210.47569954200003,210.47569954200003,210.47569954200003,210.3766714583334,210.47569954200003,210.47569954200003,210.47569954200003,210.47569954200003,210.47569954200003,210.47569954200003,210.47569954200003,210.47569954200003,210.47569954200003,210.47569954200003,210.47569954200003,210.47569954200003,210.47569954200003,210.47569954200003,210.42667145833337,210.47569954200003,210.47569954200003,210.47569954200003,210.42667145833337,210.47569954200003,210.47569954200003,210.47569954200003,210.47569954200003,210.47569954200003,215.70181541700003,215.70181541700003,219.62859441699993,None,0,,reldom2_s039,001,2025-03-19_15h53.26.933,What-B-Scan_AC,2022.2.5,None,
17,Second_Order,3.0,audwhat,stimulus/audwhat_stim/percussion mallet_high-pitch_Ftri_loud.wav,stimulus/audwhat_stim/string cello_high-pitch_Ftri_loud.wav,stimulus/audwhat_stim/percussion mallet_low-pitch_D_loud.wav,stimulus/audwhat_stim/string viola_low-pitch_D_loud.wav,stimulus/viswhat_stim/match_blank.png,stimulus/viswhat_stim/match_box.png,stimulus/viswhat_stim/match_yes.png,stimulus/viswhat_stim/match_no.png,1.0,Match,Pitch,Pitch,1,5.125,0,5.125,0,5.125,0,5.125,0,0.75,0.75,0,0.0,0,0.0,0,0.0,0,0.0,1,0.5,1,2.125,1,0.5,1,2.125,0,,,,,0,22,22,22,,,,,,,,,219.62859441699993,224.74499074999994,219.62859441699993,219.62859441699993,219.62859441699993,219.62859441699993,220.08323966700004,221.082035958,220.09612441666675,,221.70474237500002,222.70187233299998,221.7168435416668,,224.74499074999994,225.59670291700013,227.65943345799997,231.59327770799996,225.59670291700013,225.59670291700013,230.745532917,225.59670291700013,225.59670291700013,225.59670291700013,225.59670291700013,226.052594667,227.10817766700006,226.02390466666682,,227.65943345799997,228.72031004199994,227.6299110416667,,225.59670291700013,230.745532917,225.59670291700013,230.745532917,230.787597667,,225.59670291700013,1,1,1.2323881659999643,reldom2_s039,001,2025-03-19_15h53.26.933,What-B-Scan_AC,2022.2.5,None,
18,Second_Order,3.0,audwhat,stimulus/audwhat_stim/percussion mallet_high-pitch_Dtri_loud.wav,stimulus/audwhat_stim/string cello_high-pitch_Dtri_loud.wav,stimulus/audwhat_stim/string viola_low-pitch_Ftri_loud.wav,stimulus/audwhat_stim/percussion mallet_low-pitch_Ftri_loud.wav,stimulus/viswhat_stim/match_blank.png,stimulus/viswhat_stim/match_box.png,stimulus/viswhat_stim/match_yes.png,stimulus/viswhat_stim/match_no.png,1.0,Match,Pitch,Pitch,1,5.125,0,5.125,0,5.125,0,5.125,0,0.625,0.625,0,0.0,0,0.0,0,0.0,0,0.0,1,0.5,1,2.125,1,0.5,1,2.125,0,,,,,0,23,23,23,,,,,,,,,231.59327770799996,236.70611866700006,231.59327770799996,231.59327770799996,231.59327770799996,231.59327770799996,232.04507854200006,233.042559708,232.0571627496668,,233.67738691700015,234.66614383299998,233.68072633366663,,236.70611866700006,237.43724233300009,239.487808417,,237.43724233300009,237.43724233300009,242.60025829200003,237.43724233300009,237.43724233300009,237.43724233300009,237.43724233300009,237.88975970800016,238.938799667,237.86088479166668,,239.487808417,240.54183750000016,239.45690412466664,,237.43724233300009,242.60025829200003,237.43724233300009,242.60025829200003,242.60025829200003,243.247044167,237.43724233300009,2,0,1.1404115410000486,reldom2_s039,001,2025-03-19_15h53.26.933,What-B-Scan_AC,2022.2.5,None,
0,0.0,None,fixation,stimulus/viswhat_stim/blank_white.png,stimulus/viswhat_stim/blank_white.png,stimulus/audwhat_stim/blank_white.png,stimulus/audwhat_stim/blank_white.png,stimulus/viswhat_stim/blank_white.png,stimulus/viswhat_stim/blank_white.png,stimulus/viswhat_stim/blank_white.png,stimulus/viswhat_stim/blank_white.png,0.0,0.0,0.0,0.0,0,0.0,0,0.0,0,0.0,0,0.0,0,0.0,0.0,0,0.0,0,0.0,0,0.0,0,0.0,0,0.0,0,0.0,0,0.0,0,0.0,8,,,,,0,24,24,24,,,,,,,,,243.51825170799998,243.51825170799998,243.51825170799998,243.51825170799998,243.51825170799998,243.51825170799998,243.51825170799998,243.51825170799998,243.42020129133348,243.51825170799998,243.51825170799998,243.51825170799998,243.42020129133348,243.51825170799998,243.51825170799998,243.51825170799998,243.51825170799998,243.51825170799998,243.51825170799998,243.51825170799998,243.51825170799998,243.51825170799998,243.51825170799998,243.51825170799998,243.51825170799998,243.51825170799998,243.51825170799998,243.47020129133347,243.51825170799998,243.51825170799998,243.51825170799998,243.47020129133347,243.51825170799998,243.51825170799998,243.51825170799998,243.51825170799998,243.51825170799998,248.74704275,248.74704275,251.78032325000004,None,0,,reldom2_s039,001,2025-03-19_15h53.26.933,What-B-Scan_AC,2022.2.5,None,
19,First_Order,4.0,audwhat,stimulus/audwhat_stim/dummy.wav,stimulus/audwhat_stim/dummy.wav,stimulus/audwhat_stim/percussion mallet_low-pitch_Ftri_loud.wav,stimulus/audwhat_stim/string viola_low-pitch_Ftri_loud.wav,stimulus/audwhat_stim/blank_white.png,stimulus/audwhat_stim/pitch_box.png,stimulus/audwhat_stim/pitch_yes.png,stimulus/audwhat_stim/pitch_no.png,None,Pitch,None,Pitch,1,0.0,0,5.125,0,5.125,0,5.125,0,0.0,0.625,0,0.0,0,0.0,0,0.0,0,0.0,0,0.0,0,0.0,1,0.5,1,2.125,0,,,,,0,25,25,25,,,,,,,,,251.78032325000004,251.78032325000004,251.78032325000004,251.78032325000004,251.78032325000004,251.78032325000004,251.78032325000004,251.78032325000004,251.7110280836668,251.78032325000004,251.78032325000004,251.78032325000004,251.7110280836668,251.78032325000004,251.78032325000004,251.78032325000004,253.85559870800012,,251.78032325000004,251.78032325000004,256.9673613750001,251.78032325000004,251.78032325000004,251.78032325000004,251.78032325000004,252.24034574999996,253.30340079200005,252.21045383366666,,253.85559870800012,254.91812033299993,253.82580270866677,,251.78032325000004,256.9673613750001,251.78032325000004,256.9673613750001,257.008144917,257.65727066700015,251.78032325000004,2,0,1.7486783329998161,reldom2_s039,001,2025-03-19_15h53.26.933,What-B-Scan_AC,2022.2.5,None,
20,First_Order,4.0,audwhat,stimulus/audwhat_stim/dummy.wav,stimulus/audwhat_stim/dummy.wav,stimulus/audwhat_stim/string viola_low-pitch_F_loud.wav,stimulus/audwhat_stim/string cello_high-pitch_Ftri_loud.wav,stimulus/audwhat_stim/blank_white.png,stimulus/audwhat_stim/category_box.png,stimulus/audwhat_stim/category_yes.png,stimulus/audwhat_stim/category_no.png,None,Category,None,Category,1,0.0,0,5.125,0,5.125,0,5.125,0,0.0,0.625,0,0.0,0,0.0,0,0.0,0,0.0,0,0.0,0,0.0,1,0.5,1,2.125,0,,,,,0,26,26,26,,,,,,,,,257.86969783300015,257.86969783300015,257.86969783300015,257.86969783300015,257.86969783300015,257.86969783300015,257.86969783300015,257.86969783300015,257.7906040003335,257.86969783300015,257.86969783300015,257.86969783300015,257.7906040003335,257.86969783300015,257.86969783300015,257.86969783300015,259.9595515830001,,257.86969783300015,257.86969783300015,263.02391050000006,257.86969783300015,257.86969783300015,257.86969783300015,257.86969783300015,258.3339215420001,259.40322741700015,258.30369612466666,,259.9595515830001,261.03063995799994,259.9300142496668,,257.86969783300015,263.02391050000006,257.86969783300015,263.02391050000006,263.065232292,263.71770887499997,257.86969783300015,1,1,0.8664152080000349,reldom2_s039,001,2025-03-19_15h53.26.933,What-B-Scan_AC,2022.2.5,None,
21,First_Order,4.0,audwhat,stimulus/audwhat_stim/dummy.wav,stimulus/audwhat_stim/dummy.wav,stimulus/audwhat_stim/string viola_high-pitch_F_loud.wav,stimulus/audwhat_stim/percussion mallet_high-pitch_F_loud.wav,stimulus/audwhat_stim/blank_white.png,stimulus/audwhat_stim/category_box.png,stimulus/audwhat_stim/category_yes.png,stimulus/audwhat_stim/category_no.png,None,Category,None,Pitch,2,0.0,0,5.125,0,5.125,0,5.125,0,0.0,0.625,0,0.0,0,0.0,0,0.0,0,0.0,0,0.0,0,0.0,1,0.5,1,2.125,0,,,,,0,27,27,27,,,,,,,,,263.97318458300015,263.97318458300015,263.97318458300015,263.97318458300015,263.97318458300015,263.97318458300015,263.97318458300015,263.97318458300015,263.8915426663333,263.97318458300015,263.97318458300015,263.97318458300015,263.8915426663333,263.97318458300015,263.97318458300015,263.97318458300015,266.061014958,,263.97318458300015,263.97318458300015,269.12851383299994,263.97318458300015,263.97318458300015,263.97318458300015,263.97318458300015,264.436908917,265.50472691699997,264.4070922916667,,266.061014958,267.13449479199994,266.0312137496667,,263.97318458300015,269.12851383299994,263.97318458300015,269.12851383299994,269.16981024999995,269.822377833,263.97318458300015,2,1,0.9634124999997766,reldom2_s039,001,2025-03-19_15h53.26.933,What-B-Scan_AC,2022.2.5,None,
22,First_Order,4.0,audwhat,stimulus/audwhat_stim/dummy.wav,stimulus/audwhat_stim/dummy.wav,stimulus/audwhat_stim/percussion xylophone_high-pitch_D_loud.wav,stimulus/audwhat_stim/percussion mallet_low-pitch_F_loud.wav,stimulus/audwhat_stim/blank_white.png,stimulus/audwhat_stim/pitch_box.png,stimulus/audwhat_stim/pitch_yes.png,stimulus/audwhat_stim/pitch_no.png,None,Pitch,None,Category,2,0.0,0,5.125,0,5.125,0,5.125,0,0.0,0.625,0,0.0,0,0.0,0,0.0,0,0.0,0,0.0,0,0.0,1,0.5,1,2.125,0,,,,,0,28,28,28,,,,,,,,,270.0763105420001,270.0763105420001,270.0763105420001,270.0763105420001,270.0763105420001,270.0763105420001,270.0763105420001,270.0763105420001,269.9959404583334,270.0763105420001,270.0763105420001,270.0763105420001,269.9959404583334,270.0763105420001,270.0763105420001,270.0763105420001,272.15867916699995,,270.0763105420001,270.0763105420001,275.26929762500004,270.0763105420001,270.0763105420001,270.0763105420001,270.0763105420001,270.53909329199996,271.604494208,270.5098152086666,271.5580875830001,272.15867916699995,273.225037292,272.12866304166664,,270.0763105420001,275.26929762500004,270.0763105420001,275.26929762500004,275.26929762500004,275.92288770799996,270.0763105420001,1,0,2.2788804999997865,reldom2_s039,001,2025-03-19_15h53.26.933,What-B-Scan_AC,2022.2.5,None,
0,0.0,None,fixation,stimulus/viswhat_stim/blank_white.png,stimulus/viswhat_stim/blank_white.png,stimulus/audwhat_stim/blank_white.png,stimulus/audwhat_stim/blank_white.png,stimulus/viswhat_stim/blank_white.png,stimulus/viswhat_stim/blank_white.png,stimulus/viswhat_stim/blank_white.png,stimulus/viswhat_stim/blank_white.png,0.0,0.0,0.0,0.0,0,0.0,0,0.0,0,0.0,0,0.0,0,0.0,0.0,0,0.0,0,0.0,0,0.0,0,0.0,0,0.0,0,0.0,0,0.0,0,0.0,10,,,,,0,29,29,29,,,,,,,,,276.1959875,276.1959875,276.1959875,276.1959875,276.1959875,276.1959875,276.1959875,276.1959875,276.09713587533327,276.1959875,276.1959875,276.1959875,276.09713587533327,276.1959875,276.1959875,276.1959875,276.1959875,276.1959875,276.1959875,276.1959875,276.1959875,276.1959875,276.1959875,276.1959875,276.1959875,276.1959875,276.1959875,276.1471358753333,276.1959875,276.1959875,276.1959875,276.1471358753333,276.1959875,276.1959875,276.1959875,276.1959875,276.1959875,281.3819168750001,281.3819168750001,286.326422417,None,0,,reldom2_s039,001,2025-03-19_15h53.26.933,What-B-Scan_AC,2022.2.5,None,
23,Second_Order,4.0,audwhat,stimulus/audwhat_stim/percussion mallet_high-pitch_Ftri_loud.wav,stimulus/audwhat_stim/percussion mallet_low-pitch_Dtri_loud.wav,stimulus/audwhat_stim/percussion mallet_high-pitch_D_loud.wav,stimulus/audwhat_stim/string viola_high-pitch_D_loud.wav,stimulus/viswhat_stim/match_blank.png,stimulus/viswhat_stim/match_box.png,stimulus/viswhat_stim/match_yes.png,stimulus/viswhat_stim/match_no.png,2.0,Match,Category,Pitch,2,5.125,0,5.125,0,5.125,0,5.125,0,0.75,0.75,0,0.0,0,0.0,0,0.0,0,0.0,1,0.5,1,2.125,1,0.5,1,2.125,0,,,,,0,30,30,30,,,,,,,,,286.326422417,291.4506515830001,286.326422417,286.326422417,286.326422417,286.326422417,286.78379270799996,287.77275962499994,286.7870376246667,287.77275962499994,288.40833966700006,289.406467,288.4207979996668,,291.4506515830001,292.3002516670001,294.3684477920001,,292.3002516670001,292.3002516670001,297.46128020800006,292.3002516670001,292.3002516670001,292.3002516670001,292.3002516670001,292.71313958300016,293.771154,292.68347983366675,,294.3684477920001,295.43109362500013,294.33918974966673,,292.3002516670001,297.46128020800006,292.3002516670001,297.46128020800006,297.46128020800006,,292.3002516670001,2,1,1.1356796239999767,reldom2_s039,001,2025-03-19_15h53.26.933,What-B-Scan_AC,2022.2.5,None,
24,Second_Order,4.0,audwhat,stimulus/audwhat_stim/string viola_high-pitch_Dtri_loud.wav,stimulus/audwhat_stim/percussion mallet_high-pitch_Dtri_loud.wav,stimulus/audwhat_stim/string cello_low-pitch_Dtri_loud.wav,stimulus/audwhat_stim/string viola_high-pitch_Ftri_loud.wav,stimulus/viswhat_stim/match_blank.png,stimulus/viswhat_stim/match_box.png,stimulus/viswhat_stim/match_yes.png,stimulus/viswhat_stim/match_no.png,2.0,Match,Pitch,Category,2,5.125,0,5.125,0,5.125,0,5.125,0,0.625,0.625,0,0.0,0,0.0,0,0.0,0,0.0,1,0.5,1,2.125,1,0.5,1,2.125,0,,,,,0,31,31,31,,,,,,,,,298.27355254200006,303.3926429580001,298.27355254200006,298.27355254200006,298.27355254200006,298.27355254200006,298.73162612500005,299.71839045799993,298.7444359586666,,300.352834667,301.350518125,300.36493174966677,,303.3926429580001,304.12550145800014,306.178307333,,304.12550145800014,304.12550145800014,309.29830674999994,304.12550145800014,304.12550145800014,304.12550145800014,304.12550145800014,304.57902145799994,305.6290381250001,304.54975487466663,,306.178307333,307.23349420800014,306.14901983366667,,304.12550145800014,309.29830674999994,304.12550145800014,309.29830674999994,309.29830674999994,309.98298241700013,304.12550145800014,1,0,2.0877927079998244,reldom2_s039,001,2025-03-19_15h53.26.933,What-B-Scan_AC,2022.2.5,None,
0,0.0,None,fixation,stimulus/viswhat_stim/blank_white.png,stimulus/viswhat_stim/blank_white.png,stimulus/audwhat_stim/blank_white.png,stimulus/audwhat_stim/blank_white.png,stimulus/viswhat_stim/blank_white.png,stimulus/viswhat_stim/blank_white.png,stimulus/viswhat_stim/blank_white.png,stimulus/viswhat_stim/blank_white.png,0.0,0.0,0.0,0.0,0,0.0,0,0.0,0,0.0,0,0.0,0,0.0,0.0,0,0.0,0,0.0,0,0.0,0,0.0,0,0.0,0,0.0,0,0.0,0,0.0,9,,,,,0,32,32,32,,,,,,,,,310.21433170800015,310.21433170800015,310.21433170800015,310.21433170800015,310.21433170800015,310.21433170800015,310.21433170800015,310.21433170800015,310.11631575033346,310.21433170800015,310.21433170800015,310.21433170800015,310.11631575033346,310.21433170800015,310.21433170800015,310.21433170800015,310.21433170800015,310.21433170800015,310.21433170800015,310.21433170800015,310.21433170800015,310.21433170800015,310.21433170800015,310.21433170800015,310.21433170800015,310.21433170800015,310.21433170800015,310.16631575033347,310.21433170800015,310.21433170800015,310.21433170800015,310.16631575033347,310.21433170800015,310.21433170800015,310.21433170800015,310.21433170800015,310.21433170800015,315.44095879199995,315.44095879199995,319.47132591700006,None,0,,reldom2_s039,001,2025-03-19_15h53.26.933,What-B-Scan_AC,2022.2.5,None,
25,First_Order,5.0,viswhat,stimulus/viswhat_stim/blank_white.png,stimulus/viswhat_stim/blank_white.png,stimulus/viswhat_stim/land_animal-elephant.png,stimulus/viswhat_stim/land_vehicle-firetruck.png,stimulus/viswhat_stim/blank_white.png,stimulus/viswhat_stim/location_box.png,stimulus/viswhat_stim/location_yes.png,stimulus/viswhat_stim/location_no.png,None,Location,None,Location,1,0.0,0,5.125,0,5.125,0,5.125,0,0.0,0.625,0,0.0,0,0.0,1,0.5,1,2.125,0,0.0,0,0.0,0,0.0,0,0.0,0,,,,,0,33,33,33,,,,,,,,,319.47132591700006,319.47132591700006,319.47132591700006,319.47132591700006,319.47132591700006,319.47132591700006,319.47132591700006,319.47132591700006,319.3736850836666,319.47132591700006,319.47132591700006,319.47132591700006,319.3736850836666,319.47132591700006,319.47132591700006,319.47132591700006,321.54075687499994,,319.47132591700006,319.47132591700006,324.67614208300006,319.9455331670001,321.00924558299994,321.54075687499994,322.60892754199995,319.47132591700006,319.47132591700006,319.4236850836666,319.47132591700006,319.47132591700006,319.47132591700006,319.4236850836666,319.47132591700006,319.47132591700006,324.67614208300006,319.47132591700006,324.67614208300006,324.67614208300006,325.507994542,319.47132591700006,1,1,0.9518116659999123,reldom2_s039,001,2025-03-19_15h53.26.933,What-B-Scan_AC,2022.2.5,None,
26,First_Order,5.0,viswhat,stimulus/viswhat_stim/blank_white.png,stimulus/viswhat_stim/blank_white.png,stimulus/viswhat_stim/land_vehicle-tank.png,stimulus/viswhat_stim/land_animal-pig.png,stimulus/viswhat_stim/blank_white.png,stimulus/viswhat_stim/type_box.png,stimulus/viswhat_stim/type_yes.png,stimulus/viswhat_stim/type_no.png,None,Type,None,Location,2,0.0,0,5.125,0,5.125,0,5.125,0,0.0,0.625,0,0.0,0,0.0,1,0.5,1,2.125,0,0.0,0,0.0,0,0.0,0,0.0,0,,,,,0,34,34,34,,,,,,,,,325.507994542,325.507994542,325.507994542,325.507994542,325.507994542,325.507994542,325.507994542,325.507994542,325.4842074586667,325.507994542,325.507994542,325.507994542,325.4842074586667,325.507994542,325.507994542,325.507994542,327.60171579200005,331.66070108300005,325.507994542,325.507994542,330.63795725,325.985723583,326.9902441670001,327.60171579200005,328.6099844580001,325.507994542,325.507994542,325.5008741253334,325.507994542,325.507994542,325.507994542,325.5008741253334,325.507994542,325.507994542,330.63795725,325.507994542,330.63795725,330.7365004170001,331.3720060830001,325.507994542,2,1,2.0244607489999,reldom2_s039,001,2025-03-19_15h53.26.933,What-B-Scan_AC,2022.2.5,None,
27,First_Order,5.0,viswhat,stimulus/viswhat_stim/blank_white.png,stimulus/viswhat_stim/blank_white.png,stimulus/viswhat_stim/land_animal-moose.png,stimulus/viswhat_stim/land_vehicle-vespa.png,stimulus/viswhat_stim/blank_white.png,stimulus/viswhat_stim/location_box.png,stimulus/viswhat_stim/location_yes.png,stimulus/viswhat_stim/location_no.png,None,Location,None,Location,1,0.0,0,5.125,0,5.125,0,5.125,0,0.0,0.625,0,0.0,0,0.0,1,0.5,1,2.125,0,0.0,0,0.0,0,0.0,0,0.0,0,,,,,0,35,35,35,,,,,,,,,331.66070108300005,331.66070108300005,331.66070108300005,331.66070108300005,331.66070108300005,331.66070108300005,331.66070108300005,331.66070108300005,331.53883312533327,331.66070108300005,331.66070108300005,331.66070108300005,331.53883312533327,331.66070108300005,331.66070108300005,331.66070108300005,333.733139208,,331.66070108300005,331.66070108300005,336.871965583,332.12934120800014,333.2005918330001,333.733139208,334.80602920800015,331.66070108300005,331.66070108300005,331.60549979199993,331.66070108300005,331.66070108300005,331.66070108300005,331.60549979199993,331.66070108300005,331.66070108300005,336.871965583,331.66070108300005,336.871965583,336.871965583,337.7540717500001,331.66070108300005,1,1,0.7644298329998946,reldom2_s039,001,2025-03-19_15h53.26.933,What-B-Scan_AC,2022.2.5,None,
28,First_Order,5.0,viswhat,stimulus/viswhat_stim/blank_white.png,stimulus/viswhat_stim/blank_white.png,stimulus/viswhat_stim/land_animal-giraffe.png,stimulus/viswhat_stim/water_animal-squid.png,stimulus/viswhat_stim/blank_white.png,stimulus/viswhat_stim/location_box.png,stimulus/viswhat_stim/location_yes.png,stimulus/viswhat_stim/location_no.png,None,Location,None,Type,2,0.0,0,5.125,0,5.125,0,5.125,0,0.0,0.625,0,0.0,0,0.0,1,0.5,1,2.125,0,0.0,0,0.0,0,0.0,0,0.0,0,,,,,0,36,36,36,,,,,,,,,337.7540717500001,337.7540717500001,337.7540717500001,337.7540717500001,337.7540717500001,337.7540717500001,337.7540717500001,337.7540717500001,337.6657240833335,337.7540717500001,337.7540717500001,337.7540717500001,337.6657240833335,337.7540717500001,337.7540717500001,337.7540717500001,339.8530235420001,343.90074574999994,337.7540717500001,337.7540717500001,342.9529210830001,338.19606316700015,339.24715441700005,339.8530235420001,340.90690674999996,337.7540717500001,337.7540717500001,337.6990574166668,337.7540717500001,337.7540717500001,337.7540717500001,337.6990574166668,337.7540717500001,337.7540717500001,342.9529210830001,337.7540717500001,342.9529210830001,342.9529210830001,343.646901542,337.7540717500001,2,1,0.9415281250001044,reldom2_s039,001,2025-03-19_15h53.26.933,What-B-Scan_AC,2022.2.5,None,
0,0.0,None,fixation,stimulus/viswhat_stim/blank_white.png,stimulus/viswhat_stim/blank_white.png,stimulus/audwhat_stim/blank_white.png,stimulus/audwhat_stim/blank_white.png,stimulus/viswhat_stim/blank_white.png,stimulus/viswhat_stim/blank_white.png,stimulus/viswhat_stim/blank_white.png,stimulus/viswhat_stim/blank_white.png,0.0,0.0,0.0,0.0,0,0.0,0,0.0,0,0.0,0,0.0,0,0.0,0.0,0,0.0,0,0.0,0,0.0,0,0.0,0,0.0,0,0.0,0,0.0,0,0.0,9,,,,,0,37,37,37,,,,,,,,,343.90074574999994,343.90074574999994,343.90074574999994,343.90074574999994,343.90074574999994,343.90074574999994,343.90074574999994,343.90074574999994,343.796901542,343.90074574999994,343.90074574999994,343.90074574999994,343.796901542,343.90074574999994,343.90074574999994,343.90074574999994,343.90074574999994,343.90074574999994,343.90074574999994,343.90074574999994,343.90074574999994,343.90074574999994,343.90074574999994,343.90074574999994,343.90074574999994,343.90074574999994,343.90074574999994,343.846901542,343.90074574999994,343.90074574999994,343.90074574999994,343.846901542,343.90074574999994,343.90074574999994,343.90074574999994,343.90074574999994,343.90074574999994,349.0866275000001,349.0866275000001,353.060097458,None,0,,reldom2_s039,001,2025-03-19_15h53.26.933,What-B-Scan_AC,2022.2.5,None,
29,Second_Order,5.0,viswhat,stimulus/viswhat_stim/water_vehicle-pirateship.png,stimulus/viswhat_stim/land_vehicle-schoolbus.png,stimulus/viswhat_stim/water_animal-dolphin.png,stimulus/viswhat_stim/land_animal-cat.png,stimulus/viswhat_stim/match_blank.png,stimulus/viswhat_stim/match_box.png,stimulus/viswhat_stim/match_yes.png,stimulus/viswhat_stim/match_no.png,1.0,Match,Type,Type,1,5.125,0,5.125,0,5.125,0,5.125,0,0.75,0.75,1,0.5,1,2.125,1,0.5,1,2.125,0,0.0,0,0.0,0,0.0,0,0.0,0,,,,,0,38,38,38,,,,,,,,,353.060097458,358.181873083,353.52464354200015,354.5233202080001,355.1586533750001,356.14709608299995,353.060097458,353.060097458,353.0661637083334,353.060097458,353.060097458,353.060097458,353.0661637083334,353.060097458,358.181873083,359.006213958,361.07537108299994,365.03788970799997,359.006213958,359.006213958,364.16671383300013,359.45090429200013,360.4697900000001,361.07537108299994,362.09775816699994,359.006213958,359.006213958,358.98343479166675,359.006213958,359.006213958,359.006213958,358.98343479166675,359.006213958,359.006213958,364.16671383300013,359.006213958,364.16671383300013,364.19304554199994,,359.006213958,1,1,1.727463082999975,reldom2_s039,001,2025-03-19_15h53.26.933,What-B-Scan_AC,2022.2.5,None,
30,Second_Order,5.0,viswhat,stimulus/viswhat_stim/water_animal-orka.png,stimulus/viswhat_stim/land_animal-bunny.png,stimulus/viswhat_stim/land_vehicle-motorcycle.png,stimulus/viswhat_stim/water_vehicle-motorboatraft.png,stimulus/viswhat_stim/match_blank.png,stimulus/viswhat_stim/match_box.png,stimulus/viswhat_stim/match_yes.png,stimulus/viswhat_stim/match_no.png,1.0,Match,Type,Type,1,5.125,0,5.125,0,5.125,0,5.125,0,0.625,0.625,1,0.5,1,2.125,1,0.5,1,2.125,0,0.0,0,0.0,0,0.0,0,0.0,0,,,,,0,39,39,39,,,,,,,,,365.03788970799997,370.15959112500013,365.45355258300015,366.45117095800015,367.07420216700007,368.07143229200005,365.03788970799997,365.03788970799997,365.0525684580001,365.03788970799997,365.03788970799997,365.03788970799997,365.0525684580001,365.03788970799997,370.15959112500013,370.8619611250001,372.93136774999994,376.9713374580001,370.8619611250001,370.8619611250001,376.0186160420001,371.30467220800006,372.33798183299996,372.93136774999994,373.971735417,370.8619611250001,370.8619611250001,370.827873583,370.8619611250001,370.8619611250001,370.8619611250001,370.827873583,370.8619611250001,370.8619611250001,376.0186160420001,370.8619611250001,376.0186160420001,376.04298900000003,376.69192120799994,370.8619611250001,1,1,1.305901208000023,reldom2_s039,001,2025-03-19_15h53.26.933,What-B-Scan_AC,2022.2.5,None,
0,0.0,None,fixation,stimulus/viswhat_stim/blank_white.png,stimulus/viswhat_stim/blank_white.png,stimulus/audwhat_stim/blank_white.png,stimulus/audwhat_stim/blank_white.png,stimulus/viswhat_stim/blank_white.png,stimulus/viswhat_stim/blank_white.png,stimulus/viswhat_stim/blank_white.png,stimulus/viswhat_stim/blank_white.png,0.0,0.0,0.0,0.0,0,0.0,0,0.0,0,0.0,0,0.0,0,0.0,0.0,0,0.0,0,0.0,0,0.0,0,0.0,0,0.0,0,0.0,0,0.0,0,0.0,9,,,,,0,40,40,40,,,,,,,,,376.9713374580001,376.9713374580001,376.9713374580001,376.9713374580001,376.9713374580001,376.9713374580001,376.9713374580001,376.9713374580001,376.88104058366673,376.9713374580001,376.9713374580001,376.9713374580001,376.88104058366673,376.9713374580001,376.9713374580001,376.9713374580001,376.9713374580001,376.9713374580001,376.9713374580001,376.9713374580001,376.9713374580001,376.9713374580001,376.9713374580001,376.9713374580001,376.9713374580001,376.9713374580001,376.9713374580001,376.9310405836667,376.9713374580001,376.9713374580001,376.9713374580001,376.9310405836667,376.9713374580001,376.9713374580001,376.9713374580001,376.9713374580001,376.9713374580001,382.16770625000004,382.16770625000004,386.25779416700016,None,0,,reldom2_s039,001,2025-03-19_15h53.26.933,What-B-Scan_AC,2022.2.5,None,
31,First_Order,6.0,viswhat,stimulus/viswhat_stim/blank_white.png,stimulus/viswhat_stim/blank_white.png,stimulus/viswhat_stim/water_vehicle-ship.png,stimulus/viswhat_stim/land_vehicle-schoolbus.png,stimulus/viswhat_stim/blank_white.png,stimulus/viswhat_stim/location_box.png,stimulus/viswhat_stim/location_yes.png,stimulus/viswhat_stim/location_no.png,None,Location,None,Type,2,0.0,0,5.125,0,5.125,0,5.125,0,0.0,0.625,0,0.0,0,0.0,1,0.5,1,2.125,0,0.0,0,0.0,0,0.0,0,0.0,0,,,,,0,41,41,41,,,,,,,,,386.25779416700016,386.25779416700016,386.25779416700016,386.25779416700016,386.25779416700016,386.25779416700016,386.25779416700016,386.25779416700016,386.1571616246666,386.25779416700016,386.25779416700016,386.25779416700016,386.1571616246666,386.25779416700016,386.25779416700016,386.25779416700016,388.3589152080001,392.34862316700014,386.25779416700016,386.25779416700016,391.4363498330001,386.7374177500001,387.820047125,388.3589152080001,389.44139395799994,386.25779416700016,386.25779416700016,386.20716162466664,386.25779416700016,386.25779416700016,386.25779416700016,386.20716162466664,386.25779416700016,386.25779416700016,391.4363498330001,386.25779416700016,391.4363498330001,391.4363498330001,392.14234962499995,386.25779416700016,2,1,1.1502456659998188,reldom2_s039,001,2025-03-19_15h53.26.933,What-B-Scan_AC,2022.2.5,None,
32,First_Order,6.0,viswhat,stimulus/viswhat_stim/blank_white.png,stimulus/viswhat_stim/blank_white.png,stimulus/viswhat_stim/land_vehicle-bus.png,stimulus/viswhat_stim/water_vehicle-jetski.png,stimulus/viswhat_stim/blank_white.png,stimulus/viswhat_stim/type_box.png,stimulus/viswhat_stim/type_yes.png,stimulus/viswhat_stim/type_no.png,None,Type,None,Type,1,0.0,0,5.125,0,5.125,0,5.125,0,0.0,0.625,0,0.0,0,0.0,1,0.5,1,2.125,0,0.0,0,0.0,0,0.0,0,0.0,0,,,,,0,42,42,42,,,,,,,,,392.34862316700014,392.34862316700014,392.34862316700014,392.34862316700014,392.34862316700014,392.34862316700014,392.34862316700014,392.34862316700014,392.3090162916666,392.34862316700014,392.34862316700014,392.34862316700014,392.3090162916666,392.34862316700014,392.34862316700014,392.34862316700014,394.44083075000003,398.4538399580001,392.34862316700014,392.34862316700014,397.5026115830001,392.81440558300005,393.83285354200007,394.44083075000003,395.4631630000001,392.34862316700014,392.34862316700014,392.3256829583333,392.34862316700014,392.34862316700014,392.34862316700014,392.3256829583333,392.34862316700014,392.34862316700014,397.5026115830001,392.34862316700014,397.5026115830001,397.5732740420001,398.20613608300005,392.34862316700014,1,1,1.8062915830000748,reldom2_s039,001,2025-03-19_15h53.26.933,What-B-Scan_AC,2022.2.5,None,
33,First_Order,6.0,viswhat,stimulus/viswhat_stim/blank_white.png,stimulus/viswhat_stim/blank_white.png,stimulus/viswhat_stim/water_animal-seahorse.png,stimulus/viswhat_stim/water_vehicle-cabincruiser.png,stimulus/viswhat_stim/blank_white.png,stimulus/viswhat_stim/type_box.png,stimulus/viswhat_stim/type_yes.png,stimulus/viswhat_stim/type_no.png,None,Type,None,Location,2,0.0,0,5.125,0,5.125,0,5.125,0,0.0,0.625,0,0.0,0,0.0,1,0.5,1,2.125,0,0.0,0,0.0,0,0.0,0,0.0,0,,,,,0,43,43,43,,,,,,,,,398.4538399580001,398.4538399580001,398.4538399580001,398.4538399580001,398.4538399580001,398.4538399580001,398.4538399580001,398.4538399580001,398.399264125,398.4538399580001,398.4538399580001,398.4538399580001,398.399264125,398.4538399580001,398.4538399580001,398.4538399580001,400.56253712500006,404.56981520800014,398.4538399580001,398.4538399580001,403.60723370799997,398.938503375,399.9755015420001,400.56253712500006,401.604329,398.4538399580001,398.4538399580001,398.43259745833336,398.4538399580001,398.4538399580001,398.4538399580001,398.43259745833336,398.4538399580001,398.4538399580001,403.60723370799997,398.4538399580001,403.60723370799997,403.66475570800003,404.32900933299993,398.4538399580001,2,1,1.3406419159998677,reldom2_s039,001,2025-03-19_15h53.26.933,What-B-Scan_AC,2022.2.5,None,
34,First_Order,6.0,viswhat,stimulus/viswhat_stim/blank_white.png,stimulus/viswhat_stim/blank_white.png,stimulus/viswhat_stim/land_animal-tiger.png,stimulus/viswhat_stim/water_animal-octopus.png,stimulus/viswhat_stim/blank_white.png,stimulus/viswhat_stim/type_box.png,stimulus/viswhat_stim/type_yes.png,stimulus/viswhat_stim/type_no.png,None,Type,None,Type,1,0.0,0,5.125,0,5.125,0,5.125,0,0.0,0.625,0,0.0,0,0.0,1,0.5,1,2.125,0,0.0,0,0.0,0,0.0,0,0.0,0,,,,,0,44,44,44,,,,,,,,,404.56981520800014,404.56981520800014,404.56981520800014,404.56981520800014,404.56981520800014,404.56981520800014,404.56981520800014,404.56981520800014,404.5032912086666,404.56981520800014,404.56981520800014,404.56981520800014,404.5032912086666,404.56981520800014,404.56981520800014,404.56981520800014,406.6753584170001,410.707074292,404.56981520800014,404.56981520800014,409.73068645800004,405.04373824999993,406.074024708,406.6753584170001,407.71222025,404.56981520800014,404.56981520800014,404.5366245419999,404.56981520800014,404.56981520800014,404.56981520800014,404.5366245419999,404.56981520800014,404.56981520800014,409.73068645800004,404.56981520800014,409.73068645800004,409.7684629580001,410.4413332920001,404.56981520800014,1,1,1.075605416999906,reldom2_s039,001,2025-03-19_15h53.26.933,What-B-Scan_AC,2022.2.5,None,
0,0.0,None,fixation,stimulus/viswhat_stim/blank_white.png,stimulus/viswhat_stim/blank_white.png,stimulus/audwhat_stim/blank_white.png,stimulus/audwhat_stim/blank_white.png,stimulus/viswhat_stim/blank_white.png,stimulus/viswhat_stim/blank_white.png,stimulus/viswhat_stim/blank_white.png,stimulus/viswhat_stim/blank_white.png,0.0,0.0,0.0,0.0,0,0.0,0,0.0,0,0.0,0,0.0,0,0.0,0.0,0,0.0,0,0.0,0,0.0,0,0.0,0,0.0,0,0.0,0,0.0,0,0.0,8,,,,,0,45,45,45,,,,,,,,,410.707074292,410.707074292,410.707074292,410.707074292,410.707074292,410.707074292,410.707074292,410.707074292,410.6119303753334,410.707074292,410.707074292,410.707074292,410.6119303753334,410.707074292,410.707074292,410.707074292,410.707074292,410.707074292,410.707074292,410.707074292,410.707074292,410.707074292,410.707074292,410.707074292,410.707074292,410.707074292,410.707074292,410.6619303753334,410.707074292,410.707074292,410.707074292,410.6619303753334,410.707074292,410.707074292,410.707074292,410.707074292,410.707074292,415.888698042,415.888698042,418.84413866700015,None,0,,reldom2_s039,001,2025-03-19_15h53.26.933,What-B-Scan_AC,2022.2.5,None,
35,Second_Order,6.0,viswhat,stimulus/viswhat_stim/land_animal-wolf.png,stimulus/viswhat_stim/land_vehicle-schoolbus.png,stimulus/viswhat_stim/water_animal-shark.png,stimulus/viswhat_stim/water_vehicle-ship.png,stimulus/viswhat_stim/match_blank.png,stimulus/viswhat_stim/match_box.png,stimulus/viswhat_stim/match_yes.png,stimulus/viswhat_stim/match_no.png,1.0,Match,Location,Location,1,5.125,0,5.125,0,5.125,0,5.125,0,0.75,0.75,1,0.5,1,2.125,1,0.5,1,2.125,0,0.0,0,0.0,0,0.0,0,0.0,0,,,,,0,46,46,46,,,,,,,,,418.84413866700015,423.96734137499993,419.30999858300015,420.30852312499997,420.94781758299996,421.94584558299994,418.84413866700015,418.84413866700015,418.85101416633336,418.84413866700015,418.84413866700015,418.84413866700015,418.85101416633336,418.84413866700015,423.96734137499993,424.86916129199994,426.8861320830001,,424.86916129199994,424.86916129199994,430.08674695800005,425.285712333,426.39789999999994,426.8861320830001,428.00176316700004,424.86916129199994,424.86916129199994,424.801948417,424.86916129199994,424.86916129199994,424.86916129199994,424.801948417,424.86916129199994,424.86916129199994,430.08674695800005,424.86916129199994,430.08674695800005,430.021497125,,424.86916129199994,2,0,3.151052875000005,reldom2_s039,001,2025-03-19_15h53.26.933,What-B-Scan_AC,2022.2.5,None,
36,Second_Order,6.0,viswhat,stimulus/viswhat_stim/land_vehicle-oldcar.png,stimulus/viswhat_stim/land_animal-cat.png,stimulus/viswhat_stim/water_vehicle-cargoboat.png,stimulus/viswhat_stim/water_animal-orka.png,stimulus/viswhat_stim/match_blank.png,stimulus/viswhat_stim/match_box.png,stimulus/viswhat_stim/match_yes.png,stimulus/viswhat_stim/match_no.png,1.0,Match,Location,Location,1,5.125,0,5.125,0,5.125,0,5.125,0,0.625,0.625,1,0.5,1,2.125,1,0.5,1,2.125,0,0.0,0,0.0,0,0.0,0,0.0,0,,,,,0,47,47,47,,,,,,,,,430.83332129199994,435.94964204200005,431.28784120800015,432.28661050000005,432.908439458,433.90705950000006,430.83332129199994,430.83332129199994,430.83131720866675,430.83332129199994,430.83332129199994,430.83332129199994,430.83131720866675,430.83332129199994,435.94964204200005,436.724712833,438.7722060420001,442.8326387500001,436.724712833,436.724712833,441.95093075,437.12339729199994,438.177949333,438.7722060420001,439.8366457500001,436.724712833,436.724712833,436.66304129199995,436.724712833,436.724712833,436.724712833,436.66304129199995,436.724712833,436.724712833,441.95093075,436.724712833,441.95093075,441.88999991700007,442.8326387500001,436.724712833,1,1,0.6769063750000441,reldom2_s039,001,2025-03-19_15h53.26.933,What-B-Scan_AC,2022.2.5,None,
0,0.0,None,fixation,stimulus/viswhat_stim/blank_white.png,stimulus/viswhat_stim/blank_white.png,stimulus/audwhat_stim/blank_white.png,stimulus/audwhat_stim/blank_white.png,stimulus/viswhat_stim/blank_white.png,stimulus/viswhat_stim/blank_white.png,stimulus/viswhat_stim/blank_white.png,stimulus/viswhat_stim/blank_white.png,0.0,0.0,0.0,0.0,0,0.0,0,0.0,0,0.0,0,0.0,0,0.0,0.0,0,0.0,0,0.0,0,0.0,0,0.0,0,0.0,0,0.0,0,0.0,0,0.0,10,,,,,0,48,48,48,,,,,,,,,442.8326387500001,442.8326387500001,442.8326387500001,442.8326387500001,442.8326387500001,442.8326387500001,442.8326387500001,442.8326387500001,442.73734679133344,442.8326387500001,442.8326387500001,442.8326387500001,442.73734679133344,442.8326387500001,442.8326387500001,442.8326387500001,442.8326387500001,442.8326387500001,442.8326387500001,442.8326387500001,442.8326387500001,442.8326387500001,442.8326387500001,442.8326387500001,442.8326387500001,442.8326387500001,442.8326387500001,442.7873467913334,442.8326387500001,442.8326387500001,442.8326387500001,442.7873467913334,442.8326387500001,442.8326387500001,442.8326387500001,442.8326387500001,442.8326387500001,448.0401246250001,448.0401246250001,453.06948445800003,None,0,,reldom2_s039,001,2025-03-19_15h53.26.933,What-B-Scan_AC,2022.2.5,None,
37,First_Order,7.0,audwhat,stimulus/audwhat_stim/dummy.wav,stimulus/audwhat_stim/dummy.wav,stimulus/audwhat_stim/string viola_low-pitch_Ftri_loud.wav,stimulus/audwhat_stim/string viola_high-pitch_Dtri_loud.wav,stimulus/audwhat_stim/blank_white.png,stimulus/audwhat_stim/category_box.png,stimulus/audwhat_stim/category_yes.png,stimulus/audwhat_stim/category_no.png,None,Category,None,Category,1,0.0,0,5.125,0,5.125,0,5.125,0,0.0,0.625,0,0.0,0,0.0,0,0.0,0,0.0,0,0.0,0,0.0,1,0.5,1,2.125,0,,,,,0,49,49,49,,,,,,,,,453.06948445800003,453.06948445800003,453.06948445800003,453.06948445800003,453.06948445800003,453.06948445800003,453.06948445800003,453.06948445800003,452.9970777496666,453.06948445800003,453.06948445800003,453.06948445800003,452.9970777496666,453.06948445800003,453.06948445800003,453.06948445800003,455.1621170420001,,453.06948445800003,453.06948445800003,458.22977404200014,453.06948445800003,453.06948445800003,453.06948445800003,453.06948445800003,453.53485120799996,454.60334454200006,453.5048187916666,,455.1621170420001,456.2315094580001,455.1319808336666,,453.06948445800003,458.22977404200014,453.06948445800003,458.22977404200014,458.27101070799995,458.925352792,453.06948445800003,1,1,1.9590980830000717,reldom2_s039,001,2025-03-19_15h53.26.933,What-B-Scan_AC,2022.2.5,None,
38,First_Order,7.0,audwhat,stimulus/audwhat_stim/dummy.wav,stimulus/audwhat_stim/dummy.wav,stimulus/audwhat_stim/percussion mallet_high-pitch_D_loud.wav,stimulus/audwhat_stim/string viola_high-pitch_D_loud.wav,stimulus/audwhat_stim/blank_white.png,stimulus/audwhat_stim/pitch_box.png,stimulus/audwhat_stim/pitch_yes.png,stimulus/audwhat_stim/pitch_no.png,None,Pitch,None,Pitch,1,0.0,0,5.125,0,5.125,0,5.125,0,0.0,0.625,0,0.0,0,0.0,0,0.0,0,0.0,0,0.0,0,0.0,1,0.5,1,2.125,0,,,,,0,50,50,50,,,,,,,,,459.18026933300007,459.18026933300007,459.18026933300007,459.18026933300007,459.18026933300007,459.18026933300007,459.18026933300007,459.18026933300007,459.09980362533327,459.18026933300007,459.18026933300007,459.18026933300007,459.09980362533327,459.18026933300007,459.18026933300007,459.18026933300007,461.26521641700015,,459.18026933300007,459.18026933300007,464.3700906670001,459.18026933300007,459.18026933300007,459.18026933300007,459.18026933300007,459.64391887500005,460.70817345800015,459.61384066666665,,461.26521641700015,462.3315184580001,461.23561279166665,,459.18026933300007,464.3700906670001,459.18026933300007,464.3700906670001,464.3700906670001,465.0244909170001,459.18026933300007,1,1,1.1375381249999919,reldom2_s039,001,2025-03-19_15h53.26.933,What-B-Scan_AC,2022.2.5,None,
39,First_Order,7.0,audwhat,stimulus/audwhat_stim/dummy.wav,stimulus/audwhat_stim/dummy.wav,stimulus/audwhat_stim/string viola_low-pitch_Dtri_loud.wav,stimulus/audwhat_stim/percussion mallet_low-pitch_Dtri_loud.wav,stimulus/audwhat_stim/blank_white.png,stimulus/audwhat_stim/category_box.png,stimulus/audwhat_stim/category_yes.png,stimulus/audwhat_stim/category_no.png,None,Category,None,Pitch,2,0.0,0,5.125,0,5.125,0,5.125,0,0.0,0.625,0,0.0,0,0.0,0,0.0,0,0.0,0,0.0,0,0.0,1,0.5,1,2.125,0,,,,,0,51,51,51,,,,,,,,,465.279659542,465.279659542,465.279659542,465.279659542,465.279659542,465.279659542,465.279659542,465.279659542,465.1986447503333,465.279659542,465.279659542,465.279659542,465.1986447503333,465.279659542,465.279659542,465.279659542,467.37280216700015,471.39714308299995,465.279659542,465.279659542,470.44422458300005,465.279659542,465.279659542,465.279659542,465.279659542,465.74584708299994,466.8162936670001,465.7158093336666,,467.37280216700015,468.44712941700004,467.34282874966675,,465.279659542,470.44422458300005,465.279659542,470.44422458300005,470.48568479200003,471.1427985,465.279659542,2,1,1.0076033329999063,reldom2_s039,001,2025-03-19_15h53.26.933,What-B-Scan_AC,2022.2.5,None,
40,First_Order,7.0,audwhat,stimulus/audwhat_stim/dummy.wav,stimulus/audwhat_stim/dummy.wav,stimulus/audwhat_stim/string viola_high-pitch_F_loud.wav,stimulus/audwhat_stim/string viola_low-pitch_Ftri_loud.wav,stimulus/audwhat_stim/blank_white.png,stimulus/audwhat_stim/pitch_box.png,stimulus/audwhat_stim/pitch_yes.png,stimulus/audwhat_stim/pitch_no.png,None,Pitch,None,Category,2,0.0,0,5.125,0,5.125,0,5.125,0,0.0,0.625,0,0.0,0,0.0,0,0.0,0,0.0,0,0.0,0,0.0,1,0.5,1,2.125,0,,,,,0,52,52,52,,,,,,,,,471.39714308299995,471.39714308299995,471.39714308299995,471.39714308299995,471.39714308299995,471.39714308299995,471.39714308299995,471.39714308299995,471.3169253753334,471.39714308299995,471.39714308299995,471.39714308299995,471.3169253753334,471.39714308299995,471.39714308299995,471.39714308299995,473.4833328750001,,471.39714308299995,471.39714308299995,476.54595141699997,471.39714308299995,471.39714308299995,471.39714308299995,471.39714308299995,471.85982787500006,472.9266129580001,471.8303254166667,,473.4833328750001,474.551476375,473.4532792086668,,471.39714308299995,476.54595141699997,471.39714308299995,476.54595141699997,476.5873355000001,477.2420895,471.39714308299995,2,1,1.1323021250000238,reldom2_s039,001,2025-03-19_15h53.26.933,What-B-Scan_AC,2022.2.5,None,
0,0.0,None,fixation,stimulus/viswhat_stim/blank_white.png,stimulus/viswhat_stim/blank_white.png,stimulus/audwhat_stim/blank_white.png,stimulus/audwhat_stim/blank_white.png,stimulus/viswhat_stim/blank_white.png,stimulus/viswhat_stim/blank_white.png,stimulus/viswhat_stim/blank_white.png,stimulus/viswhat_stim/blank_white.png,0.0,0.0,0.0,0.0,0,0.0,0,0.0,0,0.0,0,0.0,0,0.0,0.0,0,0.0,0,0.0,0,0.0,0,0.0,0,0.0,0,0.0,0,0.0,0,0.0,9,,,,,0,53,53,53,,,,,,,,,477.51662162499997,477.51662162499997,477.51662162499997,477.51662162499997,477.51662162499997,477.51662162499997,477.51662162499997,477.51662162499997,477.41638070833335,477.51662162499997,477.51662162499997,477.51662162499997,477.41638070833335,477.51662162499997,477.51662162499997,477.51662162499997,477.51662162499997,477.51662162499997,477.51662162499997,477.51662162499997,477.51662162499997,477.51662162499997,477.51662162499997,477.51662162499997,477.51662162499997,477.51662162499997,477.51662162499997,477.46638070833336,477.51662162499997,477.51662162499997,477.51662162499997,477.46638070833336,477.51662162499997,477.51662162499997,477.51662162499997,477.51662162499997,477.51662162499997,482.699903083,482.699903083,486.692182667,None,0,,reldom2_s039,001,2025-03-19_15h53.26.933,What-B-Scan_AC,2022.2.5,None,
41,Second_Order,7.0,audwhat,stimulus/audwhat_stim/percussion mallet_low-pitch_F_loud.wav,stimulus/audwhat_stim/percussion mallet_high-pitch_D_loud.wav,stimulus/audwhat_stim/string cello_low-pitch_Dtri_loud.wav,stimulus/audwhat_stim/string viola_high-pitch_F_loud.wav,stimulus/viswhat_stim/match_blank.png,stimulus/viswhat_stim/match_box.png,stimulus/viswhat_stim/match_yes.png,stimulus/viswhat_stim/match_no.png,1.0,Match,Category,Category,1,5.125,0,5.125,0,5.125,0,5.125,0,0.75,0.75,0,0.0,0,0.0,0,0.0,0,0.0,1,0.5,1,2.125,1,0.5,1,2.125,0,,,,,0,54,54,54,,,,,,,,,486.692182667,491.8125700830001,486.692182667,486.692182667,486.692182667,486.692182667,487.15021608300003,488.1487709170001,487.1630273336666,,488.77104229199995,489.7696812920001,488.78350929166663,,491.8125700830001,492.66294329200014,494.741318417,498.65151975000003,492.66294329200014,492.66294329200014,497.84286895800005,492.66294329200014,492.66294329200014,492.66294329200014,492.66294329200014,493.079357458,494.1406131670001,493.04983445866674,,494.741318417,495.806585625,494.7115266246667,,492.66294329200014,497.84286895800005,492.66294329200014,497.84286895800005,497.84286895800005,,492.66294329200014,1,1,0.9842251659999874,reldom2_s039,001,2025-03-19_15h53.26.933,What-B-Scan_AC,2022.2.5,None,
42,Second_Order,7.0,audwhat,stimulus/audwhat_stim/percussion mallet_high-pitch_Ftri_loud.wav,stimulus/audwhat_stim/percussion mallet_low-pitch_F_loud.wav,stimulus/audwhat_stim/percussion mallet_low-pitch_Dtri_loud.wav,stimulus/audwhat_stim/string viola_low-pitch_Dtri_loud.wav,stimulus/viswhat_stim/match_blank.png,stimulus/viswhat_stim/match_box.png,stimulus/viswhat_stim/match_yes.png,stimulus/viswhat_stim/match_no.png,2.0,Match,Category,Pitch,2,5.125,0,5.125,0,5.125,0,5.125,0,0.625,0.625,0,0.0,0,0.0,0,0.0,0,0.0,1,0.5,1,2.125,1,0.5,1,2.125,0,,,,,0,55,55,55,,,,,,,,,498.65151975000003,503.772023625,498.65151975000003,498.65151975000003,498.65151975000003,498.65151975000003,499.111430167,500.10942520799995,499.1242049166667,500.1127307500001,500.7321628750001,501.729797125,500.7446192496666,,503.772023625,504.50190658299994,506.56394575000013,510.6138571250001,504.50190658299994,504.50190658299994,509.65274345800003,504.50190658299994,504.50190658299994,504.50190658299994,504.50190658299994,504.96017175,506.014190375,504.9311732086667,,506.56394575000013,507.62527320799995,506.53429374966663,,504.50190658299994,509.65274345800003,504.50190658299994,509.65274345800003,509.69379812500006,510.3819826670001,504.50190658299994,2,1,1.0288056240001424,reldom2_s039,001,2025-03-19_15h53.26.933,What-B-Scan_AC,2022.2.5,None,
0,0.0,None,fixation,stimulus/viswhat_stim/blank_white.png,stimulus/viswhat_stim/blank_white.png,stimulus/audwhat_stim/blank_white.png,stimulus/audwhat_stim/blank_white.png,stimulus/viswhat_stim/blank_white.png,stimulus/viswhat_stim/blank_white.png,stimulus/viswhat_stim/blank_white.png,stimulus/viswhat_stim/blank_white.png,0.0,0.0,0.0,0.0,0,0.0,0,0.0,0,0.0,0,0.0,0,0.0,0.0,0,0.0,0,0.0,0,0.0,0,0.0,0,0.0,0,0.0,0,0.0,0,0.0,9,,,,,0,56,56,56,,,,,,,,,510.6138571250001,510.6138571250001,510.6138571250001,510.6138571250001,510.6138571250001,510.6138571250001,510.6138571250001,510.6138571250001,510.5153160003334,510.6138571250001,510.6138571250001,510.6138571250001,510.5153160003334,510.6138571250001,510.6138571250001,510.6138571250001,510.6138571250001,510.6138571250001,510.6138571250001,510.6138571250001,510.6138571250001,510.6138571250001,510.6138571250001,510.6138571250001,510.6138571250001,510.6138571250001,510.6138571250001,510.56531600033344,510.6138571250001,510.6138571250001,510.6138571250001,510.56531600033344,510.6138571250001,510.6138571250001,510.6138571250001,510.6138571250001,510.6138571250001,515.820534708,515.820534708,519.879916542,None,0,,reldom2_s039,001,2025-03-19_15h53.26.933,What-B-Scan_AC,2022.2.5,None,
43,First_Order,8.0,audwhat,stimulus/audwhat_stim/dummy.wav,stimulus/audwhat_stim/dummy.wav,stimulus/audwhat_stim/string cello_high-pitch_D_loud.wav,stimulus/audwhat_stim/string cello_low-pitch_F_loud.wav,stimulus/audwhat_stim/blank_white.png,stimulus/audwhat_stim/pitch_box.png,stimulus/audwhat_stim/pitch_yes.png,stimulus/audwhat_stim/pitch_no.png,None,Pitch,None,Category,2,0.0,0,5.125,0,5.125,0,5.125,0,0.0,0.625,0,0.0,0,0.0,0,0.0,0,0.0,0,0.0,0,0.0,1,0.5,1,2.125,0,,,,,0,57,57,57,,,,,,,,,519.879916542,519.879916542,519.879916542,519.879916542,519.879916542,519.879916542,519.879916542,519.879916542,519.8071003336667,519.879916542,519.879916542,519.879916542,519.8071003336667,519.879916542,519.879916542,519.879916542,521.9617780420001,,519.879916542,519.879916542,525.0612174170001,519.879916542,519.879916542,519.879916542,519.879916542,520.340351542,521.406501833,520.3105422496667,,521.9617780420001,523.0295375000001,521.9321593746668,,519.879916542,525.0612174170001,519.879916542,525.0612174170001,525.102277833,525.756023292,519.879916542,2,1,3.143106665999767,reldom2_s039,001,2025-03-19_15h53.26.933,What-B-Scan_AC,2022.2.5,None,
44,First_Order,8.0,audwhat,stimulus/audwhat_stim/dummy.wav,stimulus/audwhat_stim/dummy.wav,stimulus/audwhat_stim/percussion mallet_low-pitch_F_loud.wav,stimulus/audwhat_stim/string cello_low-pitch_F_loud.wav,stimulus/audwhat_stim/blank_white.png,stimulus/audwhat_stim/pitch_box.png,stimulus/audwhat_stim/pitch_yes.png,stimulus/audwhat_stim/pitch_no.png,None,Pitch,None,Pitch,1,0.0,0,5.125,0,5.125,0,5.125,0,0.0,0.625,0,0.0,0,0.0,0,0.0,0,0.0,0,0.0,0,0.0,1,0.5,1,2.125,0,,,,,0,58,58,58,,,,,,,,,525.968378583,525.968378583,525.968378583,525.968378583,525.968378583,525.968378583,525.968378583,525.968378583,525.8893566253333,525.968378583,525.968378583,525.968378583,525.8893566253333,525.968378583,525.968378583,525.968378583,528.0527348749999,,525.968378583,525.968378583,531.160027375,525.968378583,525.968378583,525.968378583,525.968378583,526.4314549170001,527.4972042080001,526.4015813336666,,528.0527348749999,529.1211667080001,528.0228388336666,,525.968378583,531.160027375,525.968378583,531.160027375,531.160027375,531.8141141670001,525.968378583,1,1,1.7388541239999995,reldom2_s039,001,2025-03-19_15h53.26.933,What-B-Scan_AC,2022.2.5,None,
45,First_Order,8.0,audwhat,stimulus/audwhat_stim/dummy.wav,stimulus/audwhat_stim/dummy.wav,stimulus/audwhat_stim/string viola_low-pitch_Dtri_loud.wav,stimulus/audwhat_stim/string cello_high-pitch_Ftri_loud.wav,stimulus/audwhat_stim/blank_white.png,stimulus/audwhat_stim/category_box.png,stimulus/audwhat_stim/category_yes.png,stimulus/audwhat_stim/category_no.png,None,Category,None,Category,1,0.0,0,5.125,0,5.125,0,5.125,0,0.0,0.625,0,0.0,0,0.0,0,0.0,0,0.0,0,0.0,0,0.0,1,0.5,1,2.125,0,,,,,0,59,59,59,,,,,,,,,532.067766458,532.067766458,532.067766458,532.067766458,532.067766458,532.067766458,532.067766458,532.067766458,531.9879839163333,532.067766458,532.067766458,532.067766458,531.9879839163333,532.067766458,532.067766458,532.067766458,534.164474125,538.192599167,532.067766458,532.067766458,537.24042575,532.067766458,532.067766458,532.067766458,532.067766458,532.53366125,533.6065960830001,532.5031743336667,,534.164474125,535.1936721669999,534.1342921246667,,532.067766458,537.24042575,532.067766458,537.24042575,537.2811329170001,537.9376788750001,532.067766458,1,1,0.7416589580000164,reldom2_s039,001,2025-03-19_15h53.26.933,What-B-Scan_AC,2022.2.5,None,
46,First_Order,8.0,audwhat,stimulus/audwhat_stim/dummy.wav,stimulus/audwhat_stim/dummy.wav,stimulus/audwhat_stim/string viola_high-pitch_Ftri_loud.wav,stimulus/audwhat_stim/percussion xylophone_high-pitch_Ftri_loud.wav,stimulus/audwhat_stim/blank_white.png,stimulus/audwhat_stim/category_box.png,stimulus/audwhat_stim/category_yes.png,stimulus/audwhat_stim/category_no.png,None,Category,None,Pitch,2,0.0,0,5.125,0,5.125,0,5.125,0,0.0,0.625,0,0.0,0,0.0,0,0.0,0,0.0,0,0.0,0,0.0,1,0.5,1,2.125,0,,,,,0,60,60,60,,,,,,,,,538.192599167,538.192599167,538.192599167,538.192599167,538.192599167,538.192599167,538.192599167,538.192599167,538.1122654163333,538.192599167,538.192599167,538.192599167,538.1122654163333,538.192599167,538.192599167,538.192599167,540.2888054580001,544.333372542,538.192599167,538.192599167,543.3649417920001,538.192599167,538.192599167,538.192599167,538.192599167,538.658289833,539.731976,538.6281253336667,,540.2888054580001,541.319933542,540.2593676246668,541.319933542,538.192599167,543.3649417920001,538.192599167,543.3649417920001,543.406163292,544.059583708,538.192599167,2,1,0.8016117079998821,reldom2_s039,001,2025-03-19_15h53.26.933,What-B-Scan_AC,2022.2.5,None,
0,0.0,None,fixation,stimulus/viswhat_stim/blank_white.png,stimulus/viswhat_stim/blank_white.png,stimulus/audwhat_stim/blank_white.png,stimulus/audwhat_stim/blank_white.png,stimulus/viswhat_stim/blank_white.png,stimulus/viswhat_stim/blank_white.png,stimulus/viswhat_stim/blank_white.png,stimulus/viswhat_stim/blank_white.png,0.0,0.0,0.0,0.0,0,0.0,0,0.0,0,0.0,0,0.0,0,0.0,0.0,0,0.0,0,0.0,0,0.0,0,0.0,0,0.0,0,0.0,0,0.0,0,0.0,8,,,,,0,61,61,61,,,,,,,,,544.333372542,544.333372542,544.333372542,544.333372542,544.333372542,544.333372542,544.333372542,544.333372542,544.2336755413334,544.333372542,544.333372542,544.333372542,544.2336755413334,544.333372542,544.333372542,544.333372542,544.333372542,544.333372542,544.333372542,544.333372542,544.333372542,544.333372542,544.333372542,544.333372542,544.333372542,544.333372542,544.333372542,544.2836755413333,544.333372542,544.333372542,544.333372542,544.2836755413333,544.333372542,544.333372542,544.333372542,544.333372542,544.333372542,549.52514225,549.52514225,552.512511292,None,0,,reldom2_s039,001,2025-03-19_15h53.26.933,What-B-Scan_AC,2022.2.5,None,
47,Second_Order,8.0,audwhat,stimulus/audwhat_stim/string cello_low-pitch_Dtri_loud.wav,stimulus/audwhat_stim/string viola_high-pitch_D_loud.wav,stimulus/audwhat_stim/percussion xylophone_high-pitch_F_loud.wav,stimulus/audwhat_stim/percussion mallet_low-pitch_D_loud.wav,stimulus/viswhat_stim/match_blank.png,stimulus/viswhat_stim/match_box.png,stimulus/viswhat_stim/match_yes.png,stimulus/viswhat_stim/match_no.png,1.0,Match,Category,Category,1,5.125,0,5.125,0,5.125,0,5.125,0,0.75,0.75,0,0.0,0,0.0,0,0.0,0,0.0,1,0.5,1,2.125,1,0.5,1,2.125,0,,,,,0,62,62,62,,,,,,,,,552.512511292,557.630607417,552.512511292,552.512511292,552.512511292,552.512511292,552.9691230000001,553.967202583,552.9820950836668,,554.589608625,555.587938958,554.6022724586667,,557.630607417,558.481624792,560.556485583,564.473495042,558.481624792,558.481624792,563.6646323750001,558.481624792,558.481624792,558.481624792,558.481624792,558.8971635830001,559.955477125,558.8677870416666,559.9094177920001,560.556485583,561.6277991670001,560.5268004166667,,558.481624792,563.6646323750001,558.481624792,563.6646323750001,563.6646323750001,,558.481624792,1,1,0.7677609999998367,reldom2_s039,001,2025-03-19_15h53.26.933,What-B-Scan_AC,2022.2.5,None,
48,Second_Order,8.0,audwhat,stimulus/audwhat_stim/percussion mallet_high-pitch_D_loud.wav,stimulus/audwhat_stim/percussion mallet_low-pitch_Dtri_loud.wav,stimulus/audwhat_stim/string viola_high-pitch_F_loud.wav,stimulus/audwhat_stim/string viola_low-pitch_Dtri_loud.wav,stimulus/viswhat_stim/match_blank.png,stimulus/viswhat_stim/match_box.png,stimulus/viswhat_stim/match_yes.png,stimulus/viswhat_stim/match_no.png,1.0,Match,Category,Category,1,5.125,0,5.125,0,5.125,0,5.125,0,0.625,0.625,0,0.0,0,0.0,0,0.0,0,0.0,1,0.5,1,2.125,1,0.5,1,2.125,0,,,,,0,63,63,63,,,,,,,,,564.473495042,569.5915628750001,564.473495042,564.473495042,564.473495042,564.473495042,564.92890575,565.9150413750001,564.9427742916666,,566.550781208,567.5489774170001,566.5629262916666,,569.5915628750001,570.323227958,572.387401125,576.435293583,570.323227958,570.323227958,575.4727708750002,570.323227958,570.323227958,570.323227958,570.323227958,570.78015725,571.83583525,570.7494501666667,,572.387401125,573.4493842080001,572.3578883336668,,570.323227958,575.4727708750002,570.323227958,575.4727708750002,575.5143250830001,576.1625456250001,570.323227958,1,1,0.7224029989999963,reldom2_s039,001,2025-03-19_15h53.26.933,What-B-Scan_AC,2022.2.5,None,
0,0.0,None,fixation,stimulus/viswhat_stim/blank_white.png,stimulus/viswhat_stim/blank_white.png,stimulus/audwhat_stim/blank_white.png,stimulus/audwhat_stim/blank_white.png,stimulus/viswhat_stim/blank_white.png,stimulus/viswhat_stim/blank_white.png,stimulus/viswhat_stim/blank_white.png,stimulus/viswhat_stim/blank_white.png,0.0,0.0,0.0,0.0,0,0.0,0,0.0,0,0.0,0,0.0,0,0.0,0.0,0,0.0,0,0.0,0,0.0,0,0.0,0,0.0,0,0.0,0,0.0,0,0.0,16,,,,,0,64,64,64,,,,,,,,,576.435293583,576.435293583,576.435293583,576.435293583,576.435293583,576.435293583,576.435293583,576.435293583,576.3364098333333,576.435293583,576.435293583,576.435293583,576.3364098333333,576.435293583,576.435293583,576.435293583,576.435293583,576.435293583,576.435293583,576.435293583,576.435293583,576.435293583,576.435293583,576.435293583,576.435293583,576.435293583,576.435293583,576.3864098333332,576.435293583,576.435293583,576.435293583,576.3864098333332,576.435293583,576.435293583,576.435293583,576.435293583,576.435293583,581.6394895830001,581.6394895830001,592.580661625,None,0,,reldom2_s039,001,2025-03-19_15h53.26.933,What-B-Scan_AC,2022.2.5,None,
