Trial,Order,Block,Type,Stimuli_File1,Stimuli_File2,Stimuli_File3,Stimuli_File4,Cue_File1,Cue_File2,Response_File_Yes,Response_File_No,Match,Cue_Dimension,Pair1_Dimension,Pair2_Dimension,Key,Cue1_Duration,Cue1_Onset,Cue2_Duration,Cue2_Onset,ResponseYes_Duration,ResponseYes_Onset,ResponseNo_Duration,ResponseNo_Onset,ITI_Within,ITI_Between,Image1_Duration,Image1_Onset,Image2_Duration,Image2_Onset,Image3_Duration,Image3_Onset,Image4_Duration,Image4_Onset,Sound1_Duration,Sound1_Onset,Sound2_Duration,Sound2_Onset,Sound3_Duration,Sound3_Onset,Sound4_Duration,Sound4_Onset,Fixation_Duration,trials_2.thisRepN,trials_2.thisTrialN,trials_2.thisN,trials_2.thisIndex,trials.thisRepN,trials.thisTrialN,trials.thisN,trials.thisIndex,text_start.started,key_resp_start.started,key_resp_start.keys,key_resp_start.rt,cue_file1.started,cue_file1.stopped,image_1.started,image_1.stopped,image_2.started,image_2.stopped,sound_icon1.started,sound_icon1.stopped,sound_1.started,sound_1.stopped,sound_icon2.started,sound_icon2.stopped,sound_2.started,sound_2.stopped,image_blank_1.started,image_blank_1.stopped,key_press.started,key_press.stopped,fixation_text.started,cue_file2.started,cue_file2.stopped,image_3.started,image_3.stopped,image_4.started,image_4.stopped,sound_icon3.started,sound_icon3.stopped,sound_3.started,sound_3.stopped,sound_icon4.started,sound_icon4.stopped,sound_4.started,sound_4.stopped,response_yes.started,response_yes.stopped,response_no.started,response_no.stopped,iti_blank.started,iti_blank.stopped,fixation_text.stopped,key_press.keys,key_press.corr,key_press.rt,text_score.started,participant,session,date,expName,psychopyVersion,frameRate,
,,,,,,,,,,,,,,,,,,,,,,,,,,,,,,,,,,,,,,,,,,,,,,,,,,,,8.779573833000086,8.779573833000086,2,5.1330922920001285,,,,,,,,,,,,,,,,,,,,,,,,,,,,,,,,,,,,,,,,,,,,,reldom2_s039,001,2025-03-19_14h52.04.936,practice_test1_AC,2022.2.5,None,
,,,,,,,,,,,,,,,,,,,,,,,,,,,,,,,,,,,,,,,,,,,,0,0,0,0,,,,,,,,,,,,,,,,,,,,,,,,,,,,,,,,,,,,,,,,,,,,,,,,,,,,,reldom2_s039,001,2025-03-19_14h52.04.936,practice_test1_AC,2022.2.5,None,
,,,,,,,,,,,,,,,,,,,,,,,,,,,,,,,,,,,,,,,,,,,,1,0,1,0,,,,,,,,,,,,,,,,,,,,,,,,,,,,,,,,,,,,,,,,,,,,,,,,,,,,,reldom2_s039,001,2025-03-19_14h52.04.936,practice_test1_AC,2022.2.5,None,
,,,,,,,,,,,,,,,,,,,,,,,,,,,,,,,,,,,,,,,,,,,,2,0,2,0,,,,,,,,,,,,,,,,,,,,,,,,,,,,,,,,,,,,,,,,,,,,,,,,,,,,,reldom2_s039,001,2025-03-19_14h52.04.936,practice_test1_AC,2022.2.5,None,
,,,,,,,,,,,,,,,,,,,,,,,,,,,,,,,,,,,,,,,,,,,,3,0,3,0,,,,,,,,,,,,,,,,,,,,,,,,,,,,,,,,,,,,,,,,,,,,,,,,,,,,,reldom2_s039,001,2025-03-19_14h52.04.936,practice_test1_AC,2022.2.5,None,
0,0.0,None,fixation,stimulus/viswhere_stim/blank_white.png,stimulus/viswhere_stim/blank_white.png,stimulus/audwhere_stim/blank_white.png,stimulus/audwhere_stim/blank_white.png,stimulus/viswhere_stim/blank_white.png,stimulus/viswhere_stim/blank_white.png,stimulus/viswhere_stim/blank_white.png,stimulus/viswhere_stim/blank_white.png,0.0,0.0,0.0,0.0,0,0.0,0,0.0,0,0.0,0,0.0,0,0.0,0.0,0,0.0,0,0.0,0,0.0,0,0.0,0,0.0,0,0.0,0,0.0,0,0.0,6,,,,,0,0,0,0,,,,,14.164925374999711,14.164925374999711,14.164925374999711,14.164925374999711,14.164925374999711,14.164925374999711,14.164925374999711,14.164925374999711,14.047333208333052,14.164925374999711,14.164925374999711,14.164925374999711,14.047333208333052,14.164925374999711,14.164925374999711,14.164925374999711,14.164925374999711,14.164925374999711,14.164925374999711,14.164925374999711,14.164925374999711,14.164925374999711,14.164925374999711,14.164925374999711,14.164925374999711,14.164925374999711,14.164925374999711,14.113999874999719,14.164925374999711,14.164925374999711,14.164925374999711,14.113999874999719,14.164925374999711,14.164925374999711,14.164925374999711,14.164925374999711,14.164925374999711,19.332539791999807,19.332539791999807,20.34768958299992,None,0,,,reldom2_s039,001,2025-03-19_14h52.04.936,practice_test1_AC,2022.2.5,None,
1,First_Order,1.0,viswhere,stimulus/viswhere_stim/blank_white.png,stimulus/viswhere_stim/blank_white.png,stimulus/viswhere_stim/90-deg_dot-right_peru.png,stimulus/viswhere_stim/120-deg_dot-right_slateblue.png,stimulus/viswhere_stim/blank_white.png,stimulus/viswhere_stim/dot_box.png,stimulus/viswhere_stim/dot_yes.png,stimulus/viswhere_stim/dot_no.png,None,Dot,None,Dot,1,0.0,0,5.25,0,5.25,0,5.25,0,0.0,0.75,0,0.0,0,0.0,1,0.5,1,2.125,0,0.0,0,0.0,0,0.0,0,0.0,0,,,,,0,1,1,1,,,,,20.34768958299992,20.34768958299992,20.34768958299992,20.34768958299992,20.34768958299992,20.34768958299992,20.34768958299992,20.34768958299992,20.324022749999948,20.34768958299992,20.34768958299992,20.34768958299992,20.324022749999948,20.34768958299992,20.34768958299992,20.34768958299992,22.443943792000027,26.32616991699979,20.34768958299992,20.34768958299992,25.60256129199979,20.832579333000012,21.85251104200006,22.443943792000027,23.465294832999916,20.34768958299992,20.34768958299992,20.340689416666613,20.34768958299992,20.34768958299992,20.34768958299992,20.340689416666613,20.34768958299992,20.34768958299992,25.60256129199979,20.34768958299992,25.60256129199979,25.586496791999707,26.428939166999953,20.34768958299992,None,0,,,reldom2_s039,001,2025-03-19_14h52.04.936,practice_test1_AC,2022.2.5,None,
2,First_Order,1.0,viswhere,stimulus/viswhere_stim/blank_white.png,stimulus/viswhere_stim/blank_white.png,stimulus/viswhere_stim/30-deg_dot-right_turquoise.png,stimulus/viswhere_stim/60-deg_dot-right_seagreen.png,stimulus/viswhere_stim/blank_white.png,stimulus/viswhere_stim/line_box.png,stimulus/viswhere_stim/line_yes.png,stimulus/viswhere_stim/line_no.png,None,Line,None,Dot,2,0.0,0,5.25,0,5.25,0,5.25,0,0.0,0.75,0,0.0,0,0.0,1,0.5,1,2.125,0,0.0,0,0.0,0,0.0,0,0.0,0,,,,,0,2,2,2,,,,,26.428939166999953,26.428939166999953,26.428939166999953,26.428939166999953,26.428939166999953,26.428939166999953,26.428939166999953,26.428939166999953,26.40950325033312,26.428939166999953,26.428939166999953,26.428939166999953,26.40950325033312,26.428939166999953,26.428939166999953,26.428939166999953,28.54220683299991,32.395802416999686,26.428939166999953,26.428939166999953,31.686507207999966,26.912608624999848,27.93116870799986,28.54220683299991,29.56458524999971,26.428939166999953,26.428939166999953,26.40950325033312,26.428939166999953,26.428939166999953,26.428939166999953,26.40950325033312,26.428939166999953,26.428939166999953,31.686507207999966,26.428939166999953,31.686507207999966,31.670559416999822,32.514700249999805,26.428939166999953,None,0,,,reldom2_s039,001,2025-03-19_14h52.04.936,practice_test1_AC,2022.2.5,None,
3,First_Order,1.0,viswhere,stimulus/viswhere_stim/blank_white.png,stimulus/viswhere_stim/blank_white.png,stimulus/viswhere_stim/120-deg_dot-left_goldenrod.png,stimulus/viswhere_stim/90-deg_dot-left_seagreen.png,stimulus/viswhere_stim/blank_white.png,stimulus/viswhere_stim/line_box.png,stimulus/viswhere_stim/line_yes.png,stimulus/viswhere_stim/line_no.png,None,Line,None,Dot,2,0.0,0,5.25,0,5.25,0,5.25,0,0.0,0.75,0,0.0,0,0.0,1,0.5,1,2.125,0,0.0,0,0.0,0,0.0,0,0.0,0,,,,,0,3,3,3,,,,,32.514700249999805,32.514700249999805,32.514700249999805,32.514700249999805,32.514700249999805,32.514700249999805,32.514700249999805,32.514700249999805,32.49540537533297,32.514700249999805,32.514700249999805,32.514700249999805,32.49540537533297,32.514700249999805,32.514700249999805,32.514700249999805,34.63293045799992,38.487075874999846,32.514700249999805,32.514700249999805,37.77942962499992,32.99881950000008,34.01873024999986,34.63293045799992,35.65761183299992,32.514700249999805,32.514700249999805,32.49540537533297,32.514700249999805,32.514700249999805,32.514700249999805,32.49540537533297,32.514700249999805,32.514700249999805,37.77942962499992,32.514700249999805,37.77942962499992,37.74139879199993,38.5903250829997,32.514700249999805,2,1,1.2414284159999625,,reldom2_s039,001,2025-03-19_14h52.04.936,practice_test1_AC,2022.2.5,None,
4,First_Order,1.0,viswhere,stimulus/viswhere_stim/blank_white.png,stimulus/viswhere_stim/blank_white.png,stimulus/viswhere_stim/150-deg_dot-right_royalblue.png,stimulus/viswhere_stim/150-deg_dot-left_slateblue.png,stimulus/viswhere_stim/blank_white.png,stimulus/viswhere_stim/dot_box.png,stimulus/viswhere_stim/dot_yes.png,stimulus/viswhere_stim/dot_no.png,None,Dot,None,Line,2,0.0,0,5.25,0,5.25,0,5.25,0,0.0,0.75,0,0.0,0,0.0,1,0.5,1,2.125,0,0.0,0,0.0,0,0.0,0,0.0,0,,,,,0,4,4,4,,,,,38.5903250829997,38.5903250829997,38.5903250829997,38.5903250829997,38.5903250829997,38.5903250829997,38.5903250829997,38.5903250829997,38.57040920833318,38.5903250829997,38.5903250829997,38.5903250829997,38.57040920833318,38.5903250829997,38.5903250829997,38.5903250829997,40.70829129200001,44.56741925000006,38.5903250829997,38.5903250829997,43.84731837499976,39.08009495799979,40.08559895799999,40.70829129200001,41.722819332999734,38.5903250829997,38.5903250829997,38.57040920833318,38.5903250829997,38.5903250829997,38.5903250829997,38.57040920833318,38.5903250829997,38.5903250829997,43.84731837499976,38.5903250829997,43.84731837499976,43.83110091699973,44.74391987499985,38.5903250829997,2,1,1.0784138330000133,,reldom2_s039,001,2025-03-19_14h52.04.936,practice_test1_AC,2022.2.5,None,
0,0.0,None,fixation,stimulus/viswhere_stim/blank_white.png,stimulus/viswhere_stim/blank_white.png,stimulus/audwhere_stim/blank_white.png,stimulus/audwhere_stim/blank_white.png,stimulus/viswhere_stim/blank_white.png,stimulus/viswhere_stim/blank_white.png,stimulus/viswhere_stim/blank_white.png,stimulus/viswhere_stim/blank_white.png,0.0,0.0,0.0,0.0,0,0.0,0,0.0,0,0.0,0,0.0,0,0.0,0.0,0,0.0,0,0.0,0,0.0,0,0.0,0,0.0,0,0.0,0,0.0,0,0.0,5,,,,,0,5,5,5,,,,,44.74391987499985,44.74391987499985,44.74391987499985,44.74391987499985,44.74391987499985,44.74391987499985,44.74391987499985,44.74391987499985,44.65075258333339,44.74391987499985,44.74391987499985,44.74391987499985,44.65075258333339,44.74391987499985,44.74391987499985,44.74391987499985,44.74391987499985,44.74391987499985,44.74391987499985,44.74391987499985,44.74391987499985,44.74391987499985,44.74391987499985,44.74391987499985,44.74391987499985,44.74391987499985,44.74391987499985,44.70075258333339,44.74391987499985,44.74391987499985,44.74391987499985,44.70075258333339,44.74391987499985,44.74391987499985,44.74391987499985,44.74391987499985,44.74391987499985,50.00559949999979,50.00559949999979,49.78226874999973,None,0,,,reldom2_s039,001,2025-03-19_14h52.04.936,practice_test1_AC,2022.2.5,None,
5,Second_Order,1.0,viswhere,stimulus/viswhere_stim/150-deg_dot-right_slateblue.png,stimulus/viswhere_stim/150-deg_dot-left_turquoise.png,stimulus/viswhere_stim/90-deg_dot-left_mediumslateblue.png,stimulus/viswhere_stim/90-deg_dot-right_peru.png,stimulus/viswhere_stim/match_blank.png,stimulus/viswhere_stim/match_box.png,stimulus/viswhere_stim/match_yes.png,stimulus/viswhere_stim/match_no.png,1.0,Match,Line,Line,1,5.25,0,5.25,0,5.25,0,5.25,0,0.75,0.75,1,0.5,1,2.125,1,0.5,1,2.125,0,0.0,0,0.0,0,0.0,0,0.0,0,,,,,0,6,6,6,,,,,50.00559949999979,55.2532179169998,50.48170483299964,51.47864741700005,52.10534266700006,53.09572224999965,50.00559949999979,50.00559949999979,50.005687749666656,50.00559949999979,50.00559949999979,50.00559949999979,50.005687749666656,50.00559949999979,55.2532179169998,56.054568707999806,58.13394574999984,61.993511749999925,56.054568707999806,56.054568707999806,61.32003970799997,56.49365445800004,57.505857249999735,58.13394574999984,59.15364358299985,56.054568707999806,56.054568707999806,56.036322082999774,56.054568707999806,56.054568707999806,56.054568707999806,56.036322082999774,56.054568707999806,56.054568707999806,61.32003970799997,56.054568707999806,61.32003970799997,61.258302249999815,62.03390124999987,56.054568707999806,1,1,1.5324332079999294,,reldom2_s039,001,2025-03-19_14h52.04.936,practice_test1_AC,2022.2.5,None,
6,Second_Order,1.0,viswhere,stimulus/viswhere_stim/150-deg_dot-right_mediumslateblue.png,stimulus/viswhere_stim/30-deg_dot-right_salmon.png,stimulus/viswhere_stim/120-deg_dot-right_royalblue.png,stimulus/viswhere_stim/120-deg_dot-left_salmon.png,stimulus/viswhere_stim/match_blank.png,stimulus/viswhere_stim/match_box.png,stimulus/viswhere_stim/match_yes.png,stimulus/viswhere_stim/match_no.png,2.0,Match,Dot,Line,2,5.25,0,5.25,0,5.25,0,5.25,0,0.75,0.75,1,0.5,1,2.125,1,0.5,1,2.125,0,0.0,0,0.0,0,0.0,0,0.0,0,,,,,0,7,7,7,,,,,62.03390124999987,67.28333824999982,62.50946124999973,63.50873358299987,64.14137170799995,65.14008933299965,62.03390124999987,62.03390124999987,62.04351174999992,62.03390124999987,62.03390124999987,62.03390124999987,62.04351174999992,62.03390124999987,67.28333824999982,68.08165199999985,70.16807329199992,74.03009674999976,68.08165199999985,68.08165199999985,73.33583299999964,68.54539941699977,69.56127766700001,70.16807329199992,71.18982379199997,68.08165199999985,68.08165199999985,68.05371733333325,68.08165199999985,68.08165199999985,68.08165199999985,68.05371733333325,68.08165199999985,68.08165199999985,73.33583299999964,68.08165199999985,73.33583299999964,73.29704612499972,74.20865254199998,68.08165199999985,2,1,1.5991795000004458,,reldom2_s039,001,2025-03-19_14h52.04.936,practice_test1_AC,2022.2.5,None,
0,0.0,None,fixation,stimulus/viswhere_stim/blank_white.png,stimulus/viswhere_stim/blank_white.png,stimulus/audwhere_stim/blank_white.png,stimulus/audwhere_stim/blank_white.png,stimulus/viswhere_stim/blank_white.png,stimulus/viswhere_stim/blank_white.png,stimulus/viswhere_stim/blank_white.png,stimulus/viswhere_stim/blank_white.png,0.0,0.0,0.0,0.0,0,0.0,0,0.0,0,0.0,0,0.0,0,0.0,0.0,0,0.0,0,0.0,0,0.0,0,0.0,0,0.0,0,0.0,0,0.0,0,0.0,7,,,,,0,8,8,8,,,,,74.20865254199998,74.20865254199998,74.20865254199998,74.20865254199998,74.20865254199998,74.20865254199998,74.20865254199998,74.20865254199998,74.11343008333309,74.20865254199998,74.20865254199998,74.20865254199998,74.11343008333309,74.20865254199998,74.20865254199998,74.20865254199998,74.20865254199998,74.20865254199998,74.20865254199998,74.20865254199998,74.20865254199998,74.20865254199998,74.20865254199998,74.20865254199998,74.20865254199998,74.20865254199998,74.20865254199998,74.16343008333308,74.20865254199998,74.20865254199998,74.20865254199998,74.16343008333308,74.20865254199998,74.20865254199998,74.20865254199998,74.20865254199998,74.20865254199998,79.39747637499977,79.39747637499977,81.47714737499973,None,0,,,reldom2_s039,001,2025-03-19_14h52.04.936,practice_test1_AC,2022.2.5,None,
7,First_Order,2.0,audwhere,stimulus/audwhere_stim/dummy.wav,stimulus/audwhere_stim/dummy.wav,stimulus/audwhere_stim/left_toward_270h.wav,stimulus/audwhere_stim/right_toward_270h.wav,stimulus/audwhere_stim/blank_white.png,stimulus/audwhere_stim/direction_box.png,stimulus/audwhere_stim/direction_yes.png,stimulus/audwhere_stim/direction_no.png,None,Direction,None,Direction,1,0.0,0,5.25,0,5.25,0,5.25,0,0.0,0.75,0,0.0,0,0.0,0,0.0,0,0.0,0,0.0,0,0.0,1,0.5,1,2.125,0,,,,,0,9,9,9,,,,,81.47714737499973,81.47714737499973,81.47714737499973,81.47714737499973,81.47714737499973,81.47714737499973,81.47714737499973,81.47714737499973,81.40617045866672,81.47714737499973,81.47714737499973,81.47714737499973,81.40617045866672,81.47714737499973,81.47714737499973,81.47714737499973,83.58658687499974,87.42288345799989,81.47714737499973,81.47714737499973,86.78218974999982,81.47714737499973,81.47714737499973,81.47714737499973,81.47714737499973,81.9695932919999,83.04759970799978,81.9368889586665,,83.58658687499974,84.62145633299997,83.55412554166675,,81.47714737499973,86.78218974999982,81.47714737499973,86.78218974999982,86.69045637499994,87.63508166699967,81.47714737499973,1,1,2.183418167000127,,reldom2_s039,001,2025-03-19_14h52.04.936,practice_test1_AC,2022.2.5,None,
8,First_Order,2.0,audwhere,stimulus/audwhere_stim/dummy.wav,stimulus/audwhere_stim/dummy.wav,stimulus/audwhere_stim/right_away_280h.wav,stimulus/audwhere_stim/right_toward_290h.wav,stimulus/audwhere_stim/blank_white.png,stimulus/audwhere_stim/side_box.png,stimulus/audwhere_stim/side_yes.png,stimulus/audwhere_stim/side_no.png,None,Side,None,Side,1,0.0,0,5.25,0,5.25,0,5.25,0,0.0,0.75,0,0.0,0,0.0,0,0.0,0,0.0,0,0.0,0,0.0,1,0.5,1,2.125,0,,,,,0,10,10,10,,,,,87.63508166699967,87.63508166699967,87.63508166699967,87.63508166699967,87.63508166699967,87.63508166699967,87.63508166699967,87.63508166699967,87.55621679133321,87.63508166699967,87.63508166699967,87.63508166699967,87.55621679133321,87.63508166699967,87.63508166699967,87.63508166699967,89.74059816699992,93.57439354200005,87.63508166699967,87.63508166699967,92.93284549999998,87.63508166699967,87.63508166699967,87.63508166699967,87.63508166699967,88.12508345800006,89.20135466700003,88.09279516666653,,89.74059816699992,90.77353387499988,89.70845116666648,,87.63508166699967,92.93284549999998,87.63508166699967,92.93284549999998,92.84022720799976,93.78565562499989,87.63508166699967,2,0,1.7195400420000624,,reldom2_s039,001,2025-03-19_14h52.04.936,practice_test1_AC,2022.2.5,None,
9,First_Order,2.0,audwhere,stimulus/audwhere_stim/dummy.wav,stimulus/audwhere_stim/dummy.wav,stimulus/audwhere_stim/right_away_270h.wav,stimulus/audwhere_stim/right_toward_300h.wav,stimulus/audwhere_stim/blank_white.png,stimulus/audwhere_stim/side_box.png,stimulus/audwhere_stim/side_yes.png,stimulus/audwhere_stim/side_no.png,None,Side,None,Side,1,0.0,0,5.25,0,5.25,0,5.25,0,0.0,0.75,0,0.0,0,0.0,0,0.0,0,0.0,0,0.0,0,0.0,1,0.5,1,2.125,0,,,,,0,11,11,11,,,,,93.78565562499989,93.78565562499989,93.78565562499989,93.78565562499989,93.78565562499989,93.78565562499989,93.78565562499989,93.78565562499989,93.70772687533338,93.78565562499989,93.78565562499989,93.78565562499989,93.70772687533338,93.78565562499989,93.78565562499989,93.78565562499989,95.89447137499974,99.73693658299999,93.78565562499989,93.78565562499989,99.0917197079998,93.78565562499989,93.78565562499989,93.78565562499989,93.78565562499989,94.27630074999979,95.30819100000008,94.24483829166662,,95.89447137499974,96.92971124999985,95.86227299966664,,93.78565562499989,99.0917197079998,93.78565562499989,99.0917197079998,98.99947795799972,99.94888366699979,93.78565562499989,2,0,2.2679404169998634,,reldom2_s039,001,2025-03-19_14h52.04.936,practice_test1_AC,2022.2.5,None,
10,First_Order,2.0,audwhere,stimulus/audwhere_stim/dummy.wav,stimulus/audwhere_stim/dummy.wav,stimulus/audwhere_stim/right_toward_300h.wav,stimulus/audwhere_stim/right_away_290h.wav,stimulus/audwhere_stim/blank_white.png,stimulus/audwhere_stim/direction_box.png,stimulus/audwhere_stim/direction_yes.png,stimulus/audwhere_stim/direction_no.png,None,Direction,None,Side,2,0.0,0,5.25,0,5.25,0,5.25,0,0.0,0.75,0,0.0,0,0.0,0,0.0,0,0.0,0,0.0,0,0.0,1,0.5,1,2.125,0,,,,,0,12,12,12,,,,,99.94888366699979,99.94888366699979,99.94888366699979,99.94888366699979,99.94888366699979,99.94888366699979,99.94888366699979,99.94888366699979,99.87026991633331,99.94888366699979,99.94888366699979,99.94888366699979,99.87026991633331,99.94888366699979,99.94888366699979,99.94888366699979,102.0311838749999,105.90775833299995,99.94888366699979,99.94888366699979,105.25936054199974,99.94888366699979,99.94888366699979,99.94888366699979,99.94888366699979,100.39803733300005,101.43925129199988,100.36419145866672,,102.0311838749999,103.07685183299964,101.99881570866661,,99.94888366699979,105.25936054199974,99.94888366699979,105.25936054199974,105.16594045800002,106.13896258299974,99.94888366699979,1,0,1.4378797490003308,,reldom2_s039,001,2025-03-19_14h52.04.936,practice_test1_AC,2022.2.5,None,
0,0.0,None,fixation,stimulus/viswhere_stim/blank_white.png,stimulus/viswhere_stim/blank_white.png,stimulus/audwhere_stim/blank_white.png,stimulus/audwhere_stim/blank_white.png,stimulus/viswhere_stim/blank_white.png,stimulus/viswhere_stim/blank_white.png,stimulus/viswhere_stim/blank_white.png,stimulus/viswhere_stim/blank_white.png,0.0,0.0,0.0,0.0,0,0.0,0,0.0,0,0.0,0,0.0,0,0.0,0.0,0,0.0,0,0.0,0,0.0,0,0.0,0,0.0,0,0.0,0,0.0,0,0.0,5,,,,,0,13,13,13,,,,,106.13896258299974,106.13896258299974,106.13896258299974,106.13896258299974,106.13896258299974,106.13896258299974,106.13896258299974,106.13896258299974,106.04109166633327,106.13896258299974,106.13896258299974,106.13896258299974,106.04109166633327,106.13896258299974,106.13896258299974,106.13896258299974,106.13896258299974,106.13896258299974,106.13896258299974,106.13896258299974,106.13896258299974,106.13896258299974,106.13896258299974,106.13896258299974,106.13896258299974,106.13896258299974,106.13896258299974,106.09109166633328,106.13896258299974,106.13896258299974,106.13896258299974,106.09109166633328,106.13896258299974,106.13896258299974,106.13896258299974,106.13896258299974,106.13896258299974,111.42560887499985,111.42560887499985,111.22431437499972,None,0,,,reldom2_s039,001,2025-03-19_14h52.04.936,practice_test1_AC,2022.2.5,None,
11,Second_Order,2.0,audwhere,stimulus/audwhere_stim/right_toward_270h.wav,stimulus/audwhere_stim/left_toward_290h.wav,stimulus/audwhere_stim/left_away_270h.wav,stimulus/audwhere_stim/left_toward_290h.wav,stimulus/viswhere_stim/match_blank.png,stimulus/viswhere_stim/match_box.png,stimulus/viswhere_stim/match_yes.png,stimulus/viswhere_stim/match_no.png,2.0,Match,Direction,Side,2,5.25,0,5.25,0,5.25,0,5.25,0,0.75,0.75,0,0.0,0,0.0,0,0.0,0,0.0,1,0.5,1,2.125,1,0.5,1,2.125,0,,,,,0,14,14,14,,,,,111.42560887499985,116.67140808299973,111.42560887499985,111.42560887499985,111.42560887499985,111.42560887499985,111.87310695799988,112.86340241699963,111.88155824966658,,113.50111445799985,114.4925444999999,113.50844212466633,,116.67140808299973,117.53050245799977,119.5776894999999,123.46628179199979,117.53050245799977,117.53050245799977,122.81622708299983,117.53050245799977,117.53050245799977,117.53050245799977,117.53050245799977,117.98558479199983,119.03562645800002,117.95185808366638,118.98510345799968,119.5776894999999,120.62453079199986,119.54487887466645,,117.53050245799977,122.81622708299983,117.53050245799977,122.81622708299983,122.72365504199979,123.58571475000008,117.53050245799977,2,1,1.4635041249998721,,reldom2_s039,001,2025-03-19_14h52.04.936,practice_test1_AC,2022.2.5,None,
12,Second_Order,2.0,audwhere,stimulus/audwhere_stim/left_toward_270h.wav,stimulus/audwhere_stim/right_toward_300h.wav,stimulus/audwhere_stim/right_toward_300h.wav,stimulus/audwhere_stim/right_away_270h.wav,stimulus/viswhere_stim/match_blank.png,stimulus/viswhere_stim/match_box.png,stimulus/viswhere_stim/match_yes.png,stimulus/viswhere_stim/match_no.png,2.0,Match,Direction,Side,2,5.25,0,5.25,0,5.25,0,5.25,0,0.75,0.75,0,0.0,0,0.0,0,0.0,0,0.0,1,0.5,1,2.125,1,0.5,1,2.125,0,,,,,0,15,15,15,,,,,123.58571475000008,128.82782637499986,123.58571475000008,123.58571475000008,123.58571475000008,123.58571475000008,124.04207474999976,125.04253208299997,124.05033016666654,,125.66647062499987,126.66008895799996,125.67467012466638,,128.82782637499986,129.69599795799968,131.77683649999972,135.62631324999984,129.69599795799968,129.69599795799968,134.97229154199977,129.69599795799968,129.69599795799968,129.69599795799968,129.69599795799968,130.1462889579998,131.18518704200005,130.11326724966673,,131.77683649999972,132.82499125000004,131.74376529166673,,129.69599795799968,134.97229154199977,129.69599795799968,134.97229154199977,134.87921504199994,135.86052954199977,129.69599795799968,2,1,1.5567427500000122,,reldom2_s039,001,2025-03-19_14h52.04.936,practice_test1_AC,2022.2.5,None,
0,0.0,None,fixation,stimulus/viswhere_stim/blank_white.png,stimulus/viswhere_stim/blank_white.png,stimulus/audwhere_stim/blank_white.png,stimulus/audwhere_stim/blank_white.png,stimulus/viswhere_stim/blank_white.png,stimulus/viswhere_stim/blank_white.png,stimulus/viswhere_stim/blank_white.png,stimulus/viswhere_stim/blank_white.png,0.0,0.0,0.0,0.0,0,0.0,0,0.0,0,0.0,0,0.0,0,0.0,0.0,0,0.0,0,0.0,0,0.0,0,0.0,0,0.0,0,0.0,0,0.0,0,0.0,5,,,,,0,16,16,16,,,,,135.86052954199977,135.86052954199977,135.86052954199977,135.86052954199977,135.86052954199977,135.86052954199977,135.86052954199977,135.86052954199977,135.7596465833332,135.86052954199977,135.86052954199977,135.86052954199977,135.7596465833332,135.86052954199977,135.86052954199977,135.86052954199977,135.86052954199977,135.86052954199977,135.86052954199977,135.86052954199977,135.86052954199977,135.86052954199977,135.86052954199977,135.86052954199977,135.86052954199977,135.86052954199977,135.86052954199977,135.80964658333318,135.86052954199977,135.86052954199977,135.86052954199977,135.80964658333318,135.86052954199977,135.86052954199977,135.86052954199977,135.86052954199977,135.86052954199977,141.2242299579998,141.2242299579998,140.91540200000009,None,0,,,reldom2_s039,001,2025-03-19_14h52.04.936,practice_test1_AC,2022.2.5,None,
13,First_Order,3.0,viswhat,stimulus/viswhat_stim/blank_white.png,stimulus/viswhat_stim/blank_white.png,stimulus/viswhat_stim/land_animal-ostrich.png,stimulus/viswhat_stim/land_vehicle-trolley.png,stimulus/viswhat_stim/blank_white.png,stimulus/viswhat_stim/location_box.png,stimulus/viswhat_stim/location_yes.png,stimulus/viswhat_stim/location_no.png,None,Location,None,Location,1,0.0,0,5.25,0,5.25,0,5.25,0,0.0,0.75,0,0.0,0,0.0,1,0.5,1,2.125,0,0.0,0,0.0,0,0.0,0,0.0,0,,,,,0,17,17,17,,,,,141.2242299579998,141.2242299579998,141.2242299579998,141.2242299579998,141.2242299579998,141.2242299579998,141.2242299579998,141.2242299579998,141.1922370416666,141.2242299579998,141.2242299579998,141.2242299579998,141.1922370416666,141.2242299579998,141.2242299579998,141.2242299579998,143.33894358299995,147.18972566699995,141.2242299579998,141.2242299579998,146.48213583300003,141.69813016699982,142.71447954199994,143.33894358299995,144.36772029199983,141.2242299579998,141.2242299579998,141.20890370833325,141.2242299579998,141.2242299579998,141.2242299579998,141.20890370833325,141.2242299579998,141.2242299579998,146.48213583300003,141.2242299579998,146.48213583300003,146.46101220799983,147.4272787499999,141.2242299579998,1,1,1.3311832079998567,,reldom2_s039,001,2025-03-19_14h52.04.936,practice_test1_AC,2022.2.5,None,
14,First_Order,3.0,viswhat,stimulus/viswhat_stim/blank_white.png,stimulus/viswhat_stim/blank_white.png,stimulus/viswhat_stim/water_vehicle-cruiser.png,stimulus/viswhat_stim/water_animal-stingray.png,stimulus/viswhat_stim/blank_white.png,stimulus/viswhat_stim/location_box.png,stimulus/viswhat_stim/location_yes.png,stimulus/viswhat_stim/location_no.png,None,Location,None,Location,1,0.0,0,5.25,0,5.25,0,5.25,0,0.0,0.75,0,0.0,0,0.0,1,0.5,1,2.125,0,0.0,0,0.0,0,0.0,0,0.0,0,,,,,0,18,18,18,,,,,147.4272787499999,147.4272787499999,147.4272787499999,147.4272787499999,147.4272787499999,147.4272787499999,147.4272787499999,147.4272787499999,147.29461387533306,147.4272787499999,147.4272787499999,147.4272787499999,147.29461387533306,147.4272787499999,147.4272787499999,147.4272787499999,149.52354324999988,153.37714612499985,147.4272787499999,147.4272787499999,152.7648896249998,147.90135174999978,148.98483658299983,149.52354324999988,150.60766887499994,147.4272787499999,147.4272787499999,147.36128054199972,147.4272787499999,147.4272787499999,147.4272787499999,147.36128054199972,147.4272787499999,147.4272787499999,152.7648896249998,147.4272787499999,152.7648896249998,152.63552958299988,153.5985828329999,147.4272787499999,1,1,0.9716357080001217,,reldom2_s039,001,2025-03-19_14h52.04.936,practice_test1_AC,2022.2.5,None,
15,First_Order,3.0,viswhat,stimulus/viswhat_stim/blank_white.png,stimulus/viswhat_stim/blank_white.png,stimulus/viswhat_stim/water_vehicle-cargoboat.png,stimulus/viswhat_stim/water_animal-squid.png,stimulus/viswhat_stim/blank_white.png,stimulus/viswhat_stim/type_box.png,stimulus/viswhat_stim/type_yes.png,stimulus/viswhat_stim/type_no.png,None,Type,None,Location,2,0.0,0,5.25,0,5.25,0,5.25,0,0.0,0.75,0,0.0,0,0.0,1,0.5,1,2.125,0,0.0,0,0.0,0,0.0,0,0.0,0,,,,,0,19,19,19,,,,,153.5985828329999,153.5985828329999,153.5985828329999,153.5985828329999,153.5985828329999,153.5985828329999,153.5985828329999,153.5985828329999,153.54381279166654,153.5985828329999,153.5985828329999,153.5985828329999,153.54381279166654,153.5985828329999,153.5985828329999,153.5985828329999,155.7051739579997,159.56218983300005,153.5985828329999,153.5985828329999,158.88818658299988,154.08179404199973,155.11725729199998,155.7051739579997,156.74974454199992,153.5985828329999,153.5985828329999,153.57714612499987,153.5985828329999,153.5985828329999,153.5985828329999,153.57714612499987,153.5985828329999,153.5985828329999,158.88818658299988,153.5985828329999,158.88818658299988,158.82513691699978,159.72271841699967,153.5985828329999,2,1,1.0249180000000706,,reldom2_s039,001,2025-03-19_14h52.04.936,practice_test1_AC,2022.2.5,None,
16,First_Order,3.0,viswhat,stimulus/viswhat_stim/blank_white.png,stimulus/viswhat_stim/blank_white.png,stimulus/viswhat_stim/water_vehicle-ferryboat.png,stimulus/viswhat_stim/water_animal-seaturtle.png,stimulus/viswhat_stim/blank_white.png,stimulus/viswhat_stim/type_box.png,stimulus/viswhat_stim/type_yes.png,stimulus/viswhat_stim/type_no.png,None,Type,None,Location,2,0.0,0,5.25,0,5.25,0,5.25,0,0.0,0.75,0,0.0,0,0.0,1,0.5,1,2.125,0,0.0,0,0.0,0,0.0,0,0.0,0,,,,,0,20,20,20,,,,,159.72271841699967,159.72271841699967,159.72271841699967,159.72271841699967,159.72271841699967,159.72271841699967,159.72271841699967,159.72271841699967,159.66218983300007,159.72271841699967,159.72271841699967,159.72271841699967,159.66218983300007,159.72271841699967,159.72271841699967,159.72271841699967,161.8295670829998,165.6831031669999,159.72271841699967,159.72271841699967,164.99619799999982,160.21394833299973,161.2684963749998,161.8295670829998,162.85521433299982,159.72271841699967,159.72271841699967,159.6955231663334,159.72271841699967,159.72271841699967,159.72271841699967,159.6955231663334,159.72271841699967,159.72271841699967,164.99619799999982,159.72271841699967,164.99619799999982,164.9650087079999,165.92601266699967,159.72271841699967,2,1,0.8870377919997736,,reldom2_s039,001,2025-03-19_14h52.04.936,practice_test1_AC,2022.2.5,None,
0,0.0,None,fixation,stimulus/viswhat_stim/blank_white.png,stimulus/viswhat_stim/blank_white.png,stimulus/audwhat_stim/blank_white.png,stimulus/audwhat_stim/blank_white.png,stimulus/viswhat_stim/blank_white.png,stimulus/viswhat_stim/blank_white.png,stimulus/viswhere_stim/blank_white.png,stimulus/viswhere_stim/blank_white.png,0.0,0.0,0.0,0.0,0,0.0,0,0.0,0,0.0,0,0.0,0,0.0,0.0,0,0.0,0,0.0,0,0.0,0,0.0,0,0.0,0,0.0,0,0.0,0,0.0,5,,,,,0,21,21,21,,,,,165.92601266699967,165.92601266699967,165.92601266699967,165.92601266699967,165.92601266699967,165.92601266699967,165.92601266699967,165.92601266699967,165.83064124966666,165.92601266699967,165.92601266699967,165.92601266699967,165.83064124966666,165.92601266699967,165.92601266699967,165.92601266699967,165.92601266699967,165.92601266699967,165.92601266699967,165.92601266699967,165.92601266699967,165.92601266699967,165.92601266699967,165.92601266699967,165.92601266699967,165.92601266699967,165.92601266699967,165.88064124966667,165.92601266699967,165.92601266699967,165.92601266699967,165.88064124966667,165.92601266699967,165.92601266699967,165.92601266699967,165.92601266699967,165.92601266699967,171.20877116699967,171.20877116699967,171.0173918329997,None,0,,,reldom2_s039,001,2025-03-19_14h52.04.936,practice_test1_AC,2022.2.5,None,
17,Second_Order,3.0,viswhat,stimulus/viswhat_stim/land_vehicle-motorcycle.png,stimulus/viswhat_stim/land_animal-dog.png,stimulus/viswhat_stim/water_animal-seahorse.png,stimulus/viswhat_stim/water_vehicle-cargoboat.png,stimulus/viswhere_stim/match_blank.png,stimulus/viswhere_stim/match_box.png,stimulus/viswhere_stim/match_yes.png,stimulus/viswhere_stim/match_no.png,1.0,Match,Location,Location,1,5.25,0,5.25,0,5.25,0,5.25,0,0.75,0.75,1,0.5,1,2.125,1,0.5,1,2.125,0,0.0,0,0.0,0,0.0,0,0.0,0,,,,,0,22,22,22,,,,,171.20877116699967,176.46304941699964,171.6922253749999,172.68570887499982,173.29500624999991,174.29493454199974,171.20877116699967,171.20877116699967,171.2065834163333,171.20877116699967,171.20877116699967,171.20877116699967,171.2065834163333,171.20877116699967,176.46304941699964,177.27492591700002,179.3500563749999,183.20664716700003,177.27492591700002,177.27492591700002,182.53728629199986,177.71224875000007,178.7262526669997,179.3500563749999,180.36053612499973,177.27492591700002,177.27492591700002,177.24851554199978,177.27492591700002,177.27492591700002,177.27492591700002,177.24851554199978,177.27492591700002,177.27492591700002,182.53728629199986,177.27492591700002,182.53728629199986,182.46297374999995,183.26623708299985,177.27492591700002,1,1,0.8180971249998947,,reldom2_s039,001,2025-03-19_14h52.04.936,practice_test1_AC,2022.2.5,None,
18,Second_Order,3.0,viswhat,stimulus/viswhat_stim/water_animal-squid.png,stimulus/viswhat_stim/land_animal-snake.png,stimulus/viswhat_stim/land_animal-fox.png,stimulus/viswhat_stim/land_vehicle-oldcar.png,stimulus/viswhere_stim/match_blank.png,stimulus/viswhere_stim/match_box.png,stimulus/viswhere_stim/match_yes.png,stimulus/viswhere_stim/match_no.png,2.0,Match,Type,Location,2,5.25,0,5.25,0,5.25,0,5.25,0,0.75,0.75,1,0.5,1,2.125,1,0.5,1,2.125,0,0.0,0,0.0,0,0.0,0,0.0,0,,,,,0,23,23,23,,,,,183.26623708299985,188.50893741699974,183.73254462499972,184.72898091699972,185.36254062499984,186.3583656249998,183.26623708299985,183.26623708299985,183.27331383366672,183.26623708299985,183.26623708299985,183.26623708299985,183.27331383366672,183.26623708299985,188.50893741699974,189.36178045799988,191.43211066699996,195.2890579169998,189.36178045799988,189.36178045799988,194.65581604199997,189.82161637499985,190.88307166699997,191.43211066699996,192.48937937499977,189.36178045799988,189.36178045799988,189.3169219166667,189.36178045799988,189.36178045799988,189.36178045799988,189.3169219166667,189.36178045799988,189.36178045799988,194.65581604199997,189.36178045799988,194.65581604199997,194.56951466700002,195.55958937499963,189.36178045799988,2,1,0.927601875000164,,reldom2_s039,001,2025-03-19_14h52.04.936,practice_test1_AC,2022.2.5,None,
0,0.0,None,fixation,stimulus/viswhat_stim/blank_white.png,stimulus/viswhat_stim/blank_white.png,stimulus/audwhat_stim/blank_white.png,stimulus/audwhat_stim/blank_white.png,stimulus/viswhat_stim/blank_white.png,stimulus/viswhat_stim/blank_white.png,stimulus/viswhere_stim/blank_white.png,stimulus/viswhere_stim/blank_white.png,0.0,0.0,0.0,0.0,0,0.0,0,0.0,0,0.0,0,0.0,0,0.0,0.0,0,0.0,0,0.0,0,0.0,0,0.0,0,0.0,0,0.0,0,0.0,0,0.0,6,,,,,0,24,24,24,,,,,195.55958937499963,195.55958937499963,195.55958937499963,195.55958937499963,195.55958937499963,195.55958937499963,195.55958937499963,195.55958937499963,195.46222791633332,195.55958937499963,195.55958937499963,195.55958937499963,195.46222791633332,195.55958937499963,195.55958937499963,195.55958937499963,195.55958937499963,195.55958937499963,195.55958937499963,195.55958937499963,195.55958937499963,195.55958937499963,195.55958937499963,195.55958937499963,195.55958937499963,195.55958937499963,195.55958937499963,195.5122279163333,195.55958937499963,195.55958937499963,195.55958937499963,195.5122279163333,195.55958937499963,195.55958937499963,195.55958937499963,195.55958937499963,195.55958937499963,200.78805033299977,200.78805033299977,201.8147467499998,None,0,,,reldom2_s039,001,2025-03-19_14h52.04.936,practice_test1_AC,2022.2.5,None,
19,First_Order,4.0,audwhat,stimulus/audwhat_stim/dummy.wav,stimulus/audwhat_stim/dummy.wav,stimulus/audwhat_stim/percussion xylophone_high-pitch_D_loud.wav,stimulus/audwhat_stim/string viola_high-pitch_D_loud.wav,stimulus/audwhat_stim/blank_white.png,stimulus/audwhat_stim/pitch_box.png,stimulus/audwhat_stim/pitch_yes.png,stimulus/audwhat_stim/pitch_no.png,None,Pitch,None,Pitch,1,0.0,0,5.25,0,5.25,0,5.25,0,0.0,0.75,0,0.0,0,0.0,0,0.0,0,0.0,0,0.0,0,0.0,1,0.5,1,2.125,0,,,,,0,25,25,25,,,,,201.8147467499998,201.8147467499998,201.8147467499998,201.8147467499998,201.8147467499998,201.8147467499998,201.8147467499998,201.8147467499998,201.7381438336667,201.8147467499998,201.8147467499998,201.8147467499998,201.7381438336667,201.8147467499998,201.8147467499998,201.8147467499998,203.93035929200005,207.76477766699963,201.8147467499998,201.8147467499998,207.10893983300002,201.8147467499998,201.8147467499998,201.8147467499998,201.8147467499998,202.2660878749998,203.32693166699983,202.23307491666654,203.27580799999987,203.93035929200005,204.98615004199974,203.89529929166636,,201.8147467499998,207.10893983300002,201.8147467499998,207.10893983300002,207.01535208299993,207.98062304199993,201.8147467499998,1,1,2.4822540830000435,,reldom2_s039,001,2025-03-19_14h52.04.936,practice_test1_AC,2022.2.5,None,
20,First_Order,4.0,audwhat,stimulus/audwhat_stim/dummy.wav,stimulus/audwhat_stim/dummy.wav,stimulus/audwhat_stim/string cello_high-pitch_Ftri_loud.wav,stimulus/audwhat_stim/string viola_low-pitch_F_loud.wav,stimulus/audwhat_stim/blank_white.png,stimulus/audwhat_stim/pitch_box.png,stimulus/audwhat_stim/pitch_yes.png,stimulus/audwhat_stim/pitch_no.png,None,Pitch,None,Category,2,0.0,0,5.25,0,5.25,0,5.25,0,0.0,0.75,0,0.0,0,0.0,0,0.0,0,0.0,0,0.0,0,0.0,1,0.5,1,2.125,0,,,,,0,26,26,26,,,,,207.98062304199993,207.98062304199993,207.98062304199993,207.98062304199993,207.98062304199993,207.98062304199993,207.98062304199993,207.98062304199993,207.898111000333,207.98062304199993,207.98062304199993,207.98062304199993,207.898111000333,207.98062304199993,207.98062304199993,207.98062304199993,210.08061999999973,213.94230383299964,207.98062304199993,207.98062304199993,213.28662695799994,207.98062304199993,207.98062304199993,207.98062304199993,207.98062304199993,208.43096650000007,209.48096312500002,208.39742216666653,,210.08061999999973,211.1344617079999,210.04729112466637,,207.98062304199993,213.28662695799994,207.98062304199993,213.28662695799994,213.192835458,214.1577568329999,207.98062304199993,2,1,1.6661998740000854,,reldom2_s039,001,2025-03-19_14h52.04.936,practice_test1_AC,2022.2.5,None,
21,First_Order,4.0,audwhat,stimulus/audwhat_stim/dummy.wav,stimulus/audwhat_stim/dummy.wav,stimulus/audwhat_stim/string viola_high-pitch_D_loud.wav,stimulus/audwhat_stim/percussion xylophone_high-pitch_D_loud.wav,stimulus/audwhat_stim/blank_white.png,stimulus/audwhat_stim/pitch_box.png,stimulus/audwhat_stim/pitch_yes.png,stimulus/audwhat_stim/pitch_no.png,None,Pitch,None,Pitch,1,0.0,0,5.25,0,5.25,0,5.25,0,0.0,0.75,0,0.0,0,0.0,0,0.0,0,0.0,0,0.0,0,0.0,1,0.5,1,2.125,0,,,,,0,27,27,27,,,,,214.1577568329999,214.1577568329999,214.1577568329999,214.1577568329999,214.1577568329999,214.1577568329999,214.1577568329999,214.1577568329999,214.075637166333,214.1577568329999,214.1577568329999,214.1577568329999,214.075637166333,214.1577568329999,214.1577568329999,214.1577568329999,216.27850658299985,220.14036674999988,214.1577568329999,214.1577568329999,219.43734845799963,214.1577568329999,214.1577568329999,214.1577568329999,214.1577568329999,214.611752583,215.67277512500004,214.57769441666667,,216.27850658299985,217.33639233299982,216.24481691666668,217.2860996669997,214.1577568329999,219.43734845799963,214.1577568329999,219.43734845799963,219.39301837499988,220.35664795799994,214.1577568329999,1,1,1.3077338329999293,,reldom2_s039,001,2025-03-19_14h52.04.936,practice_test1_AC,2022.2.5,None,
22,First_Order,4.0,audwhat,stimulus/audwhat_stim/dummy.wav,stimulus/audwhat_stim/dummy.wav,stimulus/audwhat_stim/string cello_low-pitch_F_loud.wav,stimulus/audwhat_stim/string viola_high-pitch_Ftri_loud.wav,stimulus/audwhat_stim/blank_white.png,stimulus/audwhat_stim/category_box.png,stimulus/audwhat_stim/category_yes.png,stimulus/audwhat_stim/category_no.png,None,Category,None,Category,1,0.0,0,5.25,0,5.25,0,5.25,0,0.0,0.75,0,0.0,0,0.0,0,0.0,0,0.0,0,0.0,0,0.0,1,0.5,1,2.125,0,,,,,0,28,28,28,,,,,220.35664795799994,220.35664795799994,220.35664795799994,220.35664795799994,220.35664795799994,220.35664795799994,220.35664795799994,220.35664795799994,220.27370008333324,220.35664795799994,220.35664795799994,220.35664795799994,220.27370008333324,220.35664795799994,220.35664795799994,220.35664795799994,222.47496354199984,226.3331533749997,220.35664795799994,220.35664795799994,225.66830358299967,220.35664795799994,220.35664795799994,220.35664795799994,220.35664795799994,220.8117283329998,221.86987354199982,220.7777119166665,,222.47496354199984,223.53904287499972,222.44046512466664,,220.35664795799994,225.66830358299967,220.35664795799994,225.66830358299967,225.57188150000002,226.5687311669999,220.35664795799994,1,1,2.9818599170002926,,reldom2_s039,001,2025-03-19_14h52.04.936,practice_test1_AC,2022.2.5,None,
0,0.0,None,fixation,stimulus/viswhat_stim/blank_white.png,stimulus/viswhat_stim/blank_white.png,stimulus/audwhat_stim/blank_white.png,stimulus/audwhat_stim/blank_white.png,stimulus/viswhat_stim/blank_white.png,stimulus/viswhat_stim/blank_white.png,stimulus/viswhere_stim/blank_white.png,stimulus/viswhere_stim/blank_white.png,0.0,0.0,0.0,0.0,0,0.0,0,0.0,0,0.0,0,0.0,0,0.0,0.0,0,0.0,0,0.0,0,0.0,0,0.0,0,0.0,0,0.0,0,0.0,0,0.0,5,,,,,0,29,29,29,,,,,226.5687311669999,226.5687311669999,226.5687311669999,226.5687311669999,226.5687311669999,226.5687311669999,226.5687311669999,226.5687311669999,226.46648670833306,226.5687311669999,226.5687311669999,226.5687311669999,226.46648670833306,226.5687311669999,226.5687311669999,226.5687311669999,226.5687311669999,226.5687311669999,226.5687311669999,226.5687311669999,226.5687311669999,226.5687311669999,226.5687311669999,226.5687311669999,226.5687311669999,226.5687311669999,226.5687311669999,226.51648670833305,226.5687311669999,226.5687311669999,226.5687311669999,226.51648670833305,226.5687311669999,226.5687311669999,226.5687311669999,226.5687311669999,226.5687311669999,231.85366745800002,231.85366745800002,231.6461987499997,None,0,,,reldom2_s039,001,2025-03-19_14h52.04.936,practice_test1_AC,2022.2.5,None,
23,Second_Order,4.0,audwhat,stimulus/audwhat_stim/percussion mallet_high-pitch_D_loud.wav,stimulus/audwhat_stim/string cello_high-pitch_D_loud.wav,stimulus/audwhat_stim/percussion mallet_low-pitch_F_loud.wav,stimulus/audwhat_stim/percussion xylophone_high-pitch_Ftri_loud.wav,stimulus/viswhere_stim/match_blank.png,stimulus/viswhere_stim/match_box.png,stimulus/viswhere_stim/match_yes.png,stimulus/viswhere_stim/match_no.png,2.0,Match,Pitch,Category,2,5.25,0,5.25,0,5.25,0,5.25,0,0.75,0.75,0,0.0,0,0.0,0,0.0,0,0.0,1,0.5,1,2.125,1,0.5,1,2.125,0,,,,,0,30,30,30,,,,,231.85366745800002,237.09533895799996,231.85366745800002,231.85366745800002,231.85366745800002,231.85366745800002,232.297548,233.29469254199967,232.3085447086667,,233.92466387500008,234.92034566699976,233.93329549966646,,237.09533895799996,237.959056875,240.0177320419998,243.8649519579999,237.959056875,237.959056875,243.28131562499993,237.959056875,237.959056875,237.959056875,237.959056875,238.36767783300002,239.41717983299986,238.33373204166654,239.3677507499997,240.0177320419998,241.07425424999974,239.9844087086665,241.0240967499999,237.959056875,243.28131562499993,237.959056875,243.28131562499993,243.13581016699982,244.03170870799977,237.959056875,2,1,1.3828749990002507,,reldom2_s039,001,2025-03-19_14h52.04.936,practice_test1_AC,2022.2.5,None,
24,Second_Order,4.0,audwhat,stimulus/audwhat_stim/percussion mallet_low-pitch_Ftri_loud.wav,stimulus/audwhat_stim/percussion xylophone_high-pitch_F_loud.wav,stimulus/audwhat_stim/string cello_low-pitch_F_loud.wav,stimulus/audwhat_stim/string cello_high-pitch_Ftri_loud.wav,stimulus/viswhere_stim/match_blank.png,stimulus/viswhere_stim/match_box.png,stimulus/viswhere_stim/match_yes.png,stimulus/viswhere_stim/match_no.png,1.0,Match,Category,Category,1,5.25,0,5.25,0,5.25,0,5.25,0,0.75,0.75,0,0.0,0,0.0,0,0.0,0,0.0,1,0.5,1,2.125,1,0.5,1,2.125,0,,,,,0,31,31,31,,,,,244.03170870799977,249.2790276669998,244.03170870799977,244.03170870799977,244.03170870799977,244.03170870799977,244.48747091699988,245.47716508299982,244.4903492086667,,246.1138996249997,247.10752745799982,246.12122904166634,247.11462058300003,249.2790276669998,250.14009470799965,252.20373862499991,256.0440247920001,250.14009470799965,250.14009470799965,255.4249959169997,250.14009470799965,250.14009470799965,250.14009470799965,250.14009470799965,250.5981913329997,251.65563141699977,250.5648863336667,,252.20373862499991,253.26544529199964,252.17006429166648,,250.14009470799965,255.4249959169997,250.14009470799965,255.4249959169997,255.3298709579999,256.32414370800007,250.14009470799965,1,1,1.2886552079999092,,reldom2_s039,001,2025-03-19_14h52.04.936,practice_test1_AC,2022.2.5,None,
0,0.0,None,fixation,stimulus/viswhat_stim/blank_white.png,stimulus/viswhat_stim/blank_white.png,stimulus/audwhat_stim/blank_white.png,stimulus/audwhat_stim/blank_white.png,stimulus/viswhat_stim/blank_white.png,stimulus/viswhat_stim/blank_white.png,stimulus/viswhere_stim/blank_white.png,stimulus/viswhere_stim/blank_white.png,0.0,0.0,0.0,0.0,0,0.0,0,0.0,0,0.0,0,0.0,0,0.0,0.0,0,0.0,0,0.0,0,0.0,0,0.0,0,0.0,0,0.0,0,0.0,0,0.0,5,,,,,0,32,32,32,,,,,256.32414370800007,256.32414370800007,256.32414370800007,256.32414370800007,256.32414370800007,256.32414370800007,256.32414370800007,256.32414370800007,256.2209580003333,256.32414370800007,256.32414370800007,256.32414370800007,256.2209580003333,256.32414370800007,256.32414370800007,256.32414370800007,256.32414370800007,256.32414370800007,256.32414370800007,256.32414370800007,256.32414370800007,256.32414370800007,256.32414370800007,256.32414370800007,256.32414370800007,256.32414370800007,256.32414370800007,256.27095800033334,256.32414370800007,256.32414370800007,256.32414370800007,256.27095800033334,256.32414370800007,256.32414370800007,256.32414370800007,256.32414370800007,256.32414370800007,261.6425144579998,261.6425144579998,261.39231599999994,None,0,,,reldom2_s039,001,2025-03-19_14h52.04.936,practice_test1_AC,2022.2.5,None,
,,,,,,,,,,,,,,,,,,,,,,,,,,,,,,,,,,,,,,,,,,,,,,,,,,,,,,,,,,,,,,,,,,,,,,,,,,,,,,,,,,,,,,,,,,,,,,,,,,,261.6425144579998,,,,,,,
