Trial,Order,Block,Type,Stimuli_File1,Stimuli_File2,Stimuli_File3,Stimuli_File4,Cue_File1,Cue_File2,Response_File_Yes,Response_File_No,Match,Cue_Dimension,Pair1_Dimension,Pair2_Dimension,Key,Cue1_Duration,Cue1_Onset,Cue2_Duration,Cue2_Onset,ResponseYes_Duration,ResponseYes_Onset,ResponseNo_Duration,ResponseNo_Onset,ITI_Within,ITI_Between,Image1_Duration,Image1_Onset,Image2_Duration,Image2_Onset,Image3_Duration,Image3_Onset,Image4_Duration,Image4_Onset,Sound1_Duration,Sound1_Onset,Sound2_Duration,Sound2_Onset,Sound3_Duration,Sound3_Onset,Sound4_Duration,Sound4_Onset,Fixation_Duration,trials_2.thisRepN,trials_2.thisTrialN,trials_2.thisN,trials_2.thisIndex,trials.thisRepN,trials.thisTrialN,trials.thisN,trials.thisIndex,text_start.started,key_resp_start.started,key_resp_start.keys,key_resp_start.rt,cue_file1.started,cue_file1.stopped,image_1.started,image_1.stopped,image_2.started,image_2.stopped,sound_icon1.started,sound_icon1.stopped,sound_1.started,sound_1.stopped,sound_icon2.started,sound_icon2.stopped,sound_2.started,sound_2.stopped,image_blank_1.started,image_blank_1.stopped,key_press.started,key_press.stopped,fixation_text.started,cue_file2.started,cue_file2.stopped,image_3.started,image_3.stopped,image_4.started,image_4.stopped,sound_icon3.started,sound_icon3.stopped,sound_3.started,sound_3.stopped,sound_icon4.started,sound_icon4.stopped,sound_4.started,sound_4.stopped,response_yes.started,response_yes.stopped,response_no.started,response_no.stopped,iti_blank.started,iti_blank.stopped,fixation_text.stopped,key_press.keys,key_press.corr,key_press.rt,text_score.started,participant,session,date,expName,psychopyVersion,frameRate,
,,,,,,,,,,,,,,,,,,,,,,,,,,,,,,,,,,,,,,,,,,,,,,,,,,,,9.154518125000322,9.154518125000322,2,2.313115999999809,,,,,,,,,,,,,,,,,,,,,,,,,,,,,,,,,,,,,,,,,,,,,reldom2_s039,001,2025-03-19_14h57.12.668,practice_test2_AC,2022.2.5,None,
,,,,,,,,,,,,,,,,,,,,,,,,,,,,,,,,,,,,,,,,,,,,0,0,0,0,,,,,,,,,,,,,,,,,,,,,,,,,,,,,,,,,,,,,,,,,,,,,,,,,,,,,reldom2_s039,001,2025-03-19_14h57.12.668,practice_test2_AC,2022.2.5,None,
,,,,,,,,,,,,,,,,,,,,,,,,,,,,,,,,,,,,,,,,,,,,1,0,1,0,,,,,,,,,,,,,,,,,,,,,,,,,,,,,,,,,,,,,,,,,,,,,,,,,,,,,reldom2_s039,001,2025-03-19_14h57.12.668,practice_test2_AC,2022.2.5,None,
,,,,,,,,,,,,,,,,,,,,,,,,,,,,,,,,,,,,,,,,,,,,2,0,2,0,,,,,,,,,,,,,,,,,,,,,,,,,,,,,,,,,,,,,,,,,,,,,,,,,,,,,reldom2_s039,001,2025-03-19_14h57.12.668,practice_test2_AC,2022.2.5,None,
,,,,,,,,,,,,,,,,,,,,,,,,,,,,,,,,,,,,,,,,,,,,3,0,3,0,,,,,,,,,,,,,,,,,,,,,,,,,,,,,,,,,,,,,,,,,,,,,,,,,,,,,reldom2_s039,001,2025-03-19_14h57.12.668,practice_test2_AC,2022.2.5,None,
0,0.0,None,fixation,stimulus/viswhat_stim/blank_white.png,stimulus/viswhat_stim/blank_white.png,stimulus/audwhat_stim/blank_white.png,stimulus/audwhat_stim/blank_white.png,stimulus/viswhat_stim/blank_white.png,stimulus/viswhat_stim/blank_white.png,stimulus/viswhat_stim/blank_white.png,stimulus/viswhat_stim/blank_white.png,0.0,0.0,0.0,0.0,0,0.0,0,0.0,0,0.0,0,0.0,0,0.0,0.0,0,0.0,0,0.0,0,0.0,0,0.0,0,0.0,0,0.0,0,0.0,0,0.0,6,,,,,0,0,0,0,,,,,11.701696500000253,11.701696500000253,11.701696500000253,11.701696500000253,11.701696500000253,11.701696500000253,11.701696500000253,11.701696500000253,11.59585749966697,11.701696500000253,11.701696500000253,11.701696500000253,11.59585749966697,11.701696500000253,11.701696500000253,11.701696500000253,11.701696500000253,11.701696500000253,11.701696500000253,11.701696500000253,11.701696500000253,11.701696500000253,11.701696500000253,11.701696500000253,11.701696500000253,11.701696500000253,11.701696500000253,11.64585749966697,11.701696500000253,11.701696500000253,11.701696500000253,11.64585749966697,11.701696500000253,11.701696500000253,11.701696500000253,11.701696500000253,11.701696500000253,16.86954300000025,16.86954300000025,17.91552433300012,None,0,,,reldom2_s039,001,2025-03-19_14h57.12.668,practice_test2_AC,2022.2.5,None,
1,First_Order,1.0,viswhat,stimulus/viswhat_stim/blank_white.png,stimulus/viswhat_stim/blank_white.png,stimulus/viswhat_stim/land_vehicle-vespa.png,stimulus/viswhat_stim/water_vehicle-yacht.png,stimulus/viswhat_stim/blank_white.png,stimulus/viswhat_stim/type_box.png,stimulus/viswhat_stim/type_yes.png,stimulus/viswhat_stim/type_no.png,None,Type,None,Type,1,0.0,0,5.25,0,5.25,0,5.25,0,0.0,0.75,0,0.0,0,0.0,1,0.5,1,2.125,0,0.0,0,0.0,0,0.0,0,0.0,0,,,,,0,1,1,1,,,,,17.91552433300012,17.91552433300012,17.91552433300012,17.91552433300012,17.91552433300012,17.91552433300012,17.91552433300012,17.91552433300012,17.839531041000008,17.91552433300012,17.91552433300012,17.91552433300012,17.839531041000008,17.91552433300012,17.91552433300012,17.91552433300012,20.0103591660004,23.893298875000255,17.91552433300012,17.91552433300012,23.1933505410002,18.370885583000018,19.41995587500014,20.0103591660004,21.060628250000264,17.91552433300012,17.91552433300012,17.872864374333343,17.91552433300012,17.91552433300012,17.91552433300012,17.872864374333343,17.91552433300012,17.91552433300012,23.1933505410002,17.91552433300012,23.1933505410002,23.154064625000046,24.09697866600027,17.91552433300012,1,1,1.4878592499994738,,reldom2_s039,001,2025-03-19_14h57.12.668,practice_test2_AC,2022.2.5,None,
2,First_Order,1.0,viswhat,stimulus/viswhat_stim/blank_white.png,stimulus/viswhat_stim/blank_white.png,stimulus/viswhat_stim/water_vehicle-cargoboat.png,stimulus/viswhat_stim/land_vehicle-oldcar.png,stimulus/viswhat_stim/blank_white.png,stimulus/viswhat_stim/location_box.png,stimulus/viswhat_stim/location_yes.png,stimulus/viswhat_stim/location_no.png,None,Location,None,Type,2,0.0,0,5.25,0,5.25,0,5.25,0,0.0,0.75,0,0.0,0,0.0,1,0.5,1,2.125,0,0.0,0,0.0,0,0.0,0,0.0,0,,,,,0,2,2,2,,,,,24.09697866600027,24.09697866600027,24.09697866600027,24.09697866600027,24.09697866600027,24.09697866600027,24.09697866600027,24.09697866600027,24.026632208333588,24.09697866600027,24.09697866600027,24.09697866600027,24.026632208333588,24.09697866600027,24.09697866600027,24.09697866600027,26.18357425000022,30.055696208000427,24.09697866600027,24.09697866600027,29.380927874999998,24.560508583000228,25.628716375000295,26.18357425000022,27.254717750000054,24.09697866600027,24.09697866600027,24.05996554166692,24.09697866600027,24.09697866600027,24.09697866600027,24.05996554166692,24.09697866600027,24.09697866600027,29.380927874999998,24.09697866600027,29.380927874999998,29.29473579100022,30.296731208000438,24.09697866600027,2,1,1.768857042000036,,reldom2_s039,001,2025-03-19_14h57.12.668,practice_test2_AC,2022.2.5,None,
3,First_Order,1.0,viswhat,stimulus/viswhat_stim/blank_white.png,stimulus/viswhat_stim/blank_white.png,stimulus/viswhat_stim/land_vehicle-vespa.png,stimulus/viswhat_stim/water_vehicle-sailboat.png,stimulus/viswhat_stim/blank_white.png,stimulus/viswhat_stim/type_box.png,stimulus/viswhat_stim/type_yes.png,stimulus/viswhat_stim/type_no.png,None,Type,None,Type,1,0.0,0,5.25,0,5.25,0,5.25,0,0.0,0.75,0,0.0,0,0.0,1,0.5,1,2.125,0,0.0,0,0.0,0,0.0,0,0.0,0,,,,,0,3,3,3,,,,,30.296731208000438,30.296731208000438,30.296731208000438,30.296731208000438,30.296731208000438,30.296731208000438,30.296731208000438,30.296731208000438,30.18902954133376,30.296731208000438,30.296731208000438,30.296731208000438,30.18902954133376,30.296731208000438,30.296731208000438,30.296731208000438,32.35703662500009,36.25002520800035,30.296731208000438,30.296731208000438,35.61828754100043,30.747593583000253,31.844517875000292,32.35703662500009,33.44700670800012,30.296731208000438,30.296731208000438,30.23902954133376,30.296731208000438,30.296731208000438,30.296731208000438,30.23902954133376,30.296731208000438,30.296731208000438,35.61828754100043,30.296731208000438,35.61828754100043,35.497720375000426,36.78870616600034,30.296731208000438,1,1,1.584672916999807,,reldom2_s039,001,2025-03-19_14h57.12.668,practice_test2_AC,2022.2.5,None,
4,First_Order,1.0,viswhat,stimulus/viswhat_stim/blank_white.png,stimulus/viswhat_stim/blank_white.png,stimulus/viswhat_stim/land_animal-elephant.png,stimulus/viswhat_stim/water_animal-lobster.png,stimulus/viswhat_stim/blank_white.png,stimulus/viswhat_stim/location_box.png,stimulus/viswhat_stim/location_yes.png,stimulus/viswhat_stim/location_no.png,None,Location,None,Type,2,0.0,0,5.25,0,5.25,0,5.25,0,0.0,0.75,0,0.0,0,0.0,1,0.5,1,2.125,0,0.0,0,0.0,0,0.0,0,0.0,0,,,,,0,4,4,4,,,,,36.78870616600034,36.78870616600034,36.78870616600034,36.78870616600034,36.78870616600034,36.78870616600034,36.78870616600034,36.78870616600034,36.416691874667016,36.78870616600034,36.78870616600034,36.78870616600034,36.416691874667016,36.78870616600034,36.78870616600034,36.78870616600034,38.84514820800041,43.079796875000284,36.78870616600034,36.78870616600034,42.38447254100038,37.16429329100038,38.472895750000134,38.84514820800041,40.15267437500006,36.78870616600034,36.78870616600034,36.60002520800035,36.78870616600034,36.78870616600034,36.78870616600034,36.60002520800035,36.78870616600034,36.78870616600034,42.38447254100038,36.78870616600034,42.38447254100038,41.83151229100031,43.079796875000284,36.78870616600034,2,1,1.329341832999944,,reldom2_s039,001,2025-03-19_14h57.12.668,practice_test2_AC,2022.2.5,None,
0,0.0,None,fixation,stimulus/viswhat_stim/blank_white.png,stimulus/viswhat_stim/blank_white.png,stimulus/audwhat_stim/blank_white.png,stimulus/audwhat_stim/blank_white.png,stimulus/viswhat_stim/blank_white.png,stimulus/viswhat_stim/blank_white.png,stimulus/viswhat_stim/blank_white.png,stimulus/viswhat_stim/blank_white.png,0.0,0.0,0.0,0.0,0,0.0,0,0.0,0,0.0,0,0.0,0,0.0,0.0,0,0.0,0,0.0,0,0.0,0,0.0,0,0.0,0,0.0,0,0.0,0,0.0,6,,,,,0,5,5,5,,,,,43.079796875000284,43.079796875000284,43.079796875000284,43.079796875000284,43.079796875000284,43.079796875000284,43.079796875000284,43.079796875000284,42.98120595766674,43.079796875000284,43.079796875000284,43.079796875000284,42.98120595766674,43.079796875000284,43.079796875000284,43.079796875000284,43.079796875000284,43.079796875000284,43.079796875000284,43.079796875000284,43.079796875000284,43.079796875000284,43.079796875000284,43.079796875000284,43.079796875000284,43.079796875000284,43.079796875000284,43.03120595766674,43.079796875000284,43.079796875000284,43.079796875000284,43.03120595766674,43.079796875000284,43.079796875000284,43.079796875000284,43.079796875000284,43.079796875000284,48.26162525000018,48.26162525000018,49.25464841600024,None,0,,,reldom2_s039,001,2025-03-19_14h57.12.668,practice_test2_AC,2022.2.5,None,
5,Second_Order,1.0,viswhat,stimulus/viswhat_stim/land_animal-giraffe.png,stimulus/viswhat_stim/water_animal-stingray.png,stimulus/viswhat_stim/land_vehicle-trolley.png,stimulus/viswhat_stim/land_animal-elephant.png,stimulus/viswhat_stim/match_blank.png,stimulus/viswhat_stim/match_box.png,stimulus/viswhat_stim/match_yes.png,stimulus/viswhat_stim/match_no.png,2.0,Match,Type,Location,2,5.25,0,5.25,0,5.25,0,5.25,0,0.75,0.75,1,0.5,1,2.125,1,0.5,1,2.125,0,0.0,0,0.0,0,0.0,0,0.0,0,,,,,0,6,6,6,,,,,49.25464841600024,54.506184041000324,49.69911020800009,50.69712266600027,51.32293662500024,52.31744466600003,49.25464841600024,49.25464841600024,49.253487875000154,49.25464841600024,49.25464841600024,49.25464841600024,49.253487875000154,49.25464841600024,54.506184041000324,55.39869316600016,57.43553658300016,61.30042633300036,55.39869316600016,55.39869316600016,60.70705854100015,55.8479355000004,56.92913700000008,57.43553658300016,58.52386275000026,55.39869316600016,55.39869316600016,55.3447591250002,55.39869316600016,55.39869316600016,55.39869316600016,55.3447591250002,55.39869316600016,55.39869316600016,60.70705854100015,55.39869316600016,60.70705854100015,60.58523100000002,61.521971957999995,55.39869316600016,2,1,0.9576192499994249,,reldom2_s039,001,2025-03-19_14h57.12.668,practice_test2_AC,2022.2.5,None,
6,Second_Order,1.0,viswhat,stimulus/viswhat_stim/land_vehicle-scooter.png,stimulus/viswhat_stim/land_animal-moose.png,stimulus/viswhat_stim/water_vehicle-powercruiser.png,stimulus/viswhat_stim/land_vehicle-truck.png,stimulus/viswhat_stim/match_blank.png,stimulus/viswhat_stim/match_box.png,stimulus/viswhat_stim/match_yes.png,stimulus/viswhat_stim/match_no.png,2.0,Match,Location,Type,2,5.25,0,5.25,0,5.25,0,5.25,0,0.75,0.75,1,0.5,1,2.125,1,0.5,1,2.125,0,0.0,0,0.0,0,0.0,0,0.0,0,,,,,0,7,7,7,,,,,61.521971957999995,66.76671591600007,61.96466020800017,62.9647298750001,63.58528933300022,64.57668391600009,61.521971957999995,61.521971957999995,61.52591899966698,61.521971957999995,61.521971957999995,61.521971957999995,61.52591899966698,61.521971957999995,66.76671591600007,67.57677254100008,69.64891325000008,73.5051848750004,67.57677254100008,67.57677254100008,72.84718754100004,68.03533062500037,69.04457575000015,69.64891325000008,70.65993408300028,67.57677254100008,67.57677254100008,67.55190683300025,67.57677254100008,67.57677254100008,67.57677254100008,67.55190683300025,67.57677254100008,67.57677254100008,72.84718754100004,67.57677254100008,72.84718754100004,72.77443729100014,73.72032179100006,67.57677254100008,2,1,0.6957625410000219,,reldom2_s039,001,2025-03-19_14h57.12.668,practice_test2_AC,2022.2.5,None,
0,0.0,None,fixation,stimulus/viswhat_stim/blank_white.png,stimulus/viswhat_stim/blank_white.png,stimulus/audwhat_stim/blank_white.png,stimulus/audwhat_stim/blank_white.png,stimulus/viswhat_stim/blank_white.png,stimulus/viswhat_stim/blank_white.png,stimulus/viswhat_stim/blank_white.png,stimulus/viswhat_stim/blank_white.png,0.0,0.0,0.0,0.0,0,0.0,0,0.0,0,0.0,0,0.0,0,0.0,0.0,0,0.0,0,0.0,0,0.0,0,0.0,0,0.0,0,0.0,0,0.0,0,0.0,7,,,,,0,8,8,8,,,,,73.72032179100006,73.72032179100006,73.72032179100006,73.72032179100006,73.72032179100006,73.72032179100006,73.72032179100006,73.72032179100006,73.6247665830002,73.72032179100006,73.72032179100006,73.72032179100006,73.6247665830002,73.72032179100006,73.72032179100006,73.72032179100006,73.72032179100006,73.72032179100006,73.72032179100006,73.72032179100006,73.72032179100006,73.72032179100006,73.72032179100006,73.72032179100006,73.72032179100006,73.72032179100006,73.72032179100006,73.6747665830002,73.72032179100006,73.72032179100006,73.72032179100006,73.6747665830002,73.72032179100006,73.72032179100006,73.72032179100006,73.72032179100006,73.72032179100006,78.90026020800042,78.90026020800042,81.00148691600043,None,0,,,reldom2_s039,001,2025-03-19_14h57.12.668,practice_test2_AC,2022.2.5,None,
7,First_Order,2.0,audwhat,stimulus/audwhat_stim/dummy.wav,stimulus/audwhat_stim/dummy.wav,stimulus/audwhat_stim/percussion xylophone_high-pitch_Ftri_loud.wav,stimulus/audwhat_stim/percussion mallet_low-pitch_F_loud.wav,stimulus/audwhat_stim/blank_white.png,stimulus/audwhat_stim/category_box.png,stimulus/audwhat_stim/category_yes.png,stimulus/audwhat_stim/category_no.png,None,Category,None,Category,1,0.0,0,5.25,0,5.25,0,5.25,0,0.0,0.75,0,0.0,0,0.0,0,0.0,0,0.0,0,0.0,0,0.0,1,0.5,1,2.125,0,,,,,0,9,9,9,,,,,81.00148691600043,81.00148691600043,81.00148691600043,81.00148691600043,81.00148691600043,81.00148691600043,81.00148691600043,81.00148691600043,80.92385524966691,81.00148691600043,81.00148691600043,81.00148691600043,80.92385524966691,81.00148691600043,81.00148691600043,81.00148691600043,83.07320966600037,86.96282312500034,81.00148691600043,81.00148691600043,86.29989866599999,81.00148691600043,81.00148691600043,81.00148691600043,81.00148691600043,81.45626416600044,82.5165107910002,81.42255816666672,82.46629787500024,83.07320966600037,84.13715075000027,83.03964312466702,,81.00148691600043,86.29989866599999,81.00148691600043,86.29989866599999,86.20538800000031,87.17999291600017,81.00148691600043,None,0,,,reldom2_s039,001,2025-03-19_14h57.12.668,practice_test2_AC,2022.2.5,None,
8,First_Order,2.0,audwhat,stimulus/audwhat_stim/dummy.wav,stimulus/audwhat_stim/dummy.wav,stimulus/audwhat_stim/percussion xylophone_high-pitch_F_loud.wav,stimulus/audwhat_stim/percussion mallet_low-pitch_D_loud.wav,stimulus/audwhat_stim/blank_white.png,stimulus/audwhat_stim/pitch_box.png,stimulus/audwhat_stim/pitch_yes.png,stimulus/audwhat_stim/pitch_no.png,None,Pitch,None,Category,2,0.0,0,5.25,0,5.25,0,5.25,0,0.0,0.75,0,0.0,0,0.0,0,0.0,0,0.0,0,0.0,0,0.0,1,0.5,1,2.125,0,,,,,0,10,10,10,,,,,87.17999291600017,87.17999291600017,87.17999291600017,87.17999291600017,87.17999291600017,87.17999291600017,87.17999291600017,87.17999291600017,87.09615645833367,87.17999291600017,87.17999291600017,87.17999291600017,87.09615645833367,87.17999291600017,87.17999291600017,87.17999291600017,89.25047858300013,93.12916083300024,87.17999291600017,87.17999291600017,92.47165433300006,87.17999291600017,87.17999291600017,87.17999291600017,87.17999291600017,87.63233058300011,88.69383750000043,87.5988872496671,88.64367295800002,89.25047858300013,90.30814950000013,89.21678562466674,,87.17999291600017,92.47165433300006,87.17999291600017,92.47165433300006,92.37679433300036,93.34762275000003,87.17999291600017,1,0,1.2516838749997987,,reldom2_s039,001,2025-03-19_14h57.12.668,practice_test2_AC,2022.2.5,None,
9,First_Order,2.0,audwhat,stimulus/audwhat_stim/dummy.wav,stimulus/audwhat_stim/dummy.wav,stimulus/audwhat_stim/percussion mallet_low-pitch_Dtri_loud.wav,stimulus/audwhat_stim/string viola_low-pitch_Dtri_loud.wav,stimulus/audwhat_stim/blank_white.png,stimulus/audwhat_stim/category_box.png,stimulus/audwhat_stim/category_yes.png,stimulus/audwhat_stim/category_no.png,None,Category,None,Pitch,2,0.0,0,5.25,0,5.25,0,5.25,0,0.0,0.75,0,0.0,0,0.0,0,0.0,0,0.0,0,0.0,0,0.0,1,0.5,1,2.125,0,,,,,0,11,11,11,,,,,93.34762275000003,93.34762275000003,93.34762275000003,93.34762275000003,93.34762275000003,93.34762275000003,93.34762275000003,93.34762275000003,93.26249416633357,93.34762275000003,93.34762275000003,93.34762275000003,93.26249416633357,93.34762275000003,93.34762275000003,93.34762275000003,95.41929508300018,99.3005285410004,93.34762275000003,93.34762275000003,98.63985191600023,93.34762275000003,93.34762275000003,93.34762275000003,93.34762275000003,93.8022465830004,94.86297250000007,93.76818612466674,,95.41929508300018,96.48366329100008,95.38521212466709,,93.34762275000003,98.63985191600023,93.34762275000003,98.63985191600023,98.54561637500001,99.520267375,93.34762275000003,1,0,1.5583925829996588,,reldom2_s039,001,2025-03-19_14h57.12.668,practice_test2_AC,2022.2.5,None,
10,First_Order,2.0,audwhat,stimulus/audwhat_stim/dummy.wav,stimulus/audwhat_stim/dummy.wav,stimulus/audwhat_stim/percussion mallet_low-pitch_F_loud.wav,stimulus/audwhat_stim/percussion mallet_high-pitch_Ftri_loud.wav,stimulus/audwhat_stim/blank_white.png,stimulus/audwhat_stim/category_box.png,stimulus/audwhat_stim/category_yes.png,stimulus/audwhat_stim/category_no.png,None,Category,None,Category,1,0.0,0,5.25,0,5.25,0,5.25,0,0.0,0.75,0,0.0,0,0.0,0,0.0,0,0.0,0,0.0,0,0.0,1,0.5,1,2.125,0,,,,,0,12,12,12,,,,,99.520267375,99.520267375,99.520267375,99.520267375,99.520267375,99.520267375,99.520267375,99.520267375,99.43386187433373,99.520267375,99.520267375,99.520267375,99.43386187433373,99.520267375,99.520267375,99.520267375,101.63521850000006,105.4822440830003,99.520267375,99.520267375,104.8198300830004,99.520267375,99.520267375,99.520267375,99.520267375,99.97153450000042,101.02927395800043,99.93796595766686,,101.63521850000006,102.69946687500033,101.60107995766681,,99.520267375,104.8198300830004,99.520267375,104.8198300830004,104.72488245800014,105.72113283300041,99.520267375,2,0,1.1612015840000822,,reldom2_s039,001,2025-03-19_14h57.12.668,practice_test2_AC,2022.2.5,None,
0,0.0,None,fixation,stimulus/viswhat_stim/blank_white.png,stimulus/viswhat_stim/blank_white.png,stimulus/audwhat_stim/blank_white.png,stimulus/audwhat_stim/blank_white.png,stimulus/viswhat_stim/blank_white.png,stimulus/viswhat_stim/blank_white.png,stimulus/viswhat_stim/blank_white.png,stimulus/viswhat_stim/blank_white.png,0.0,0.0,0.0,0.0,0,0.0,0,0.0,0,0.0,0,0.0,0,0.0,0.0,0,0.0,0,0.0,0,0.0,0,0.0,0,0.0,0,0.0,0,0.0,0,0.0,6,,,,,0,13,13,13,,,,,105.72113283300041,105.72113283300041,105.72113283300041,105.72113283300041,105.72113283300041,105.72113283300041,105.72113283300041,105.72113283300041,105.61557741633362,105.72113283300041,105.72113283300041,105.72113283300041,105.61557741633362,105.72113283300041,105.72113283300041,105.72113283300041,105.72113283300041,105.72113283300041,105.72113283300041,105.72113283300041,105.72113283300041,105.72113283300041,105.72113283300041,105.72113283300041,105.72113283300041,105.72113283300041,105.72113283300041,105.66557741633363,105.72113283300041,105.72113283300041,105.72113283300041,105.66557741633363,105.72113283300041,105.72113283300041,105.72113283300041,105.72113283300041,105.72113283300041,110.94050162500025,110.94050162500025,111.88019329100007,None,0,,,reldom2_s039,001,2025-03-19_14h57.12.668,practice_test2_AC,2022.2.5,None,
11,Second_Order,2.0,audwhat,stimulus/audwhat_stim/string cello_low-pitch_D_loud.wav,stimulus/audwhat_stim/string viola_high-pitch_Dtri_loud.wav,stimulus/audwhat_stim/percussion mallet_high-pitch_F_loud.wav,stimulus/audwhat_stim/percussion mallet_low-pitch_Dtri_loud.wav,stimulus/viswhat_stim/match_blank.png,stimulus/viswhat_stim/match_box.png,stimulus/viswhat_stim/match_yes.png,stimulus/viswhat_stim/match_no.png,1.0,Match,Category,Category,1,5.25,0,5.25,0,5.25,0,5.25,0,0.75,0.75,0,0.0,0,0.0,0,0.0,0,0.0,1,0.5,1,2.125,1,0.5,1,2.125,0,,,,,0,14,14,14,,,,,111.88019329100007,117.13072245800004,111.88019329100007,111.88019329100007,111.88019329100007,111.88019329100007,112.34778745800031,113.34660712499999,112.34350320766704,,113.95233779099999,114.94481445800011,113.96130137466686,,117.13072245800004,118.00104116600005,120.07598329100028,123.9143247080001,118.00104116600005,118.00104116600005,123.29796991600006,118.00104116600005,118.00104116600005,118.00104116600005,118.00104116600005,118.41075041600016,119.47181208300026,118.37687299966707,,120.07598329100028,121.13808629100004,120.04243629166673,,118.00104116600005,123.29796991600006,118.00104116600005,123.29796991600006,123.20329500000025,124.08350687500024,118.00104116600005,1,1,1.6635569169998234,,reldom2_s039,001,2025-03-19_14h57.12.668,practice_test2_AC,2022.2.5,None,
12,Second_Order,2.0,audwhat,stimulus/audwhat_stim/string viola_high-pitch_Dtri_loud.wav,stimulus/audwhat_stim/percussion xylophone_high-pitch_Dtri_loud.wav,stimulus/audwhat_stim/string viola_low-pitch_Ftri_loud.wav,stimulus/audwhat_stim/percussion mallet_low-pitch_Ftri_loud.wav,stimulus/viswhat_stim/match_blank.png,stimulus/viswhat_stim/match_box.png,stimulus/viswhat_stim/match_yes.png,stimulus/viswhat_stim/match_no.png,1.0,Match,Pitch,Pitch,1,5.25,0,5.25,0,5.25,0,5.25,0,0.75,0.75,0,0.0,0,0.0,0,0.0,0,0.0,1,0.5,1,2.125,1,0.5,1,2.125,0,,,,,0,15,15,15,,,,,124.08350687500024,129.325609041,124.08350687500024,124.08350687500024,124.08350687500024,124.08350687500024,124.53042795800002,125.52208887500001,124.53923579166691,,126.15715358300031,127.15267129100039,126.16642341666672,127.15844750000042,129.325609041,130.19075675000022,132.26540895800008,136.11205845800032,130.19075675000022,130.19075675000022,135.49415158300008,130.19075675000022,130.19075675000022,130.19075675000022,130.19075675000022,130.60136595800032,131.6624423750004,130.5671294166671,,132.26540895800008,133.3287579580001,132.23080729166693,,130.19075675000022,135.49415158300008,130.19075675000022,135.49415158300008,135.34862037500034,136.35150737500044,130.19075675000022,1,1,1.6659838749997107,,reldom2_s039,001,2025-03-19_14h57.12.668,practice_test2_AC,2022.2.5,None,
0,0.0,None,fixation,stimulus/viswhat_stim/blank_white.png,stimulus/viswhat_stim/blank_white.png,stimulus/audwhat_stim/blank_white.png,stimulus/audwhat_stim/blank_white.png,stimulus/viswhat_stim/blank_white.png,stimulus/viswhat_stim/blank_white.png,stimulus/viswhat_stim/blank_white.png,stimulus/viswhat_stim/blank_white.png,0.0,0.0,0.0,0.0,0,0.0,0,0.0,0,0.0,0,0.0,0,0.0,0.0,0,0.0,0,0.0,0,0.0,0,0.0,0,0.0,0,0.0,0,0.0,0,0.0,6,,,,,0,16,16,16,,,,,136.35150737500044,136.35150737500044,136.35150737500044,136.35150737500044,136.35150737500044,136.35150737500044,136.35150737500044,136.35150737500044,136.24539179133367,136.35150737500044,136.35150737500044,136.35150737500044,136.24539179133367,136.35150737500044,136.35150737500044,136.35150737500044,136.35150737500044,136.35150737500044,136.35150737500044,136.35150737500044,136.35150737500044,136.35150737500044,136.35150737500044,136.35150737500044,136.35150737500044,136.35150737500044,136.35150737500044,136.29539179133366,136.35150737500044,136.35150737500044,136.35150737500044,136.29539179133366,136.35150737500044,136.35150737500044,136.35150737500044,136.35150737500044,136.35150737500044,141.54694020800025,141.54694020800025,142.58629287500025,None,0,,,reldom2_s039,001,2025-03-19_14h57.12.668,practice_test2_AC,2022.2.5,None,
13,First_Order,3.0,audwhere,stimulus/audwhere_stim/dummy.wav,stimulus/audwhere_stim/dummy.wav,stimulus/audwhere_stim/left_toward_270h.wav,stimulus/audwhere_stim/right_toward_270h.wav,stimulus/audwhere_stim/blank_white.png,stimulus/audwhere_stim/direction_box.png,stimulus/audwhere_stim/direction_yes.png,stimulus/audwhere_stim/direction_no.png,None,Direction,None,Direction,1,0.0,0,5.25,0,5.25,0,5.25,0,0.0,0.75,0,0.0,0,0.0,0,0.0,0,0.0,0,0.0,0,0.0,1,0.5,1,2.125,0,,,,,0,17,17,17,,,,,142.58629287500025,142.58629287500025,142.58629287500025,142.58629287500025,142.58629287500025,142.58629287500025,142.58629287500025,142.58629287500025,142.50686387466675,142.58629287500025,142.58629287500025,142.58629287500025,142.50686387466675,142.58629287500025,142.58629287500025,142.58629287500025,144.66150458300035,148.52451050000036,142.58629287500025,142.58629287500025,147.90450045800026,142.58629287500025,142.58629287500025,142.58629287500025,142.58629287500025,143.04143895800007,144.10481062500003,143.0078161246668,,144.66150458300035,145.72974266600022,144.62705495766684,,142.58629287500025,147.90450045800026,142.58629287500025,147.90450045800026,147.80921370800024,148.78783487500004,142.58629287500025,1,1,1.8344104579996383,,reldom2_s039,001,2025-03-19_14h57.12.668,practice_test2_AC,2022.2.5,None,
14,First_Order,3.0,audwhere,stimulus/audwhere_stim/dummy.wav,stimulus/audwhere_stim/dummy.wav,stimulus/audwhere_stim/right_away_280h.wav,stimulus/audwhere_stim/right_toward_290h.wav,stimulus/audwhere_stim/blank_white.png,stimulus/audwhere_stim/side_box.png,stimulus/audwhere_stim/side_yes.png,stimulus/audwhere_stim/side_no.png,None,Side,None,Side,1,0.0,0,5.25,0,5.25,0,5.25,0,0.0,0.75,0,0.0,0,0.0,0,0.0,0,0.0,0,0.0,0,0.0,1,0.5,1,2.125,0,,,,,0,18,18,18,,,,,148.78783487500004,148.78783487500004,148.78783487500004,148.78783487500004,148.78783487500004,148.78783487500004,148.78783487500004,148.78783487500004,148.7024268743336,148.78783487500004,148.78783487500004,148.78783487500004,148.7024268743336,148.78783487500004,148.78783487500004,148.78783487500004,150.8990572910002,154.73923104100004,148.78783487500004,148.78783487500004,154.0774357080004,148.78783487500004,148.78783487500004,148.78783487500004,148.78783487500004,149.24091295800008,150.29768566600023,149.20751291666673,,150.8990572910002,151.95614233300012,150.86548099966674,,148.78783487500004,154.0774357080004,148.78783487500004,154.0774357080004,153.98319775000027,154.95739337500027,148.78783487500004,1,1,1.5951855419998537,,reldom2_s039,001,2025-03-19_14h57.12.668,practice_test2_AC,2022.2.5,None,
15,First_Order,3.0,audwhere,stimulus/audwhere_stim/dummy.wav,stimulus/audwhere_stim/dummy.wav,stimulus/audwhere_stim/right_away_270h.wav,stimulus/audwhere_stim/right_toward_300h.wav,stimulus/audwhere_stim/blank_white.png,stimulus/audwhere_stim/side_box.png,stimulus/audwhere_stim/side_yes.png,stimulus/audwhere_stim/side_no.png,None,Side,None,Side,1,0.0,0,5.25,0,5.25,0,5.25,0,0.0,0.75,0,0.0,0,0.0,0,0.0,0,0.0,0,0.0,0,0.0,1,0.5,1,2.125,0,,,,,0,19,19,19,,,,,154.95739337500027,154.95739337500027,154.95739337500027,154.95739337500027,154.95739337500027,154.95739337500027,154.95739337500027,154.95739337500027,154.8725643743334,154.95739337500027,154.95739337500027,154.95739337500027,154.8725643743334,154.95739337500027,154.95739337500027,154.95739337500027,157.0665175830004,160.93873412500034,154.95739337500027,154.95739337500027,160.23449954100033,154.95739337500027,154.95739337500027,154.95739337500027,154.95739337500027,155.41001837500016,156.46252475000028,155.37620170766675,,157.0665175830004,158.1248450410003,157.0326654576668,,154.95739337500027,160.23449954100033,154.95739337500027,160.23449954100033,160.1906068330004,161.15587137500006,154.95739337500027,1,1,1.753596791999371,,reldom2_s039,001,2025-03-19_14h57.12.668,practice_test2_AC,2022.2.5,None,
16,First_Order,3.0,audwhere,stimulus/audwhere_stim/dummy.wav,stimulus/audwhere_stim/dummy.wav,stimulus/audwhere_stim/right_toward_300h.wav,stimulus/audwhere_stim/right_away_290h.wav,stimulus/audwhere_stim/blank_white.png,stimulus/audwhere_stim/direction_box.png,stimulus/audwhere_stim/direction_yes.png,stimulus/audwhere_stim/direction_no.png,None,Direction,None,Side,2,0.0,0,5.25,0,5.25,0,5.25,0,0.0,0.75,0,0.0,0,0.0,0,0.0,0,0.0,0,0.0,0,0.0,1,0.5,1,2.125,0,,,,,0,20,20,20,,,,,161.15587137500006,161.15587137500006,161.15587137500006,161.15587137500006,161.15587137500006,161.15587137500006,161.15587137500006,161.15587137500006,161.0720674583337,161.15587137500006,161.15587137500006,161.15587137500006,161.0720674583337,161.15587137500006,161.15587137500006,161.15587137500006,163.23271350000005,167.0951666660003,161.15587137500006,161.15587137500006,166.4753598330003,161.15587137500006,161.15587137500006,161.15587137500006,161.15587137500006,161.61379666600033,162.67689662500015,161.5797701246668,,163.23271350000005,164.3005266250002,163.19857433266705,,161.15587137500006,166.4753598330003,161.15587137500006,166.4753598330003,166.38066404100027,167.3759255,161.15587137500006,2,1,1.6620627499996772,,reldom2_s039,001,2025-03-19_14h57.12.668,practice_test2_AC,2022.2.5,None,
0,0.0,None,fixation,stimulus/viswhere_stim/blank_white.png,stimulus/viswhere_stim/blank_white.png,stimulus/audwhere_stim/blank_white.png,stimulus/audwhere_stim/blank_white.png,stimulus/viswhere_stim/blank_white.png,stimulus/viswhere_stim/blank_white.png,stimulus/viswhat_stim/blank_white.png,stimulus/viswhat_stim/blank_white.png,0.0,0.0,0.0,0.0,0,0.0,0,0.0,0,0.0,0,0.0,0,0.0,0.0,0,0.0,0,0.0,0,0.0,0,0.0,0,0.0,0,0.0,0,0.0,0,0.0,5,,,,,0,21,21,21,,,,,167.3759255,167.3759255,167.3759255,167.3759255,167.3759255,167.3759255,167.3759255,167.3759255,167.27262341633346,167.3759255,167.3759255,167.3759255,167.27262341633346,167.3759255,167.3759255,167.3759255,167.3759255,167.3759255,167.3759255,167.3759255,167.3759255,167.3759255,167.3759255,167.3759255,167.3759255,167.3759255,167.3759255,167.32262341633344,167.3759255,167.3759255,167.3759255,167.32262341633344,167.3759255,167.3759255,167.3759255,167.3759255,167.3759255,172.6755997080004,172.6755997080004,172.46858225000005,None,0,,,reldom2_s039,001,2025-03-19_14h57.12.668,practice_test2_AC,2022.2.5,None,
17,Second_Order,3.0,audwhere,stimulus/audwhere_stim/right_toward_270h.wav,stimulus/audwhere_stim/left_toward_290h.wav,stimulus/audwhere_stim/left_away_270h.wav,stimulus/audwhere_stim/left_toward_290h.wav,stimulus/viswhat_stim/match_blank.png,stimulus/viswhat_stim/match_box.png,stimulus/viswhat_stim/match_yes.png,stimulus/viswhat_stim/match_no.png,2.0,Match,Direction,Side,2,5.25,0,5.25,0,5.25,0,5.25,0,0.75,0.75,0,0.0,0,0.0,0,0.0,0,0.0,1,0.5,1,2.125,1,0.5,1,2.125,0,,,,,0,22,22,22,,,,,172.6755997080004,177.9222355410002,172.6755997080004,172.6755997080004,172.6755997080004,172.6755997080004,173.12290491600015,174.1121451250001,173.1313935826668,,174.75613737500043,175.75574887500034,174.76450158266678,,177.9222355410002,178.7817365410001,180.85213033300033,184.69428995800035,178.7817365410001,178.7817365410001,184.07426483300014,178.7817365410001,178.7817365410001,178.7817365410001,178.7817365410001,179.1924344160002,180.2498830000004,179.15835124966705,,180.85213033300033,181.9103929160001,180.8184527496667,,178.7817365410001,184.07426483300014,178.7817365410001,184.07426483300014,183.9796751660001,184.86088770800006,178.7817365410001,2,1,1.7129877499996837,,reldom2_s039,001,2025-03-19_14h57.12.668,practice_test2_AC,2022.2.5,None,
18,Second_Order,3.0,audwhere,stimulus/audwhere_stim/left_toward_270h.wav,stimulus/audwhere_stim/right_toward_300h.wav,stimulus/audwhere_stim/right_toward_300h.wav,stimulus/audwhere_stim/right_away_270h.wav,stimulus/viswhat_stim/match_blank.png,stimulus/viswhat_stim/match_box.png,stimulus/viswhat_stim/match_yes.png,stimulus/viswhat_stim/match_no.png,2.0,Match,Direction,Side,2,5.25,0,5.25,0,5.25,0,5.25,0,0.75,0.75,0,0.0,0,0.0,0,0.0,0,0.0,1,0.5,1,2.125,1,0.5,1,2.125,0,,,,,0,23,23,23,,,,,184.86088770800006,190.10574733300018,184.86088770800006,184.86088770800006,184.86088770800006,184.86088770800006,185.31491025000014,186.31042241600016,185.32418395766697,,186.93399020800007,187.92839325000023,186.9426148326668,,190.10574733300018,190.97299216600004,193.04038362500023,196.8862935410002,190.97299216600004,190.97299216600004,196.26833787500027,190.97299216600004,190.97299216600004,190.97299216600004,190.97299216600004,191.3824335410004,192.43607441600034,191.34854587466705,,193.04038362500023,194.10167704100013,193.0062467916671,,190.97299216600004,196.26833787500027,190.97299216600004,196.26833787500027,196.1732225830001,197.16773225000043,190.97299216600004,2,1,1.3038110409997898,,reldom2_s039,001,2025-03-19_14h57.12.668,practice_test2_AC,2022.2.5,None,
0,0.0,None,fixation,stimulus/viswhere_stim/blank_white.png,stimulus/viswhere_stim/blank_white.png,stimulus/audwhere_stim/blank_white.png,stimulus/audwhere_stim/blank_white.png,stimulus/viswhere_stim/blank_white.png,stimulus/viswhere_stim/blank_white.png,stimulus/viswhat_stim/blank_white.png,stimulus/viswhat_stim/blank_white.png,0.0,0.0,0.0,0.0,0,0.0,0,0.0,0,0.0,0,0.0,0,0.0,0.0,0,0.0,0,0.0,0,0.0,0,0.0,0,0.0,0,0.0,0,0.0,0,0.0,5,,,,,0,24,24,24,,,,,197.16773225000043,197.16773225000043,197.16773225000043,197.16773225000043,197.16773225000043,197.16773225000043,197.16773225000043,197.16773225000043,197.06424337433342,197.16773225000043,197.16773225000043,197.16773225000043,197.06424337433342,197.16773225000043,197.16773225000043,197.16773225000043,197.16773225000043,197.16773225000043,197.16773225000043,197.16773225000043,197.16773225000043,197.16773225000043,197.16773225000043,197.16773225000043,197.16773225000043,197.16773225000043,197.16773225000043,197.1142433743334,197.16773225000043,197.16773225000043,197.16773225000043,197.1142433743334,197.16773225000043,197.16773225000043,197.16773225000043,197.16773225000043,197.16773225000043,202.49187954100034,202.49187954100034,202.24395266600004,None,0,,,reldom2_s039,001,2025-03-19_14h57.12.668,practice_test2_AC,2022.2.5,None,
19,First_Order,4.0,viswhere,stimulus/viswhere_stim/blank_white.png,stimulus/viswhere_stim/blank_white.png,stimulus/viswhere_stim/90-deg_dot-right_peru.png,stimulus/viswhere_stim/120-deg_dot-right_slateblue.png,stimulus/viswhere_stim/blank_white.png,stimulus/viswhere_stim/dot_box.png,stimulus/viswhere_stim/dot_yes.png,stimulus/viswhere_stim/dot_no.png,None,Dot,None,Dot,1,0.0,0,5.25,0,5.25,0,5.25,0,0.0,0.75,0,0.0,0,0.0,1,0.5,1,2.125,0,0.0,0,0.0,0,0.0,0,0.0,0,,,,,0,25,25,25,,,,,202.49187954100034,202.49187954100034,202.49187954100034,202.49187954100034,202.49187954100034,202.49187954100034,202.49187954100034,202.49187954100034,202.46699579166687,202.49187954100034,202.49187954100034,202.49187954100034,202.46699579166687,202.49187954100034,202.49187954100034,202.49187954100034,204.600759166,208.56044041600035,202.49187954100034,202.49187954100034,207.75220312500005,202.97325304100013,203.98310987500008,204.600759166,205.61752516600018,202.49187954100034,202.49187954100034,202.48366245833353,202.49187954100034,202.49187954100034,202.49187954100034,202.48366245833353,202.49187954100034,202.49187954100034,207.75220312500005,202.49187954100034,207.75220312500005,207.7123267080001,208.56044041600035,202.49187954100034,1,1,1.2509956250000869,,reldom2_s039,001,2025-03-19_14h57.12.668,practice_test2_AC,2022.2.5,None,
20,First_Order,4.0,viswhere,stimulus/viswhere_stim/blank_white.png,stimulus/viswhere_stim/blank_white.png,stimulus/viswhere_stim/30-deg_dot-right_turquoise.png,stimulus/viswhere_stim/60-deg_dot-right_seagreen.png,stimulus/viswhere_stim/blank_white.png,stimulus/viswhere_stim/line_box.png,stimulus/viswhere_stim/line_yes.png,stimulus/viswhere_stim/line_no.png,None,Line,None,Dot,2,0.0,0,5.25,0,5.25,0,5.25,0,0.0,0.75,0,0.0,0,0.0,1,0.5,1,2.125,0,0.0,0,0.0,0,0.0,0,0.0,0,,,,,0,26,26,26,,,,,208.56044041600035,208.56044041600035,208.56044041600035,208.56044041600035,208.56044041600035,208.56044041600035,208.56044041600035,208.56044041600035,208.53551158333343,208.56044041600035,208.56044041600035,208.56044041600035,208.53551158333343,208.56044041600035,208.56044041600035,208.56044041600035,210.67465400000037,214.53103450000026,208.56044041600035,208.56044041600035,213.8308835830003,209.043621541,210.0558591250001,210.67465400000037,211.695573125,208.56044041600035,208.56044041600035,208.5521782500001,208.56044041600035,208.56044041600035,208.56044041600035,208.5521782500001,208.56044041600035,208.56044041600035,213.8308835830003,208.56044041600035,213.8308835830003,213.79175370800021,214.63939970800038,208.56044041600035,2,1,1.1482972079998035,,reldom2_s039,001,2025-03-19_14h57.12.668,practice_test2_AC,2022.2.5,None,
21,First_Order,4.0,viswhere,stimulus/viswhere_stim/blank_white.png,stimulus/viswhere_stim/blank_white.png,stimulus/viswhere_stim/120-deg_dot-left_goldenrod.png,stimulus/viswhere_stim/90-deg_dot-left_seagreen.png,stimulus/viswhere_stim/blank_white.png,stimulus/viswhere_stim/line_box.png,stimulus/viswhere_stim/line_yes.png,stimulus/viswhere_stim/line_no.png,None,Line,None,Dot,2,0.0,0,5.25,0,5.25,0,5.25,0,0.0,0.75,0,0.0,0,0.0,1,0.5,1,2.125,0,0.0,0,0.0,0,0.0,0,0.0,0,,,,,0,27,27,27,,,,,214.63939970800038,214.63939970800038,214.63939970800038,214.63939970800038,214.63939970800038,214.63939970800038,214.63939970800038,214.63939970800038,214.6143678333336,214.63939970800038,214.63939970800038,214.63939970800038,214.6143678333336,214.63939970800038,214.63939970800038,214.63939970800038,216.73879441600002,220.6147409580003,214.63939970800038,214.63939970800038,219.89652133300024,215.1228859160001,216.14300491600034,216.73879441600002,217.75602158300035,214.63939970800038,214.63939970800038,214.63103450000028,214.63939970800038,214.63939970800038,214.63939970800038,214.63103450000028,214.63939970800038,214.63939970800038,219.89652133300024,214.63939970800038,219.89652133300024,219.87930000000006,220.72387908300016,214.63939970800038,2,1,1.1669515829999,,reldom2_s039,001,2025-03-19_14h57.12.668,practice_test2_AC,2022.2.5,None,
22,First_Order,4.0,viswhere,stimulus/viswhere_stim/blank_white.png,stimulus/viswhere_stim/blank_white.png,stimulus/viswhere_stim/150-deg_dot-right_royalblue.png,stimulus/viswhere_stim/150-deg_dot-left_slateblue.png,stimulus/viswhere_stim/blank_white.png,stimulus/viswhere_stim/dot_box.png,stimulus/viswhere_stim/dot_yes.png,stimulus/viswhere_stim/dot_no.png,None,Dot,None,Line,2,0.0,0,5.25,0,5.25,0,5.25,0,0.0,0.75,0,0.0,0,0.0,1,0.5,1,2.125,0,0.0,0,0.0,0,0.0,0,0.0,0,,,,,0,28,28,28,,,,,220.72387908300016,220.72387908300016,220.72387908300016,220.72387908300016,220.72387908300016,220.72387908300016,220.72387908300016,220.72387908300016,220.69807429133365,220.72387908300016,220.72387908300016,220.72387908300016,220.69807429133365,220.72387908300016,220.72387908300016,220.72387908300016,222.8354711660004,226.70016583300003,220.72387908300016,220.72387908300016,225.99220541600016,221.21074687500004,222.23471687500023,222.8354711660004,223.84429575000013,220.72387908300016,220.72387908300016,220.71474095800033,220.72387908300016,220.72387908300016,220.72387908300016,220.71474095800033,220.72387908300016,220.72387908300016,225.99220541600016,220.72387908300016,225.99220541600016,225.95201029100008,226.88546920800036,220.72387908300016,2,1,0.9530214159999559,,reldom2_s039,001,2025-03-19_14h57.12.668,practice_test2_AC,2022.2.5,None,
0,0.0,None,fixation,stimulus/viswhere_stim/blank_white.png,stimulus/viswhere_stim/blank_white.png,stimulus/audwhere_stim/blank_white.png,stimulus/audwhere_stim/blank_white.png,stimulus/viswhere_stim/blank_white.png,stimulus/viswhere_stim/blank_white.png,stimulus/viswhat_stim/blank_white.png,stimulus/viswhat_stim/blank_white.png,0.0,0.0,0.0,0.0,0,0.0,0,0.0,0,0.0,0,0.0,0,0.0,0.0,0,0.0,0,0.0,0,0.0,0,0.0,0,0.0,0,0.0,0,0.0,0,0.0,5,,,,,0,29,29,29,,,,,226.88546920800036,226.88546920800036,226.88546920800036,226.88546920800036,226.88546920800036,226.88546920800036,226.88546920800036,226.88546920800036,226.78349916633337,226.88546920800036,226.88546920800036,226.88546920800036,226.78349916633337,226.88546920800036,226.88546920800036,226.88546920800036,226.88546920800036,226.88546920800036,226.88546920800036,226.88546920800036,226.88546920800036,226.88546920800036,226.88546920800036,226.88546920800036,226.88546920800036,226.88546920800036,226.88546920800036,226.83349916633338,226.88546920800036,226.88546920800036,226.88546920800036,226.83349916633338,226.88546920800036,226.88546920800036,226.88546920800036,226.88546920800036,226.88546920800036,232.13619520800012,232.13619520800012,231.95803137500025,None,0,,,reldom2_s039,001,2025-03-19_14h57.12.668,practice_test2_AC,2022.2.5,None,
23,Second_Order,4.0,viswhere,stimulus/viswhere_stim/150-deg_dot-right_slateblue.png,stimulus/viswhere_stim/150-deg_dot-left_turquoise.png,stimulus/viswhere_stim/90-deg_dot-left_mediumslateblue.png,stimulus/viswhere_stim/90-deg_dot-right_peru.png,stimulus/viswhat_stim/match_blank.png,stimulus/viswhat_stim/match_box.png,stimulus/viswhat_stim/match_yes.png,stimulus/viswhat_stim/match_no.png,1.0,Match,Line,Line,1,5.25,0,5.25,0,5.25,0,5.25,0,0.75,0.75,1,0.5,1,2.125,1,0.5,1,2.125,0,0.0,0,0.0,0,0.0,0,0.0,0,,,,,0,30,30,30,,,,,232.13619520800012,237.38184104100037,232.60810612500018,233.600307833,234.23480608300042,235.22438733300032,232.13619520800012,232.13619520800012,232.14725229133379,232.13619520800012,232.13619520800012,232.13619520800012,232.14725229133379,232.13619520800012,237.38184104100037,238.18296875000033,240.26007479100008,244.14932645800036,238.18296875000033,238.18296875000033,243.44017466600008,238.634554708,239.66000491600016,240.26007479100008,241.2873802500003,238.18296875000033,238.18296875000033,238.16614750000036,238.18296875000033,238.18296875000033,238.18296875000033,238.16614750000036,238.18296875000033,238.18296875000033,243.44017466600008,238.18296875000033,243.44017466600008,243.3767720830001,244.14932645800036,238.18296875000033,1,1,1.4978046249998442,,reldom2_s039,001,2025-03-19_14h57.12.668,practice_test2_AC,2022.2.5,None,
24,Second_Order,4.0,viswhere,stimulus/viswhere_stim/150-deg_dot-right_mediumslateblue.png,stimulus/viswhere_stim/30-deg_dot-right_salmon.png,stimulus/viswhere_stim/120-deg_dot-right_royalblue.png,stimulus/viswhere_stim/120-deg_dot-left_salmon.png,stimulus/viswhat_stim/match_blank.png,stimulus/viswhat_stim/match_box.png,stimulus/viswhat_stim/match_yes.png,stimulus/viswhat_stim/match_no.png,2.0,Match,Dot,Line,2,5.25,0,5.25,0,5.25,0,5.25,0,0.75,0.75,1,0.5,1,2.125,1,0.5,1,2.125,0,0.0,0,0.0,0,0.0,0,0.0,0,,,,,0,31,31,31,,,,,244.14932645800036,249.3919635000002,244.63041645800013,245.625795208,246.25102287500022,247.24442741600024,244.14932645800036,244.14932645800036,244.1597213750004,244.14932645800036,244.14932645800036,244.14932645800036,244.1597213750004,244.14932645800036,249.3919635000002,250.19599662500013,252.286264416,256.1477922910003,250.19599662500013,250.19599662500013,255.450165708,250.64584641600004,251.66522354100016,252.286264416,253.30936083300003,250.19599662500013,250.19599662500013,250.1683605833337,250.19599662500013,250.19599662500013,250.19599662500013,250.1683605833337,250.19599662500013,250.19599662500013,255.450165708,250.19599662500013,255.450165708,255.41031166600033,256.3354308750004,250.19599662500013,1,0,1.7250298749995636,,reldom2_s039,001,2025-03-19_14h57.12.668,practice_test2_AC,2022.2.5,None,
0,0.0,None,fixation,stimulus/viswhere_stim/blank_white.png,stimulus/viswhere_stim/blank_white.png,stimulus/audwhere_stim/blank_white.png,stimulus/audwhere_stim/blank_white.png,stimulus/viswhere_stim/blank_white.png,stimulus/viswhere_stim/blank_white.png,stimulus/viswhat_stim/blank_white.png,stimulus/viswhat_stim/blank_white.png,0.0,0.0,0.0,0.0,0,0.0,0,0.0,0,0.0,0,0.0,0,0.0,0.0,0,0.0,0,0.0,0,0.0,0,0.0,0,0.0,0,0.0,0,0.0,0,0.0,7,,,,,0,32,32,32,,,,,256.3354308750004,256.3354308750004,256.3354308750004,256.3354308750004,256.3354308750004,256.3354308750004,256.3354308750004,256.3354308750004,256.23112562433363,256.3354308750004,256.3354308750004,256.3354308750004,256.23112562433363,256.3354308750004,256.3354308750004,256.3354308750004,256.3354308750004,256.3354308750004,256.3354308750004,256.3354308750004,256.3354308750004,256.3354308750004,256.3354308750004,256.3354308750004,256.3354308750004,256.3354308750004,256.3354308750004,256.28112562433364,256.3354308750004,256.3354308750004,256.3354308750004,256.28112562433364,256.3354308750004,256.3354308750004,256.3354308750004,256.3354308750004,256.3354308750004,261.52432379100037,261.52432379100037,263.47261025000034,None,0,,,reldom2_s039,001,2025-03-19_14h57.12.668,practice_test2_AC,2022.2.5,None,
,,,,,,,,,,,,,,,,,,,,,,,,,,,,,,,,,,,,,,,,,,,,,,,,,,,,,,,,,,,,,,,,,,,,,,,,,,,,,,,,,,,,,,,,,,,,,,,,,,,263.47261025000034,,,,,,,
