Trial,Order,Block,Type,Stimuli_File1,Stimuli_File2,Stimuli_File3,Stimuli_File4,Cue_File1,Cue_File2,Response_File_Yes,Response_File_No,Match,Cue_Dimension,Pair1_Dimension,Pair2_Dimension,Key,Cue1_Duration,Cue1_Onset,Cue2_Duration,Cue2_Onset,ResponseYes_Duration,ResponseYes_Onset,ResponseNo_Duration,ResponseNo_Onset,ITI_Within,ITI_Between,Image1_Duration,Image1_Onset,Image2_Duration,Image2_Onset,Image3_Duration,Image3_Onset,Image4_Duration,Image4_Onset,Sound1_Duration,Sound1_Onset,Sound2_Duration,Sound2_Onset,Sound3_Duration,Sound3_Onset,Sound4_Duration,Sound4_Onset,Fixation_Duration,trials_2.thisRepN,trials_2.thisTrialN,trials_2.thisN,trials_2.thisIndex,trials.thisRepN,trials.thisTrialN,trials.thisN,trials.thisIndex,text_start.started,key_resp_start.started,key_resp_start.keys,key_resp_start.rt,text2.started,key_resp_2.started,key_resp_2.keys,key_resp_2.rt,cue_file1.started,cue_file1.stopped,image_1.started,image_1.stopped,image_2.started,image_2.stopped,sound_icon1.started,sound_icon1.stopped,sound_1.started,sound_1.stopped,sound_icon2.started,sound_icon2.stopped,sound_2.started,sound_2.stopped,image_blank_1.started,image_blank_1.stopped,key_press.started,key_press.stopped,fixation_text.started,cue_file2.started,cue_file2.stopped,image_3.started,image_3.stopped,image_4.started,image_4.stopped,sound_icon3.started,sound_icon3.stopped,sound_3.started,sound_3.stopped,sound_icon4.started,sound_icon4.stopped,sound_4.started,sound_4.stopped,response_yes.started,response_yes.stopped,response_no.started,response_no.stopped,iti_blank.started,iti_blank.stopped,fixation_text.stopped,key_press.keys,key_press.corr,key_press.rt,participant,session,date,expName,psychopyVersion,frameRate,
,,,,,,,,,,,,,,,,,,,,,,,,,,,,,,,,,,,,,,,,,,,,,,,,,,,,6.867015292053111,6.867015292053111,2,1.0505056659458205,,,,,,,,,,,,,,,,,,,,,,,,,,,,,,,,,,,,,,,,,,,,,,,,reldom2_s033,001,2025-03-12_17h41.42.215,What-B-Scan_AC,2022.2.5,None,
,,,,,,,,,,,,,,,,,,,,,,,,,,,,,,,,,,,,,,,,,,,,0,0,0,0,,,,,,,,,7.957523584016599,7.957523584016599,5,14.611759999999776,,,,,,,,,,,,,,,,,,,,,,,,,,,,,,,,,,,,,,,,,,,,reldom2_s033,001,2025-03-12_17h41.42.215,What-B-Scan_AC,2022.2.5,None,
,,,,,,,,,,,,,,,,,,,,,,,,,,,,,,,,,,,,,,,,,,,,1,0,1,0,,,,,,,,,22.58142649999354,22.58142649999354,5,1.9872395829297602,,,,,,,,,,,,,,,,,,,,,,,,,,,,,,,,,,,,,,,,,,,,reldom2_s033,001,2025-03-12_17h41.42.215,What-B-Scan_AC,2022.2.5,None,
,,,,,,,,,,,,,,,,,,,,,,,,,,,,,,,,,,,,,,,,,,,,2,0,2,0,,,,,,,,,24.595932667027228,24.595932667027228,5,1.974340790999122,,,,,,,,,,,,,,,,,,,,,,,,,,,,,,,,,,,,,,,,,,,,reldom2_s033,001,2025-03-12_17h41.42.215,What-B-Scan_AC,2022.2.5,None,
,,,,,,,,,,,,,,,,,,,,,,,,,,,,,,,,,,,,,,,,,,,,3,0,3,0,,,,,,,,,26.584362416993827,26.584362416993827,5,1.9853186658583581,,,,,,,,,,,,,,,,,,,,,,,,,,,,,,,,,,,,,,,,,,,,reldom2_s033,001,2025-03-12_17h41.42.215,What-B-Scan_AC,2022.2.5,None,
0,0.0,None,fixation,stimulus/viswhat_stim/blank_white.png,stimulus/viswhat_stim/blank_white.png,stimulus/audwhat_stim/blank_white.png,stimulus/audwhat_stim/blank_white.png,stimulus/viswhat_stim/blank_white.png,stimulus/viswhat_stim/blank_white.png,stimulus/viswhat_stim/blank_white.png,stimulus/viswhat_stim/blank_white.png,0.0,0.0,0.0,0.0,0,0.0,0,0.0,0,0.0,0,0.0,0,0.0,0.0,0,0.0,0,0.0,0,0.0,0,0.0,0,0.0,0,0.0,0,0.0,0,0.0,16,,,,,0,0,0,0,,,,,,,,,28.778423959040083,28.778423959040083,28.778423959040083,28.778423959040083,28.778423959040083,28.778423959040083,28.778423959040083,28.778423959040083,28.688883375694665,28.778423959040083,28.778423959040083,28.778423959040083,28.688883375694665,28.778423959040083,28.778423959040083,28.778423959040083,28.778423959040083,28.778423959040083,28.778423959040083,28.778423959040083,28.778423959040083,28.778423959040083,28.778423959040083,28.778423959040083,28.778423959040083,28.778423959040083,28.778423959040083,28.738883375694662,28.778423959040083,28.778423959040083,28.778423959040083,28.738883375694662,28.778423959040083,28.778423959040083,28.778423959040083,28.778423959040083,28.778423959040083,33.98972458404023,33.98972458404023,45.22186358401086,None,0,,reldom2_s033,001,2025-03-12_17h41.42.215,What-B-Scan_AC,2022.2.5,None,
1,First_Order,1.0,viswhat,stimulus/viswhat_stim/blank_white.png,stimulus/viswhat_stim/blank_white.png,stimulus/viswhat_stim/water_vehicle-pirateship.png,stimulus/viswhat_stim/water_animal-lobster.png,stimulus/viswhat_stim/blank_white.png,stimulus/viswhat_stim/location_box.png,stimulus/viswhat_stim/location_yes.png,stimulus/viswhat_stim/location_no.png,None,Location,None,Location,1,0.0,0,5.125,0,5.125,0,5.125,0,0.0,0.625,0,0.0,0,0.0,1,0.5,1,2.125,0,0.0,0,0.0,0,0.0,0,0.0,0,,,,,0,1,1,1,,,,,,,,,45.22186358401086,45.22186358401086,45.22186358401086,45.22186358401086,45.22186358401086,45.22186358401086,45.22186358401086,45.22186358401086,44.92326437504962,45.22186358401086,45.22186358401086,45.22186358401086,44.92326437504962,45.22186358401086,45.22186358401086,45.22186358401086,47.2914453339763,,45.22186358401086,45.22186358401086,50.53889029205311,45.66727700002957,46.84788583405316,47.2914453339763,48.474815124995075,45.22186358401086,45.22186358401086,45.07326437504962,45.22186358401086,45.22186358401086,45.22186358401086,45.07326437504962,45.22186358401086,45.22186358401086,50.53889029205311,45.22186358401086,50.53889029205311,50.396638875012286,,45.22186358401086,1,1,1.1074666659114882,reldom2_s033,001,2025-03-12_17h41.42.215,What-B-Scan_AC,2022.2.5,None,
2,First_Order,1.0,viswhat,stimulus/viswhat_stim/blank_white.png,stimulus/viswhat_stim/blank_white.png,stimulus/viswhat_stim/land_vehicle-firetruck.png,stimulus/viswhat_stim/water_vehicle-jetski.png,stimulus/viswhat_stim/blank_white.png,stimulus/viswhat_stim/location_box.png,stimulus/viswhat_stim/location_yes.png,stimulus/viswhat_stim/location_no.png,None,Location,None,Type,2,0.0,0,5.125,0,5.125,0,5.125,0,0.0,0.625,0,0.0,0,0.0,1,0.5,1,2.125,0,0.0,0,0.0,0,0.0,0,0.0,0,,,,,0,2,2,2,,,,,,,,,51.19728158402722,51.19728158402722,51.19728158402722,51.19728158402722,51.19728158402722,51.19728158402722,51.19728158402722,51.19728158402722,51.157341542382106,51.19728158402722,51.19728158402722,51.19728158402722,51.157341542382106,51.19728158402722,51.19728158402722,51.19728158402722,53.29724970902316,57.345056000049226,51.19728158402722,51.19728158402722,56.34749150008429,51.66615183406975,52.681056583998725,53.29724970902316,54.327856542076916,51.19728158402722,51.19728158402722,51.17400820904877,51.19728158402722,51.19728158402722,51.19728158402722,51.17400820904877,51.19728158402722,51.19728158402722,56.34749150008429,51.19728158402722,56.34749150008429,56.42363420908805,57.05295604199637,51.19728158402722,2,1,0.6186130819842219,reldom2_s033,001,2025-03-12_17h41.42.215,What-B-Scan_AC,2022.2.5,None,
3,First_Order,1.0,viswhat,stimulus/viswhat_stim/blank_white.png,stimulus/viswhat_stim/blank_white.png,stimulus/viswhat_stim/land_animal-moose.png,stimulus/viswhat_stim/water_animal-jellyfish.png,stimulus/viswhat_stim/blank_white.png,stimulus/viswhat_stim/type_box.png,stimulus/viswhat_stim/type_yes.png,stimulus/viswhat_stim/type_no.png,None,Type,None,Type,1,0.0,0,5.125,0,5.125,0,5.125,0,0.0,0.625,0,0.0,0,0.0,1,0.5,1,2.125,0,0.0,0,0.0,0,0.0,0,0.0,0,,,,,0,3,3,3,,,,,,,,,57.345056000049226,57.345056000049226,57.345056000049226,57.345056000049226,57.345056000049226,57.345056000049226,57.345056000049226,57.345056000049226,57.24668587502092,57.345056000049226,57.345056000049226,57.345056000049226,57.24668587502092,57.345056000049226,57.345056000049226,57.345056000049226,59.44393641699571,,57.345056000049226,57.345056000049226,62.559941917075776,57.82561516703572,58.905741709051654,59.44393641699571,60.52461345901247,57.345056000049226,57.345056000049226,57.29668587502092,57.345056000049226,57.345056000049226,57.345056000049226,57.29668587502092,57.345056000049226,57.345056000049226,62.559941917075776,57.345056000049226,62.559941917075776,62.559941917075776,63.43182370904833,57.345056000049226,1,1,0.49314962385687977,reldom2_s033,001,2025-03-12_17h41.42.215,What-B-Scan_AC,2022.2.5,None,
4,First_Order,1.0,viswhat,stimulus/viswhat_stim/blank_white.png,stimulus/viswhat_stim/blank_white.png,stimulus/viswhat_stim/land_animal-tiger.png,stimulus/viswhat_stim/land_vehicle-rv.png,stimulus/viswhat_stim/blank_white.png,stimulus/viswhat_stim/type_box.png,stimulus/viswhat_stim/type_yes.png,stimulus/viswhat_stim/type_no.png,None,Type,None,Location,2,0.0,0,5.125,0,5.125,0,5.125,0,0.0,0.625,0,0.0,0,0.0,1,0.5,1,2.125,0,0.0,0,0.0,0,0.0,0,0.0,0,,,,,0,4,4,4,,,,,,,,,63.43182370904833,63.43182370904833,63.43182370904833,63.43182370904833,63.43182370904833,63.43182370904833,63.43182370904833,63.43182370904833,63.38010187567367,63.43182370904833,63.43182370904833,63.43182370904833,63.38010187567367,63.43182370904833,63.43182370904833,63.43182370904833,65.51392037502956,69.56999133399222,63.43182370904833,63.43182370904833,68.60078891704325,63.91697066708002,64.95874912501313,65.51392037502956,66.55740629206412,63.43182370904833,63.43182370904833,63.39676854234033,63.43182370904833,63.43182370904833,63.43182370904833,63.39676854234033,63.43182370904833,63.43182370904833,68.60078891704325,63.43182370904833,68.60078891704325,68.65946624998469,69.3002803340787,63.43182370904833,2,1,0.6067327909404412,reldom2_s033,001,2025-03-12_17h41.42.215,What-B-Scan_AC,2022.2.5,None,
0,0.0,None,fixation,stimulus/viswhat_stim/blank_white.png,stimulus/viswhat_stim/blank_white.png,stimulus/audwhat_stim/blank_white.png,stimulus/audwhat_stim/blank_white.png,stimulus/viswhat_stim/blank_white.png,stimulus/viswhat_stim/blank_white.png,stimulus/viswhat_stim/blank_white.png,stimulus/viswhat_stim/blank_white.png,0.0,0.0,0.0,0.0,0,0.0,0,0.0,0,0.0,0,0.0,0,0.0,0.0,0,0.0,0,0.0,0,0.0,0,0.0,0,0.0,0,0.0,0,0.0,0,0.0,9,,,,,0,5,5,5,,,,,,,,,69.56999133399222,69.56999133399222,69.56999133399222,69.56999133399222,69.56999133399222,69.56999133399222,69.56999133399222,69.56999133399222,69.47487229175555,69.56999133399222,69.56999133399222,69.56999133399222,69.47487229175555,69.56999133399222,69.56999133399222,69.56999133399222,69.56999133399222,69.56999133399222,69.56999133399222,69.56999133399222,69.56999133399222,69.56999133399222,69.56999133399222,69.56999133399222,69.56999133399222,69.56999133399222,69.56999133399222,69.52487229175556,69.56999133399222,69.56999133399222,69.56999133399222,69.52487229175556,69.56999133399222,69.56999133399222,69.56999133399222,69.56999133399222,69.56999133399222,74.79908312507905,74.79908312507905,78.74525566701777,None,0,,reldom2_s033,001,2025-03-12_17h41.42.215,What-B-Scan_AC,2022.2.5,None,
5,Second_Order,1.0,viswhat,stimulus/viswhat_stim/land_animal-bunny.png,stimulus/viswhat_stim/land_vehicle-motorcycle.png,stimulus/viswhat_stim/water_animal-octopus.png,stimulus/viswhat_stim/land_animal-fox.png,stimulus/viswhat_stim/match_blank.png,stimulus/viswhat_stim/match_box.png,stimulus/viswhat_stim/match_yes.png,stimulus/viswhat_stim/match_no.png,2.0,Match,Location,Type,2,5.125,0,5.125,0,5.125,0,5.125,0,0.75,0.75,1,0.5,1,2.125,1,0.5,1,2.125,0,0.0,0,0.0,0,0.0,0,0.0,0,,,,,0,6,6,6,,,,,,,,,78.74525566701777,83.86683187505696,79.19135787501,80.17752962501254,80.8146172920242,81.81149966700468,78.74525566701777,78.74525566701777,78.75453170870121,78.74525566701777,78.74525566701777,78.74525566701777,78.75453170870121,78.74525566701777,83.86683187505696,84.68449366698042,86.74338970903773,,84.68449366698042,84.68449366698042,89.83793591707945,85.12137975008227,86.15101583406795,86.74338970903773,87.77839595905971,84.68449366698042,84.68449366698042,84.6516031249892,84.68449366698042,84.68449366698042,84.68449366698042,84.6516031249892,84.68449366698042,84.68449366698042,89.83793591707945,84.68449366698042,89.83793591707945,89.86377929197624,,84.68449366698042,2,1,0.7331708319252357,reldom2_s033,001,2025-03-12_17h41.42.215,What-B-Scan_AC,2022.2.5,None,
6,Second_Order,1.0,viswhat,stimulus/viswhat_stim/land_vehicle-tank.png,stimulus/viswhat_stim/land_animal-wolf.png,stimulus/viswhat_stim/water_vehicle-motorboatraft.png,stimulus/viswhat_stim/water_animal-squid.png,stimulus/viswhat_stim/match_blank.png,stimulus/viswhat_stim/match_box.png,stimulus/viswhat_stim/match_yes.png,stimulus/viswhat_stim/match_no.png,1.0,Match,Location,Location,1,5.125,0,5.125,0,5.125,0,5.125,0,0.625,0.625,1,0.5,1,2.125,1,0.5,1,2.125,0,0.0,0,0.0,0,0.0,0,0.0,0,,,,,0,7,7,7,,,,,,,,,90.64547304203734,95.76564045902342,91.11843224999029,92.10518066701479,92.75337799999397,93.74261020903941,90.64547304203734,90.64547304203734,90.64667558368916,90.64547304203734,90.64547304203734,90.64547304203734,90.64667558368916,90.64547304203734,95.76564045902342,96.46241887507495,98.52857845905237,102.58501979208086,96.46241887507495,96.46241887507495,101.61266712506767,96.90666483400855,97.93848516698927,98.52857845905237,99.54537137504667,96.46241887507495,96.46241887507495,96.4285454169847,96.46241887507495,96.46241887507495,96.46241887507495,96.4285454169847,96.46241887507495,96.46241887507495,101.61266712506767,96.46241887507495,101.61266712506767,101.63710649998393,102.28506758401636,96.46241887507495,1,1,0.5065094990422949,reldom2_s033,001,2025-03-12_17h41.42.215,What-B-Scan_AC,2022.2.5,None,
0,0.0,None,fixation,stimulus/viswhat_stim/blank_white.png,stimulus/viswhat_stim/blank_white.png,stimulus/audwhat_stim/blank_white.png,stimulus/audwhat_stim/blank_white.png,stimulus/viswhat_stim/blank_white.png,stimulus/viswhat_stim/blank_white.png,stimulus/viswhat_stim/blank_white.png,stimulus/viswhat_stim/blank_white.png,0.0,0.0,0.0,0.0,0,0.0,0,0.0,0,0.0,0,0.0,0,0.0,0.0,0,0.0,0,0.0,0,0.0,0,0.0,0,0.0,0,0.0,0,0.0,0,0.0,9,,,,,0,8,8,8,,,,,,,,,102.58501979208086,102.58501979208086,102.58501979208086,102.58501979208086,102.58501979208086,102.58501979208086,102.58501979208086,102.58501979208086,102.48046274997759,102.58501979208086,102.58501979208086,102.58501979208086,102.48046274997759,102.58501979208086,102.58501979208086,102.58501979208086,102.58501979208086,102.58501979208086,102.58501979208086,102.58501979208086,102.58501979208086,102.58501979208086,102.58501979208086,102.58501979208086,102.58501979208086,102.58501979208086,102.58501979208086,102.5304627499776,102.58501979208086,102.58501979208086,102.58501979208086,102.5304627499776,102.58501979208086,102.58501979208086,102.58501979208086,102.58501979208086,102.58501979208086,107.79612641700078,107.79612641700078,112.03138749999925,None,0,,reldom2_s033,001,2025-03-12_17h41.42.215,What-B-Scan_AC,2022.2.5,None,
7,First_Order,2.0,viswhat,stimulus/viswhat_stim/blank_white.png,stimulus/viswhat_stim/blank_white.png,stimulus/viswhat_stim/water_animal-lobster.png,stimulus/viswhat_stim/water_vehicle-canoe.png,stimulus/viswhat_stim/blank_white.png,stimulus/viswhat_stim/location_box.png,stimulus/viswhat_stim/location_yes.png,stimulus/viswhat_stim/location_no.png,None,Location,None,Location,1,0.0,0,5.125,0,5.125,0,5.125,0,0.0,0.625,0,0.0,0,0.0,1,0.5,1,2.125,0,0.0,0,0.0,0,0.0,0,0.0,0,,,,,0,9,9,9,,,,,,,,,112.03138749999925,112.03138749999925,112.03138749999925,112.03138749999925,112.03138749999925,112.03138749999925,112.03138749999925,112.03138749999925,111.74692270873736,112.03138749999925,112.03138749999925,112.03138749999925,111.74692270873736,112.03138749999925,112.03138749999925,112.03138749999925,114.12999079201836,,112.03138749999925,112.03138749999925,117.42178108403459,112.48174637497868,113.68102600006387,114.12999079201836,115.32977325003594,112.03138749999925,112.03138749999925,111.88025604207068,112.03138749999925,112.03138749999925,112.03138749999925,111.88025604207068,112.03138749999925,112.03138749999925,117.42178108403459,112.03138749999925,117.42178108403459,117.12648049998097,,112.03138749999925,1,1,0.7492934579495341,reldom2_s033,001,2025-03-12_17h41.42.215,What-B-Scan_AC,2022.2.5,None,
8,First_Order,2.0,viswhat,stimulus/viswhat_stim/blank_white.png,stimulus/viswhat_stim/blank_white.png,stimulus/viswhat_stim/water_animal-jellyfish.png,stimulus/viswhat_stim/land_animal-bunny.png,stimulus/viswhat_stim/blank_white.png,stimulus/viswhat_stim/type_box.png,stimulus/viswhat_stim/type_yes.png,stimulus/viswhat_stim/type_no.png,None,Type,None,Type,1,0.0,0,5.125,0,5.125,0,5.125,0,0.0,0.625,0,0.0,0,0.0,1,0.5,1,2.125,0,0.0,0,0.0,0,0.0,0,0.0,0,,,,,0,10,10,10,,,,,,,,,118.14323141705245,118.14323141705245,118.14323141705245,118.14323141705245,118.14323141705245,118.14323141705245,118.14323141705245,118.14323141705245,118.0605132919969,118.14323141705245,118.14323141705245,118.14323141705245,118.0605132919969,118.14323141705245,118.14323141705245,118.14323141705245,120.23199054202996,,118.14323141705245,118.14323141705245,123.31867475004401,118.61431745905429,119.65829737507738,120.23199054202996,121.2814350000117,118.14323141705245,118.14323141705245,118.09384662533023,118.14323141705245,118.14323141705245,118.14323141705245,118.09384662533023,118.14323141705245,118.14323141705245,123.31867475004401,118.14323141705245,123.31867475004401,123.36510983400512,124.01931433402933,118.14323141705245,1,1,0.49938379088416696,reldom2_s033,001,2025-03-12_17h41.42.215,What-B-Scan_AC,2022.2.5,None,
9,First_Order,2.0,viswhat,stimulus/viswhat_stim/blank_white.png,stimulus/viswhat_stim/blank_white.png,stimulus/viswhat_stim/land_animal-cat.png,stimulus/viswhat_stim/water_animal-whale (1).png,stimulus/viswhat_stim/blank_white.png,stimulus/viswhat_stim/location_box.png,stimulus/viswhat_stim/location_yes.png,stimulus/viswhat_stim/location_no.png,None,Location,None,Type,2,0.0,0,5.125,0,5.125,0,5.125,0,0.0,0.625,0,0.0,0,0.0,1,0.5,1,2.125,0,0.0,0,0.0,0,0.0,0,0.0,0,,,,,0,11,11,11,,,,,,,,,124.21849104203284,124.21849104203284,124.21849104203284,124.21849104203284,124.21849104203284,124.21849104203284,124.21849104203284,124.21849104203284,124.16931433402934,124.21849104203284,124.21849104203284,124.21849104203284,124.16931433402934,124.21849104203284,124.21849104203284,124.21849104203284,126.30675670900382,130.3407595839817,124.21849104203284,124.21849104203284,129.3663533340441,124.70062041701749,125.72932533407584,126.30675670900382,127.3462235420011,124.21849104203284,124.21849104203284,124.185981000696,124.21849104203284,124.21849104203284,124.21849104203284,124.185981000696,124.21849104203284,124.21849104203284,129.3663533340441,124.21849104203284,129.3663533340441,129.4194290000014,130.07942908408586,124.21849104203284,2,1,0.8715571239590645,reldom2_s033,001,2025-03-12_17h41.42.215,What-B-Scan_AC,2022.2.5,None,
10,First_Order,2.0,viswhat,stimulus/viswhat_stim/blank_white.png,stimulus/viswhat_stim/blank_white.png,stimulus/viswhat_stim/water_animal-shark.png,stimulus/viswhat_stim/water_vehicle-yacht.png,stimulus/viswhat_stim/blank_white.png,stimulus/viswhat_stim/type_box.png,stimulus/viswhat_stim/type_yes.png,stimulus/viswhat_stim/type_no.png,None,Type,None,Location,2,0.0,0,5.125,0,5.125,0,5.125,0,0.0,0.625,0,0.0,0,0.0,1,0.5,1,2.125,0,0.0,0,0.0,0,0.0,0,0.0,0,,,,,0,12,12,12,,,,,,,,,130.3407595839817,130.3407595839817,130.3407595839817,130.3407595839817,130.3407595839817,130.3407595839817,130.3407595839817,130.3407595839817,130.27508366675272,130.3407595839817,130.3407595839817,130.3407595839817,130.27508366675272,130.3407595839817,130.3407595839817,130.3407595839817,132.44194654200692,,130.3407595839817,130.3407595839817,135.48792012501508,130.81446695898194,131.84367837500758,132.44194654200692,133.47496883408166,130.3407595839817,130.3407595839817,130.30841700008605,130.3407595839817,130.3407595839817,130.3407595839817,130.30841700008605,130.3407595839817,130.3407595839817,135.48792012501508,130.3407595839817,135.48792012501508,135.56276079209056,136.2315792919835,130.3407595839817,2,1,1.2933688330231234,reldom2_s033,001,2025-03-12_17h41.42.215,What-B-Scan_AC,2022.2.5,None,
0,0.0,None,fixation,stimulus/viswhat_stim/blank_white.png,stimulus/viswhat_stim/blank_white.png,stimulus/audwhat_stim/blank_white.png,stimulus/audwhat_stim/blank_white.png,stimulus/viswhat_stim/blank_white.png,stimulus/viswhat_stim/blank_white.png,stimulus/viswhat_stim/blank_white.png,stimulus/viswhat_stim/blank_white.png,0.0,0.0,0.0,0.0,0,0.0,0,0.0,0,0.0,0,0.0,0,0.0,0.0,0,0.0,0,0.0,0,0.0,0,0.0,0,0.0,0,0.0,0,0.0,0,0.0,10,,,,,0,13,13,13,,,,,,,,,136.46138387499377,136.46138387499377,136.46138387499377,136.46138387499377,136.46138387499377,136.46138387499377,136.46138387499377,136.46138387499377,136.36491262531686,136.46138387499377,136.46138387499377,136.46138387499377,136.36491262531686,136.46138387499377,136.46138387499377,136.46138387499377,136.46138387499377,136.46138387499377,136.46138387499377,136.46138387499377,136.46138387499377,136.46138387499377,136.46138387499377,136.46138387499377,136.46138387499377,136.46138387499377,136.46138387499377,136.41491262531684,136.46138387499377,136.46138387499377,136.46138387499377,136.41491262531684,136.46138387499377,136.46138387499377,136.46138387499377,136.46138387499377,136.46138387499377,141.66825200000312,141.66825200000312,146.60203629208263,None,0,,reldom2_s033,001,2025-03-12_17h41.42.215,What-B-Scan_AC,2022.2.5,None,
11,Second_Order,2.0,viswhat,stimulus/viswhat_stim/land_animal-ostrich.png,stimulus/viswhat_stim/water_animal-stingray.png,stimulus/viswhat_stim/water_vehicle-cruiseship.png,stimulus/viswhat_stim/water_animal-seaturtle.png,stimulus/viswhat_stim/match_blank.png,stimulus/viswhat_stim/match_box.png,stimulus/viswhat_stim/match_yes.png,stimulus/viswhat_stim/match_no.png,2.0,Match,Type,Location,2,5.125,0,5.125,0,5.125,0,5.125,0,0.75,0.75,1,0.5,1,2.125,1,0.5,1,2.125,0,0.0,0,0.0,0,0.0,0,0.0,0,,,,,0,14,14,14,,,,,,,,,146.60203629208263,151.72287683398463,147.08105308399536,148.06854524998926,148.70518995902967,149.70171395898797,146.60203629208263,146.60203629208263,146.61131654240504,146.60203629208263,146.60203629208263,146.60203629208263,146.61131654240504,146.60203629208263,151.72287683398463,152.70307266700547,154.72933025006205,,152.70307266700547,152.70307266700547,157.95350412500557,153.10996008408256,154.22194479207974,154.72933025006205,155.84109633404296,152.70307266700547,152.70307266700547,152.60838920900133,152.70307266700547,152.70307266700547,152.70307266700547,152.60838920900133,152.70307266700547,152.70307266700547,157.95350412500557,152.70307266700547,157.95350412500557,157.85850550001487,,152.70307266700547,2,1,0.5236430829390883,reldom2_s033,001,2025-03-12_17h41.42.215,What-B-Scan_AC,2022.2.5,None,
12,Second_Order,2.0,viswhat,stimulus/viswhat_stim/land_animal-ostrich.png,stimulus/viswhat_stim/land_vehicle-oldcar.png,stimulus/viswhat_stim/water_vehicle-ship.png,stimulus/viswhat_stim/land_vehicle-vespa.png,stimulus/viswhat_stim/match_blank.png,stimulus/viswhat_stim/match_box.png,stimulus/viswhat_stim/match_yes.png,stimulus/viswhat_stim/match_no.png,2.0,Match,Location,Type,2,5.125,0,5.125,0,5.125,0,5.125,0,0.625,0.625,1,0.5,1,2.125,1,0.5,1,2.125,0,0.0,0,0.0,0,0.0,0,0.0,0,,,,,0,15,15,15,,,,,,,,,158.65394829201978,163.77326775004622,159.10889691708144,160.0961331250146,160.73151850001886,161.72969475004356,158.65394829201978,158.65394829201978,158.6623080003153,158.65394829201978,158.65394829201978,158.65394829201978,158.6623080003153,158.65394829201978,163.77326775004622,164.54866916697938,166.6032991670072,170.65804066706914,164.54866916697938,164.54866916697938,169.74794641707558,164.96172433404718,166.0560255839955,166.6032991670072,167.70209262508433,164.54866916697938,164.54866916697938,164.48556225004143,164.54866916697938,164.54866916697938,164.54866916697938,164.48556225004143,164.54866916697938,164.54866916697938,169.74794641707558,164.54866916697938,169.74794641707558,169.74794641707558,170.65804066706914,164.54866916697938,2,1,0.6305492069805041,reldom2_s033,001,2025-03-12_17h41.42.215,What-B-Scan_AC,2022.2.5,None,
0,0.0,None,fixation,stimulus/viswhat_stim/blank_white.png,stimulus/viswhat_stim/blank_white.png,stimulus/audwhat_stim/blank_white.png,stimulus/audwhat_stim/blank_white.png,stimulus/viswhat_stim/blank_white.png,stimulus/viswhat_stim/blank_white.png,stimulus/viswhat_stim/blank_white.png,stimulus/viswhat_stim/blank_white.png,0.0,0.0,0.0,0.0,0,0.0,0,0.0,0,0.0,0,0.0,0,0.0,0.0,0,0.0,0,0.0,0,0.0,0,0.0,0,0.0,0,0.0,0,0.0,0,0.0,9,,,,,0,16,16,16,,,,,,,,,170.65804066706914,170.65804066706914,170.65804066706914,170.65804066706914,170.65804066706914,170.65804066706914,170.65804066706914,170.65804066706914,170.55809150040926,170.65804066706914,170.65804066706914,170.65804066706914,170.55809150040926,170.65804066706914,170.65804066706914,170.65804066706914,170.65804066706914,170.65804066706914,170.65804066706914,170.65804066706914,170.65804066706914,170.65804066706914,170.65804066706914,170.65804066706914,170.65804066706914,170.65804066706914,170.65804066706914,170.60809150040927,170.65804066706914,170.65804066706914,170.65804066706914,170.60809150040927,170.65804066706914,170.65804066706914,170.65804066706914,170.65804066706914,170.65804066706914,175.8848572090501,175.8848572090501,179.9117649589898,None,0,,reldom2_s033,001,2025-03-12_17h41.42.215,What-B-Scan_AC,2022.2.5,None,
13,First_Order,3.0,audwhat,stimulus/audwhat_stim/dummy.wav,stimulus/audwhat_stim/dummy.wav,stimulus/audwhat_stim/percussion mallet_low-pitch_Ftri_loud.wav,stimulus/audwhat_stim/percussion xylophone_high-pitch_Dtri_loud.wav,stimulus/audwhat_stim/blank_white.png,stimulus/audwhat_stim/pitch_box.png,stimulus/audwhat_stim/pitch_yes.png,stimulus/audwhat_stim/pitch_no.png,None,Pitch,None,Category,2,0.0,0,5.125,0,5.125,0,5.125,0,0.0,0.625,0,0.0,0,0.0,0,0.0,0,0.0,0,0.0,0,0.0,1,0.5,1,2.125,0,,,,,0,17,17,17,,,,,,,,,179.9117649589898,179.9117649589898,179.9117649589898,179.9117649589898,179.9117649589898,179.9117649589898,179.9117649589898,179.9117649589898,179.83802787567646,179.9117649589898,179.9117649589898,179.9117649589898,179.83802787567646,179.9117649589898,179.9117649589898,179.9117649589898,181.99753975006752,,179.9117649589898,179.9117649589898,185.06262758397497,179.9117649589898,179.9117649589898,179.9117649589898,179.9117649589898,180.3742569590686,181.44042195903603,180.34432437568128,,181.99753975006752,183.0722392090829,181.96725875075597,183.02578870905563,179.9117649589898,185.06262758397497,179.9117649589898,185.06262758397497,185.10409137501847,185.75776016700547,179.9117649589898,2,1,0.8376506658969447,reldom2_s033,001,2025-03-12_17h41.42.215,What-B-Scan_AC,2022.2.5,None,
14,First_Order,3.0,audwhat,stimulus/audwhat_stim/dummy.wav,stimulus/audwhat_stim/dummy.wav,stimulus/audwhat_stim/string cello_low-pitch_D_loud.wav,stimulus/audwhat_stim/percussion mallet_low-pitch_D_loud.wav,stimulus/audwhat_stim/blank_white.png,stimulus/audwhat_stim/pitch_box.png,stimulus/audwhat_stim/pitch_yes.png,stimulus/audwhat_stim/pitch_no.png,None,Pitch,None,Pitch,1,0.0,0,5.125,0,5.125,0,5.125,0,0.0,0.625,0,0.0,0,0.0,0,0.0,0,0.0,0,0.0,0,0.0,1,0.5,1,2.125,0,,,,,0,18,18,18,,,,,,,,,186.01207950001117,186.01207950001117,186.01207950001117,186.01207950001117,186.01207950001117,186.01207950001117,186.01207950001117,186.01207950001117,185.93186516736947,186.01207950001117,186.01207950001117,186.01207950001117,185.93186516736947,186.01207950001117,186.01207950001117,186.01207950001117,188.1028640420409,,186.01207950001117,186.01207950001117,191.17144045908935,186.01207950001117,186.01207950001117,186.01207950001117,186.01207950001117,186.4745786250569,187.54560112499166,186.44436820870422,,188.1028640420409,189.17722008400597,188.07335966668714,,186.01207950001117,191.17144045908935,186.01207950001117,191.17144045908935,191.21262316708453,191.86626925005112,186.01207950001117,1,1,0.6721042079152539,reldom2_s033,001,2025-03-12_17h41.42.215,What-B-Scan_AC,2022.2.5,None,
15,First_Order,3.0,audwhat,stimulus/audwhat_stim/dummy.wav,stimulus/audwhat_stim/dummy.wav,stimulus/audwhat_stim/string cello_high-pitch_D_loud.wav,stimulus/audwhat_stim/string cello_low-pitch_Ftri_loud.wav,stimulus/audwhat_stim/blank_white.png,stimulus/audwhat_stim/category_box.png,stimulus/audwhat_stim/category_yes.png,stimulus/audwhat_stim/category_no.png,None,Category,None,Category,1,0.0,0,5.125,0,5.125,0,5.125,0,0.0,0.625,0,0.0,0,0.0,0,0.0,0,0.0,0,0.0,0,0.0,1,0.5,1,2.125,0,,,,,0,19,19,19,,,,,,,,,192.12241570907645,192.12241570907645,192.12241570907645,192.12241570907645,192.12241570907645,192.12241570907645,192.12241570907645,192.12241570907645,192.04079154241677,192.12241570907645,192.12241570907645,192.12241570907645,192.04079154241677,192.12241570907645,192.12241570907645,192.12241570907645,194.22726483398583,,192.12241570907645,192.12241570907645,197.31244250002783,192.12241570907645,192.12241570907645,192.12241570907645,192.12241570907645,192.5912081670249,193.66633116698358,192.5594857916624,,194.22726483398583,195.26078795897774,194.19693741674226,,192.12241570907645,197.31244250002783,192.12241570907645,197.31244250002783,197.31244250002783,197.97140908404253,192.12241570907645,1,1,0.64214233297389,reldom2_s033,001,2025-03-12_17h41.42.215,What-B-Scan_AC,2022.2.5,None,
16,First_Order,3.0,audwhat,stimulus/audwhat_stim/dummy.wav,stimulus/audwhat_stim/dummy.wav,stimulus/audwhat_stim/string viola_low-pitch_F_loud.wav,stimulus/audwhat_stim/percussion mallet_low-pitch_F_loud.wav,stimulus/audwhat_stim/blank_white.png,stimulus/audwhat_stim/category_box.png,stimulus/audwhat_stim/category_yes.png,stimulus/audwhat_stim/category_no.png,None,Category,None,Pitch,2,0.0,0,5.125,0,5.125,0,5.125,0,0.0,0.625,0,0.0,0,0.0,0,0.0,0,0.0,0,0.0,0,0.0,1,0.5,1,2.125,0,,,,,0,20,20,20,,,,,,,,,198.22642245900352,198.22642245900352,198.22642245900352,198.22642245900352,198.22642245900352,198.22642245900352,198.22642245900352,198.22642245900352,198.14564404232274,198.22642245900352,198.22642245900352,198.22642245900352,198.14564404232274,198.22642245900352,198.22642245900352,198.22642245900352,200.3284582090564,,198.22642245900352,198.22642245900352,203.4072102920618,198.22642245900352,198.22642245900352,198.22642245900352,198.22642245900352,198.69402058399282,199.7677108340431,198.66376237565808,,200.3284582090564,201.36118454206735,200.29790466669172,,198.22642245900352,203.4072102920618,198.22642245900352,203.4072102920618,203.4484341670759,204.10294762498233,198.22642245900352,2,1,0.45479537500068545,reldom2_s033,001,2025-03-12_17h41.42.215,What-B-Scan_AC,2022.2.5,None,
0,0.0,None,fixation,stimulus/viswhat_stim/blank_white.png,stimulus/viswhat_stim/blank_white.png,stimulus/audwhat_stim/blank_white.png,stimulus/audwhat_stim/blank_white.png,stimulus/viswhat_stim/blank_white.png,stimulus/viswhat_stim/blank_white.png,stimulus/viswhat_stim/blank_white.png,stimulus/viswhat_stim/blank_white.png,0.0,0.0,0.0,0.0,0,0.0,0,0.0,0,0.0,0,0.0,0,0.0,0.0,0,0.0,0,0.0,0,0.0,0,0.0,0,0.0,0,0.0,0,0.0,0,0.0,9,,,,,0,21,21,21,,,,,,,,,204.33674762502778,204.33674762502778,204.33674762502778,204.33674762502778,204.33674762502778,204.33674762502778,204.33674762502778,204.33674762502778,204.2362809583157,204.33674762502778,204.33674762502778,204.33674762502778,204.2362809583157,204.33674762502778,204.33674762502778,204.33674762502778,204.33674762502778,204.33674762502778,204.33674762502778,204.33674762502778,204.33674762502778,204.33674762502778,204.33674762502778,204.33674762502778,204.33674762502778,204.33674762502778,204.33674762502778,204.28628095831567,204.33674762502778,204.33674762502778,204.33674762502778,204.28628095831567,204.33674762502778,204.33674762502778,204.33674762502778,204.33674762502778,204.33674762502778,209.54335379204713,209.54335379204713,213.49941487505566,None,0,,reldom2_s033,001,2025-03-12_17h41.42.215,What-B-Scan_AC,2022.2.5,None,
17,Second_Order,3.0,audwhat,stimulus/audwhat_stim/percussion mallet_high-pitch_Ftri_loud.wav,stimulus/audwhat_stim/string cello_high-pitch_Ftri_loud.wav,stimulus/audwhat_stim/percussion mallet_low-pitch_D_loud.wav,stimulus/audwhat_stim/string viola_low-pitch_D_loud.wav,stimulus/viswhat_stim/match_blank.png,stimulus/viswhat_stim/match_box.png,stimulus/viswhat_stim/match_yes.png,stimulus/viswhat_stim/match_no.png,1.0,Match,Pitch,Pitch,1,5.125,0,5.125,0,5.125,0,5.125,0,0.75,0.75,0,0.0,0,0.0,0,0.0,0,0.0,1,0.5,1,2.125,1,0.5,1,2.125,0,,,,,0,22,22,22,,,,,,,,,213.49941487505566,218.6167819170514,213.49941487505566,213.49941487505566,213.49941487505566,213.49941487505566,213.9535041670315,214.95230429200456,213.96655279171344,,215.57590083405375,216.57297308405396,215.58762841666274,,218.6167819170514,219.46290420903824,221.5065301670693,225.46459183399566,219.46290420903824,219.46290420903824,224.65437150001526,219.46290420903824,219.46290420903824,219.46290420903824,219.46290420903824,219.92612258403096,220.99617916706484,219.8961376667178,,221.5065301670693,222.57569520908874,221.47613362566725,,219.46290420903824,224.65437150001526,219.46290420903824,224.65437150001526,224.65437150001526,,219.46290420903824,1,1,0.8627491659717634,reldom2_s033,001,2025-03-12_17h41.42.215,What-B-Scan_AC,2022.2.5,None,
18,Second_Order,3.0,audwhat,stimulus/audwhat_stim/percussion mallet_high-pitch_Dtri_loud.wav,stimulus/audwhat_stim/string cello_high-pitch_Dtri_loud.wav,stimulus/audwhat_stim/string viola_low-pitch_Ftri_loud.wav,stimulus/audwhat_stim/percussion mallet_low-pitch_Ftri_loud.wav,stimulus/viswhat_stim/match_blank.png,stimulus/viswhat_stim/match_box.png,stimulus/viswhat_stim/match_yes.png,stimulus/viswhat_stim/match_no.png,1.0,Match,Pitch,Pitch,1,5.125,0,5.125,0,5.125,0,5.125,0,0.625,0.625,0,0.0,0,0.0,0,0.0,0,0.0,1,0.5,1,2.125,1,0.5,1,2.125,0,,,,,0,23,23,23,,,,,,,,,225.46459183399566,230.58166545908898,225.46459183399566,225.46459183399566,225.46459183399566,225.46459183399566,225.915332084056,226.91331149998587,225.9278270836842,,227.54798270901665,228.53703904198483,227.55150429165613,,230.58166545908898,231.30904491699766,233.38625687500462,,231.30904491699766,231.30904491699766,236.49829695897643,231.30904491699766,231.30904491699766,231.30904491699766,231.30904491699766,231.72101054200903,232.7851579170674,231.6918499166534,,233.38625687500462,234.45625208399724,233.3564865006522,,231.30904491699766,236.49829695897643,231.30904491699766,236.49829695897643,236.49829695897643,237.15197262505535,231.30904491699766,1,1,0.6811533329309896,reldom2_s033,001,2025-03-12_17h41.42.215,What-B-Scan_AC,2022.2.5,None,
0,0.0,None,fixation,stimulus/viswhat_stim/blank_white.png,stimulus/viswhat_stim/blank_white.png,stimulus/audwhat_stim/blank_white.png,stimulus/audwhat_stim/blank_white.png,stimulus/viswhat_stim/blank_white.png,stimulus/viswhat_stim/blank_white.png,stimulus/viswhat_stim/blank_white.png,stimulus/viswhat_stim/blank_white.png,0.0,0.0,0.0,0.0,0,0.0,0,0.0,0,0.0,0,0.0,0,0.0,0.0,0,0.0,0,0.0,0,0.0,0,0.0,0,0.0,0,0.0,0,0.0,0,0.0,8,,,,,0,24,24,24,,,,,,,,,237.3849389590323,237.3849389590323,237.3849389590323,237.3849389590323,237.3849389590323,237.3849389590323,237.3849389590323,237.3849389590323,237.2853059583887,237.3849389590323,237.3849389590323,237.3849389590323,237.2853059583887,237.3849389590323,237.3849389590323,237.3849389590323,237.3849389590323,237.3849389590323,237.3849389590323,237.3849389590323,237.3849389590323,237.3849389590323,237.3849389590323,237.3849389590323,237.3849389590323,237.3849389590323,237.3849389590323,237.3353059583887,237.3849389590323,237.3849389590323,237.3849389590323,237.3353059583887,237.3849389590323,237.3849389590323,237.3849389590323,237.3849389590323,237.3849389590323,242.61036033404525,242.61036033404525,245.62086933408864,None,0,,reldom2_s033,001,2025-03-12_17h41.42.215,What-B-Scan_AC,2022.2.5,None,
19,First_Order,4.0,audwhat,stimulus/audwhat_stim/dummy.wav,stimulus/audwhat_stim/dummy.wav,stimulus/audwhat_stim/percussion mallet_low-pitch_Ftri_loud.wav,stimulus/audwhat_stim/string viola_low-pitch_Ftri_loud.wav,stimulus/audwhat_stim/blank_white.png,stimulus/audwhat_stim/pitch_box.png,stimulus/audwhat_stim/pitch_yes.png,stimulus/audwhat_stim/pitch_no.png,None,Pitch,None,Pitch,1,0.0,0,5.125,0,5.125,0,5.125,0,0.0,0.625,0,0.0,0,0.0,0,0.0,0,0.0,0,0.0,0,0.0,1,0.5,1,2.125,0,,,,,0,25,25,25,,,,,,,,,245.62086933408864,245.62086933408864,245.62086933408864,245.62086933408864,245.62086933408864,245.62086933408864,245.62086933408864,245.62086933408864,245.54891670871683,245.62086933408864,245.62086933408864,245.62086933408864,245.54891670871683,245.62086933408864,245.62086933408864,245.62086933408864,247.70596358401235,,245.62086933408864,245.62086933408864,250.77218766708393,245.62086933408864,245.62086933408864,245.62086933408864,245.62086933408864,246.08474025002215,247.15053012501448,246.05492633366183,,247.70596358401235,248.77514016698115,247.67608050065272,,245.62086933408864,250.77218766708393,245.62086933408864,250.77218766708393,250.81339891708922,251.46912354207598,245.62086933408864,1,1,0.7672105820383877,reldom2_s033,001,2025-03-12_17h41.42.215,What-B-Scan_AC,2022.2.5,None,
20,First_Order,4.0,audwhat,stimulus/audwhat_stim/dummy.wav,stimulus/audwhat_stim/dummy.wav,stimulus/audwhat_stim/string viola_low-pitch_F_loud.wav,stimulus/audwhat_stim/string cello_high-pitch_Ftri_loud.wav,stimulus/audwhat_stim/blank_white.png,stimulus/audwhat_stim/category_box.png,stimulus/audwhat_stim/category_yes.png,stimulus/audwhat_stim/category_no.png,None,Category,None,Category,1,0.0,0,5.125,0,5.125,0,5.125,0,0.0,0.625,0,0.0,0,0.0,0,0.0,0,0.0,0,0.0,0,0.0,1,0.5,1,2.125,0,,,,,0,26,26,26,,,,,,,,,251.72398358408827,251.72398358408827,251.72398358408827,251.72398358408827,251.72398358408827,251.72398358408827,251.72398358408827,251.72398358408827,251.64371608340494,251.72398358408827,251.72398358408827,251.72398358408827,251.64371608340494,251.72398358408827,251.72398358408827,251.72398358408827,253.82067629205994,257.8467956670793,251.72398358408827,251.72398358408827,256.8958528339863,251.72398358408827,251.72398358408827,251.72398358408827,251.72398358408827,252.18961670901626,253.26326291705482,252.15971433365874,,253.82067629205994,254.84997779200785,253.79050625075277,,251.72398358408827,256.8958528339863,251.72398358408827,256.8958528339863,256.93674916704185,257.5913779169787,251.72398358408827,1,1,0.6310324160149321,reldom2_s033,001,2025-03-12_17h41.42.215,What-B-Scan_AC,2022.2.5,None,
21,First_Order,4.0,audwhat,stimulus/audwhat_stim/dummy.wav,stimulus/audwhat_stim/dummy.wav,stimulus/audwhat_stim/string viola_high-pitch_F_loud.wav,stimulus/audwhat_stim/percussion mallet_high-pitch_F_loud.wav,stimulus/audwhat_stim/blank_white.png,stimulus/audwhat_stim/category_box.png,stimulus/audwhat_stim/category_yes.png,stimulus/audwhat_stim/category_no.png,None,Category,None,Pitch,2,0.0,0,5.125,0,5.125,0,5.125,0,0.0,0.625,0,0.0,0,0.0,0,0.0,0,0.0,0,0.0,0,0.0,1,0.5,1,2.125,0,,,,,0,27,27,27,,,,,,,,,257.8467956670793,257.8467956670793,257.8467956670793,257.8467956670793,257.8467956670793,257.8467956670793,257.8467956670793,257.8467956670793,257.76543650034193,257.8467956670793,257.8467956670793,257.8467956670793,257.76543650034193,257.8467956670793,257.8467956670793,257.8467956670793,259.9557482500095,263.9590121250367,257.8467956670793,257.8467956670793,263.03702100005466,257.8467956670793,257.8467956670793,257.8467956670793,257.8467956670793,258.3149611670524,259.3510412500473,258.2849907506645,,259.9557482500095,260.98591537505854,259.9254517086704,,257.8467956670793,263.03702100005466,257.8467956670793,263.03702100005466,263.03702100005466,263.7038302089786,257.8467956670793,2,1,0.7477451659506187,reldom2_s033,001,2025-03-12_17h41.42.215,What-B-Scan_AC,2022.2.5,None,
22,First_Order,4.0,audwhat,stimulus/audwhat_stim/dummy.wav,stimulus/audwhat_stim/dummy.wav,stimulus/audwhat_stim/percussion xylophone_high-pitch_D_loud.wav,stimulus/audwhat_stim/percussion mallet_low-pitch_F_loud.wav,stimulus/audwhat_stim/blank_white.png,stimulus/audwhat_stim/pitch_box.png,stimulus/audwhat_stim/pitch_yes.png,stimulus/audwhat_stim/pitch_no.png,None,Pitch,None,Category,2,0.0,0,5.125,0,5.125,0,5.125,0,0.0,0.625,0,0.0,0,0.0,0,0.0,0,0.0,0,0.0,0,0.0,1,0.5,1,2.125,0,,,,,0,28,28,28,,,,,,,,,263.9590121250367,263.9590121250367,263.9590121250367,263.9590121250367,263.9590121250367,263.9590121250367,263.9590121250367,263.9590121250367,263.8777853753728,263.9590121250367,263.9590121250367,263.9590121250367,263.8777853753728,263.9590121250367,263.9590121250367,263.9590121250367,266.04809499997646,,263.9590121250367,263.9590121250367,269.11284075002186,263.9590121250367,263.9590121250367,263.9590121250367,263.9590121250367,264.4232644169824,265.49205404205713,264.39348737575733,265.4457468340406,266.04809499997646,267.11941329203546,266.01818445866616,,263.9590121250367,269.11284075002186,263.9590121250367,269.11284075002186,269.1539404169889,269.80761150002945,263.9590121250367,2,1,0.6835665409453213,reldom2_s033,001,2025-03-12_17h41.42.215,What-B-Scan_AC,2022.2.5,None,
0,0.0,None,fixation,stimulus/viswhat_stim/blank_white.png,stimulus/viswhat_stim/blank_white.png,stimulus/audwhat_stim/blank_white.png,stimulus/audwhat_stim/blank_white.png,stimulus/viswhat_stim/blank_white.png,stimulus/viswhat_stim/blank_white.png,stimulus/viswhat_stim/blank_white.png,stimulus/viswhat_stim/blank_white.png,0.0,0.0,0.0,0.0,0,0.0,0,0.0,0,0.0,0,0.0,0,0.0,0.0,0,0.0,0,0.0,0,0.0,0,0.0,0,0.0,0,0.0,0,0.0,0,0.0,10,,,,,0,29,29,29,,,,,,,,,270.08177962503396,270.08177962503396,270.08177962503396,270.08177962503396,270.08177962503396,270.08177962503396,270.08177962503396,270.08177962503396,269.98200895838283,270.08177962503396,270.08177962503396,270.08177962503396,269.98200895838283,270.08177962503396,270.08177962503396,270.08177962503396,270.08177962503396,270.08177962503396,270.08177962503396,270.08177962503396,270.08177962503396,270.08177962503396,270.08177962503396,270.08177962503396,270.08177962503396,270.08177962503396,270.08177962503396,270.03200895838285,270.08177962503396,270.08177962503396,270.08177962503396,270.03200895838285,270.08177962503396,270.08177962503396,270.08177962503396,270.08177962503396,270.08177962503396,275.2726740000071,275.2726740000071,280.2353723749984,None,0,,reldom2_s033,001,2025-03-12_17h41.42.215,What-B-Scan_AC,2022.2.5,None,
23,Second_Order,4.0,audwhat,stimulus/audwhat_stim/percussion mallet_high-pitch_Ftri_loud.wav,stimulus/audwhat_stim/percussion mallet_low-pitch_Dtri_loud.wav,stimulus/audwhat_stim/percussion mallet_high-pitch_D_loud.wav,stimulus/audwhat_stim/string viola_high-pitch_D_loud.wav,stimulus/viswhat_stim/match_blank.png,stimulus/viswhat_stim/match_box.png,stimulus/viswhat_stim/match_yes.png,stimulus/viswhat_stim/match_no.png,2.0,Match,Category,Pitch,2,5.125,0,5.125,0,5.125,0,5.125,0,0.75,0.75,0,0.0,0,0.0,0,0.0,0,0.0,1,0.5,1,2.125,1,0.5,1,2.125,0,,,,,0,30,30,30,,,,,,,,,280.2353723749984,285.3531214169925,280.2353723749984,280.2353723749984,280.2353723749984,280.2353723749984,280.690033958992,281.6772929590661,280.7039568756629,,282.31253137497697,283.3103550840169,282.3248062916721,,285.3531214169925,286.1963265000377,288.27960191702005,292.1961613340536,286.1963265000377,286.1963265000377,291.38749758398626,286.1963265000377,286.1963265000377,286.1963265000377,286.1963265000377,286.6606549170101,287.7247244589962,286.6305482086648,,288.27960191702005,289.35019983397797,288.24950908375126,,286.1963265000377,291.38749758398626,286.1963265000377,291.38749758398626,291.38749758398626,,286.1963265000377,2,1,0.5656220408855006,reldom2_s033,001,2025-03-12_17h41.42.215,What-B-Scan_AC,2022.2.5,None,
24,Second_Order,4.0,audwhat,stimulus/audwhat_stim/string viola_high-pitch_Dtri_loud.wav,stimulus/audwhat_stim/percussion mallet_high-pitch_Dtri_loud.wav,stimulus/audwhat_stim/string cello_low-pitch_Dtri_loud.wav,stimulus/audwhat_stim/string viola_high-pitch_Ftri_loud.wav,stimulus/viswhat_stim/match_blank.png,stimulus/viswhat_stim/match_box.png,stimulus/viswhat_stim/match_yes.png,stimulus/viswhat_stim/match_no.png,2.0,Match,Pitch,Category,2,5.125,0,5.125,0,5.125,0,5.125,0,0.625,0.625,0,0.0,0,0.0,0,0.0,0,0.0,1,0.5,1,2.125,1,0.5,1,2.125,0,,,,,0,31,31,31,,,,,,,,,292.1961613340536,297.31429412506986,292.1961613340536,292.1961613340536,292.1961613340536,292.1961613340536,292.6507267920533,293.63817066699266,292.6647741257368,,294.27318466699217,295.27130962500814,294.2858604166579,,297.31429412506986,298.0451292920625,300.1174653340131,,298.0451292920625,298.0451292920625,303.21132387500256,298.0451292920625,298.0451292920625,298.0451292920625,298.0451292920625,298.50186516705435,299.56394462508615,298.4730227087314,,300.1174653340131,301.1844785839785,300.0880784167132,,298.0451292920625,303.21132387500256,298.0451292920625,303.21132387500256,303.21132387500256,303.8618865420576,298.0451292920625,2,1,0.7326946660177782,reldom2_s033,001,2025-03-12_17h41.42.215,What-B-Scan_AC,2022.2.5,None,
0,0.0,None,fixation,stimulus/viswhat_stim/blank_white.png,stimulus/viswhat_stim/blank_white.png,stimulus/audwhat_stim/blank_white.png,stimulus/audwhat_stim/blank_white.png,stimulus/viswhat_stim/blank_white.png,stimulus/viswhat_stim/blank_white.png,stimulus/viswhat_stim/blank_white.png,stimulus/viswhat_stim/blank_white.png,0.0,0.0,0.0,0.0,0,0.0,0,0.0,0,0.0,0,0.0,0,0.0,0.0,0,0.0,0,0.0,0,0.0,0,0.0,0,0.0,0,0.0,0,0.0,0,0.0,9,,,,,0,32,32,32,,,,,,,,,304.1361815420678,304.1361815420678,304.1361815420678,304.1361815420678,304.1361815420678,304.1361815420678,304.1361815420678,304.1361815420678,304.035854833348,304.1361815420678,304.1361815420678,304.1361815420678,304.035854833348,304.1361815420678,304.1361815420678,304.1361815420678,304.1361815420678,304.1361815420678,304.1361815420678,304.1361815420678,304.1361815420678,304.1361815420678,304.1361815420678,304.1361815420678,304.1361815420678,304.1361815420678,304.1361815420678,304.08585483334804,304.1361815420678,304.1361815420678,304.1361815420678,304.08585483334804,304.1361815420678,304.1361815420678,304.1361815420678,304.1361815420678,304.1361815420678,309.353789875051,309.353789875051,313.40675941703375,None,0,,reldom2_s033,001,2025-03-12_17h41.42.215,What-B-Scan_AC,2022.2.5,None,
25,First_Order,5.0,viswhat,stimulus/viswhat_stim/blank_white.png,stimulus/viswhat_stim/blank_white.png,stimulus/viswhat_stim/land_animal-elephant.png,stimulus/viswhat_stim/land_vehicle-firetruck.png,stimulus/viswhat_stim/blank_white.png,stimulus/viswhat_stim/location_box.png,stimulus/viswhat_stim/location_yes.png,stimulus/viswhat_stim/location_no.png,None,Location,None,Location,1,0.0,0,5.125,0,5.125,0,5.125,0,0.0,0.625,0,0.0,0,0.0,1,0.5,1,2.125,0,0.0,0,0.0,0,0.0,0,0.0,0,,,,,0,33,33,33,,,,,,,,,313.40675941703375,313.40675941703375,313.40675941703375,313.40675941703375,313.40675941703375,313.40675941703375,313.40675941703375,313.40675941703375,313.3054179586858,313.40675941703375,313.40675941703375,313.40675941703375,313.3054179586858,313.40675941703375,313.40675941703375,313.40675941703375,315.4780330840731,,313.40675941703375,313.40675941703375,318.61977333400864,313.8784252090845,314.9465078340145,315.4780330840731,316.5453054170357,313.40675941703375,313.40675941703375,313.3554179586858,313.40675941703375,313.40675941703375,313.40675941703375,313.3554179586858,313.40675941703375,313.40675941703375,318.61977333400864,313.40675941703375,318.61977333400864,318.61977333400864,319.4535631670151,313.40675941703375,1,1,0.9201297909021378,reldom2_s033,001,2025-03-12_17h41.42.215,What-B-Scan_AC,2022.2.5,None,
26,First_Order,5.0,viswhat,stimulus/viswhat_stim/blank_white.png,stimulus/viswhat_stim/blank_white.png,stimulus/viswhat_stim/land_vehicle-tank.png,stimulus/viswhat_stim/land_animal-pig.png,stimulus/viswhat_stim/blank_white.png,stimulus/viswhat_stim/type_box.png,stimulus/viswhat_stim/type_yes.png,stimulus/viswhat_stim/type_no.png,None,Type,None,Location,2,0.0,0,5.125,0,5.125,0,5.125,0,0.0,0.625,0,0.0,0,0.0,1,0.5,1,2.125,0,0.0,0,0.0,0,0.0,0,0.0,0,,,,,0,34,34,34,,,,,,,,,319.4535631670151,319.4535631670151,319.4535631670151,319.4535631670151,319.4535631670151,319.4535631670151,319.4535631670151,319.4535631670151,319.4281807917092,319.4535631670151,319.4535631670151,319.4535631670151,319.4281807917092,319.4535631670151,319.4535631670151,319.4535631670151,321.55116245907266,325.6148819590453,319.4535631670151,319.4535631670151,324.59107529208995,319.93437691708095,320.94043416704517,321.55116245907266,322.562252542004,319.4535631670151,319.4535631670151,319.44484745837593,319.4535631670151,319.4535631670151,319.4535631670151,319.44484745837593,319.4535631670151,319.4535631670151,324.59107529208995,319.4535631670151,324.59107529208995,324.674642792088,325.30914933409076,319.4535631670151,2,1,0.7900534159271047,reldom2_s033,001,2025-03-12_17h41.42.215,What-B-Scan_AC,2022.2.5,None,
27,First_Order,5.0,viswhat,stimulus/viswhat_stim/blank_white.png,stimulus/viswhat_stim/blank_white.png,stimulus/viswhat_stim/land_animal-moose.png,stimulus/viswhat_stim/land_vehicle-vespa.png,stimulus/viswhat_stim/blank_white.png,stimulus/viswhat_stim/location_box.png,stimulus/viswhat_stim/location_yes.png,stimulus/viswhat_stim/location_no.png,None,Location,None,Location,1,0.0,0,5.125,0,5.125,0,5.125,0,0.0,0.625,0,0.0,0,0.0,1,0.5,1,2.125,0,0.0,0,0.0,0,0.0,0,0.0,0,,,,,0,35,35,35,,,,,,,,,325.6148819590453,325.6148819590453,325.6148819590453,325.6148819590453,325.6148819590453,325.6148819590453,325.6148819590453,325.6148819590453,325.49242920832086,325.6148819590453,325.6148819590453,325.6148819590453,325.49242920832086,325.6148819590453,325.6148819590453,325.6148819590453,327.6863969999831,,325.6148819590453,325.6148819590453,330.8230626670411,326.0826738750329,327.1521964999847,327.6863969999831,328.7585198340239,325.6148819590453,325.6148819590453,325.5590958749875,325.6148819590453,325.6148819590453,325.6148819590453,325.5590958749875,325.6148819590453,325.6148819590453,330.8230626670411,325.6148819590453,330.8230626670411,330.8230626670411,331.70814191701356,325.6148819590453,1,1,0.6808201660169289,reldom2_s033,001,2025-03-12_17h41.42.215,What-B-Scan_AC,2022.2.5,None,
28,First_Order,5.0,viswhat,stimulus/viswhat_stim/blank_white.png,stimulus/viswhat_stim/blank_white.png,stimulus/viswhat_stim/land_animal-giraffe.png,stimulus/viswhat_stim/water_animal-squid.png,stimulus/viswhat_stim/blank_white.png,stimulus/viswhat_stim/location_box.png,stimulus/viswhat_stim/location_yes.png,stimulus/viswhat_stim/location_no.png,None,Location,None,Type,2,0.0,0,5.125,0,5.125,0,5.125,0,0.0,0.625,0,0.0,0,0.0,1,0.5,1,2.125,0,0.0,0,0.0,0,0.0,0,0.0,0,,,,,0,36,36,36,,,,,,,,,331.70814191701356,331.70814191701356,331.70814191701356,331.70814191701356,331.70814191701356,331.70814191701356,331.70814191701356,331.70814191701356,331.6175400003403,331.70814191701356,331.70814191701356,331.70814191701356,331.6175400003403,331.70814191701356,331.70814191701356,331.70814191701356,333.80884920898825,337.8473086670274,331.70814191701356,331.70814191701356,336.90244391700253,332.14946170907933,333.2025423339801,333.80884920898825,334.86208054202143,331.70814191701356,331.70814191701356,331.66754000034024,331.70814191701356,331.70814191701356,331.70814191701356,331.66754000034024,331.70814191701356,331.70814191701356,336.90244391700253,331.70814191701356,336.90244391700253,336.90244391700253,337.59400841698516,331.70814191701356,2,1,0.6304221248719841,reldom2_s033,001,2025-03-12_17h41.42.215,What-B-Scan_AC,2022.2.5,None,
0,0.0,None,fixation,stimulus/viswhat_stim/blank_white.png,stimulus/viswhat_stim/blank_white.png,stimulus/audwhat_stim/blank_white.png,stimulus/audwhat_stim/blank_white.png,stimulus/viswhat_stim/blank_white.png,stimulus/viswhat_stim/blank_white.png,stimulus/viswhat_stim/blank_white.png,stimulus/viswhat_stim/blank_white.png,0.0,0.0,0.0,0.0,0,0.0,0,0.0,0,0.0,0,0.0,0,0.0,0.0,0,0.0,0,0.0,0,0.0,0,0.0,0,0.0,0,0.0,0,0.0,0,0.0,9,,,,,0,37,37,37,,,,,,,,,337.8473086670274,337.8473086670274,337.8473086670274,337.8473086670274,337.8473086670274,337.8473086670274,337.8473086670274,337.8473086670274,337.74400841698514,337.8473086670274,337.8473086670274,337.8473086670274,337.74400841698514,337.8473086670274,337.8473086670274,337.8473086670274,337.8473086670274,337.8473086670274,337.8473086670274,337.8473086670274,337.8473086670274,337.8473086670274,337.8473086670274,337.8473086670274,337.8473086670274,337.8473086670274,337.8473086670274,337.79400841698515,337.8473086670274,337.8473086670274,337.8473086670274,337.79400841698515,337.8473086670274,337.8473086670274,337.8473086670274,337.8473086670274,337.8473086670274,343.05736208404414,343.05736208404414,346.9952917920891,None,0,,reldom2_s033,001,2025-03-12_17h41.42.215,What-B-Scan_AC,2022.2.5,None,
29,Second_Order,5.0,viswhat,stimulus/viswhat_stim/water_vehicle-pirateship.png,stimulus/viswhat_stim/land_vehicle-schoolbus.png,stimulus/viswhat_stim/water_animal-dolphin.png,stimulus/viswhat_stim/land_animal-cat.png,stimulus/viswhat_stim/match_blank.png,stimulus/viswhat_stim/match_box.png,stimulus/viswhat_stim/match_yes.png,stimulus/viswhat_stim/match_no.png,1.0,Match,Type,Type,1,5.125,0,5.125,0,5.125,0,5.125,0,0.75,0.75,1,0.5,1,2.125,1,0.5,1,2.125,0,0.0,0,0.0,0,0.0,0,0.0,0,,,,,0,38,38,38,,,,,,,,,346.9952917920891,352.11923116701655,347.4612080840161,348.4484275840223,349.0954482090892,350.08487004204653,346.9952917920891,346.9952917920891,347.00107487538673,346.9952917920891,346.9952917920891,346.9952917920891,347.00107487538673,346.9952917920891,352.11923116701655,352.9429212920368,355.02256287506316,,352.9429212920368,352.9429212920368,358.09541854204144,353.3920777090825,354.4146978750359,355.02256287506316,356.0507967090234,352.9429212920368,352.9429212920368,352.9211473337064,352.9429212920368,352.9429212920368,352.9429212920368,352.9211473337064,352.9429212920368,352.9429212920368,358.09541854204144,352.9429212920368,358.09541854204144,358.12194199999794,,352.9429212920368,1,1,0.5713122489396483,reldom2_s033,001,2025-03-12_17h41.42.215,What-B-Scan_AC,2022.2.5,None,
30,Second_Order,5.0,viswhat,stimulus/viswhat_stim/water_animal-orka.png,stimulus/viswhat_stim/land_animal-bunny.png,stimulus/viswhat_stim/land_vehicle-motorcycle.png,stimulus/viswhat_stim/water_vehicle-motorboatraft.png,stimulus/viswhat_stim/match_blank.png,stimulus/viswhat_stim/match_box.png,stimulus/viswhat_stim/match_yes.png,stimulus/viswhat_stim/match_no.png,1.0,Match,Type,Type,1,5.125,0,5.125,0,5.125,0,5.125,0,0.625,0.625,1,0.5,1,2.125,1,0.5,1,2.125,0,0.0,0,0.0,0,0.0,0,0.0,0,,,,,0,39,39,39,,,,,,,,,358.96720591699705,364.0855824170867,359.3712719170144,360.3585126249818,361.00639566697646,361.9959036250366,358.96720591699705,358.96720591699705,358.966868083373,358.96720591699705,358.96720591699705,358.96720591699705,358.966868083373,358.96720591699705,364.0855824170867,364.7680716670584,366.8496124170488,370.89113516698126,364.7680716670584,364.7680716670584,369.91350145905744,365.21362304198556,366.2264486249769,366.8496124170488,367.86418508400675,364.7680716670584,364.7680716670584,364.74790054205806,364.7680716670584,364.7680716670584,364.7680716670584,364.74790054205806,364.7680716670584,364.7680716670584,369.91350145905744,364.7680716670584,369.91350145905744,369.9618593750056,370.61228787503205,364.7680716670584,1,1,0.5049049570225179,reldom2_s033,001,2025-03-12_17h41.42.215,What-B-Scan_AC,2022.2.5,None,
0,0.0,None,fixation,stimulus/viswhat_stim/blank_white.png,stimulus/viswhat_stim/blank_white.png,stimulus/audwhat_stim/blank_white.png,stimulus/audwhat_stim/blank_white.png,stimulus/viswhat_stim/blank_white.png,stimulus/viswhat_stim/blank_white.png,stimulus/viswhat_stim/blank_white.png,stimulus/viswhat_stim/blank_white.png,0.0,0.0,0.0,0.0,0,0.0,0,0.0,0,0.0,0,0.0,0,0.0,0.0,0,0.0,0,0.0,0,0.0,0,0.0,0,0.0,0,0.0,0,0.0,0,0.0,9,,,,,0,40,40,40,,,,,,,,,370.89113516698126,370.89113516698126,370.89113516698126,370.89113516698126,370.89113516698126,370.89113516698126,370.89113516698126,370.89113516698126,370.80085520873934,370.89113516698126,370.89113516698126,370.89113516698126,370.80085520873934,370.89113516698126,370.89113516698126,370.89113516698126,370.89113516698126,370.89113516698126,370.89113516698126,370.89113516698126,370.89113516698126,370.89113516698126,370.89113516698126,370.89113516698126,370.89113516698126,370.89113516698126,370.89113516698126,370.8508552087393,370.89113516698126,370.89113516698126,370.89113516698126,370.8508552087393,370.89113516698126,370.89113516698126,370.89113516698126,370.89113516698126,370.89113516698126,376.11610387498513,376.11610387498513,380.17744495905936,None,0,,reldom2_s033,001,2025-03-12_17h41.42.215,What-B-Scan_AC,2022.2.5,None,
31,First_Order,6.0,viswhat,stimulus/viswhat_stim/blank_white.png,stimulus/viswhat_stim/blank_white.png,stimulus/viswhat_stim/water_vehicle-ship.png,stimulus/viswhat_stim/land_vehicle-schoolbus.png,stimulus/viswhat_stim/blank_white.png,stimulus/viswhat_stim/location_box.png,stimulus/viswhat_stim/location_yes.png,stimulus/viswhat_stim/location_no.png,None,Location,None,Type,2,0.0,0,5.125,0,5.125,0,5.125,0,0.0,0.625,0,0.0,0,0.0,1,0.5,1,2.125,0,0.0,0,0.0,0,0.0,0,0.0,0,,,,,0,41,41,41,,,,,,,,,380.17744495905936,380.17744495905936,380.17744495905936,380.17744495905936,380.17744495905936,380.17744495905936,380.17744495905936,380.17744495905936,380.075629500711,380.17744495905936,380.17744495905936,380.17744495905936,380.075629500711,380.17744495905936,380.17744495905936,380.17744495905936,382.2826698750723,386.2618019999936,380.17744495905936,380.17744495905936,385.34765054204036,380.66038458398543,381.74253333406523,382.2826698750723,383.369269750081,380.17744495905936,380.17744495905936,380.125629500711,380.17744495905936,380.17744495905936,380.17744495905936,380.125629500711,380.17744495905936,380.17744495905936,385.34765054204036,380.17744495905936,385.34765054204036,385.40212979202624,386.2618019999936,380.17744495905936,2,1,0.8247870409395546,reldom2_s033,001,2025-03-12_17h41.42.215,What-B-Scan_AC,2022.2.5,None,
32,First_Order,6.0,viswhat,stimulus/viswhat_stim/blank_white.png,stimulus/viswhat_stim/blank_white.png,stimulus/viswhat_stim/land_vehicle-bus.png,stimulus/viswhat_stim/water_vehicle-jetski.png,stimulus/viswhat_stim/blank_white.png,stimulus/viswhat_stim/type_box.png,stimulus/viswhat_stim/type_yes.png,stimulus/viswhat_stim/type_no.png,None,Type,None,Type,1,0.0,0,5.125,0,5.125,0,5.125,0,0.0,0.625,0,0.0,0,0.0,1,0.5,1,2.125,0,0.0,0,0.0,0,0.0,0,0.0,0,,,,,0,42,42,42,,,,,,,,,386.2618019999936,386.2618019999936,386.2618019999936,386.2618019999936,386.2618019999936,386.2618019999936,386.2618019999936,386.2618019999936,386.22146787568147,386.2618019999936,386.2618019999936,386.2618019999936,386.22146787568147,386.2618019999936,386.2618019999936,386.2618019999936,388.3582713340875,,386.2618019999936,386.2618019999936,391.4179501250619,386.7290894170292,387.7497670840239,388.3582713340875,389.3833645420382,386.2618019999936,386.2618019999936,386.2381345423482,386.2618019999936,386.2618019999936,386.2618019999936,386.2381345423482,386.2618019999936,386.2618019999936,391.4179501250619,386.2618019999936,391.4179501250619,391.4885352089768,392.1231283750385,386.2618019999936,1,1,0.7343088749330491,reldom2_s033,001,2025-03-12_17h41.42.215,What-B-Scan_AC,2022.2.5,None,
33,First_Order,6.0,viswhat,stimulus/viswhat_stim/blank_white.png,stimulus/viswhat_stim/blank_white.png,stimulus/viswhat_stim/water_animal-seahorse.png,stimulus/viswhat_stim/water_vehicle-cabincruiser.png,stimulus/viswhat_stim/blank_white.png,stimulus/viswhat_stim/type_box.png,stimulus/viswhat_stim/type_yes.png,stimulus/viswhat_stim/type_no.png,None,Type,None,Location,2,0.0,0,5.125,0,5.125,0,5.125,0,0.0,0.625,0,0.0,0,0.0,1,0.5,1,2.125,0,0.0,0,0.0,0,0.0,0,0.0,0,,,,,0,43,43,43,,,,,,,,,392.3480948340148,392.3480948340148,392.3480948340148,392.3480948340148,392.3480948340148,392.3480948340148,392.3480948340148,392.3480948340148,392.29331745908127,392.3480948340148,392.3480948340148,392.3480948340148,392.29331745908127,392.3480948340148,392.3480948340148,392.3480948340148,394.44765724998433,,392.3480948340148,392.3480948340148,397.49015399999917,392.8307755839778,393.8624880000716,394.44765724998433,395.49106320901774,392.3480948340148,392.3480948340148,392.3266507924146,392.3480948340148,392.3480948340148,392.3480948340148,392.3266507924146,392.3480948340148,392.3480948340148,397.49015399999917,392.3480948340148,397.49015399999917,397.576947750058,398.2402476670686,392.3480948340148,2,1,0.8863445408642292,reldom2_s033,001,2025-03-12_17h41.42.215,What-B-Scan_AC,2022.2.5,None,
34,First_Order,6.0,viswhat,stimulus/viswhat_stim/blank_white.png,stimulus/viswhat_stim/blank_white.png,stimulus/viswhat_stim/land_animal-tiger.png,stimulus/viswhat_stim/water_animal-octopus.png,stimulus/viswhat_stim/blank_white.png,stimulus/viswhat_stim/type_box.png,stimulus/viswhat_stim/type_yes.png,stimulus/viswhat_stim/type_no.png,None,Type,None,Type,1,0.0,0,5.125,0,5.125,0,5.125,0,0.0,0.625,0,0.0,0,0.0,1,0.5,1,2.125,0,0.0,0,0.0,0,0.0,0,0.0,0,,,,,0,44,44,44,,,,,,,,,398.4524754170561,398.4524754170561,398.4524754170561,398.4524754170561,398.4524754170561,398.4524754170561,398.4524754170561,398.4524754170561,398.3858627916469,398.4524754170561,398.4524754170561,398.4524754170561,398.3858627916469,398.4524754170561,398.4524754170561,398.4524754170561,400.55850620905403,404.59333654202055,398.4524754170561,398.4524754170561,403.6143589169951,398.92674725002144,399.95826566708274,400.55850620905403,401.59667037508916,398.4524754170561,398.4524754170561,398.4191961249802,398.4524754170561,398.4524754170561,398.4524754170561,398.4191961249802,398.4524754170561,398.4524754170561,403.6143589169951,398.4524754170561,403.6143589169951,403.6517369590001,404.3257595000323,398.4524754170561,1,1,0.531162707018666,reldom2_s033,001,2025-03-12_17h41.42.215,What-B-Scan_AC,2022.2.5,None,
0,0.0,None,fixation,stimulus/viswhat_stim/blank_white.png,stimulus/viswhat_stim/blank_white.png,stimulus/audwhat_stim/blank_white.png,stimulus/audwhat_stim/blank_white.png,stimulus/viswhat_stim/blank_white.png,stimulus/viswhat_stim/blank_white.png,stimulus/viswhat_stim/blank_white.png,stimulus/viswhat_stim/blank_white.png,0.0,0.0,0.0,0.0,0,0.0,0,0.0,0,0.0,0,0.0,0,0.0,0.0,0,0.0,0,0.0,0,0.0,0,0.0,0,0.0,0,0.0,0,0.0,0,0.0,8,,,,,0,45,45,45,,,,,,,,,404.59333654202055,404.59333654202055,404.59333654202055,404.59333654202055,404.59333654202055,404.59333654202055,404.59333654202055,404.59333654202055,404.49654154238135,404.59333654202055,404.59333654202055,404.59333654202055,404.49654154238135,404.59333654202055,404.59333654202055,404.59333654202055,404.59333654202055,404.59333654202055,404.59333654202055,404.59333654202055,404.59333654202055,404.59333654202055,404.59333654202055,404.59333654202055,404.59333654202055,404.59333654202055,404.59333654202055,404.54654154238136,404.59333654202055,404.59333654202055,404.59333654202055,404.54654154238136,404.59333654202055,404.59333654202055,404.59333654202055,404.59333654202055,404.59333654202055,409.7824683750514,409.7824683750514,412.7459802919766,None,0,,reldom2_s033,001,2025-03-12_17h41.42.215,What-B-Scan_AC,2022.2.5,None,
35,Second_Order,6.0,viswhat,stimulus/viswhat_stim/land_animal-wolf.png,stimulus/viswhat_stim/land_vehicle-schoolbus.png,stimulus/viswhat_stim/water_animal-shark.png,stimulus/viswhat_stim/water_vehicle-ship.png,stimulus/viswhat_stim/match_blank.png,stimulus/viswhat_stim/match_box.png,stimulus/viswhat_stim/match_yes.png,stimulus/viswhat_stim/match_no.png,1.0,Match,Location,Location,1,5.125,0,5.125,0,5.125,0,5.125,0,0.75,0.75,1,0.5,1,2.125,1,0.5,1,2.125,0,0.0,0,0.0,0,0.0,0,0.0,0,,,,,0,46,46,46,,,,,,,,,412.7459802919766,417.8592461249791,413.21216250001453,414.20015312498435,414.8473809590796,415.83677125000395,412.7459802919766,412.7459802919766,412.75344495839283,412.7459802919766,412.7459802919766,412.7459802919766,412.75344495839283,412.7459802919766,417.8592461249791,418.7566953750793,420.7751870000502,,418.7566953750793,418.7566953750793,423.9768565420527,419.17389033408836,420.28806987497956,420.7751870000502,421.8921152090188,418.7566953750793,418.7566953750793,418.6930583340814,418.7566953750793,418.7566953750793,418.7566953750793,418.6930583340814,418.7566953750793,418.7566953750793,423.9768565420527,418.7566953750793,423.9768565420527,423.9126304590609,,418.7566953750793,1,1,1.5293124159798026,reldom2_s033,001,2025-03-12_17h41.42.215,What-B-Scan_AC,2022.2.5,None,
36,Second_Order,6.0,viswhat,stimulus/viswhat_stim/land_vehicle-oldcar.png,stimulus/viswhat_stim/land_animal-cat.png,stimulus/viswhat_stim/water_vehicle-cargoboat.png,stimulus/viswhat_stim/water_animal-orka.png,stimulus/viswhat_stim/match_blank.png,stimulus/viswhat_stim/match_box.png,stimulus/viswhat_stim/match_yes.png,stimulus/viswhat_stim/match_no.png,1.0,Match,Location,Location,1,5.125,0,5.125,0,5.125,0,5.125,0,0.625,0.625,1,0.5,1,2.125,1,0.5,1,2.125,0,0.0,0,0.0,0,0.0,0,0.0,0,,,,,0,47,47,47,,,,,,,,,424.72009262500796,429.83731683401857,425.1735890000127,426.1609526249813,426.79635687498376,427.7945969590219,424.72009262500796,424.72009262500796,424.71930791674333,424.72009262500796,424.72009262500796,424.72009262500796,424.71930791674333,424.72009262500796,429.83731683401857,430.611450000084,432.64967612503096,,430.611450000084,430.611450000084,435.80807341705076,431.0063229590887,432.05716133408714,432.64967612503096,433.7072552089812,430.611450000084,430.611450000084,430.5504729590844,430.611450000084,430.611450000084,430.611450000084,430.5504729590844,430.611450000084,430.611450000084,435.80807341705076,430.611450000084,435.80807341705076,435.80807341705076,,430.611450000084,1,1,0.5145616659428924,reldom2_s033,001,2025-03-12_17h41.42.215,What-B-Scan_AC,2022.2.5,None,
0,0.0,None,fixation,stimulus/viswhat_stim/blank_white.png,stimulus/viswhat_stim/blank_white.png,stimulus/audwhat_stim/blank_white.png,stimulus/audwhat_stim/blank_white.png,stimulus/viswhat_stim/blank_white.png,stimulus/viswhat_stim/blank_white.png,stimulus/viswhat_stim/blank_white.png,stimulus/viswhat_stim/blank_white.png,0.0,0.0,0.0,0.0,0,0.0,0,0.0,0,0.0,0,0.0,0,0.0,0.0,0,0.0,0,0.0,0,0.0,0,0.0,0,0.0,0,0.0,0,0.0,0,0.0,10,,,,,0,48,48,48,,,,,,,,,436.68725316703785,436.68725316703785,436.68725316703785,436.68725316703785,436.68725316703785,436.68725316703785,436.68725316703785,436.68725316703785,436.5923924173539,436.68725316703785,436.68725316703785,436.68725316703785,436.5923924173539,436.68725316703785,436.68725316703785,436.68725316703785,436.68725316703785,436.68725316703785,436.68725316703785,436.68725316703785,436.68725316703785,436.68725316703785,436.68725316703785,436.68725316703785,436.68725316703785,436.68725316703785,436.68725316703785,436.64239241735385,436.68725316703785,436.68725316703785,436.68725316703785,436.64239241735385,436.68725316703785,436.68725316703785,436.68725316703785,436.68725316703785,436.68725316703785,441.8695403339807,441.8695403339807,446.9223964170087,None,0,,reldom2_s033,001,2025-03-12_17h41.42.215,What-B-Scan_AC,2022.2.5,None,
37,First_Order,7.0,audwhat,stimulus/audwhat_stim/dummy.wav,stimulus/audwhat_stim/dummy.wav,stimulus/audwhat_stim/string viola_low-pitch_Ftri_loud.wav,stimulus/audwhat_stim/string viola_high-pitch_Dtri_loud.wav,stimulus/audwhat_stim/blank_white.png,stimulus/audwhat_stim/category_box.png,stimulus/audwhat_stim/category_yes.png,stimulus/audwhat_stim/category_no.png,None,Category,None,Category,1,0.0,0,5.125,0,5.125,0,5.125,0,0.0,0.625,0,0.0,0,0.0,0,0.0,0,0.0,0,0.0,0,0.0,1,0.5,1,2.125,0,,,,,0,49,49,49,,,,,,,,,446.9223964170087,446.9223964170087,446.9223964170087,446.9223964170087,446.9223964170087,446.9223964170087,446.9223964170087,446.9223964170087,446.84848604168894,446.9223964170087,446.9223964170087,446.9223964170087,446.84848604168894,446.9223964170087,446.9223964170087,446.9223964170087,449.0151991250459,453.04130491707474,446.9223964170087,446.9223964170087,452.08845250005834,446.9223964170087,446.9223964170087,446.9223964170087,446.9223964170087,447.3871035000775,448.45547620905563,447.35718583368384,,449.0151991250459,450.08913425006904,448.9850801666655,,446.9223964170087,452.08845250005834,446.9223964170087,452.08845250005834,452.1297897499753,452.7847736250842,446.9223964170087,1,1,0.654088040930219,reldom2_s033,001,2025-03-12_17h41.42.215,What-B-Scan_AC,2022.2.5,None,
38,First_Order,7.0,audwhat,stimulus/audwhat_stim/dummy.wav,stimulus/audwhat_stim/dummy.wav,stimulus/audwhat_stim/percussion mallet_high-pitch_D_loud.wav,stimulus/audwhat_stim/string viola_high-pitch_D_loud.wav,stimulus/audwhat_stim/blank_white.png,stimulus/audwhat_stim/pitch_box.png,stimulus/audwhat_stim/pitch_yes.png,stimulus/audwhat_stim/pitch_no.png,None,Pitch,None,Pitch,1,0.0,0,5.125,0,5.125,0,5.125,0,0.0,0.625,0,0.0,0,0.0,0,0.0,0,0.0,0,0.0,0,0.0,1,0.5,1,2.125,0,,,,,0,50,50,50,,,,,,,,,453.04130491707474,453.04130491707474,453.04130491707474,453.04130491707474,453.04130491707474,453.04130491707474,453.04130491707474,453.04130491707474,452.9586279173692,453.04130491707474,453.04130491707474,453.04130491707474,452.9586279173692,453.04130491707474,453.04130491707474,453.04130491707474,455.1315310840728,,453.04130491707474,453.04130491707474,458.1968501670053,453.04130491707474,453.04130491707474,453.04130491707474,453.04130491707474,453.5063202090096,454.57391366700176,453.4765458757213,,455.1315310840728,456.20480566704646,455.1013626256647,,453.04130491707474,458.1968501670053,453.04130491707474,458.1968501670053,458.23806629201863,458.89165604207665,453.04130491707474,1,1,0.6281501660123467,reldom2_s033,001,2025-03-12_17h41.42.215,What-B-Scan_AC,2022.2.5,None,
39,First_Order,7.0,audwhat,stimulus/audwhat_stim/dummy.wav,stimulus/audwhat_stim/dummy.wav,stimulus/audwhat_stim/string viola_low-pitch_Dtri_loud.wav,stimulus/audwhat_stim/percussion mallet_low-pitch_Dtri_loud.wav,stimulus/audwhat_stim/blank_white.png,stimulus/audwhat_stim/category_box.png,stimulus/audwhat_stim/category_yes.png,stimulus/audwhat_stim/category_no.png,None,Category,None,Pitch,2,0.0,0,5.125,0,5.125,0,5.125,0,0.0,0.625,0,0.0,0,0.0,0,0.0,0,0.0,0,0.0,0,0.0,1,0.5,1,2.125,0,,,,,0,51,51,51,,,,,,,,,459.1455824590521,459.1455824590521,459.1455824590521,459.1455824590521,459.1455824590521,459.1455824590521,459.1455824590521,459.1455824590521,459.06553429240205,459.1455824590521,459.1455824590521,459.1455824590521,459.06553429240205,459.1455824590521,459.1455824590521,459.1455824590521,461.24309741705656,465.27621829207055,459.1455824590521,459.1455824590521,464.32257279206533,459.1455824590521,459.1455824590521,459.1455824590521,459.1455824590521,459.6129147920292,460.6850198340835,459.58284629165814,,461.24309741705656,462.27353670902085,461.21285650070445,,459.1455824590521,464.32257279206533,459.1455824590521,464.32257279206533,464.3637990420684,465.02200612507295,459.1455824590521,2,1,0.3583973329514265,reldom2_s033,001,2025-03-12_17h41.42.215,What-B-Scan_AC,2022.2.5,None,
40,First_Order,7.0,audwhat,stimulus/audwhat_stim/dummy.wav,stimulus/audwhat_stim/dummy.wav,stimulus/audwhat_stim/string viola_high-pitch_F_loud.wav,stimulus/audwhat_stim/string viola_low-pitch_Ftri_loud.wav,stimulus/audwhat_stim/blank_white.png,stimulus/audwhat_stim/pitch_box.png,stimulus/audwhat_stim/pitch_yes.png,stimulus/audwhat_stim/pitch_no.png,None,Pitch,None,Category,2,0.0,0,5.125,0,5.125,0,5.125,0,0.0,0.625,0,0.0,0,0.0,0,0.0,0,0.0,0,0.0,0,0.0,1,0.5,1,2.125,0,,,,,0,52,52,52,,,,,,,,,465.27621829207055,465.27621829207055,465.27621829207055,465.27621829207055,465.27621829207055,465.27621829207055,465.27621829207055,465.27621829207055,465.1958734583187,465.27621829207055,465.27621829207055,465.27621829207055,465.1958734583187,465.27621829207055,465.27621829207055,465.27621829207055,467.3654572920641,,465.27621829207055,465.27621829207055,470.42812799999956,465.27621829207055,465.27621829207055,465.27621829207055,465.27621829207055,465.74072754208464,466.8085114590358,465.71106175071714,,467.3654572920641,468.43588795908727,467.33552854165123,,465.27621829207055,470.42812799999956,465.27621829207055,470.42812799999956,470.46926550008357,471.1259054590482,465.27621829207055,2,1,0.6634879579069093,reldom2_s033,001,2025-03-12_17h41.42.215,What-B-Scan_AC,2022.2.5,None,
0,0.0,None,fixation,stimulus/viswhat_stim/blank_white.png,stimulus/viswhat_stim/blank_white.png,stimulus/audwhat_stim/blank_white.png,stimulus/audwhat_stim/blank_white.png,stimulus/viswhat_stim/blank_white.png,stimulus/viswhat_stim/blank_white.png,stimulus/viswhat_stim/blank_white.png,stimulus/viswhat_stim/blank_white.png,0.0,0.0,0.0,0.0,0,0.0,0,0.0,0,0.0,0,0.0,0,0.0,0.0,0,0.0,0,0.0,0,0.0,0,0.0,0,0.0,0,0.0,0,0.0,0,0.0,9,,,,,0,53,53,53,,,,,,,,,471.40086862503085,471.40086862503085,471.40086862503085,471.40086862503085,471.40086862503085,471.40086862503085,471.40086862503085,471.40086862503085,471.30022950031173,471.40086862503085,471.40086862503085,471.40086862503085,471.30022950031173,471.40086862503085,471.40086862503085,471.40086862503085,471.40086862503085,471.40086862503085,471.40086862503085,471.40086862503085,471.40086862503085,471.40086862503085,471.40086862503085,471.40086862503085,471.40086862503085,471.40086862503085,471.40086862503085,471.35022950031174,471.40086862503085,471.40086862503085,471.40086862503085,471.35022950031174,471.40086862503085,471.40086862503085,471.40086862503085,471.40086862503085,471.40086862503085,476.59178075008094,476.59178075008094,480.5351888340665,None,0,,reldom2_s033,001,2025-03-12_17h41.42.215,What-B-Scan_AC,2022.2.5,None,
41,Second_Order,7.0,audwhat,stimulus/audwhat_stim/percussion mallet_low-pitch_F_loud.wav,stimulus/audwhat_stim/percussion mallet_high-pitch_D_loud.wav,stimulus/audwhat_stim/string cello_low-pitch_Dtri_loud.wav,stimulus/audwhat_stim/string viola_high-pitch_F_loud.wav,stimulus/viswhat_stim/match_blank.png,stimulus/viswhat_stim/match_box.png,stimulus/viswhat_stim/match_yes.png,stimulus/viswhat_stim/match_no.png,1.0,Match,Category,Category,1,5.125,0,5.125,0,5.125,0,5.125,0,0.75,0.75,0,0.0,0,0.0,0,0.0,0,0.0,1,0.5,1,2.125,1,0.5,1,2.125,0,,,,,0,54,54,54,,,,,,,,,480.5351888340665,485.6496524590766,480.5351888340665,480.5351888340665,480.5351888340665,480.5351888340665,480.9861092090141,481.9733484170865,480.99981233367384,,482.61005370900966,483.60622341698036,482.62099266675455,,485.6496524590766,486.49902624997776,488.53862291702535,,486.49902624997776,486.49902624997776,491.69382404198404,486.49902624997776,486.49902624997776,486.49902624997776,486.49902624997776,486.9178112919908,487.9826617500512,486.88781695865714,,488.53862291702535,489.6109503749758,488.508572000723,,486.49902624997776,491.69382404198404,486.49902624997776,491.69382404198404,491.69382404198404,,486.49902624997776,1,1,0.4823890409898013,reldom2_s033,001,2025-03-12_17h41.42.215,What-B-Scan_AC,2022.2.5,None,
42,Second_Order,7.0,audwhat,stimulus/audwhat_stim/percussion mallet_high-pitch_Ftri_loud.wav,stimulus/audwhat_stim/percussion mallet_low-pitch_F_loud.wav,stimulus/audwhat_stim/percussion mallet_low-pitch_Dtri_loud.wav,stimulus/audwhat_stim/string viola_low-pitch_Dtri_loud.wav,stimulus/viswhat_stim/match_blank.png,stimulus/viswhat_stim/match_box.png,stimulus/viswhat_stim/match_yes.png,stimulus/viswhat_stim/match_no.png,2.0,Match,Category,Pitch,2,5.125,0,5.125,0,5.125,0,5.125,0,0.625,0.625,0,0.0,0,0.0,0,0.0,0,0.0,1,0.5,1,2.125,1,0.5,1,2.125,0,,,,,0,55,55,55,,,,,,,,,492.46406341705006,497.5747028749902,492.46406341705006,492.46406341705006,492.46406341705006,492.46406341705006,492.9133986249799,493.90096433402505,492.92766687571225,,494.5484297920484,495.5374436250422,494.55239829171137,,497.5747028749902,498.3044867090648,500.38271658401936,504.409053334035,498.3044867090648,498.3044867090648,503.4821616670815,498.3044867090648,498.3044867090648,498.3044867090648,498.3044867090648,498.72069254203234,499.7833373340545,498.6911899586596,,500.38271658401936,501.44981212506536,500.35321137571395,,498.3044867090648,503.4821616670815,498.3044867090648,503.4821616670815,503.4821616670815,504.13452116702683,498.3044867090648,2,1,0.33271095796953887,reldom2_s033,001,2025-03-12_17h41.42.215,What-B-Scan_AC,2022.2.5,None,
0,0.0,None,fixation,stimulus/viswhat_stim/blank_white.png,stimulus/viswhat_stim/blank_white.png,stimulus/audwhat_stim/blank_white.png,stimulus/audwhat_stim/blank_white.png,stimulus/viswhat_stim/blank_white.png,stimulus/viswhat_stim/blank_white.png,stimulus/viswhat_stim/blank_white.png,stimulus/viswhat_stim/blank_white.png,0.0,0.0,0.0,0.0,0,0.0,0,0.0,0,0.0,0,0.0,0,0.0,0.0,0,0.0,0,0.0,0,0.0,0,0.0,0,0.0,0,0.0,0,0.0,0,0.0,9,,,,,0,56,56,56,,,,,,,,,504.409053334035,504.409053334035,504.409053334035,504.409053334035,504.409053334035,504.409053334035,504.409053334035,504.409053334035,504.3089094583721,504.409053334035,504.409053334035,504.409053334035,504.3089094583721,504.409053334035,504.409053334035,504.409053334035,504.409053334035,504.409053334035,504.409053334035,504.409053334035,504.409053334035,504.409053334035,504.409053334035,504.409053334035,504.409053334035,504.409053334035,504.409053334035,504.3589094583721,504.409053334035,504.409053334035,504.409053334035,504.3589094583721,504.409053334035,504.409053334035,504.409053334035,504.409053334035,504.409053334035,509.6335700839991,509.6335700839991,513.6681802499807,None,0,,reldom2_s033,001,2025-03-12_17h41.42.215,What-B-Scan_AC,2022.2.5,None,
43,First_Order,8.0,audwhat,stimulus/audwhat_stim/dummy.wav,stimulus/audwhat_stim/dummy.wav,stimulus/audwhat_stim/string cello_high-pitch_D_loud.wav,stimulus/audwhat_stim/string cello_low-pitch_F_loud.wav,stimulus/audwhat_stim/blank_white.png,stimulus/audwhat_stim/pitch_box.png,stimulus/audwhat_stim/pitch_yes.png,stimulus/audwhat_stim/pitch_no.png,None,Pitch,None,Category,2,0.0,0,5.125,0,5.125,0,5.125,0,0.0,0.625,0,0.0,0,0.0,0,0.0,0,0.0,0,0.0,0,0.0,1,0.5,1,2.125,0,,,,,0,57,57,57,,,,,,,,,513.6681802499807,513.6681802499807,513.6681802499807,513.6681802499807,513.6681802499807,513.6681802499807,513.6681802499807,513.6681802499807,513.5960193337329,513.6681802499807,513.6681802499807,513.6681802499807,513.5960193337329,513.6681802499807,513.6681802499807,513.6681802499807,515.7600191250676,,513.6681802499807,513.6681802499807,518.8250558340224,513.6681802499807,513.6681802499807,513.6681802499807,513.6681802499807,514.1322274589911,515.2013303750427,514.1024778757167,,515.7600191250676,516.8327997090528,515.7300020836449,,513.6681802499807,518.8250558340224,513.6681802499807,518.8250558340224,518.866043459042,519.5199882920133,513.6681802499807,2,1,0.6963933740044013,reldom2_s033,001,2025-03-12_17h41.42.215,What-B-Scan_AC,2022.2.5,None,
44,First_Order,8.0,audwhat,stimulus/audwhat_stim/dummy.wav,stimulus/audwhat_stim/dummy.wav,stimulus/audwhat_stim/percussion mallet_low-pitch_F_loud.wav,stimulus/audwhat_stim/string cello_low-pitch_F_loud.wav,stimulus/audwhat_stim/blank_white.png,stimulus/audwhat_stim/pitch_box.png,stimulus/audwhat_stim/pitch_yes.png,stimulus/audwhat_stim/pitch_no.png,None,Pitch,None,Pitch,1,0.0,0,5.125,0,5.125,0,5.125,0,0.0,0.625,0,0.0,0,0.0,0,0.0,0,0.0,0,0.0,0,0.0,1,0.5,1,2.125,0,,,,,0,58,58,58,,,,,,,,,519.7733454169938,519.7733454169938,519.7733454169938,519.7733454169938,519.7733454169938,519.7733454169938,519.7733454169938,519.7733454169938,519.6938925003943,519.7733454169938,519.7733454169938,519.7733454169938,519.6938925003943,519.7733454169938,519.7733454169938,519.7733454169938,521.8582523340592,,519.7733454169938,519.7733454169938,524.9241973750759,519.7733454169938,519.7733454169938,519.7733454169938,519.7733454169938,520.2373572090873,521.3028394590365,520.2075822506488,,521.8582523340592,522.9288567090407,521.8281429587553,,519.7733454169938,524.9241973750759,519.7733454169938,524.9241973750759,524.9654108750401,525.617787708994,519.7733454169938,1,1,1.1007240829057992,reldom2_s033,001,2025-03-12_17h41.42.215,What-B-Scan_AC,2022.2.5,None,
45,First_Order,8.0,audwhat,stimulus/audwhat_stim/dummy.wav,stimulus/audwhat_stim/dummy.wav,stimulus/audwhat_stim/string viola_low-pitch_Dtri_loud.wav,stimulus/audwhat_stim/string cello_high-pitch_Ftri_loud.wav,stimulus/audwhat_stim/blank_white.png,stimulus/audwhat_stim/category_box.png,stimulus/audwhat_stim/category_yes.png,stimulus/audwhat_stim/category_no.png,None,Category,None,Category,1,0.0,0,5.125,0,5.125,0,5.125,0,0.0,0.625,0,0.0,0,0.0,0,0.0,0,0.0,0,0.0,0,0.0,1,0.5,1,2.125,0,,,,,0,59,59,59,,,,,,,,,525.8720498749753,525.8720498749753,525.8720498749753,525.8720498749753,525.8720498749753,525.8720498749753,525.8720498749753,525.8720498749753,525.7920602084215,525.8720498749753,525.8720498749753,525.8720498749753,525.7920602084215,525.8720498749753,525.8720498749753,525.8720498749753,527.9715014169924,,525.8720498749753,525.8720498749753,531.0540661669802,525.8720498749753,525.8720498749753,525.8720498749753,525.8720498749753,526.3383049169788,527.4133933749981,526.3082832507246,,527.9715014169924,529.0031156670302,527.9413063337017,,525.8720498749753,531.0540661669802,525.8720498749753,531.0540661669802,531.0954497500788,531.7528607089771,525.8720498749753,1,1,0.5665933330310509,reldom2_s033,001,2025-03-12_17h41.42.215,What-B-Scan_AC,2022.2.5,None,
46,First_Order,8.0,audwhat,stimulus/audwhat_stim/dummy.wav,stimulus/audwhat_stim/dummy.wav,stimulus/audwhat_stim/string viola_high-pitch_Ftri_loud.wav,stimulus/audwhat_stim/percussion xylophone_high-pitch_Ftri_loud.wav,stimulus/audwhat_stim/blank_white.png,stimulus/audwhat_stim/category_box.png,stimulus/audwhat_stim/category_yes.png,stimulus/audwhat_stim/category_no.png,None,Category,None,Pitch,2,0.0,0,5.125,0,5.125,0,5.125,0,0.0,0.625,0,0.0,0,0.0,0,0.0,0,0.0,0,0.0,0,0.0,1,0.5,1,2.125,0,,,,,0,60,60,60,,,,,,,,,531.9662011250621,531.9662011250621,531.9662011250621,531.9662011250621,531.9662011250621,531.9662011250621,531.9662011250621,531.9662011250621,531.8861940423104,531.9662011250621,531.9662011250621,531.9662011250621,531.8861940423104,531.9662011250621,531.9662011250621,531.9662011250621,534.0635465000523,538.1140667920699,531.9662011250621,531.9662011250621,537.1413745000027,531.9662011250621,531.9662011250621,531.9662011250621,531.9662011250621,532.4314436250133,533.5037997090258,532.4016654167247,,534.0635465000523,535.0947271670448,534.0332563756422,535.0947271670448,531.9662011250621,537.1413745000027,531.9662011250621,537.1413745000027,537.1824564590352,537.8391852090135,531.9662011250621,2,1,0.6508451659465209,reldom2_s033,001,2025-03-12_17h41.42.215,What-B-Scan_AC,2022.2.5,None,
0,0.0,None,fixation,stimulus/viswhat_stim/blank_white.png,stimulus/viswhat_stim/blank_white.png,stimulus/audwhat_stim/blank_white.png,stimulus/audwhat_stim/blank_white.png,stimulus/viswhat_stim/blank_white.png,stimulus/viswhat_stim/blank_white.png,stimulus/viswhat_stim/blank_white.png,stimulus/viswhat_stim/blank_white.png,0.0,0.0,0.0,0.0,0,0.0,0,0.0,0,0.0,0,0.0,0,0.0,0.0,0,0.0,0,0.0,0,0.0,0,0.0,0,0.0,0,0.0,0,0.0,0,0.0,8,,,,,0,61,61,61,,,,,,,,,538.1140667920699,538.1140667920699,538.1140667920699,538.1140667920699,538.1140667920699,538.1140667920699,538.1140667920699,538.1140667920699,538.0134732923781,538.1140667920699,538.1140667920699,538.1140667920699,538.0134732923781,538.1140667920699,538.1140667920699,538.1140667920699,538.1140667920699,538.1140667920699,538.1140667920699,538.1140667920699,538.1140667920699,538.1140667920699,538.1140667920699,538.1140667920699,538.1140667920699,538.1140667920699,538.1140667920699,538.063473292378,538.1140667920699,538.1140667920699,538.1140667920699,538.063473292378,538.1140667920699,538.1140667920699,538.1140667920699,538.1140667920699,538.1140667920699,543.3168674170738,543.3168674170738,546.2491250840249,None,0,,reldom2_s033,001,2025-03-12_17h41.42.215,What-B-Scan_AC,2022.2.5,None,
47,Second_Order,8.0,audwhat,stimulus/audwhat_stim/string cello_low-pitch_Dtri_loud.wav,stimulus/audwhat_stim/string viola_high-pitch_D_loud.wav,stimulus/audwhat_stim/percussion xylophone_high-pitch_F_loud.wav,stimulus/audwhat_stim/percussion mallet_low-pitch_D_loud.wav,stimulus/viswhat_stim/match_blank.png,stimulus/viswhat_stim/match_box.png,stimulus/viswhat_stim/match_yes.png,stimulus/viswhat_stim/match_no.png,1.0,Match,Category,Category,1,5.125,0,5.125,0,5.125,0,5.125,0,0.75,0.75,0,0.0,0,0.0,0,0.0,0,0.0,1,0.5,1,2.125,1,0.5,1,2.125,0,,,,,0,62,62,62,,,,,,,,,546.2491250840249,551.3679231670685,546.2491250840249,546.2491250840249,546.2491250840249,546.2491250840249,546.7044988750713,547.6915499169845,546.7185347086672,,548.3273599999957,549.324809208978,548.3393748757119,,551.3679231670685,552.2179939170601,554.3027913339902,,552.2179939170601,552.2179939170601,557.4130564170191,552.2179939170601,552.2179939170601,552.2179939170601,552.2179939170601,552.636719042086,553.7011760000605,552.6065129166857,553.6549807920819,554.3027913339902,555.374132584082,554.2726517087469,,552.2179939170601,557.4130564170191,552.2179939170601,557.4130564170191,557.4130564170191,,552.2179939170601,1,1,0.3766432909760624,reldom2_s033,001,2025-03-12_17h41.42.215,What-B-Scan_AC,2022.2.5,None,
48,Second_Order,8.0,audwhat,stimulus/audwhat_stim/percussion mallet_high-pitch_D_loud.wav,stimulus/audwhat_stim/percussion mallet_low-pitch_Dtri_loud.wav,stimulus/audwhat_stim/string viola_high-pitch_F_loud.wav,stimulus/audwhat_stim/string viola_low-pitch_Dtri_loud.wav,stimulus/viswhat_stim/match_blank.png,stimulus/viswhat_stim/match_box.png,stimulus/viswhat_stim/match_yes.png,stimulus/viswhat_stim/match_no.png,1.0,Match,Category,Category,1,5.125,0,5.125,0,5.125,0,5.125,0,0.625,0.625,0,0.0,0,0.0,0,0.0,0,0.0,1,0.5,1,2.125,1,0.5,1,2.125,0,,,,,0,63,63,63,,,,,,,,,558.1848071250133,563.3073830840876,558.1848071250133,558.1848071250133,558.1848071250133,558.1848071250133,558.6318205000134,559.6197774590692,558.6458934166624,,560.2667840840295,561.2571294170339,560.2706972086492,,563.3073830840876,564.0441522090696,566.122550125001,570.152634875034,564.0441522090696,564.0441522090696,569.2258508750238,564.0441522090696,564.0441522090696,564.0441522090696,564.0441522090696,564.4576607090421,565.5221694170032,564.4277995837076,,566.122550125001,567.1912336250534,566.0929295006829,,564.0441522090696,569.2258508750238,564.0441522090696,569.2258508750238,569.2258508750238,569.8783567920327,564.0441522090696,1,1,0.5279434159165248,reldom2_s033,001,2025-03-12_17h41.42.215,What-B-Scan_AC,2022.2.5,None,
0,0.0,None,fixation,stimulus/viswhat_stim/blank_white.png,stimulus/viswhat_stim/blank_white.png,stimulus/audwhat_stim/blank_white.png,stimulus/audwhat_stim/blank_white.png,stimulus/viswhat_stim/blank_white.png,stimulus/viswhat_stim/blank_white.png,stimulus/viswhat_stim/blank_white.png,stimulus/viswhat_stim/blank_white.png,0.0,0.0,0.0,0.0,0,0.0,0,0.0,0,0.0,0,0.0,0,0.0,0.0,0,0.0,0,0.0,0,0.0,0,0.0,0,0.0,0,0.0,0,0.0,0,0.0,16,,,,,0,64,64,64,,,,,,,,,570.152634875034,570.152634875034,570.152634875034,570.152634875034,570.152634875034,570.152634875034,570.152634875034,570.152634875034,570.0524736253157,570.152634875034,570.152634875034,570.152634875034,570.0524736253157,570.152634875034,570.152634875034,570.152634875034,570.152634875034,570.152634875034,570.152634875034,570.152634875034,570.152634875034,570.152634875034,570.152634875034,570.152634875034,570.152634875034,570.152634875034,570.152634875034,570.1024736253156,570.152634875034,570.152634875034,570.152634875034,570.1024736253156,570.152634875034,570.152634875034,570.152634875034,570.152634875034,570.152634875034,575.3845528340898,575.3845528340898,586.2793797090417,None,0,,reldom2_s033,001,2025-03-12_17h41.42.215,What-B-Scan_AC,2022.2.5,None,
