Trial,Order,Block,Type,Stimuli_File1,Stimuli_File2,Stimuli_File3,Stimuli_File4,Cue_File1,Cue_File2,Response_File_Yes,Response_File_No,Match,Cue_Dimension,Pair1_Dimension,Pair2_Dimension,Key,Cue1_Duration,Cue1_Onset,Cue2_Duration,Cue2_Onset,ResponseYes_Duration,ResponseYes_Onset,ResponseNo_Duration,ResponseNo_Onset,ITI_Within,ITI_Between,Image1_Duration,Image1_Onset,Image2_Duration,Image2_Onset,Image3_Duration,Image3_Onset,Image4_Duration,Image4_Onset,Sound1_Duration,Sound1_Onset,Sound2_Duration,Sound2_Onset,Sound3_Duration,Sound3_Onset,Sound4_Duration,Sound4_Onset,Fixation_Duration,trials_2.thisRepN,trials_2.thisTrialN,trials_2.thisN,trials_2.thisIndex,trials.thisRepN,trials.thisTrialN,trials.thisN,trials.thisIndex,text_start.started,key_resp_start.started,key_resp_start.keys,key_resp_start.rt,text2.started,key_resp_2.started,key_resp_2.keys,key_resp_2.rt,cue_file1.started,cue_file1.stopped,image_1.started,image_1.stopped,image_2.started,image_2.stopped,sound_icon1.started,sound_icon1.stopped,sound_1.started,sound_1.stopped,sound_icon2.started,sound_icon2.stopped,sound_2.started,sound_2.stopped,image_blank_1.started,image_blank_1.stopped,key_press.started,key_press.stopped,fixation_text.started,cue_file2.started,cue_file2.stopped,image_3.started,image_3.stopped,image_4.started,image_4.stopped,sound_icon3.started,sound_icon3.stopped,sound_3.started,sound_3.stopped,sound_icon4.started,sound_icon4.stopped,sound_4.started,sound_4.stopped,response_yes.started,response_yes.stopped,response_no.started,response_no.stopped,iti_blank.started,iti_blank.stopped,fixation_text.stopped,key_press.keys,key_press.corr,key_press.rt,participant,session,date,expName,psychopyVersion,frameRate,
,,,,,,,,,,,,,,,,,,,,,,,,,,,,,,,,,,,,,,,,,,,,,,,,,,,,7.136069207917899,7.136069207917899,2,5.911700083059259,,,,,,,,,,,,,,,,,,,,,,,,,,,,,,,,,,,,,,,,,,,,,,,,reldom2_s033,001,2025-03-12_17h30.20.112,Vis-B-Scan_AC,2022.2.5,None,
,,,,,,,,,,,,,,,,,,,,,,,,,,,,,,,,,,,,,,,,,,,,0,0,0,0,,,,,,,,,13.090844374964945,13.090844374964945,5,24.586907292017713,,,,,,,,,,,,,,,,,,,,,,,,,,,,,,,,,,,,,,,,,,,,reldom2_s033,001,2025-03-12_17h30.20.112,Vis-B-Scan_AC,2022.2.5,None,
,,,,,,,,,,,,,,,,,,,,,,,,,,,,,,,,,,,,,,,,,,,,1,0,1,0,,,,,,,,,37.6903846670175,37.6903846670175,5,1.9903648330364376,,,,,,,,,,,,,,,,,,,,,,,,,,,,,,,,,,,,,,,,,,,,reldom2_s033,001,2025-03-12_17h30.20.112,Vis-B-Scan_AC,2022.2.5,None,
,,,,,,,,,,,,,,,,,,,,,,,,,,,,,,,,,,,,,,,,,,,,2,0,2,0,,,,,,,,,39.6949027919909,39.6949027919909,5,1.9833603330189362,,,,,,,,,,,,,,,,,,,,,,,,,,,,,,,,,,,,,,,,,,,,reldom2_s033,001,2025-03-12_17h30.20.112,Vis-B-Scan_AC,2022.2.5,None,
,,,,,,,,,,,,,,,,,,,,,,,,,,,,,,,,,,,,,,,,,,,,3,0,3,0,,,,,,,,,41.690235542017035,41.690235542017035,5,1.9872884999495,,,,,,,,,,,,,,,,,,,,,,,,,,,,,,,,,,,,,,,,,,,,reldom2_s033,001,2025-03-12_17h30.20.112,Vis-B-Scan_AC,2022.2.5,None,
0,0.0,None,fixation,stimulus/viswhere_stim/blank_white.png,stimulus/viswhere_stim/blank_white.png,stimulus/viswhat_stim/blank_white.png,stimulus/viswhat_stim/blank_white.png,stimulus/viswhere_stim/blank_white.png,stimulus/viswhere_stim/blank_white.png,stimulus/viswhere_stim/blank_white.png,stimulus/viswhere_stim/blank_white.png,0.0,0.0,0.0,0.0,0,0.0,0,0.0,0,0.0,0,0.0,0,0.0,0.0,0,0.0,0,0.0,0,0.0,0,0.0,0,0,0,0,0,0,0,0,16,,,,,0,0,0,0,,,,,,,,,43.891064499970526,43.891064499970526,43.891064499970526,43.891064499970526,43.891064499970526,43.891064499970526,43.891064499970526,43.891064499970526,43.804624291687894,43.891064499970526,43.891064499970526,43.891064499970526,43.804624291687894,43.891064499970526,43.891064499970526,43.891064499970526,43.891064499970526,43.891064499970526,43.891064499970526,43.891064499970526,43.891064499970526,43.891064499970526,43.891064499970526,43.891064499970526,43.891064499970526,43.891064499970526,43.891064499970526,43.85462429168789,43.891064499970526,43.891064499970526,43.891064499970526,43.85462429168789,43.891064499970526,43.891064499970526,43.891064499970526,43.891064499970526,43.891064499970526,49.107959541957825,49.107959541957825,60.0418132499326,None,0,,reldom2_s033,001,2025-03-12_17h30.20.112,Vis-B-Scan_AC,2022.2.5,None,
1,First_Order,1.0,viswhere,stimulus/viswhere_stim/blank_white.png,stimulus/viswhere_stim/blank_white.png,stimulus/viswhere_stim/150-deg_dot-left_royalblue.png,stimulus/viswhere_stim/150-deg_dot-right_peru.png,stimulus/viswhere_stim/blank_white.png,stimulus/viswhere_stim/dot_box.png,stimulus/viswhere_stim/dot_yes.png,stimulus/viswhere_stim/dot_no.png,None,Dot,None,Line,2,0.0,0,5.125,0,5.125,0,5.125,0,0.0,0.625,0,0.0,0,0.0,1,0.5,1,2.125,0,0,0,0,0,0,0,0,0,,,,,0,1,1,1,,,,,,,,,60.0418132499326,60.0418132499326,60.0418132499326,60.0418132499326,60.0418132499326,60.0418132499326,60.0418132499326,60.0418132499326,60.02556804192718,60.0418132499326,60.0418132499326,60.0418132499326,60.02556804192718,60.0418132499326,60.0418132499326,60.0418132499326,62.15130174998194,66.10839108296204,60.0418132499326,60.0418132499326,65.1736982499715,60.525784333003685,61.535252708010375,62.15130174998194,63.167167707928456,60.0418132499326,60.0418132499326,60.02556804192718,60.0418132499326,60.0418132499326,60.0418132499326,60.02556804192718,60.0418132499326,60.0418132499326,65.1736982499715,60.0418132499326,65.1736982499715,65.26025024999399,65.88822991691995,60.0418132499326,2,1,0.9880629170220345,reldom2_s033,001,2025-03-12_17h30.20.112,Vis-B-Scan_AC,2022.2.5,None,
2,First_Order,1.0,viswhere,stimulus/viswhere_stim/blank_white.png,stimulus/viswhere_stim/blank_white.png,stimulus/viswhere_stim/30-deg_dot-left_salmon.png,stimulus/viswhere_stim/30-deg_dot-right_seagreen.png,stimulus/viswhere_stim/blank_white.png,stimulus/viswhere_stim/dot_box.png,stimulus/viswhere_stim/dot_yes.png,stimulus/viswhere_stim/dot_no.png,None,Dot,None,Line,2,0.0,0,5.125,0,5.125,0,5.125,0,0.0,0.625,0,0.0,0,0.0,1,0.5,1,2.125,0,0,0,0,0,0,0,0,0,,,,,0,2,2,2,,,,,,,,,66.10839108296204,66.10839108296204,66.10839108296204,66.10839108296204,66.10839108296204,66.10839108296204,66.10839108296204,66.10839108296204,66.091548458285,66.10839108296204,66.10839108296204,66.10839108296204,66.091548458285,66.10839108296204,66.10839108296204,66.10839108296204,68.21976029197685,72.1656064579729,66.10839108296204,66.10839108296204,71.23970320797525,66.59099058294669,67.60327874997165,68.21976029197685,69.2325246669352,66.10839108296204,66.10839108296204,66.091548458285,66.10839108296204,66.10839108296204,66.10839108296204,66.091548458285,66.10839108296204,66.10839108296204,71.23970320797525,66.10839108296204,71.23970320797525,71.35108937497716,71.97208300000057,66.10839108296204,2,1,1.20268358301837,reldom2_s033,001,2025-03-12_17h30.20.112,Vis-B-Scan_AC,2022.2.5,None,
3,First_Order,1.0,viswhere,stimulus/viswhere_stim/blank_white.png,stimulus/viswhere_stim/blank_white.png,stimulus/viswhere_stim/120-deg_dot-left_goldenrod.png,stimulus/viswhere_stim/30-deg_dot-left_slateblue.png,stimulus/viswhere_stim/blank_white.png,stimulus/viswhere_stim/dot_box.png,stimulus/viswhere_stim/dot_yes.png,stimulus/viswhere_stim/dot_no.png,None,Dot,None,Dot,1,0.0,0,5.125,0,5.125,0,5.125,0,0.0,0.625,0,0.0,0,0.0,1,0.5,1,2.125,0,0,0,0,0,0,0,0,0,,,,,0,3,3,3,,,,,,,,,72.1656064579729,72.1656064579729,72.1656064579729,72.1656064579729,72.1656064579729,72.1656064579729,72.1656064579729,72.1656064579729,72.14907458327555,72.1656064579729,72.1656064579729,72.1656064579729,72.14907458327555,72.1656064579729,72.1656064579729,72.1656064579729,74.26350429200102,78.22383816703223,72.1656064579729,72.1656064579729,77.28893720800988,72.65401329193264,73.66353437502403,74.26350429200102,75.28153516701423,72.1656064579729,72.1656064579729,72.14907458327555,72.1656064579729,72.1656064579729,72.1656064579729,72.14907458327555,72.1656064579729,72.1656064579729,77.28893720800988,72.1656064579729,77.28893720800988,77.38458791701123,78.01633120793849,72.1656064579729,1,1,0.6996552080381662,reldom2_s033,001,2025-03-12_17h30.20.112,Vis-B-Scan_AC,2022.2.5,None,
4,First_Order,1.0,viswhere,stimulus/viswhere_stim/blank_white.png,stimulus/viswhere_stim/blank_white.png,stimulus/viswhere_stim/150-deg_dot-right_royalblue.png,stimulus/viswhere_stim/30-deg_dot-right_salmon.png,stimulus/viswhere_stim/blank_white.png,stimulus/viswhere_stim/line_box.png,stimulus/viswhere_stim/line_yes.png,stimulus/viswhere_stim/line_no.png,None,Line,None,Dot,2,0.0,0,5.125,0,5.125,0,5.125,0,0.0,0.625,0,0.0,0,0.0,1,0.5,1,2.125,0,0,0,0,0,0,0,0,0,,,,,0,4,4,4,,,,,,,,,78.22383816703223,78.22383816703223,78.22383816703223,78.22383816703223,78.22383816703223,78.22383816703223,78.22383816703223,78.22383816703223,78.20623104130694,78.22383816703223,78.22383816703223,78.22383816703223,78.20623104130694,78.22383816703223,78.22383816703223,78.22383816703223,80.3278226669645,84.359947458026,78.22383816703223,78.22383816703223,83.35023566696327,78.6981200829614,79.70408950001001,80.3278226669645,81.3365435419837,78.22383816703223,78.22383816703223,78.20623104130694,78.22383816703223,78.22383816703223,78.22383816703223,78.20623104130694,78.22383816703223,78.22383816703223,83.35023566696327,78.22383816703223,83.35023566696327,83.46237966697663,84.08416658302303,78.22383816703223,2,1,0.7931873750640079,reldom2_s033,001,2025-03-12_17h30.20.112,Vis-B-Scan_AC,2022.2.5,None,
0,0.0,None,fixation,stimulus/viswhere_stim/blank_white.png,stimulus/viswhere_stim/blank_white.png,stimulus/viswhat_stim/blank_white.png,stimulus/viswhat_stim/blank_white.png,stimulus/viswhere_stim/blank_white.png,stimulus/viswhere_stim/blank_white.png,stimulus/viswhere_stim/blank_white.png,stimulus/viswhere_stim/blank_white.png,0.0,0.0,0.0,0.0,0,0.0,0,0.0,0,0.0,0,0.0,0,0.0,0.0,0,0.0,0,0.0,0,0.0,0,0.0,0,0,0,0,0,0,0,0,9,,,,,0,5,5,5,,,,,,,,,84.359947458026,84.359947458026,84.359947458026,84.359947458026,84.359947458026,84.359947458026,84.359947458026,84.359947458026,84.26718741628186,84.359947458026,84.359947458026,84.359947458026,84.26718741628186,84.359947458026,84.359947458026,84.359947458026,84.359947458026,84.359947458026,84.359947458026,84.359947458026,84.359947458026,84.359947458026,84.359947458026,84.359947458026,84.359947458026,84.359947458026,84.359947458026,84.31718741628185,84.359947458026,84.359947458026,84.359947458026,84.31718741628185,84.359947458026,84.359947458026,84.359947458026,84.359947458026,84.359947458026,89.58783645799849,89.58783645799849,93.49965829192661,None,0,,reldom2_s033,001,2025-03-12_17h30.20.112,Vis-B-Scan_AC,2022.2.5,None,
5,Second_Order,1.0,viswhere,stimulus/viswhere_stim/90-deg_dot-left_mediumslateblue.png,stimulus/viswhere_stim/30-deg_dot-left_slateblue.png,stimulus/viswhere_stim/90-deg_dot-left_royalblue.png,stimulus/viswhere_stim/90-deg_dot-right_goldenrod.png,stimulus/viswhere_stim/match_blank.png,stimulus/viswhere_stim/match_box.png,stimulus/viswhere_stim/match_yes.png,stimulus/viswhere_stim/match_no.png,2.0,Match,Dot,Line,2,5.125,0,5.125,0,5.125,0,5.125,0,0.75,0.75,1,0.5,1,2.125,1,0.5,1,2.125,0,0,0,0,0,0,0,0,0,,,,,0,6,6,6,,,,,,,,,93.49965829192661,98.6190349169774,93.97242329199798,94.96068929194007,95.60757779201958,96.59701812500134,93.49965829192661,93.49965829192661,93.49962437464079,93.49965829192661,93.49965829192661,93.49965829192661,93.49962437464079,93.49965829192661,98.6190349169774,99.4159101669211,101.49230174999684,105.38589199993294,99.4159101669211,99.4159101669211,104.54670704202726,99.85778858303092,100.86604241700843,101.49230174999684,102.50881937495433,99.4159101669211,99.4159101669211,99.404964750004,99.4159101669211,99.4159101669211,99.4159101669211,99.404964750004,99.4159101669211,99.4159101669211,104.54670704202726,99.4159101669211,104.54670704202726,104.61517745791934,105.38589199993294,99.4159101669211,2,1,0.748621332924813,reldom2_s033,001,2025-03-12_17h30.20.112,Vis-B-Scan_AC,2022.2.5,None,
6,Second_Order,1.0,viswhere,stimulus/viswhere_stim/30-deg_dot-right_turquoise.png,stimulus/viswhere_stim/30-deg_dot-left_goldenrod.png,stimulus/viswhere_stim/60-deg_dot-left_salmon.png,stimulus/viswhere_stim/60-deg_dot-right_slateblue.png,stimulus/viswhere_stim/match_blank.png,stimulus/viswhere_stim/match_box.png,stimulus/viswhere_stim/match_yes.png,stimulus/viswhere_stim/match_no.png,1.0,Match,Line,Line,1,5.125,0,5.125,0,5.125,0,5.125,0,0.625,0.625,1,0.5,1,2.125,1,0.5,1,2.125,0,0,0,0,0,0,0,0,0,,,,,0,7,7,7,,,,,,,,,105.38589199993294,110.5088212499395,105.86698895797599,106.8546182080172,107.48965258302633,108.48760791693348,105.38589199993294,105.38589199993294,105.39980999992694,105.38589199993294,105.38589199993294,105.38589199993294,105.39980999992694,105.38589199993294,110.5088212499395,111.18384166702162,113.2656605829252,117.31829770794138,111.18384166702162,111.18384166702162,116.32408049993683,111.63918854203075,112.6513654999435,113.2656605829252,114.27683870797046,111.18384166702162,111.18384166702162,111.16091795825244,111.18384166702162,111.18384166702162,111.18384166702162,111.16091795825244,111.18384166702162,111.18384166702162,116.32408049993683,111.18384166702162,116.32408049993683,116.37886662501842,117.00298854196444,111.18384166702162,1,1,0.7700092908926308,reldom2_s033,001,2025-03-12_17h30.20.112,Vis-B-Scan_AC,2022.2.5,None,
0,0.0,None,fixation,stimulus/viswhere_stim/blank_white.png,stimulus/viswhere_stim/blank_white.png,stimulus/viswhat_stim/blank_white.png,stimulus/viswhat_stim/blank_white.png,stimulus/viswhere_stim/blank_white.png,stimulus/viswhere_stim/blank_white.png,stimulus/viswhere_stim/blank_white.png,stimulus/viswhere_stim/blank_white.png,0.0,0.0,0.0,0.0,0,0.0,0,0.0,0,0.0,0,0.0,0,0.0,0.0,0,0.0,0,0.0,0,0.0,0,0.0,0,0,0,0,0,0,0,0,9,,,,,0,8,8,8,,,,,,,,,117.31829770794138,117.31829770794138,117.31829770794138,117.31829770794138,117.31829770794138,117.31829770794138,117.31829770794138,117.31829770794138,117.22382316629712,117.31829770794138,117.31829770794138,117.31829770794138,117.22382316629712,117.31829770794138,117.31829770794138,117.31829770794138,117.31829770794138,117.31829770794138,117.31829770794138,117.31829770794138,117.31829770794138,117.31829770794138,117.31829770794138,117.31829770794138,117.31829770794138,117.31829770794138,117.31829770794138,117.27382316629712,117.31829770794138,117.31829770794138,117.31829770794138,117.27382316629712,117.31829770794138,117.31829770794138,117.31829770794138,117.31829770794138,117.31829770794138,122.51791045803111,122.51791045803111,126.51252774999011,None,0,,reldom2_s033,001,2025-03-12_17h30.20.112,Vis-B-Scan_AC,2022.2.5,None,
7,First_Order,2.0,viswhere,stimulus/viswhere_stim/blank_white.png,stimulus/viswhere_stim/blank_white.png,stimulus/viswhere_stim/60-deg_dot-right_peru.png,stimulus/viswhere_stim/120-deg_dot-right_goldenrod.png,stimulus/viswhere_stim/blank_white.png,stimulus/viswhere_stim/line_box.png,stimulus/viswhere_stim/line_yes.png,stimulus/viswhere_stim/line_no.png,None,Line,None,Dot,2,0.0,0,5.125,0,5.125,0,5.125,0,0.0,0.625,0,0.0,0,0.0,1,0.5,1,2.125,0,0,0,0,0,0,0,0,0,,,,,0,9,9,9,,,,,,,,,126.51252774999011,126.51252774999011,126.51252774999011,126.51252774999011,126.51252774999011,126.51252774999011,126.51252774999011,126.51252774999011,126.49650933364562,126.51252774999011,126.51252774999011,126.51252774999011,126.49650933364562,126.51252774999011,126.51252774999011,126.51252774999011,128.6201767079765,132.59610566694755,126.51252774999011,126.51252774999011,131.6435329579981,126.98833099997137,127.99593716696836,128.6201767079765,129.62917537498288,126.51252774999011,126.51252774999011,126.49650933364562,126.51252774999011,126.51252774999011,126.51252774999011,126.49650933364562,126.51252774999011,126.51252774999011,131.6435329579981,126.51252774999011,131.6435329579981,131.75723841693252,132.4086609169608,126.51252774999011,2,1,2.3606415420072153,reldom2_s033,001,2025-03-12_17h30.20.112,Vis-B-Scan_AC,2022.2.5,None,
8,First_Order,2.0,viswhere,stimulus/viswhere_stim/blank_white.png,stimulus/viswhere_stim/blank_white.png,stimulus/viswhere_stim/90-deg_dot-left_turquoise.png,stimulus/viswhere_stim/90-deg_dot-right_peru.png,stimulus/viswhere_stim/blank_white.png,stimulus/viswhere_stim/line_box.png,stimulus/viswhere_stim/line_yes.png,stimulus/viswhere_stim/line_no.png,None,Line,None,Line,1,0.0,0,5.125,0,5.125,0,5.125,0,0.0,0.625,0,0.0,0,0.0,1,0.5,1,2.125,0,0,0,0,0,0,0,0,0,,,,,0,10,10,10,,,,,,,,,132.59610566694755,132.59610566694755,132.59610566694755,132.59610566694755,132.59610566694755,132.59610566694755,132.59610566694755,132.59610566694755,132.57594412526427,132.59610566694755,132.59610566694755,132.59610566694755,132.57594412526427,132.59610566694755,132.59610566694755,132.59610566694755,134.69877154193819,138.66394975001458,132.59610566694755,132.59610566694755,137.72341841692105,133.07268908293918,134.08904366695788,134.69877154193819,135.71785162494052,132.59610566694755,132.59610566694755,132.59261079193095,132.59610566694755,132.59610566694755,132.59610566694755,132.59261079193095,132.59610566694755,132.59610566694755,137.72341841692105,132.59610566694755,137.72341841692105,137.82120591693092,138.4498242919799,132.59610566694755,1,1,0.6238465410424396,reldom2_s033,001,2025-03-12_17h30.20.112,Vis-B-Scan_AC,2022.2.5,None,
9,First_Order,2.0,viswhere,stimulus/viswhere_stim/blank_white.png,stimulus/viswhere_stim/blank_white.png,stimulus/viswhere_stim/60-deg_dot-right_seagreen.png,stimulus/viswhere_stim/120-deg_dot-right_salmon.png,stimulus/viswhere_stim/blank_white.png,stimulus/viswhere_stim/dot_box.png,stimulus/viswhere_stim/dot_yes.png,stimulus/viswhere_stim/dot_no.png,None,Dot,None,Dot,1,0.0,0,5.125,0,5.125,0,5.125,0,0.0,0.625,0,0.0,0,0.0,1,0.5,1,2.125,0,0,0,0,0,0,0,0,0,,,,,0,11,11,11,,,,,,,,,138.66394975001458,138.66394975001458,138.66394975001458,138.66394975001458,138.66394975001458,138.66394975001458,138.66394975001458,138.66394975001458,138.64306850029,138.66394975001458,138.66394975001458,138.66394975001458,138.64306850029,138.66394975001458,138.66394975001458,138.66394975001458,140.77545195794664,144.72739487502258,138.66394975001458,138.66394975001458,143.80431162496097,139.1403986249352,140.1504332079785,140.77545195794664,141.78957395802718,138.66394975001458,138.66394975001458,138.6597351669567,138.66394975001458,138.66394975001458,138.66394975001458,138.6597351669567,138.66394975001458,138.66394975001458,143.80431162496097,138.66394975001458,143.80431162496097,143.8879586670082,144.51656387501862,138.66394975001458,1,1,0.5986419160617515,reldom2_s033,001,2025-03-12_17h30.20.112,Vis-B-Scan_AC,2022.2.5,None,
10,First_Order,2.0,viswhere,stimulus/viswhere_stim/blank_white.png,stimulus/viswhere_stim/blank_white.png,stimulus/viswhere_stim/120-deg_dot-right_cyan.png,stimulus/viswhere_stim/120-deg_dot-left_turquoise.png,stimulus/viswhere_stim/blank_white.png,stimulus/viswhere_stim/line_box.png,stimulus/viswhere_stim/line_yes.png,stimulus/viswhere_stim/line_no.png,None,Line,None,Line,1,0.0,0,5.125,0,5.125,0,5.125,0,0.0,0.625,0,0.0,0,0.0,1,0.5,1,2.125,0,0,0,0,0,0,0,0,0,,,,,0,12,12,12,,,,,,,,,144.72739487502258,144.72739487502258,144.72739487502258,144.72739487502258,144.72739487502258,144.72739487502258,144.72739487502258,144.72739487502258,144.70690287529337,144.72739487502258,144.72739487502258,144.72739487502258,144.70690287529337,144.72739487502258,144.72739487502258,144.72739487502258,146.8427690420067,150.86389766691718,144.72739487502258,144.72739487502258,149.86017004202586,145.20452445792034,146.21717483294196,146.8427690420067,147.85940208297689,144.72739487502258,144.72739487502258,144.72356954196005,144.72739487502258,144.72739487502258,144.72739487502258,144.72356954196005,144.72739487502258,144.72739487502258,149.86017004202586,144.72739487502258,149.86017004202586,149.95619974995498,150.5807017920306,144.72739487502258,1,1,1.0048434160416946,reldom2_s033,001,2025-03-12_17h30.20.112,Vis-B-Scan_AC,2022.2.5,None,
0,0.0,None,fixation,stimulus/viswhere_stim/blank_white.png,stimulus/viswhere_stim/blank_white.png,stimulus/viswhat_stim/blank_white.png,stimulus/viswhat_stim/blank_white.png,stimulus/viswhere_stim/blank_white.png,stimulus/viswhere_stim/blank_white.png,stimulus/viswhere_stim/blank_white.png,stimulus/viswhere_stim/blank_white.png,0.0,0.0,0.0,0.0,0,0.0,0,0.0,0,0.0,0,0.0,0,0.0,0.0,0,0.0,0,0.0,0,0.0,0,0.0,0,0,0,0,0,0,0,0,8,,,,,0,13,13,13,,,,,,,,,150.86389766691718,150.86389766691718,150.86389766691718,150.86389766691718,150.86389766691718,150.86389766691718,150.86389766691718,150.86389766691718,150.76439691633763,150.86389766691718,150.86389766691718,150.86389766691718,150.76439691633763,150.86389766691718,150.86389766691718,150.86389766691718,150.86389766691718,150.86389766691718,150.86389766691718,150.86389766691718,150.86389766691718,150.86389766691718,150.86389766691718,150.86389766691718,150.86389766691718,150.86389766691718,150.86389766691718,150.81439691633764,150.86389766691718,150.86389766691718,150.86389766691718,150.81439691633764,150.86389766691718,150.86389766691718,150.86389766691718,150.86389766691718,150.86389766691718,156.08109345799312,156.08109345799312,159.0150839999551,None,0,,reldom2_s033,001,2025-03-12_17h30.20.112,Vis-B-Scan_AC,2022.2.5,None,
11,Second_Order,2.0,viswhere,stimulus/viswhere_stim/120-deg_dot-left_slateblue.png,stimulus/viswhere_stim/60-deg_dot-left_seagreen.png,stimulus/viswhere_stim/90-deg_dot-right_seagreen.png,stimulus/viswhere_stim/30-deg_dot-right_mediumslateblue.png,stimulus/viswhere_stim/match_blank.png,stimulus/viswhere_stim/match_box.png,stimulus/viswhere_stim/match_yes.png,stimulus/viswhere_stim/match_no.png,1.0,Match,Dot,Dot,1,5.125,0,5.125,0,5.125,0,5.125,0,0.75,0.75,1,0.5,1,2.125,1,0.5,1,2.125,0,0,0,0,0,0,0,0,0,,,,,0,14,14,14,,,,,,,,,159.0150839999551,164.13804970798083,159.491026417003,160.4777303750161,161.11351687496062,162.11198533303104,159.0150839999551,159.0150839999551,159.02980975029837,159.0150839999551,159.0150839999551,159.0150839999551,159.02980975029837,159.0150839999551,164.13804970798083,164.92991599999368,167.00440912495833,170.8687573330244,164.92991599999368,164.92991599999368,170.06233099999372,165.37465649994556,166.39362874999642,167.00440912495833,168.0092967079254,164.92991599999368,164.92991599999368,164.90537333326262,164.92991599999368,164.92991599999368,164.92991599999368,164.90537333326262,164.92991599999368,164.92991599999368,170.06233099999372,164.92991599999368,170.06233099999372,170.13157479197253,170.90552483301144,164.92991599999368,1,1,0.6547704580007121,reldom2_s033,001,2025-03-12_17h30.20.112,Vis-B-Scan_AC,2022.2.5,None,
12,Second_Order,2.0,viswhere,stimulus/viswhere_stim/90-deg_dot-right_cyan.png,stimulus/viswhere_stim/90-deg_dot-left_salmon.png,stimulus/viswhere_stim/30-deg_dot-left_goldenrod.png,stimulus/viswhere_stim/60-deg_dot-left_turquoise.png,stimulus/viswhere_stim/match_blank.png,stimulus/viswhere_stim/match_box.png,stimulus/viswhere_stim/match_yes.png,stimulus/viswhere_stim/match_no.png,2.0,Match,Line,Dot,2,5.125,0,5.125,0,5.125,0,5.125,0,0.625,0.625,1,0.5,1,2.125,1,0.5,1,2.125,0,0,0,0,0,0,0,0,0,,,,,0,15,15,15,,,,,,,,,170.90552483301144,176.0271526669385,171.38502854201943,172.3728359999368,173.00845545798074,174.00574462499935,170.90552483301144,170.90552483301144,170.91875733302442,170.90552483301144,170.90552483301144,170.90552483301144,170.91875733302442,170.90552483301144,176.0271526669385,176.70187812496442,178.78466954198666,182.82324545795564,176.70187812496442,176.70187812496442,181.82670233293902,177.16219058295246,178.17419970792253,178.78466954198666,179.8042304170085,176.70187812496442,176.70187812496442,176.67839029129442,176.70187812496442,176.70187812496442,176.70187812496442,176.67839029129442,176.70187812496442,176.70187812496442,181.82670233293902,176.70187812496442,181.82670233293902,181.9001377079403,182.52853204193525,176.70187812496442,2,1,0.6354053330142051,reldom2_s033,001,2025-03-12_17h30.20.112,Vis-B-Scan_AC,2022.2.5,None,
0,0.0,None,fixation,stimulus/viswhere_stim/blank_white.png,stimulus/viswhere_stim/blank_white.png,stimulus/viswhat_stim/blank_white.png,stimulus/viswhat_stim/blank_white.png,stimulus/viswhere_stim/blank_white.png,stimulus/viswhere_stim/blank_white.png,stimulus/viswhere_stim/blank_white.png,stimulus/viswhere_stim/blank_white.png,0.0,0.0,0.0,0.0,0,0.0,0,0.0,0,0.0,0,0.0,0,0.0,0.0,0,0.0,0,0.0,0,0.0,0,0.0,0,0,0,0,0,0,0,0,10,,,,,0,16,16,16,,,,,,,,,182.82324545795564,182.82324545795564,182.82324545795564,182.82324545795564,182.82324545795564,182.82324545795564,182.82324545795564,182.82324545795564,182.72481429130616,182.82324545795564,182.82324545795564,182.82324545795564,182.72481429130616,182.82324545795564,182.82324545795564,182.82324545795564,182.82324545795564,182.82324545795564,182.82324545795564,182.82324545795564,182.82324545795564,182.82324545795564,182.82324545795564,182.82324545795564,182.82324545795564,182.82324545795564,182.82324545795564,182.77481429130617,182.82324545795564,182.82324545795564,182.82324545795564,182.77481429130617,182.82324545795564,182.82324545795564,182.82324545795564,182.82324545795564,182.82324545795564,188.04205429193098,188.04205429193098,193.11674991692416,None,0,,reldom2_s033,001,2025-03-12_17h30.20.112,Vis-B-Scan_AC,2022.2.5,None,
13,First_Order,3.0,viswhat,stimulus/viswhat_stim/blank_white.png,stimulus/viswhat_stim/blank_white.png,stimulus/viswhat_stim/land_animal-moose.png,stimulus/viswhat_stim/water_animal-whale (1).png,stimulus/viswhat_stim/blank_white.png,stimulus/viswhat_stim/type_box.png,stimulus/viswhat_stim/type_yes.png,stimulus/viswhat_stim/type_no.png,None,Type,None,Type,1,0.0,0,5.125,0,5.125,0,5.125,0,0.0,0.625,0,0.0,0,0.0,1,0.5,1,2.125,0,0,0,0,0,0,0,0,0,,,,,0,17,17,17,,,,,,,,,193.11674991692416,193.11674991692416,193.11674991692416,193.11674991692416,193.11674991692416,193.11674991692416,193.11674991692416,193.11674991692416,193.01342374963377,193.11674991692416,193.11674991692416,193.11674991692416,193.01342374963377,193.11674991692416,193.11674991692416,193.11674991692416,195.21925466693938,199.19846095796674,193.11674991692416,193.11674991692416,198.31601141695864,193.58338045794517,194.63723679201212,195.21925466693938,196.274514916935,193.11674991692416,193.11674991692416,193.06342374963376,193.11674991692416,193.11674991692416,193.11674991692416,193.06342374963376,193.11674991692416,193.11674991692416,198.31601141695864,193.11674991692416,198.31601141695864,198.31601141695864,199.0005122500006,193.11674991692416,1,1,1.83130808302667,reldom2_s033,001,2025-03-12_17h30.20.112,Vis-B-Scan_AC,2022.2.5,None,
14,First_Order,3.0,viswhat,stimulus/viswhat_stim/blank_white.png,stimulus/viswhat_stim/blank_white.png,stimulus/viswhat_stim/land_vehicle-trolley.png,stimulus/viswhat_stim/water_vehicle-jetski.png,stimulus/viswhat_stim/blank_white.png,stimulus/viswhat_stim/location_box.png,stimulus/viswhat_stim/location_yes.png,stimulus/viswhat_stim/location_no.png,None,Location,None,Type,2,0.0,0,5.125,0,5.125,0,5.125,0,0.0,0.625,0,0.0,0,0.0,1,0.5,1,2.125,0,0,0,0,0,0,0,0,0,,,,,0,18,18,18,,,,,,,,,199.19846095796674,199.19846095796674,199.19846095796674,199.19846095796674,199.19846095796674,199.19846095796674,199.19846095796674,199.19846095796674,199.1671789166673,199.19846095796674,199.19846095796674,199.19846095796674,199.1671789166673,199.19846095796674,199.19846095796674,199.19846095796674,201.3045329999877,205.26547420793213,199.19846095796674,199.19846095796674,204.32532579195686,199.6750728749903,200.70207437500358,201.3045329999877,202.31534420792013,199.19846095796674,199.19846095796674,199.18384558333395,199.19846095796674,199.19846095796674,199.19846095796674,199.18384558333395,199.19846095796674,199.19846095796674,204.32532579195686,199.19846095796674,204.32532579195686,204.42320558300707,205.06227570795454,199.19846095796674,2,1,0.7095432910136878,reldom2_s033,001,2025-03-12_17h30.20.112,Vis-B-Scan_AC,2022.2.5,None,
15,First_Order,3.0,viswhat,stimulus/viswhat_stim/blank_white.png,stimulus/viswhat_stim/blank_white.png,stimulus/viswhat_stim/land_animal-ostrich.png,stimulus/viswhat_stim/land_vehicle-train.png,stimulus/viswhat_stim/blank_white.png,stimulus/viswhat_stim/location_box.png,stimulus/viswhat_stim/location_yes.png,stimulus/viswhat_stim/location_no.png,None,Location,None,Location,1,0.0,0,5.125,0,5.125,0,5.125,0,0.0,0.625,0,0.0,0,0.0,1,0.5,1,2.125,0,0,0,0,0,0,0,0,0,,,,,0,19,19,19,,,,,,,,,205.26547420793213,205.26547420793213,205.26547420793213,205.26547420793213,205.26547420793213,205.26547420793213,205.26547420793213,205.26547420793213,205.23998837501279,205.26547420793213,205.26547420793213,205.26547420793213,205.23998837501279,205.26547420793213,205.26547420793213,205.26547420793213,207.35953737492673,211.6675897500245,205.26547420793213,205.26547420793213,210.40203566697892,205.75011566700414,206.76310933299828,207.35953737492673,208.37750349997077,205.26547420793213,205.26547420793213,205.25665504167944,205.26547420793213,205.26547420793213,205.26547420793213,205.25665504167944,205.26547420793213,205.26547420793213,210.40203566697892,205.26547420793213,210.40203566697892,210.4885559999384,211.11483404191677,205.26547420793213,1,1,1.4025489169871435,reldom2_s033,001,2025-03-12_17h30.20.112,Vis-B-Scan_AC,2022.2.5,None,
16,First_Order,3.0,viswhat,stimulus/viswhat_stim/blank_white.png,stimulus/viswhat_stim/blank_white.png,stimulus/viswhat_stim/water_animal-lobster.png,stimulus/viswhat_stim/land_animal-moose.png,stimulus/viswhat_stim/blank_white.png,stimulus/viswhat_stim/location_box.png,stimulus/viswhat_stim/location_yes.png,stimulus/viswhat_stim/location_no.png,None,Location,None,Type,2,0.0,0,5.125,0,5.125,0,5.125,0,0.0,0.625,0,0.0,0,0.0,1,0.5,1,2.125,0,0,0,0,0,0,0,0,0,,,,,0,20,20,20,,,,,,,,,211.6675897500245,211.6675897500245,211.6675897500245,211.6675897500245,211.6675897500245,211.6675897500245,211.6675897500245,211.6675897500245,211.30141983328699,211.6675897500245,211.6675897500245,211.6675897500245,211.30141983328699,211.6675897500245,211.6675897500245,211.6675897500245,213.63803116697818,,211.6675897500245,211.6675897500245,217.03679520799778,212.0280277079437,213.27833695802838,213.63803116697818,214.8941148329759,211.6675897500245,211.6675897500245,211.501419833287,211.6675897500245,211.6675897500245,211.6675897500245,211.501419833287,211.6675897500245,211.6675897500245,217.03679520799778,211.6675897500245,217.03679520799778,216.86327716696542,,211.6675897500245,2,1,0.7117533750133589,reldom2_s033,001,2025-03-12_17h30.20.112,Vis-B-Scan_AC,2022.2.5,None,
0,0.0,None,fixation,stimulus/viswhere_stim/blank_white.png,stimulus/viswhere_stim/blank_white.png,stimulus/viswhat_stim/blank_white.png,stimulus/viswhat_stim/blank_white.png,stimulus/viswhere_stim/blank_white.png,stimulus/viswhere_stim/blank_white.png,stimulus/viswhere_stim/blank_white.png,stimulus/viswhere_stim/blank_white.png,0.0,0.0,0.0,0.0,0,0.0,0,0.0,0,0.0,0,0.0,0,0.0,0.0,0,0.0,0,0.0,0,0.0,0,0.0,0,0,0,0,0,0,0,0,8,,,,,0,21,21,21,,,,,,,,,217.71227204194292,217.71227204194292,217.71227204194292,217.71227204194292,217.71227204194292,217.71227204194292,217.71227204194292,217.71227204194292,217.60932179200464,217.71227204194292,217.71227204194292,217.71227204194292,217.60932179200464,217.71227204194292,217.71227204194292,217.71227204194292,217.71227204194292,217.71227204194292,217.71227204194292,217.71227204194292,217.71227204194292,217.71227204194292,217.71227204194292,217.71227204194292,217.71227204194292,217.71227204194292,217.71227204194292,217.65932179200465,217.71227204194292,217.71227204194292,217.71227204194292,217.65932179200465,217.71227204194292,217.71227204194292,217.71227204194292,217.71227204194292,217.71227204194292,222.8906847499311,222.8906847499311,225.87177491700277,None,0,,reldom2_s033,001,2025-03-12_17h30.20.112,Vis-B-Scan_AC,2022.2.5,None,
17,Second_Order,3.0,viswhat,stimulus/viswhat_stim/land_animal-giraffe.png,stimulus/viswhat_stim/water_animal-stingray.png,stimulus/viswhat_stim/water_animal-squid.png,stimulus/viswhat_stim/water_vehicle-yacht.png,stimulus/viswhere_stim/match_blank.png,stimulus/viswhere_stim/match_box.png,stimulus/viswhere_stim/match_yes.png,stimulus/viswhere_stim/match_no.png,2.0,Match,Type,Location,2,5.125,0,5.125,0,5.125,0,5.125,0,0.75,0.75,1,0.5,1,2.125,1,0.5,1,2.125,0,0,0,0,0,0,0,0,0,,,,,0,22,22,22,,,,,,,,,225.87177491700277,230.99236029200256,226.3262059580302,227.3154349999968,227.95108466700185,228.94918762496673,225.87177491700277,225.87177491700277,225.8748601249885,225.87177491700277,225.87177491700277,225.87177491700277,225.8748601249885,225.87177491700277,230.99236029200256,231.8236136250198,233.89334099995904,237.8193862499902,231.8236136250198,231.8236136250198,236.98372262495104,232.27412979200017,233.32819579192437,233.89334099995904,234.95125308295246,231.8236136250198,231.8236136250198,231.79347083369893,231.8236136250198,231.8236136250198,231.8236136250198,231.79347083369893,231.8236136250198,231.8236136250198,236.98372262495104,231.8236136250198,236.98372262495104,237.01602779200766,,231.8236136250198,2,1,1.0210818329360336,reldom2_s033,001,2025-03-12_17h30.20.112,Vis-B-Scan_AC,2022.2.5,None,
18,Second_Order,3.0,viswhat,stimulus/viswhat_stim/water_animal-whale (1).png,stimulus/viswhat_stim/land_animal-tiger.png,stimulus/viswhat_stim/water_animal-orka.png,stimulus/viswhat_stim/water_vehicle-cargoboat.png,stimulus/viswhere_stim/match_blank.png,stimulus/viswhere_stim/match_box.png,stimulus/viswhere_stim/match_yes.png,stimulus/viswhere_stim/match_no.png,2.0,Match,Type,Location,2,5.125,0,5.125,0,5.125,0,5.125,0,0.625,0.625,1,0.5,1,2.125,1,0.5,1,2.125,0,0,0,0,0,0,0,0,0,,,,,0,23,23,23,,,,,,,,,237.8193862499902,242.93652179196943,238.27488341694698,239.2735033329809,239.90765016700607,240.89662862499245,237.8193862499902,237.8193862499902,237.82401566698684,237.8193862499902,237.8193862499902,237.8193862499902,237.82401566698684,237.8193862499902,242.93652179196943,243.70990516699385,245.74342541699298,,243.70990516699385,243.70990516699385,248.8971582079539,244.10004045802634,245.15098591696005,245.74342541699298,246.79937216697726,243.70990516699385,243.70990516699385,243.64938191699332,243.70990516699385,243.70990516699385,243.70990516699385,243.64938191699332,243.70990516699385,243.70990516699385,248.8971582079539,243.70990516699385,248.8971582079539,248.8971582079539,,243.70990516699385,2,1,0.6785745408851653,reldom2_s033,001,2025-03-12_17h30.20.112,Vis-B-Scan_AC,2022.2.5,None,
0,0.0,None,fixation,stimulus/viswhere_stim/blank_white.png,stimulus/viswhere_stim/blank_white.png,stimulus/viswhat_stim/blank_white.png,stimulus/viswhat_stim/blank_white.png,stimulus/viswhere_stim/blank_white.png,stimulus/viswhere_stim/blank_white.png,stimulus/viswhere_stim/blank_white.png,stimulus/viswhere_stim/blank_white.png,0.0,0.0,0.0,0.0,0,0.0,0,0.0,0,0.0,0,0.0,0,0.0,0.0,0,0.0,0,0.0,0,0.0,0,0.0,0,0,0,0,0,0,0,0,9,,,,,0,24,24,24,,,,,,,,,249.77519683295395,249.77519683295395,249.77519683295395,249.77519683295395,249.77519683295395,249.77519683295395,249.77519683295395,249.77519683295395,249.68038533335397,249.77519683295395,249.77519683295395,249.77519683295395,249.68038533335397,249.77519683295395,249.77519683295395,249.77519683295395,249.77519683295395,249.77519683295395,249.77519683295395,249.77519683295395,249.77519683295395,249.77519683295395,249.77519683295395,249.77519683295395,249.77519683295395,249.77519683295395,249.77519683295395,249.73038533335398,249.77519683295395,249.77519683295395,249.77519683295395,249.73038533335398,249.77519683295395,249.77519683295395,249.77519683295395,249.77519683295395,249.77519683295395,254.95721837494057,254.95721837494057,258.98210374999326,None,0,,reldom2_s033,001,2025-03-12_17h30.20.112,Vis-B-Scan_AC,2022.2.5,None,
19,First_Order,4.0,viswhat,stimulus/viswhat_stim/blank_white.png,stimulus/viswhat_stim/blank_white.png,stimulus/viswhat_stim/water_animal-dolphin.png,stimulus/viswhat_stim/water_vehicle-canoe.png,stimulus/viswhat_stim/blank_white.png,stimulus/viswhat_stim/type_box.png,stimulus/viswhat_stim/type_yes.png,stimulus/viswhat_stim/type_no.png,None,Type,None,Location,2,0.0,0,5.125,0,5.125,0,5.125,0,0.0,0.625,0,0.0,0,0.0,1,0.5,1,2.125,0,0,0,0,0,0,0,0,0,,,,,0,25,25,25,,,,,,,,,258.98210374999326,258.98210374999326,258.98210374999326,258.98210374999326,258.98210374999326,258.98210374999326,258.98210374999326,258.98210374999326,258.94147162469255,258.98210374999326,258.98210374999326,258.98210374999326,258.94147162469255,258.98210374999326,258.98210374999326,258.98210374999326,261.09343170793727,265.1330751669593,258.98210374999326,258.98210374999326,264.13163166702725,259.44471979199443,260.45969408296514,261.09343170793727,262.1102098330157,258.98210374999326,258.98210374999326,258.95813829135926,258.98210374999326,258.98210374999326,258.98210374999326,258.95813829135926,258.98210374999326,258.98210374999326,264.13163166702725,258.98210374999326,264.13163166702725,264.2020265419269,264.855819666991,258.98210374999326,None,0,,reldom2_s033,001,2025-03-12_17h30.20.112,Vis-B-Scan_AC,2022.2.5,None,
20,First_Order,4.0,viswhat,stimulus/viswhat_stim/blank_white.png,stimulus/viswhat_stim/blank_white.png,stimulus/viswhat_stim/land_animal-elephant.png,stimulus/viswhat_stim/land_vehicle-pickuptruck.png,stimulus/viswhat_stim/blank_white.png,stimulus/viswhat_stim/type_box.png,stimulus/viswhat_stim/type_yes.png,stimulus/viswhat_stim/type_no.png,None,Type,None,Location,2,0.0,0,5.125,0,5.125,0,5.125,0,0.0,0.625,0,0.0,0,0.0,1,0.5,1,2.125,0,0,0,0,0,0,0,0,0,,,,,0,26,26,26,,,,,,,,,265.1330751669593,265.1330751669593,265.1330751669593,265.1330751669593,265.1330751669593,265.1330751669593,265.1330751669593,265.1330751669593,265.0258896670071,265.1330751669593,265.1330751669593,265.1330751669593,265.0258896670071,265.1330751669593,265.1330751669593,265.1330751669593,267.2071937499568,,265.1330751669593,265.1330751669593,270.34727695793845,265.60604691691697,266.6751394579187,267.2071937499568,268.2782482500188,265.1330751669593,265.1330751669593,265.0758896670071,265.1330751669593,265.1330751669593,265.1330751669593,265.0758896670071,265.1330751669593,265.1330751669593,270.34727695793845,265.1330751669593,270.34727695793845,270.34727695793845,271.38496716693044,265.1330751669593,2,1,0.5758987909648567,reldom2_s033,001,2025-03-12_17h30.20.112,Vis-B-Scan_AC,2022.2.5,None,
21,First_Order,4.0,viswhat,stimulus/viswhat_stim/blank_white.png,stimulus/viswhat_stim/blank_white.png,stimulus/viswhat_stim/water_vehicle-cruiseship.png,stimulus/viswhat_stim/land_vehicle-oldcar.png,stimulus/viswhat_stim/blank_white.png,stimulus/viswhat_stim/type_box.png,stimulus/viswhat_stim/type_yes.png,stimulus/viswhat_stim/type_no.png,None,Type,None,Type,1,0.0,0,5.125,0,5.125,0,5.125,0,0.0,0.625,0,0.0,0,0.0,1,0.5,1,2.125,0,0,0,0,0,0,0,0,0,,,,,0,27,27,27,,,,,,,,,271.38496716693044,271.38496716693044,271.38496716693044,271.38496716693044,271.38496716693044,271.38496716693044,271.38496716693044,271.38496716693044,271.15795091659913,271.38496716693044,271.38496716693044,271.38496716693044,271.15795091659913,271.38496716693044,271.38496716693044,271.38496716693044,273.4617781250272,,271.38496716693044,271.38496716693044,276.6894727499457,271.8486147499643,273.0000257079955,273.4617781250272,274.6187227499904,271.38496716693044,271.38496716693044,271.2746175832658,271.38496716693044,271.38496716693044,271.38496716693044,271.2746175832658,271.38496716693044,271.38496716693044,276.6894727499457,271.38496716693044,276.6894727499457,276.57904049998615,,271.38496716693044,1,1,0.6620548749342561,reldom2_s033,001,2025-03-12_17h30.20.112,Vis-B-Scan_AC,2022.2.5,None,
22,First_Order,4.0,viswhat,stimulus/viswhat_stim/blank_white.png,stimulus/viswhat_stim/blank_white.png,stimulus/viswhat_stim/water_vehicle-pirateship.png,stimulus/viswhat_stim/water_animal-orka.png,stimulus/viswhat_stim/blank_white.png,stimulus/viswhat_stim/location_box.png,stimulus/viswhat_stim/location_yes.png,stimulus/viswhat_stim/location_no.png,None,Location,None,Location,1,0.0,0,5.125,0,5.125,0,5.125,0,0.0,0.625,0,0.0,0,0.0,1,0.5,1,2.125,0,0,0,0,0,0,0,0,0,,,,,0,28,28,28,,,,,,,,,277.52447991701774,277.52447991701774,277.52447991701774,277.52447991701774,277.52447991701774,277.52447991701774,277.52447991701774,277.52447991701774,277.3939388336769,277.52447991701774,277.52447991701774,277.52447991701774,277.3939388336769,277.52447991701774,277.52447991701774,277.52447991701774,279.59726970794145,,277.52447991701774,277.52447991701774,282.74852758296765,277.9939209999284,279.0637997499434,279.59726970794145,280.6760194170056,277.52447991701774,277.52447991701774,277.46060550034355,277.52447991701774,277.52447991701774,277.52447991701774,277.46060550034355,277.52447991701774,277.52447991701774,282.74852758296765,277.52447991701774,282.74852758296765,282.74852758296765,283.6367429170059,277.52447991701774,1,1,0.7616259158821777,reldom2_s033,001,2025-03-12_17h30.20.112,Vis-B-Scan_AC,2022.2.5,None,
0,0.0,None,fixation,stimulus/viswhere_stim/blank_white.png,stimulus/viswhere_stim/blank_white.png,stimulus/viswhat_stim/blank_white.png,stimulus/viswhat_stim/blank_white.png,stimulus/viswhere_stim/blank_white.png,stimulus/viswhere_stim/blank_white.png,stimulus/viswhere_stim/blank_white.png,stimulus/viswhere_stim/blank_white.png,0.0,0.0,0.0,0.0,0,0.0,0,0.0,0,0.0,0,0.0,0,0.0,0.0,0,0.0,0,0.0,0,0.0,0,0.0,0,0,0,0,0,0,0,0,10,,,,,0,29,29,29,,,,,,,,,283.6367429170059,283.6367429170059,283.6367429170059,283.6367429170059,283.6367429170059,283.6367429170059,283.6367429170059,283.6367429170059,283.5434071252666,283.6367429170059,283.6367429170059,283.6367429170059,283.5434071252666,283.6367429170059,283.6367429170059,283.6367429170059,283.6367429170059,283.6367429170059,283.6367429170059,283.6367429170059,283.6367429170059,283.6367429170059,283.6367429170059,283.6367429170059,283.6367429170059,283.6367429170059,283.6367429170059,283.59340712526654,283.6367429170059,283.6367429170059,283.6367429170059,283.59340712526654,283.6367429170059,283.6367429170059,283.6367429170059,283.6367429170059,283.6367429170059,288.81833583302796,288.81833583302796,293.76265412499197,None,0,,reldom2_s033,001,2025-03-12_17h30.20.112,Vis-B-Scan_AC,2022.2.5,None,
23,Second_Order,4.0,viswhat,stimulus/viswhat_stim/land_vehicle-pickuptruck.png,stimulus/viswhat_stim/land_animal-lion.png,stimulus/viswhat_stim/water_animal-jellyfish.png,stimulus/viswhat_stim/water_vehicle-cabincruiser.png,stimulus/viswhere_stim/match_blank.png,stimulus/viswhere_stim/match_box.png,stimulus/viswhere_stim/match_yes.png,stimulus/viswhere_stim/match_no.png,1.0,Match,Location,Location,1,5.125,0,5.125,0,5.125,0,5.125,0,0.75,0.75,1,0.5,1,2.125,1,0.5,1,2.125,0,0,0,0,0,0,0,0,0,,,,,0,30,30,30,,,,,,,,,293.76265412499197,298.88225254195277,294.2194471670082,295.2064432919724,295.8540050419979,296.8431076250272,293.76265412499197,293.76265412499197,293.77607104203196,293.76265412499197,293.76265412499197,293.76265412499197,293.77607104203196,293.76265412499197,298.88225254195277,299.7242763329996,301.803022124921,,299.7242763329996,299.7242763329996,304.8792515830137,300.1625372499693,301.2012388330186,301.803022124921,302.8463538750075,299.7242763329996,299.7242763329996,299.6834179166627,299.7242763329996,299.7242763329996,299.7242763329996,299.6834179166627,299.7242763329996,299.7242763329996,304.8792515830137,299.7242763329996,304.8792515830137,304.91378820792306,,299.7242763329996,1,1,0.8261640419950709,reldom2_s033,001,2025-03-12_17h30.20.112,Vis-B-Scan_AC,2022.2.5,None,
24,Second_Order,4.0,viswhat,stimulus/viswhat_stim/water_vehicle-pirateship.png,stimulus/viswhat_stim/land_vehicle-oldcar.png,stimulus/viswhat_stim/land_animal-zebra.png,stimulus/viswhat_stim/water_animal-seahorse.png,stimulus/viswhere_stim/match_blank.png,stimulus/viswhere_stim/match_box.png,stimulus/viswhere_stim/match_yes.png,stimulus/viswhere_stim/match_no.png,1.0,Match,Type,Type,1,5.125,0,5.125,0,5.125,0,5.125,0,0.625,0.625,1,0.5,1,2.125,1,0.5,1,2.125,0,0,0,0,0,0,0,0,0,,,,,0,31,31,31,,,,,,,,,305.70148591697216,310.8218977919314,306.1629935830133,307.15099029196426,307.78568716696464,308.78364779194817,305.70148591697216,305.70148591697216,305.7150639586306,305.70148591697216,305.70148591697216,305.70148591697216,305.7150639586306,305.70148591697216,310.8218977919314,311.51019791699946,313.59622054197825,317.6352262919536,311.51019791699946,311.51019791699946,316.63711979193613,311.9491630420089,312.96792770794127,313.59622054197825,314.62451687501743,311.51019791699946,311.51019791699946,311.4898490419844,311.51019791699946,311.51019791699946,311.51019791699946,311.4898490419844,311.51019791699946,311.51019791699946,316.63711979193613,311.51019791699946,316.63711979193613,316.6932009169832,317.3294469580287,311.51019791699946,1,1,0.5135636240011081,reldom2_s033,001,2025-03-12_17h30.20.112,Vis-B-Scan_AC,2022.2.5,None,
0,0.0,None,fixation,stimulus/viswhere_stim/blank_white.png,stimulus/viswhere_stim/blank_white.png,stimulus/viswhat_stim/blank_white.png,stimulus/viswhat_stim/blank_white.png,stimulus/viswhere_stim/blank_white.png,stimulus/viswhere_stim/blank_white.png,stimulus/viswhere_stim/blank_white.png,stimulus/viswhere_stim/blank_white.png,0.0,0.0,0.0,0.0,0,0.0,0,0.0,0,0.0,0,0.0,0,0.0,0.0,0,0.0,0,0.0,0,0.0,0,0.0,0,0,0,0,0,0,0,0,9,,,,,0,32,32,32,,,,,,,,,317.6352262919536,317.6352262919536,317.6352262919536,317.6352262919536,317.6352262919536,317.6352262919536,317.6352262919536,317.6352262919536,317.54153579196424,317.6352262919536,317.6352262919536,317.6352262919536,317.54153579196424,317.6352262919536,317.6352262919536,317.6352262919536,317.6352262919536,317.6352262919536,317.6352262919536,317.6352262919536,317.6352262919536,317.6352262919536,317.6352262919536,317.6352262919536,317.6352262919536,317.6352262919536,317.6352262919536,317.59153579196425,317.6352262919536,317.6352262919536,317.6352262919536,317.59153579196425,317.6352262919536,317.6352262919536,317.6352262919536,317.6352262919536,317.6352262919536,322.8381127920002,322.8381127920002,326.8527235420188,None,0,,reldom2_s033,001,2025-03-12_17h30.20.112,Vis-B-Scan_AC,2022.2.5,None,
25,First_Order,5.0,viswhere,stimulus/viswhere_stim/blank_white.png,stimulus/viswhere_stim/blank_white.png,stimulus/viswhere_stim/90-deg_dot-right_seagreen.png,stimulus/viswhere_stim/150-deg_dot-right_turquoise.png,stimulus/viswhere_stim/blank_white.png,stimulus/viswhere_stim/line_box.png,stimulus/viswhere_stim/line_yes.png,stimulus/viswhere_stim/line_no.png,None,Line,None,Dot,2,0.0,0,5.125,0,5.125,0,5.125,0,0.0,0.625,0,0.0,0,0.0,1,0.5,1,2.125,0,0,0,0,0,0,0,0,0,,,,,0,33,33,33,,,,,,,,,326.8527235420188,326.8527235420188,326.8527235420188,326.8527235420188,326.8527235420188,326.8527235420188,326.8527235420188,326.8527235420188,326.8333197086273,326.8527235420188,326.8527235420188,326.8527235420188,326.8333197086273,326.8527235420188,326.8527235420188,326.8527235420188,328.9670524999965,332.9125957499491,326.8527235420188,326.8527235420188,331.9766032079933,327.33235879195854,328.3353629580233,328.9670524999965,329.9768982499372,326.8527235420188,326.8527235420188,326.8333197086273,326.8527235420188,326.8527235420188,326.8527235420188,326.8333197086273,326.8527235420188,326.8527235420188,331.9766032079933,326.8527235420188,331.9766032079933,332.0746646670159,332.7092320829397,326.8527235420188,2,1,0.47886645793914795,reldom2_s033,001,2025-03-12_17h30.20.112,Vis-B-Scan_AC,2022.2.5,None,
26,First_Order,5.0,viswhere,stimulus/viswhere_stim/blank_white.png,stimulus/viswhere_stim/blank_white.png,stimulus/viswhere_stim/150-deg_dot-left_seagreen.png,stimulus/viswhere_stim/150-deg_dot-right_seagreen.png,stimulus/viswhere_stim/blank_white.png,stimulus/viswhere_stim/dot_box.png,stimulus/viswhere_stim/dot_yes.png,stimulus/viswhere_stim/dot_no.png,None,Dot,None,Line,2,0.0,0,5.125,0,5.125,0,5.125,0,0.0,0.625,0,0.0,0,0.0,1,0.5,1,2.125,0,0,0,0,0,0,0,0,0,,,,,0,34,34,34,,,,,,,,,332.9125957499491,332.9125957499491,332.9125957499491,332.9125957499491,332.9125957499491,332.9125957499491,332.9125957499491,332.9125957499491,332.89120991628926,332.9125957499491,332.9125957499491,332.9125957499491,332.89120991628926,332.9125957499491,332.9125957499491,332.9125957499491,335.0166150829755,338.97778345795814,332.9125957499491,332.9125957499491,338.0530170419952,333.3964914169628,334.40097962494474,335.0166150829755,336.0267226250144,332.9125957499491,332.9125957499491,332.9078765829559,332.9125957499491,332.9125957499491,332.9125957499491,332.9078765829559,332.9125957499491,332.9125957499491,338.0530170419952,332.9125957499491,338.0530170419952,338.136471124948,338.762746833032,332.9125957499491,2,1,0.724887041025795,reldom2_s033,001,2025-03-12_17h30.20.112,Vis-B-Scan_AC,2022.2.5,None,
27,First_Order,5.0,viswhere,stimulus/viswhere_stim/blank_white.png,stimulus/viswhere_stim/blank_white.png,stimulus/viswhere_stim/90-deg_dot-left_turquoise.png,stimulus/viswhere_stim/90-deg_dot-right_seagreen.png,stimulus/viswhere_stim/blank_white.png,stimulus/viswhere_stim/line_box.png,stimulus/viswhere_stim/line_yes.png,stimulus/viswhere_stim/line_no.png,None,Line,None,Line,1,0.0,0,5.125,0,5.125,0,5.125,0,0.0,0.625,0,0.0,0,0.0,1,0.5,1,2.125,0,0,0,0,0,0,0,0,0,,,,,0,35,35,35,,,,,,,,,338.97778345795814,338.97778345795814,338.97778345795814,338.97778345795814,338.97778345795814,338.97778345795814,338.97778345795814,338.97778345795814,338.9568425833325,338.97778345795814,338.97778345795814,338.97778345795814,338.9568425833325,338.97778345795814,338.97778345795814,338.97778345795814,341.086727582966,345.0438072499819,338.97778345795814,338.97778345795814,344.10263595799915,339.4575792920077,340.4752483749762,341.086727582966,342.0910805419553,338.97778345795814,338.97778345795814,338.97350924999915,338.97778345795814,338.97778345795814,338.97778345795814,338.97350924999915,338.97778345795814,338.97778345795814,344.10263595799915,338.97778345795814,344.10263595799915,344.2007827499183,344.82647700002417,338.97778345795814,1,1,0.6910812499700114,reldom2_s033,001,2025-03-12_17h30.20.112,Vis-B-Scan_AC,2022.2.5,None,
28,First_Order,5.0,viswhere,stimulus/viswhere_stim/blank_white.png,stimulus/viswhere_stim/blank_white.png,stimulus/viswhere_stim/120-deg_dot-right_mediumslateblue.png,stimulus/viswhere_stim/90-deg_dot-right_lightsseagreen.png,stimulus/viswhere_stim/blank_white.png,stimulus/viswhere_stim/dot_box.png,stimulus/viswhere_stim/dot_yes.png,stimulus/viswhere_stim/dot_no.png,None,Dot,None,Dot,1,0.0,0,5.125,0,5.125,0,5.125,0,0.0,0.625,0,0.0,0,0.0,1,0.5,1,2.125,0,0,0,0,0,0,0,0,0,,,,,0,36,36,36,,,,,,,,,345.0438072499819,345.0438072499819,345.0438072499819,345.0438072499819,345.0438072499819,345.0438072499819,345.0438072499819,345.0438072499819,345.02129512532457,345.0438072499819,345.0438072499819,345.0438072499819,345.02129512532457,345.0438072499819,345.0438072499819,345.0438072499819,347.15005149994977,351.1776556249242,345.0438072499819,345.0438072499819,350.1783627499826,345.5238002500264,346.5392292919569,347.15005149994977,348.1520027499646,345.0438072499819,345.0438072499819,345.0379617919912,345.0438072499819,345.0438072499819,345.0438072499819,345.0379617919912,345.0438072499819,345.0438072499819,350.1783627499826,345.0438072499819,350.1783627499826,350.27879779192153,350.9134572079638,345.0438072499819,1,1,0.6659696239512414,reldom2_s033,001,2025-03-12_17h30.20.112,Vis-B-Scan_AC,2022.2.5,None,
0,0.0,None,fixation,stimulus/viswhere_stim/blank_white.png,stimulus/viswhere_stim/blank_white.png,stimulus/viswhat_stim/blank_white.png,stimulus/viswhat_stim/blank_white.png,stimulus/viswhere_stim/blank_white.png,stimulus/viswhere_stim/blank_white.png,stimulus/viswhere_stim/blank_white.png,stimulus/viswhere_stim/blank_white.png,0.0,0.0,0.0,0.0,0,0.0,0,0.0,0,0.0,0,0.0,0,0.0,0.0,0,0.0,0,0.0,0,0.0,0,0.0,0,0,0,0,0,0,0,0,10,,,,,0,37,37,37,,,,,,,,,351.1776556249242,351.1776556249242,351.1776556249242,351.1776556249242,351.1776556249242,351.1776556249242,351.1776556249242,351.1776556249242,351.0803958333175,351.1776556249242,351.1776556249242,351.1776556249242,351.0803958333175,351.1776556249242,351.1776556249242,351.1776556249242,351.1776556249242,351.1776556249242,351.1776556249242,351.1776556249242,351.1776556249242,351.1776556249242,351.1776556249242,351.1776556249242,351.1776556249242,351.1776556249242,351.1776556249242,351.1303958333175,351.1776556249242,351.1776556249242,351.1776556249242,351.1303958333175,351.1776556249242,351.1776556249242,351.1776556249242,351.1776556249242,351.1776556249242,356.3747941670008,356.3747941670008,361.3100249170093,None,0,,reldom2_s033,001,2025-03-12_17h30.20.112,Vis-B-Scan_AC,2022.2.5,None,
29,Second_Order,5.0,viswhere,stimulus/viswhere_stim/30-deg_dot-right_peru.png,stimulus/viswhere_stim/120-deg_dot-right_royalblue.png,stimulus/viswhere_stim/120-deg_dot-left_lightsseagreen.png,stimulus/viswhere_stim/90-deg_dot-left_seagreen.png,stimulus/viswhere_stim/match_blank.png,stimulus/viswhere_stim/match_box.png,stimulus/viswhere_stim/match_yes.png,stimulus/viswhere_stim/match_no.png,1.0,Match,Dot,Dot,1,5.125,0,5.125,0,5.125,0,5.125,0,0.75,0.75,1,0.5,1,2.125,1,0.5,1,2.125,0,0,0,0,0,0,0,0,0,,,,,0,38,38,38,,,,,,,,,361.3100249170093,366.4333361249883,361.79232041700743,362.77865999995265,363.41427233302966,364.4122660829453,361.3100249170093,361.3100249170093,361.32486250033446,361.3100249170093,361.3100249170093,361.3100249170093,361.32486250033446,361.3100249170093,366.4333361249883,367.2289015420247,369.3080853749998,373.1689415000146,367.2289015420247,367.2289015420247,372.35019812500104,367.67485345795285,368.67677558294963,369.3080853749998,370.3144607079448,367.2289015420247,367.2289015420247,367.21855579195545,367.2289015420247,367.2289015420247,367.2289015420247,367.21855579195545,367.2289015420247,367.2289015420247,372.35019812500104,367.2289015420247,372.35019812500104,372.4268368749181,373.2052042080322,367.2289015420247,1,1,0.6221401658840477,reldom2_s033,001,2025-03-12_17h30.20.112,Vis-B-Scan_AC,2022.2.5,None,
30,Second_Order,5.0,viswhere,stimulus/viswhere_stim/60-deg_dot-right_seagreen.png,stimulus/viswhere_stim/60-deg_dot-left_slateblue.png,stimulus/viswhere_stim/120-deg_dot-left_seagreen.png,stimulus/viswhere_stim/30-deg_dot-left_cyan.png,stimulus/viswhere_stim/match_blank.png,stimulus/viswhere_stim/match_box.png,stimulus/viswhere_stim/match_yes.png,stimulus/viswhere_stim/match_no.png,2.0,Match,Line,Dot,2,5.125,0,5.125,0,5.125,0,5.125,0,0.625,0.625,1,0.5,1,2.125,1,0.5,1,2.125,0,0,0,0,0,0,0,0,0,,,,,0,39,39,39,,,,,,,,,373.2052042080322,378.32769470801577,373.6900461670011,374.68608370795846,375.30959504202474,376.30610170797445,373.2052042080322,373.2052042080322,373.21894150001464,373.2052042080322,373.2052042080322,373.2052042080322,373.21894150001464,373.2052042080322,378.32769470801577,379.00284008297604,381.09151112497784,385.11910637503024,379.00284008297604,379.00284008297604,384.1426927919965,379.46585070795845,380.48087620793376,381.09151112497784,382.09393758291844,379.00284008297604,379.00284008297604,378.9790240003572,379.00284008297604,379.00284008297604,379.00284008297604,378.9790240003572,379.00284008297604,379.00284008297604,384.1426927919965,379.00284008297604,384.1426927919965,384.19815620803274,384.8249999579275,379.00284008297604,2,1,0.6717799999751151,reldom2_s033,001,2025-03-12_17h30.20.112,Vis-B-Scan_AC,2022.2.5,None,
0,0.0,None,fixation,stimulus/viswhere_stim/blank_white.png,stimulus/viswhere_stim/blank_white.png,stimulus/viswhat_stim/blank_white.png,stimulus/viswhat_stim/blank_white.png,stimulus/viswhere_stim/blank_white.png,stimulus/viswhere_stim/blank_white.png,stimulus/viswhere_stim/blank_white.png,stimulus/viswhere_stim/blank_white.png,0.0,0.0,0.0,0.0,0,0.0,0,0.0,0,0.0,0,0.0,0,0.0,0.0,0,0.0,0,0.0,0,0.0,0,0.0,0,0,0,0,0,0,0,0,9,,,,,0,40,40,40,,,,,,,,,385.11910637503024,385.11910637503024,385.11910637503024,385.11910637503024,385.11910637503024,385.11910637503024,385.11910637503024,385.11910637503024,385.0188702502831,385.11910637503024,385.11910637503024,385.11910637503024,385.0188702502831,385.11910637503024,385.11910637503024,385.11910637503024,385.11910637503024,385.11910637503024,385.11910637503024,385.11910637503024,385.11910637503024,385.11910637503024,385.11910637503024,385.11910637503024,385.11910637503024,385.11910637503024,385.11910637503024,385.0688702502831,385.11910637503024,385.11910637503024,385.11910637503024,385.0688702502831,385.11910637503024,385.11910637503024,385.11910637503024,385.11910637503024,385.11910637503024,390.3447095419979,390.3447095419979,394.31906104192603,None,0,,reldom2_s033,001,2025-03-12_17h30.20.112,Vis-B-Scan_AC,2022.2.5,None,
31,First_Order,6.0,viswhere,stimulus/viswhere_stim/blank_white.png,stimulus/viswhere_stim/blank_white.png,stimulus/viswhere_stim/120-deg_dot-left_royalblue.png,stimulus/viswhere_stim/30-deg_dot-left_goldenrod.png,stimulus/viswhere_stim/blank_white.png,stimulus/viswhere_stim/dot_box.png,stimulus/viswhere_stim/dot_yes.png,stimulus/viswhere_stim/dot_no.png,None,Dot,None,Dot,1,0.0,0,5.125,0,5.125,0,5.125,0,0.0,0.625,0,0.0,0,0.0,1,0.5,1,2.125,0,0,0,0,0,0,0,0,0,,,,,0,41,41,41,,,,,,,,,394.31906104192603,394.31906104192603,394.31906104192603,394.31906104192603,394.31906104192603,394.31906104192603,394.31906104192603,394.31906104192603,394.29898712461966,394.31906104192603,394.31906104192603,394.31906104192603,394.29898712461966,394.31906104192603,394.31906104192603,394.31906104192603,396.4202251249226,400.38195045792963,394.31906104192603,394.31906104192603,399.4592015419621,394.79624687496107,395.8110970419366,396.4202251249226,397.4343813749729,394.31906104192603,394.31906104192603,394.31565379128637,394.31906104192603,394.31906104192603,394.31906104192603,394.31565379128637,394.31906104192603,394.31906104192603,399.4592015419621,394.31906104192603,399.4592015419621,399.54250433295965,400.17725954193156,394.31906104192603,1,1,1.2177220829762518,reldom2_s033,001,2025-03-12_17h30.20.112,Vis-B-Scan_AC,2022.2.5,None,
32,First_Order,6.0,viswhere,stimulus/viswhere_stim/blank_white.png,stimulus/viswhere_stim/blank_white.png,stimulus/viswhere_stim/150-deg_dot-left_salmon.png,stimulus/viswhere_stim/150-deg_dot-right_salmon.png,stimulus/viswhere_stim/blank_white.png,stimulus/viswhere_stim/dot_box.png,stimulus/viswhere_stim/dot_yes.png,stimulus/viswhere_stim/dot_no.png,None,Dot,None,Line,2,0.0,0,5.125,0,5.125,0,5.125,0,0.0,0.625,0,0.0,0,0.0,1,0.5,1,2.125,0,0,0,0,0,0,0,0,0,,,,,0,42,42,42,,,,,,,,,400.38195045792963,400.38195045792963,400.38195045792963,400.38195045792963,400.38195045792963,400.38195045792963,400.38195045792963,400.38195045792963,400.36090941630147,400.38195045792963,400.38195045792963,400.38195045792963,400.36090941630147,400.38195045792963,400.38195045792963,400.38195045792963,402.48344695800915,406.4510228750296,400.38195045792963,400.38195045792963,405.51702883292455,400.8628347920021,401.86777387501206,402.48344695800915,403.49221620801836,400.38195045792963,400.38195045792963,400.3775760829681,400.38195045792963,400.38195045792963,400.38195045792963,400.3775760829681,400.38195045792963,400.38195045792963,405.51702883292455,400.38195045792963,405.51702883292455,405.6004519580165,406.23221937497146,400.38195045792963,2,1,0.74931954103522,reldom2_s033,001,2025-03-12_17h30.20.112,Vis-B-Scan_AC,2022.2.5,None,
33,First_Order,6.0,viswhere,stimulus/viswhere_stim/blank_white.png,stimulus/viswhere_stim/blank_white.png,stimulus/viswhere_stim/150-deg_dot-left_cyan.png,stimulus/viswhere_stim/150-deg_dot-right_seagreen.png,stimulus/viswhere_stim/blank_white.png,stimulus/viswhere_stim/line_box.png,stimulus/viswhere_stim/line_yes.png,stimulus/viswhere_stim/line_no.png,None,Line,None,Line,1,0.0,0,5.125,0,5.125,0,5.125,0,0.0,0.625,0,0.0,0,0.0,1,0.5,1,2.125,0,0,0,0,0,0,0,0,0,,,,,0,43,43,43,,,,,,,,,406.4510228750296,406.4510228750296,406.4510228750296,406.4510228750296,406.4510228750296,406.4510228750296,406.4510228750296,406.4510228750296,406.4293121662534,406.4510228750296,406.4510228750296,406.4510228750296,406.4293121662534,406.4510228750296,406.4510228750296,406.4510228750296,408.5575599579606,412.5210762079805,406.4510228750296,406.4510228750296,411.57847895799205,406.9339313330129,407.9412565419916,408.5575599579606,409.56893041695,406.4510228750296,406.4510228750296,406.44597883292005,406.4510228750296,406.4510228750296,406.4510228750296,406.44597883292005,406.4510228750296,406.4510228750296,411.57847895799205,406.4510228750296,411.57847895799205,411.6757112919586,412.30238524999004,406.4510228750296,1,1,0.4589150829706341,reldom2_s033,001,2025-03-12_17h30.20.112,Vis-B-Scan_AC,2022.2.5,None,
34,First_Order,6.0,viswhere,stimulus/viswhere_stim/blank_white.png,stimulus/viswhere_stim/blank_white.png,stimulus/viswhere_stim/150-deg_dot-right_cyan.png,stimulus/viswhere_stim/120-deg_dot-right_cyan.png,stimulus/viswhere_stim/blank_white.png,stimulus/viswhere_stim/line_box.png,stimulus/viswhere_stim/line_yes.png,stimulus/viswhere_stim/line_no.png,None,Line,None,Dot,2,0.0,0,5.125,0,5.125,0,5.125,0,0.0,0.625,0,0.0,0,0.0,1,0.5,1,2.125,0,0,0,0,0,0,0,0,0,,,,,0,44,44,44,,,,,,,,,412.5210762079805,412.5210762079805,412.5210762079805,412.5210762079805,412.5210762079805,412.5210762079805,412.5210762079805,412.5210762079805,412.4994601253032,412.5210762079805,412.5210762079805,412.5210762079805,412.4994601253032,412.5210762079805,412.5210762079805,412.5210762079805,414.633938291925,418.6647500420222,412.5210762079805,412.5210762079805,417.65874991694,413.00081150000915,414.0205388329923,414.633938291925,415.6400424579624,412.5210762079805,412.5210762079805,412.51612679196984,412.5210762079805,412.5210762079805,412.5210762079805,412.51612679196984,412.5210762079805,412.5210762079805,417.65874991694,412.5210762079805,417.65874991694,417.74285558296833,418.3716282079695,412.5210762079805,2,1,0.41604508296586573,reldom2_s033,001,2025-03-12_17h30.20.112,Vis-B-Scan_AC,2022.2.5,None,
0,0.0,None,fixation,stimulus/viswhere_stim/blank_white.png,stimulus/viswhere_stim/blank_white.png,stimulus/viswhat_stim/blank_white.png,stimulus/viswhat_stim/blank_white.png,stimulus/viswhere_stim/blank_white.png,stimulus/viswhere_stim/blank_white.png,stimulus/viswhere_stim/blank_white.png,stimulus/viswhere_stim/blank_white.png,0.0,0.0,0.0,0.0,0,0.0,0,0.0,0,0.0,0,0.0,0,0.0,0.0,0,0.0,0,0.0,0,0.0,0,0.0,0,0,0,0,0,0,0,0,8,,,,,0,45,45,45,,,,,,,,,418.6647500420222,418.6647500420222,418.6647500420222,418.6647500420222,418.6647500420222,418.6647500420222,418.6647500420222,418.6647500420222,418.5665640832934,418.6647500420222,418.6647500420222,418.6647500420222,418.5665640832934,418.6647500420222,418.6647500420222,418.6647500420222,418.6647500420222,418.6647500420222,418.6647500420222,418.6647500420222,418.6647500420222,418.6647500420222,418.6647500420222,418.6647500420222,418.6647500420222,418.6647500420222,418.6647500420222,418.6165640832934,418.6647500420222,418.6647500420222,418.6647500420222,418.6165640832934,418.6647500420222,418.6647500420222,418.6647500420222,418.6647500420222,418.6647500420222,423.8615766669391,423.8615766669391,426.8193323749583,None,0,,reldom2_s033,001,2025-03-12_17h30.20.112,Vis-B-Scan_AC,2022.2.5,None,
35,Second_Order,6.0,viswhere,stimulus/viswhere_stim/60-deg_dot-right_cyan.png,stimulus/viswhere_stim/60-deg_dot-left_goldenrod.png,stimulus/viswhere_stim/150-deg_dot-left_salmon.png,stimulus/viswhere_stim/150-deg_dot-right_goldenrod.png,stimulus/viswhere_stim/match_blank.png,stimulus/viswhere_stim/match_box.png,stimulus/viswhere_stim/match_yes.png,stimulus/viswhere_stim/match_no.png,1.0,Match,Line,Line,1,5.125,0,5.125,0,5.125,0,5.125,0,0.75,0.75,1,0.5,1,2.125,1,0.5,1,2.125,0,0,0,0,0,0,0,0,0,,,,,0,46,46,46,,,,,,,,,426.8193323749583,431.94044920802116,427.2930389579851,428.2800092919497,428.92780874995515,429.91643633297645,426.8193323749583,426.8193323749583,426.8333543753562,426.8193323749583,426.8193323749583,426.8193323749583,426.8333543753562,426.8193323749583,431.94044920802116,432.73415916692466,434.80773387500085,438.70038745796774,432.73415916692466,432.73415916692466,437.8812396249268,433.18231187493075,434.1884142499184,434.80773387500085,435.82635174994357,432.73415916692466,432.73415916692466,432.72381737497636,432.73415916692466,432.73415916692466,432.73415916692466,432.72381737497636,432.73415916692466,432.73415916692466,437.8812396249268,432.73415916692466,437.8812396249268,437.92557891702745,438.70038745796774,432.73415916692466,1,1,0.6440758330281824,reldom2_s033,001,2025-03-12_17h30.20.112,Vis-B-Scan_AC,2022.2.5,None,
36,Second_Order,6.0,viswhere,stimulus/viswhere_stim/120-deg_dot-right_slateblue.png,stimulus/viswhere_stim/120-deg_dot-left_royalblue.png,stimulus/viswhere_stim/150-deg_dot-right_royalblue.png,stimulus/viswhere_stim/150-deg_dot-left_salmon.png,stimulus/viswhere_stim/match_blank.png,stimulus/viswhere_stim/match_box.png,stimulus/viswhere_stim/match_yes.png,stimulus/viswhere_stim/match_no.png,1.0,Match,Line,Line,1,5.125,0,5.125,0,5.125,0,5.125,0,0.625,0.625,1,0.5,1,2.125,1,0.5,1,2.125,0,0,0,0,0,0,0,0,0,,,,,0,47,47,47,,,,,,,,,438.70038745796774,443.81661295797676,439.1870811670087,440.1740442919545,440.80987929191906,441.80742716696113,438.70038745796774,438.70038745796774,438.7132339579519,438.70038745796774,438.70038745796774,438.70038745796774,438.7132339579519,438.70038745796774,443.81661295797676,444.48654470802285,446.5613503329223,450.60169133299496,444.48654470802285,444.48654470802285,449.62498316692654,444.9350772079779,445.94321824994404,446.5613503329223,447.5751029169187,444.48654470802285,444.48654470802285,444.4638369162644,444.48654470802285,444.48654470802285,444.48654470802285,444.4638369162644,444.48654470802285,444.48654470802285,449.62498316692654,444.48654470802285,449.62498316692654,449.6839641670231,450.3178994170157,444.48654470802285,1,1,0.65746841696091,reldom2_s033,001,2025-03-12_17h30.20.112,Vis-B-Scan_AC,2022.2.5,None,
0,0.0,None,fixation,stimulus/viswhere_stim/blank_white.png,stimulus/viswhere_stim/blank_white.png,stimulus/viswhat_stim/blank_white.png,stimulus/viswhat_stim/blank_white.png,stimulus/viswhere_stim/blank_white.png,stimulus/viswhere_stim/blank_white.png,stimulus/viswhere_stim/blank_white.png,stimulus/viswhere_stim/blank_white.png,0.0,0.0,0.0,0.0,0,0.0,0,0.0,0,0.0,0,0.0,0,0.0,0.0,0,0.0,0,0.0,0,0.0,0,0.0,0,0,0,0,0,0,0,0,10,,,,,0,48,48,48,,,,,,,,,450.60169133299496,450.60169133299496,450.60169133299496,450.60169133299496,450.60169133299496,450.60169133299496,450.60169133299496,450.60169133299496,450.50130525029573,450.60169133299496,450.60169133299496,450.60169133299496,450.50130525029573,450.60169133299496,450.60169133299496,450.60169133299496,450.60169133299496,450.60169133299496,450.60169133299496,450.60169133299496,450.60169133299496,450.60169133299496,450.60169133299496,450.60169133299496,450.60169133299496,450.60169133299496,450.60169133299496,450.55130525029574,450.60169133299496,450.60169133299496,450.60169133299496,450.55130525029574,450.60169133299496,450.60169133299496,450.60169133299496,450.60169133299496,450.60169133299496,455.7883622079389,455.7883622079389,460.8593771669548,None,0,,reldom2_s033,001,2025-03-12_17h30.20.112,Vis-B-Scan_AC,2022.2.5,None,
37,First_Order,7.0,viswhat,stimulus/viswhat_stim/blank_white.png,stimulus/viswhat_stim/blank_white.png,stimulus/viswhat_stim/water_vehicle-sailboat.png,stimulus/viswhat_stim/land_vehicle-bus.png,stimulus/viswhat_stim/blank_white.png,stimulus/viswhat_stim/location_box.png,stimulus/viswhat_stim/location_yes.png,stimulus/viswhat_stim/location_no.png,None,Location,None,Type,2,0.0,0,5.125,0,5.125,0,5.125,0,0.0,0.625,0,0.0,0,0.0,1,0.5,1,2.125,0,0,0,0,0,0,0,0,0,,,,,0,49,49,49,,,,,,,,,460.8593771669548,460.8593771669548,460.8593771669548,460.8593771669548,460.8593771669548,460.8593771669548,460.8593771669548,460.8593771669548,460.76571937468054,460.8593771669548,460.8593771669548,460.8593771669548,460.76571937468054,460.8593771669548,460.8593771669548,460.8593771669548,462.9329340829281,,460.8593771669548,460.8593771669548,466.06646541692317,461.33827700000256,462.4025899999542,462.9329340829281,463.9976232079789,460.8593771669548,460.8593771669548,460.81571937468055,460.8593771669548,460.8593771669548,460.8593771669548,460.81571937468055,460.8593771669548,460.8593771669548,466.06646541692317,460.8593771669548,466.06646541692317,466.06646541692317,466.7288957919227,460.8593771669548,2,1,0.5952209159731865,reldom2_s033,001,2025-03-12_17h30.20.112,Vis-B-Scan_AC,2022.2.5,None,
38,First_Order,7.0,viswhat,stimulus/viswhat_stim/blank_white.png,stimulus/viswhat_stim/blank_white.png,stimulus/viswhat_stim/land_vehicle-tank.png,stimulus/viswhat_stim/land_animal-elephant.png,stimulus/viswhat_stim/blank_white.png,stimulus/viswhat_stim/type_box.png,stimulus/viswhat_stim/type_yes.png,stimulus/viswhat_stim/type_no.png,None,Type,None,Location,2,0.0,0,5.125,0,5.125,0,5.125,0,0.0,0.625,0,0.0,0,0.0,1,0.5,1,2.125,0,0,0,0,0,0,0,0,0,,,,,0,50,50,50,,,,,,,,,466.98056216700934,466.98056216700934,466.98056216700934,466.98056216700934,466.98056216700934,466.98056216700934,466.98056216700934,466.98056216700934,466.8788957919227,466.98056216700934,466.98056216700934,466.98056216700934,466.8788957919227,466.98056216700934,466.98056216700934,466.98056216700934,469.0566923749866,,466.98056216700934,466.98056216700934,472.1742097919341,467.4417591249803,468.5377144999802,469.0566923749866,470.1040037079947,466.98056216700934,466.98056216700934,466.9288957919227,466.98056216700934,466.98056216700934,466.98056216700934,466.9288957919227,466.98056216700934,466.98056216700934,472.1742097919341,466.98056216700934,472.1742097919341,472.1742097919341,472.8495536670089,466.98056216700934,2,1,0.7261985829100013,reldom2_s033,001,2025-03-12_17h30.20.112,Vis-B-Scan_AC,2022.2.5,None,
39,First_Order,7.0,viswhat,stimulus/viswhat_stim/blank_white.png,stimulus/viswhat_stim/blank_white.png,stimulus/viswhat_stim/land_animal-ostrich.png,stimulus/viswhat_stim/water_animal-whale.png,stimulus/viswhat_stim/blank_white.png,stimulus/viswhat_stim/location_box.png,stimulus/viswhat_stim/location_yes.png,stimulus/viswhat_stim/location_no.png,None,Location,None,Type,2,0.0,0,5.125,0,5.125,0,5.125,0,0.0,0.625,0,0.0,0,0.0,1,0.5,1,2.125,0,0,0,0,0,0,0,0,0,,,,,0,51,51,51,,,,,,,,,473.05149674997665,473.05149674997665,473.05149674997665,473.05149674997665,473.05149674997665,473.05149674997665,473.05149674997665,473.05149674997665,473.0162203336755,473.05149674997665,473.05149674997665,473.05149674997665,473.0162203336755,473.05149674997665,473.05149674997665,473.05149674997665,475.14788674993906,479.12754483299796,473.05149674997665,473.05149674997665,478.1884279999649,473.5227818329586,474.54295974993147,475.14788674993906,476.1781445419183,473.05149674997665,473.05149674997665,473.0328870003422,473.05149674997665,473.05149674997665,473.05149674997665,473.0328870003422,473.05149674997665,473.05149674997665,478.1884279999649,473.05149674997665,478.1884279999649,478.2761692919303,478.90848283295054,473.05149674997665,2,1,0.5703248749487102,reldom2_s033,001,2025-03-12_17h30.20.112,Vis-B-Scan_AC,2022.2.5,None,
40,First_Order,7.0,viswhat,stimulus/viswhat_stim/blank_white.png,stimulus/viswhat_stim/blank_white.png,stimulus/viswhat_stim/land_vehicle-truck.png,stimulus/viswhat_stim/land_animal-fox.png,stimulus/viswhat_stim/blank_white.png,stimulus/viswhat_stim/location_box.png,stimulus/viswhat_stim/location_yes.png,stimulus/viswhat_stim/location_no.png,None,Location,None,Location,1,0.0,0,5.125,0,5.125,0,5.125,0,0.0,0.625,0,0.0,0,0.0,1,0.5,1,2.125,0,0,0,0,0,0,0,0,0,,,,,0,52,52,52,,,,,,,,,479.12754483299796,479.12754483299796,479.12754483299796,479.12754483299796,479.12754483299796,479.12754483299796,479.12754483299796,479.12754483299796,479.09586737493515,479.12754483299796,479.12754483299796,479.12754483299796,479.09586737493515,479.12754483299796,479.12754483299796,479.12754483299796,481.23270108294673,485.27311424992513,479.12754483299796,479.12754483299796,484.2638948749518,479.59589670796413,480.6021673330106,481.23270108294673,482.2480328329839,479.12754483299796,479.12754483299796,479.11253404160186,479.12754483299796,479.12754483299796,479.12754483299796,479.11253404160186,479.12754483299796,479.12754483299796,484.2638948749518,479.12754483299796,484.2638948749518,484.3523634580197,484.9948082079645,479.12754483299796,1,1,0.5401071240194142,reldom2_s033,001,2025-03-12_17h30.20.112,Vis-B-Scan_AC,2022.2.5,None,
0,0.0,None,fixation,stimulus/viswhere_stim/blank_white.png,stimulus/viswhere_stim/blank_white.png,stimulus/viswhat_stim/blank_white.png,stimulus/viswhat_stim/blank_white.png,stimulus/viswhere_stim/blank_white.png,stimulus/viswhere_stim/blank_white.png,stimulus/viswhere_stim/blank_white.png,stimulus/viswhere_stim/blank_white.png,0.0,0.0,0.0,0.0,0,0.0,0,0.0,0,0.0,0,0.0,0,0.0,0.0,0,0.0,0,0.0,0,0.0,0,0.0,0,0,0,0,0,0,0,0,8,,,,,0,53,53,53,,,,,,,,,485.27311424992513,485.27311424992513,485.27311424992513,485.27311424992513,485.27311424992513,485.27311424992513,485.27311424992513,485.27311424992513,485.1663872913535,485.27311424992513,485.27311424992513,485.27311424992513,485.1663872913535,485.27311424992513,485.27311424992513,485.27311424992513,485.27311424992513,485.27311424992513,485.27311424992513,485.27311424992513,485.27311424992513,485.27311424992513,485.27311424992513,485.27311424992513,485.27311424992513,485.27311424992513,485.27311424992513,485.23305395802015,485.27311424992513,485.27311424992513,485.27311424992513,485.23305395802015,485.27311424992513,485.27311424992513,485.27311424992513,485.27311424992513,485.27311424992513,490.48420604201965,490.48420604201965,493.39869308297057,None,0,,reldom2_s033,001,2025-03-12_17h30.20.112,Vis-B-Scan_AC,2022.2.5,None,
41,Second_Order,7.0,viswhat,stimulus/viswhat_stim/water_animal-whale (1).png,stimulus/viswhat_stim/water_vehicle-canoe(1).png,stimulus/viswhat_stim/land_animal-tiger.png,stimulus/viswhat_stim/land_vehicle-train.png,stimulus/viswhere_stim/match_blank.png,stimulus/viswhere_stim/match_box.png,stimulus/viswhere_stim/match_yes.png,stimulus/viswhere_stim/match_no.png,1.0,Match,Location,Location,1,5.125,0,5.125,0,5.125,0,5.125,0,0.75,0.75,1,0.5,1,2.125,1,0.5,1,2.125,0,0,0,0,0,0,0,0,0,,,,,0,54,54,54,,,,,,,,,493.39869308297057,498.5221681250259,493.86513970792294,494.8636759169167,495.49823154194746,496.4883061249275,493.39869308297057,493.39869308297057,493.4053482082983,493.39869308297057,493.39869308297057,493.39869308297057,493.4053482082983,493.39869308297057,498.5221681250259,499.34908258297946,501.42979987501167,505.3283169999486,499.34908258297946,499.34908258297946,504.4898912080098,499.7869219169952,500.82756358291954,501.42979987501167,502.4753803330241,499.34908258297946,499.34908258297946,499.3237549585911,499.34908258297946,499.34908258297946,499.34908258297946,499.3237549585911,499.34908258297946,499.34908258297946,504.4898912080098,499.34908258297946,504.4898912080098,504.54612108296715,,499.34908258297946,1,1,0.6869022080209106,reldom2_s033,001,2025-03-12_17h30.20.112,Vis-B-Scan_AC,2022.2.5,None,
42,Second_Order,7.0,viswhat,stimulus/viswhat_stim/land_vehicle-buldozer.png,stimulus/viswhat_stim/water_vehicle-jetski.png,stimulus/viswhat_stim/water_animal-whale.png,stimulus/viswhat_stim/land_animal-fox.png,stimulus/viswhere_stim/match_blank.png,stimulus/viswhere_stim/match_box.png,stimulus/viswhere_stim/match_yes.png,stimulus/viswhere_stim/match_no.png,1.0,Match,Type,Type,1,5.125,0,5.125,0,5.125,0,5.125,0,0.625,0.625,1,0.5,1,2.125,1,0.5,1,2.125,0,0,0,0,0,0,0,0,0,,,,,0,55,55,55,,,,,,,,,505.3283169999486,510.4494982919423,505.7915851669386,506.77882829192095,507.4134424999356,508.4114699169295,505.3283169999486,505.3283169999486,505.32790862532175,505.3283169999486,505.3283169999486,505.3283169999486,505.32790862532175,505.3283169999486,510.4494982919423,511.14154516696,513.2169723749394,517.2560261669569,511.14154516696,511.14154516696,516.2939601669786,511.58916895801667,512.6157713329885,513.2169723749394,514.248117708019,511.14154516696,511.14154516696,511.1177751249168,511.14154516696,511.14154516696,511.14154516696,511.1177751249168,511.14154516696,511.14154516696,516.2939601669786,511.14154516696,516.2939601669786,516.3348898330005,516.9740397080313,511.14154516696,1,1,0.4485105409985408,reldom2_s033,001,2025-03-12_17h30.20.112,Vis-B-Scan_AC,2022.2.5,None,
0,0.0,None,fixation,stimulus/viswhere_stim/blank_white.png,stimulus/viswhere_stim/blank_white.png,stimulus/viswhat_stim/blank_white.png,stimulus/viswhat_stim/blank_white.png,stimulus/viswhere_stim/blank_white.png,stimulus/viswhere_stim/blank_white.png,stimulus/viswhere_stim/blank_white.png,stimulus/viswhere_stim/blank_white.png,0.0,0.0,0.0,0.0,0,0.0,0,0.0,0,0.0,0,0.0,0,0.0,0.0,0,0.0,0,0.0,0,0.0,0,0.0,0,0,0,0,0,0,0,0,9,,,,,0,56,56,56,,,,,,,,,517.2560261669569,517.2560261669569,517.2560261669569,517.2560261669569,517.2560261669569,517.2560261669569,517.2560261669569,517.2560261669569,517.1560249999399,517.2560261669569,517.2560261669569,517.2560261669569,517.1560249999399,517.2560261669569,517.2560261669569,517.2560261669569,517.2560261669569,517.2560261669569,517.2560261669569,517.2560261669569,517.2560261669569,517.2560261669569,517.2560261669569,517.2560261669569,517.2560261669569,517.2560261669569,517.2560261669569,517.2060249999398,517.2560261669569,517.2560261669569,517.2560261669569,517.2060249999398,517.2560261669569,517.2560261669569,517.2560261669569,517.2560261669569,517.2560261669569,522.4745698330225,522.4745698330225,526.484522457933,None,0,,reldom2_s033,001,2025-03-12_17h30.20.112,Vis-B-Scan_AC,2022.2.5,None,
43,First_Order,8.0,viswhat,stimulus/viswhat_stim/blank_white.png,stimulus/viswhat_stim/blank_white.png,stimulus/viswhat_stim/land_animal-fox.png,stimulus/viswhat_stim/land_vehicle-motorcycle.png,stimulus/viswhat_stim/blank_white.png,stimulus/viswhat_stim/type_box.png,stimulus/viswhat_stim/type_yes.png,stimulus/viswhat_stim/type_no.png,None,Type,None,Location,2,0.0,0,5.125,0,5.125,0,5.125,0,0.0,0.625,0,0.0,0,0.0,1,0.5,1,2.125,0,0,0,0,0,0,0,0,0,,,,,0,57,57,57,,,,,,,,,526.484522457933,526.484522457933,526.484522457933,526.484522457933,526.484522457933,526.484522457933,526.484522457933,526.484522457933,526.4412609166853,526.484522457933,526.484522457933,526.484522457933,526.4412609166853,526.484522457933,526.484522457933,526.484522457933,528.5749326669611,532.5662551249843,526.484522457933,526.484522457933,531.6375836249208,526.9687749169534,528.0003487919457,528.5749326669611,529.6123052919284,526.484522457933,526.484522457933,526.457927583352,526.484522457933,526.484522457933,526.484522457933,526.457927583352,526.484522457933,526.484522457933,531.6375836249208,526.484522457933,531.6375836249208,531.688329000026,532.3311751249712,526.484522457933,2,1,0.5229333329480141,reldom2_s033,001,2025-03-12_17h30.20.112,Vis-B-Scan_AC,2022.2.5,None,
44,First_Order,8.0,viswhat,stimulus/viswhat_stim/blank_white.png,stimulus/viswhat_stim/blank_white.png,stimulus/viswhat_stim/land_animal-pig.png,stimulus/viswhat_stim/land_vehicle-firetruck.png,stimulus/viswhat_stim/blank_white.png,stimulus/viswhat_stim/location_box.png,stimulus/viswhat_stim/location_yes.png,stimulus/viswhat_stim/location_no.png,None,Location,None,Location,1,0.0,0,5.125,0,5.125,0,5.125,0,0.0,0.625,0,0.0,0,0.0,1,0.5,1,2.125,0,0,0,0,0,0,0,0,0,,,,,0,58,58,58,,,,,,,,,532.5662551249843,532.5662551249843,532.5662551249843,532.5662551249843,532.5662551249843,532.5662551249843,532.5662551249843,532.5662551249843,532.5295764579438,532.5662551249843,532.5662551249843,532.5662551249843,532.5295764579438,532.5662551249843,532.5662551249843,532.5662551249843,534.6720911249286,538.6910850419663,532.5662551249843,532.5662551249843,537.6988412919454,533.0349639999913,534.0408282499993,534.6720911249286,535.6875753749628,532.5662551249843,532.5662551249843,532.5462431246104,532.5662551249843,532.5662551249843,532.5662551249843,532.5462431246104,532.5662551249843,532.5662551249843,537.6988412919454,532.5662551249843,537.6988412919454,537.7882883329876,538.4286787079182,532.5662551249843,1,1,0.7069985000416636,reldom2_s033,001,2025-03-12_17h30.20.112,Vis-B-Scan_AC,2022.2.5,None,
45,First_Order,8.0,viswhat,stimulus/viswhat_stim/blank_white.png,stimulus/viswhat_stim/blank_white.png,stimulus/viswhat_stim/land_vehicle-trolley.png,stimulus/viswhat_stim/water_vehicle-sailboat.png,stimulus/viswhat_stim/blank_white.png,stimulus/viswhat_stim/type_box.png,stimulus/viswhat_stim/type_yes.png,stimulus/viswhat_stim/type_no.png,None,Type,None,Type,1,0.0,0,5.125,0,5.125,0,5.125,0,0.0,0.625,0,0.0,0,0.0,1,0.5,1,2.125,0,0,0,0,0,0,0,0,0,,,,,0,59,59,59,,,,,,,,,538.6910850419663,538.6910850419663,538.6910850419663,538.6910850419663,538.6910850419663,538.6910850419663,538.6910850419663,538.6910850419663,538.6014281663423,538.6910850419663,538.6910850419663,538.6910850419663,538.6014281663423,538.6910850419663,538.6910850419663,538.6910850419663,540.7808236249257,,538.6910850419663,538.6910850419663,543.8900777919916,539.1774705420248,540.2463544999482,540.7808236249257,541.857945082942,538.6910850419663,538.6910850419663,538.6514281663423,538.6910850419663,538.6910850419663,538.6910850419663,538.6514281663423,538.6910850419663,538.6910850419663,543.8900777919916,538.6910850419663,543.8900777919916,543.8900777919916,544.5768652919214,538.6910850419663,1,1,0.43477795796934515,reldom2_s033,001,2025-03-12_17h30.20.112,Vis-B-Scan_AC,2022.2.5,None,
46,First_Order,8.0,viswhat,stimulus/viswhat_stim/blank_white.png,stimulus/viswhat_stim/blank_white.png,stimulus/viswhat_stim/water_vehicle-canoe(1).png,stimulus/viswhat_stim/land_vehicle-truck.png,stimulus/viswhat_stim/blank_white.png,stimulus/viswhat_stim/type_box.png,stimulus/viswhat_stim/type_yes.png,stimulus/viswhat_stim/type_no.png,None,Type,None,Type,1,0.0,0,5.125,0,5.125,0,5.125,0,0.0,0.625,0,0.0,0,0.0,1,0.5,1,2.125,0,0,0,0,0,0,0,0,0,,,,,0,60,60,60,,,,,,,,,544.7458659999538,544.7458659999538,544.7458659999538,544.7458659999538,544.7458659999538,544.7458659999538,544.7458659999538,544.7458659999538,544.7101986252547,544.7458659999538,544.7458659999538,544.7458659999538,544.7101986252547,544.7458659999538,544.7458659999538,544.7458659999538,546.8423720420105,550.8809408749221,544.7458659999538,544.7458659999538,549.88564270793,545.2267427080078,546.2332111250143,546.8423720420105,547.8531046250137,544.7458659999538,544.7458659999538,544.7268652919214,544.7458659999538,544.7458659999538,544.7458659999538,544.7268652919214,544.7458659999538,544.7458659999538,549.88564270793,544.7458659999538,549.88564270793,549.9665321669308,550.5942464999389,544.7458659999538,1,1,0.5635348330251873,reldom2_s033,001,2025-03-12_17h30.20.112,Vis-B-Scan_AC,2022.2.5,None,
0,0.0,None,fixation,stimulus/viswhere_stim/blank_white.png,stimulus/viswhere_stim/blank_white.png,stimulus/viswhat_stim/blank_white.png,stimulus/viswhat_stim/blank_white.png,stimulus/viswhere_stim/blank_white.png,stimulus/viswhere_stim/blank_white.png,stimulus/viswhere_stim/blank_white.png,stimulus/viswhere_stim/blank_white.png,0.0,0.0,0.0,0.0,0,0.0,0,0.0,0,0.0,0,0.0,0,0.0,0.0,0,0.0,0,0.0,0,0.0,0,0.0,0,0,0,0,0,0,0,0,9,,,,,0,61,61,61,,,,,,,,,550.8809408749221,550.8809408749221,550.8809408749221,550.8809408749221,550.8809408749221,550.8809408749221,550.8809408749221,550.8809408749221,550.7775969582921,550.8809408749221,550.8809408749221,550.8809408749221,550.7775969582921,550.8809408749221,550.8809408749221,550.8809408749221,550.8809408749221,550.8809408749221,550.8809408749221,550.8809408749221,550.8809408749221,550.8809408749221,550.8809408749221,550.8809408749221,550.8809408749221,550.8809408749221,550.8809408749221,550.827596958292,550.8809408749221,550.8809408749221,550.8809408749221,550.827596958292,550.8809408749221,550.8809408749221,550.8809408749221,550.8809408749221,550.8809408749221,556.0790747499559,556.0790747499559,560.0100262080086,None,0,,reldom2_s033,001,2025-03-12_17h30.20.112,Vis-B-Scan_AC,2022.2.5,None,
47,Second_Order,8.0,viswhat,stimulus/viswhat_stim/water_animal-seaturtle.png,stimulus/viswhat_stim/water_vehicle-kayak.png,stimulus/viswhat_stim/water_vehicle-motorboatraft.png,stimulus/viswhat_stim/land_vehicle-tank.png,stimulus/viswhere_stim/match_blank.png,stimulus/viswhere_stim/match_box.png,stimulus/viswhere_stim/match_yes.png,stimulus/viswhere_stim/match_no.png,2.0,Match,Location,Type,2,5.125,0,5.125,0,5.125,0,5.125,0,0.75,0.75,1,0.5,1,2.125,1,0.5,1,2.125,0,0,0,0,0,0,0,0,0,,,,,0,62,62,62,,,,,,,,,560.0100262080086,565.1305862499867,560.4812012079637,561.4713293749373,562.1070753330132,563.104771082988,560.0100262080086,560.0100262080086,560.0127819583596,560.0100262080086,560.0100262080086,560.0100262080086,560.0127819583596,560.0100262080086,565.1305862499867,565.9250331670046,567.9991415829863,571.902326041949,565.9250331670046,565.9250331670046,571.066948832944,566.3791928749997,567.3854752079351,567.9991415829863,569.0126282499405,565.9250331670046,565.9250331670046,565.8977761253559,565.9250331670046,565.9250331670046,565.9250331670046,565.8977761253559,565.9250331670046,565.9250331670046,571.066948832944,565.9250331670046,571.066948832944,571.1268711669836,,565.9250331670046,2,1,0.9390204580267891,reldom2_s033,001,2025-03-12_17h30.20.112,Vis-B-Scan_AC,2022.2.5,None,
48,Second_Order,8.0,viswhat,stimulus/viswhat_stim/land_vehicle-rv.png,stimulus/viswhat_stim/water_vehicle-cargoboat.png,stimulus/viswhat_stim/water_animal-squid.png,stimulus/viswhat_stim/land_animal-dog.png,stimulus/viswhere_stim/match_blank.png,stimulus/viswhere_stim/match_box.png,stimulus/viswhere_stim/match_yes.png,stimulus/viswhere_stim/match_no.png,1.0,Match,Type,Type,1,5.125,0,5.125,0,5.125,0,5.125,0,0.625,0.625,1,0.5,1,2.125,1,0.5,1,2.125,0,0,0,0,0,0,0,0,0,,,,,0,63,63,63,,,,,,,,,571.902326041949,577.0245147499954,572.3797561669489,573.3781386669725,574.0000432499219,574.9986007920234,571.902326041949,571.902326041949,571.9072353329509,571.902326041949,571.902326041949,571.902326041949,571.9072353329509,571.902326041949,577.0245147499954,577.725178582943,579.7806004579179,583.8330427079927,577.725178582943,577.725178582943,582.8608899170067,578.1600283329608,579.1891223749844,579.7806004579179,580.8110754579538,577.725178582943,577.725178582943,577.6882690420141,577.725178582943,577.725178582943,577.725178582943,577.6882690420141,577.725178582943,577.725178582943,582.8608899170067,577.725178582943,582.8608899170067,582.9118609579746,583.5481267080177,577.725178582943,1,1,0.4386775828897953,reldom2_s033,001,2025-03-12_17h30.20.112,Vis-B-Scan_AC,2022.2.5,None,
0,0.0,None,fixation,stimulus/viswhere_stim/blank_white.png,stimulus/viswhere_stim/blank_white.png,stimulus/viswhat_stim/blank_white.png,stimulus/viswhat_stim/blank_white.png,stimulus/viswhere_stim/blank_white.png,stimulus/viswhere_stim/blank_white.png,stimulus/viswhere_stim/blank_white.png,stimulus/viswhere_stim/blank_white.png,0.0,0.0,0.0,0.0,0,0.0,0,0.0,0,0.0,0,0.0,0,0.0,0.0,0,0.0,0,0.0,0,0.0,0,0.0,0,0,0,0,0,0,0,0,16,,,,,0,64,64,64,,,,,,,,,583.8330427079927,583.8330427079927,583.8330427079927,583.8330427079927,583.8330427079927,583.8330427079927,583.8330427079927,583.8330427079927,583.7407899996887,583.8330427079927,583.8330427079927,583.8330427079927,583.7407899996887,583.8330427079927,583.8330427079927,583.8330427079927,583.8330427079927,583.8330427079927,583.8330427079927,583.8330427079927,583.8330427079927,583.8330427079927,583.8330427079927,583.8330427079927,583.8330427079927,583.8330427079927,583.8330427079927,583.7907899996886,583.8330427079927,583.8330427079927,583.8330427079927,583.7907899996886,583.8330427079927,583.8330427079927,583.8330427079927,583.8330427079927,583.8330427079927,589.0132846669294,589.0132846669294,599.9629237080226,None,0,,reldom2_s033,001,2025-03-12_17h30.20.112,Vis-B-Scan_AC,2022.2.5,None,
