Trial,Order,Block,Type,Stimuli_File1,Stimuli_File2,Stimuli_File3,Stimuli_File4,Cue_File1,Cue_File2,Response_File_Yes,Response_File_No,Match,Cue_Dimension,Pair1_Dimension,Pair2_Dimension,Key,Cue1_Duration,Cue1_Onset,Cue2_Duration,Cue2_Onset,ResponseYes_Duration,ResponseYes_Onset,ResponseNo_Duration,ResponseNo_Onset,ITI_Within,ITI_Between,Image1_Duration,Image1_Onset,Image2_Duration,Image2_Onset,Image3_Duration,Image3_Onset,Image4_Duration,Image4_Onset,Sound1_Duration,Sound1_Onset,Sound2_Duration,Sound2_Onset,Sound3_Duration,Sound3_Onset,Sound4_Duration,Sound4_Onset,Fixation_Duration,trials_2.thisRepN,trials_2.thisTrialN,trials_2.thisN,trials_2.thisIndex,trials.thisRepN,trials.thisTrialN,trials.thisN,trials.thisIndex,text_start.started,key_resp_start.started,key_resp_start.keys,key_resp_start.rt,cue_file1.started,cue_file1.stopped,image_1.started,image_1.stopped,image_2.started,image_2.stopped,sound_icon1.started,sound_icon1.stopped,sound_1.started,sound_1.stopped,sound_icon2.started,sound_icon2.stopped,sound_2.started,sound_2.stopped,image_blank_1.started,image_blank_1.stopped,key_press.started,key_press.stopped,fixation_text.started,cue_file2.started,cue_file2.stopped,image_3.started,image_3.stopped,image_4.started,image_4.stopped,sound_icon3.started,sound_icon3.stopped,sound_3.started,sound_3.stopped,sound_icon4.started,sound_icon4.stopped,sound_4.started,sound_4.stopped,response_yes.started,response_yes.stopped,response_no.started,response_no.stopped,iti_blank.started,iti_blank.stopped,fixation_text.stopped,key_press.keys,key_press.corr,key_press.rt,text_score.started,participant,session,date,expName,psychopyVersion,frameRate,
,,,,,,,,,,,,,,,,,,,,,,,,,,,,,,,,,,,,,,,,,,,,,,,,,,,,9.447077041957527,9.447077041957527,2,4.24610312609002,,,,,,,,,,,,,,,,,,,,,,,,,,,,,,,,,,,,,,,,,,,,,reldom2_s033,001,2025-03-12_16h23.43.921,practice_test1_AC,2022.2.5,None,
,,,,,,,,,,,,,,,,,,,,,,,,,,,,,,,,,,,,,,,,,,,,0,0,0,0,,,,,,,,,,,,,,,,,,,,,,,,,,,,,,,,,,,,,,,,,,,,,,,,,,,,,reldom2_s033,001,2025-03-12_16h23.43.921,practice_test1_AC,2022.2.5,None,
,,,,,,,,,,,,,,,,,,,,,,,,,,,,,,,,,,,,,,,,,,,,1,0,1,0,,,,,,,,,,,,,,,,,,,,,,,,,,,,,,,,,,,,,,,,,,,,,,,,,,,,,reldom2_s033,001,2025-03-12_16h23.43.921,practice_test1_AC,2022.2.5,None,
,,,,,,,,,,,,,,,,,,,,,,,,,,,,,,,,,,,,,,,,,,,,2,0,2,0,,,,,,,,,,,,,,,,,,,,,,,,,,,,,,,,,,,,,,,,,,,,,,,,,,,,,reldom2_s033,001,2025-03-12_16h23.43.921,practice_test1_AC,2022.2.5,None,
,,,,,,,,,,,,,,,,,,,,,,,,,,,,,,,,,,,,,,,,,,,,3,0,3,0,,,,,,,,,,,,,,,,,,,,,,,,,,,,,,,,,,,,,,,,,,,,,,,,,,,,,reldom2_s033,001,2025-03-12_16h23.43.921,practice_test1_AC,2022.2.5,None,
0,0.0,None,fixation,stimulus/viswhere_stim/blank_white.png,stimulus/viswhere_stim/blank_white.png,stimulus/audwhere_stim/blank_white.png,stimulus/audwhere_stim/blank_white.png,stimulus/viswhere_stim/blank_white.png,stimulus/viswhere_stim/blank_white.png,stimulus/viswhere_stim/blank_white.png,stimulus/viswhere_stim/blank_white.png,0.0,0.0,0.0,0.0,0,0.0,0,0.0,0,0.0,0,0.0,0,0.0,0.0,0,0.0,0,0.0,0,0.0,0,0.0,0,0.0,0,0.0,0,0.0,0,0.0,6,,,,,0,0,0,0,,,,,13.936781166936271,13.936781166936271,13.936781166936271,13.936781166936271,13.936781166936271,13.936781166936271,13.936781166936271,13.936781166936271,13.830273291359967,13.936781166936271,13.936781166936271,13.936781166936271,13.830273291359967,13.936781166936271,13.936781166936271,13.936781166936271,13.936781166936271,13.936781166936271,13.936781166936271,13.936781166936271,13.936781166936271,13.936781166936271,13.936781166936271,13.936781166936271,13.936781166936271,13.936781166936271,13.936781166936271,13.880273291359966,13.936781166936271,13.936781166936271,13.936781166936271,13.880273291359966,13.936781166936271,13.936781166936271,13.936781166936271,13.936781166936271,13.936781166936271,19.132072041975334,19.132072041975334,20.116610791999847,None,0,,,reldom2_s033,001,2025-03-12_16h23.43.921,practice_test1_AC,2022.2.5,None,
1,First_Order,1.0,viswhere,stimulus/viswhere_stim/blank_white.png,stimulus/viswhere_stim/blank_white.png,stimulus/viswhere_stim/90-deg_dot-right_peru.png,stimulus/viswhere_stim/120-deg_dot-right_slateblue.png,stimulus/viswhere_stim/blank_white.png,stimulus/viswhere_stim/dot_box.png,stimulus/viswhere_stim/dot_yes.png,stimulus/viswhere_stim/dot_no.png,None,Dot,None,Dot,1,0.0,0,5.25,0,5.25,0,5.25,0,0.0,0.75,0,0.0,0,0.0,1,0.5,1,2.125,0,0.0,0,0.0,0,0.0,0,0.0,0,,,,,0,1,1,1,,,,,20.116610791999847,20.116610791999847,20.116610791999847,20.116610791999847,20.116610791999847,20.116610791999847,20.116610791999847,20.116610791999847,20.087282833037897,20.116610791999847,20.116610791999847,20.116610791999847,20.087282833037897,20.116610791999847,20.116610791999847,20.116610791999847,22.21849400002975,26.080802500015125,20.116610791999847,20.116610791999847,25.376617416972294,20.590551874949597,21.61526429199148,22.21849400002975,23.235338332946412,20.116610791999847,20.116610791999847,20.103949499704562,20.116610791999847,20.116610791999847,20.116610791999847,20.103949499704562,20.116610791999847,20.116610791999847,25.376617416972294,20.116610791999847,25.376617416972294,25.338028167025186,26.18748445797246,20.116610791999847,1,1,2.2561600420158356,,reldom2_s033,001,2025-03-12_16h23.43.921,practice_test1_AC,2022.2.5,None,
2,First_Order,1.0,viswhere,stimulus/viswhere_stim/blank_white.png,stimulus/viswhere_stim/blank_white.png,stimulus/viswhere_stim/30-deg_dot-right_turquoise.png,stimulus/viswhere_stim/60-deg_dot-right_seagreen.png,stimulus/viswhere_stim/blank_white.png,stimulus/viswhere_stim/line_box.png,stimulus/viswhere_stim/line_yes.png,stimulus/viswhere_stim/line_no.png,None,Line,None,Dot,2,0.0,0,5.25,0,5.25,0,5.25,0,0.0,0.75,0,0.0,0,0.0,1,0.5,1,2.125,0,0.0,0,0.0,0,0.0,0,0.0,0,,,,,0,2,2,2,,,,,26.18748445797246,26.18748445797246,26.18748445797246,26.18748445797246,26.18748445797246,26.18748445797246,26.18748445797246,26.18748445797246,26.164135833348457,26.18748445797246,26.18748445797246,26.18748445797246,26.164135833348457,26.18748445797246,26.18748445797246,26.18748445797246,28.287231000023894,32.16423320793547,26.18748445797246,26.18748445797246,31.43729124998208,26.659438667003997,27.682244000025094,28.287231000023894,29.305153332999907,26.18748445797246,26.18748445797246,26.180802500015123,26.18748445797246,26.18748445797246,26.18748445797246,26.180802500015123,26.18748445797246,26.18748445797246,31.43729124998208,26.18748445797246,31.43729124998208,31.420868874993175,32.27046195801813,26.18748445797246,2,1,1.396913041942753,,reldom2_s033,001,2025-03-12_16h23.43.921,practice_test1_AC,2022.2.5,None,
3,First_Order,1.0,viswhere,stimulus/viswhere_stim/blank_white.png,stimulus/viswhere_stim/blank_white.png,stimulus/viswhere_stim/120-deg_dot-left_goldenrod.png,stimulus/viswhere_stim/90-deg_dot-left_seagreen.png,stimulus/viswhere_stim/blank_white.png,stimulus/viswhere_stim/line_box.png,stimulus/viswhere_stim/line_yes.png,stimulus/viswhere_stim/line_no.png,None,Line,None,Dot,2,0.0,0,5.25,0,5.25,0,5.25,0,0.0,0.75,0,0.0,0,0.0,1,0.5,1,2.125,0,0.0,0,0.0,0,0.0,0,0.0,0,,,,,0,3,3,3,,,,,32.27046195801813,32.27046195801813,32.27046195801813,32.27046195801813,32.27046195801813,32.27046195801813,32.27046195801813,32.27046195801813,32.2475665412688,32.27046195801813,32.27046195801813,32.27046195801813,32.2475665412688,32.27046195801813,32.27046195801813,32.27046195801813,34.36833162500989,38.33944020792842,32.27046195801813,32.27046195801813,37.53461495798547,32.76466166693717,33.78506279201247,34.36833162500989,35.39115558296908,32.27046195801813,32.27046195801813,32.26423320793547,32.27046195801813,32.27046195801813,32.27046195801813,32.26423320793547,32.27046195801813,32.27046195801813,37.53461495798547,32.27046195801813,37.53461495798547,37.495385791989975,38.33944020792842,32.27046195801813,2,1,3.0769881670130417,,reldom2_s033,001,2025-03-12_16h23.43.921,practice_test1_AC,2022.2.5,None,
4,First_Order,1.0,viswhere,stimulus/viswhere_stim/blank_white.png,stimulus/viswhere_stim/blank_white.png,stimulus/viswhere_stim/150-deg_dot-right_royalblue.png,stimulus/viswhere_stim/150-deg_dot-left_slateblue.png,stimulus/viswhere_stim/blank_white.png,stimulus/viswhere_stim/dot_box.png,stimulus/viswhere_stim/dot_yes.png,stimulus/viswhere_stim/dot_no.png,None,Dot,None,Line,2,0.0,0,5.25,0,5.25,0,5.25,0,0.0,0.75,0,0.0,0,0.0,1,0.5,1,2.125,0,0.0,0,0.0,0,0.0,0,0.0,0,,,,,0,4,4,4,,,,,38.33944020792842,38.33944020792842,38.33944020792842,38.33944020792842,38.33944020792842,38.33944020792842,38.33944020792842,38.33944020792842,38.3146656662769,38.33944020792842,38.33944020792842,38.33944020792842,38.3146656662769,38.33944020792842,38.33944020792842,38.33944020792842,40.45496770797763,44.31442412501201,38.33944020792842,38.33944020792842,43.59961699997075,38.81711595796514,39.822064875043,40.45496770797763,41.46363300003577,38.33944020792842,38.33944020792842,38.33133233294357,38.33944020792842,38.33944020792842,38.33944020792842,38.33133233294357,38.33944020792842,38.33944020792842,43.59961699997075,38.33944020792842,43.59961699997075,43.58308170794044,44.51969383296091,38.33944020792842,2,1,1.6294268330093473,,reldom2_s033,001,2025-03-12_16h23.43.921,practice_test1_AC,2022.2.5,None,
0,0.0,None,fixation,stimulus/viswhere_stim/blank_white.png,stimulus/viswhere_stim/blank_white.png,stimulus/audwhere_stim/blank_white.png,stimulus/audwhere_stim/blank_white.png,stimulus/viswhere_stim/blank_white.png,stimulus/viswhere_stim/blank_white.png,stimulus/viswhere_stim/blank_white.png,stimulus/viswhere_stim/blank_white.png,0.0,0.0,0.0,0.0,0,0.0,0,0.0,0,0.0,0,0.0,0,0.0,0.0,0,0.0,0,0.0,0,0.0,0,0.0,0,0.0,0,0.0,0,0.0,0,0.0,5,,,,,0,5,5,5,,,,,44.51969383296091,44.51969383296091,44.51969383296091,44.51969383296091,44.51969383296091,44.51969383296091,44.51969383296091,44.51969383296091,44.41454495834963,44.51969383296091,44.51969383296091,44.51969383296091,44.41454495834963,44.51969383296091,44.51969383296091,44.51969383296091,44.51969383296091,44.51969383296091,44.51969383296091,44.51969383296091,44.51969383296091,44.51969383296091,44.51969383296091,44.51969383296091,44.51969383296091,44.51969383296091,44.51969383296091,44.46454495834963,44.51969383296091,44.51969383296091,44.51969383296091,44.46454495834963,44.51969383296091,44.51969383296091,44.51969383296091,44.51969383296091,44.51969383296091,49.76921683293767,49.76921683293767,49.59084487496875,None,0,,,reldom2_s033,001,2025-03-12_16h23.43.921,practice_test1_AC,2022.2.5,None,
5,Second_Order,1.0,viswhere,stimulus/viswhere_stim/150-deg_dot-right_slateblue.png,stimulus/viswhere_stim/150-deg_dot-left_turquoise.png,stimulus/viswhere_stim/90-deg_dot-left_mediumslateblue.png,stimulus/viswhere_stim/90-deg_dot-right_peru.png,stimulus/viswhere_stim/match_blank.png,stimulus/viswhere_stim/match_box.png,stimulus/viswhere_stim/match_yes.png,stimulus/viswhere_stim/match_no.png,1.0,Match,Line,Line,1,5.25,0,5.25,0,5.25,0,5.25,0,0.75,0.75,1,0.5,1,2.125,1,0.5,1,2.125,0,0.0,0,0.0,0,0.0,0,0.0,0,,,,,0,6,6,6,,,,,49.76921683293767,55.01659291703254,50.24611199996434,51.23390879202634,51.87064304202795,52.861204999964684,49.76921683293767,49.76921683293767,49.78006683328034,49.76921683293767,49.76921683293767,49.76921683293767,49.78006683328034,49.76921683293767,55.01659291703254,55.81844529195223,57.89457395800855,61.764509374974295,55.81844529195223,55.81844529195223,61.06899579195306,56.27580295794178,57.299526207963936,57.89457395800855,58.90456487494521,55.81844529195223,55.81844529195223,55.802257833024484,55.81844529195223,55.81844529195223,55.81844529195223,55.802257833024484,55.81844529195223,55.81844529195223,61.06899579195306,55.81844529195223,61.06899579195306,61.029568542027846,61.80527675000485,55.81844529195223,1,1,1.974308667005971,,reldom2_s033,001,2025-03-12_16h23.43.921,practice_test1_AC,2022.2.5,None,
6,Second_Order,1.0,viswhere,stimulus/viswhere_stim/150-deg_dot-right_mediumslateblue.png,stimulus/viswhere_stim/30-deg_dot-right_salmon.png,stimulus/viswhere_stim/120-deg_dot-right_royalblue.png,stimulus/viswhere_stim/120-deg_dot-left_salmon.png,stimulus/viswhere_stim/match_blank.png,stimulus/viswhere_stim/match_box.png,stimulus/viswhere_stim/match_yes.png,stimulus/viswhere_stim/match_no.png,2.0,Match,Dot,Line,2,5.25,0,5.25,0,5.25,0,5.25,0,0.75,0.75,1,0.5,1,2.125,1,0.5,1,2.125,0,0.0,0,0.0,0,0.0,0,0.0,0,,,,,0,7,7,7,,,,,61.80527675000485,67.05444916698616,62.28867095801979,63.28485937498044,63.91124562500045,64.90267208300065,61.80527675000485,61.80527675000485,61.81450937497429,61.80527675000485,61.80527675000485,61.80527675000485,61.81450937497429,61.80527675000485,67.05444916698616,67.86028920800891,69.94323808304034,73.79790095798671,67.86028920800891,67.86028920800891,73.11824804195203,68.31467191700358,69.3360323329689,69.94323808304034,70.96723733295221,67.86028920800891,67.86028920800891,67.82976658328747,67.86028920800891,67.86028920800891,67.86028920800891,67.82976658328747,67.86028920800891,67.86028920800891,73.11824804195203,67.86028920800891,73.11824804195203,73.05592291697394,73.98972787498496,67.86028920800891,2,1,1.7564816669328138,,reldom2_s033,001,2025-03-12_16h23.43.921,practice_test1_AC,2022.2.5,None,
0,0.0,None,fixation,stimulus/viswhere_stim/blank_white.png,stimulus/viswhere_stim/blank_white.png,stimulus/audwhere_stim/blank_white.png,stimulus/audwhere_stim/blank_white.png,stimulus/viswhere_stim/blank_white.png,stimulus/viswhere_stim/blank_white.png,stimulus/viswhere_stim/blank_white.png,stimulus/viswhere_stim/blank_white.png,0.0,0.0,0.0,0.0,0,0.0,0,0.0,0,0.0,0,0.0,0,0.0,0.0,0,0.0,0,0.0,0,0.0,0,0.0,0,0.0,0,0.0,0,0.0,0,0.0,7,,,,,0,8,8,8,,,,,73.98972787498496,73.98972787498496,73.98972787498496,73.98972787498496,73.98972787498496,73.98972787498496,73.98972787498496,73.98972787498496,73.88123429132004,73.98972787498496,73.98972787498496,73.98972787498496,73.88123429132004,73.98972787498496,73.98972787498496,73.98972787498496,73.98972787498496,73.98972787498496,73.98972787498496,73.98972787498496,73.98972787498496,73.98972787498496,73.98972787498496,73.98972787498496,73.98972787498496,73.98972787498496,73.98972787498496,73.94790095798672,73.98972787498496,73.98972787498496,73.98972787498496,73.94790095798672,73.98972787498496,73.98972787498496,73.98972787498496,73.98972787498496,73.98972787498496,79.1789946249919,79.1789946249919,81.22412745794281,None,0,,,reldom2_s033,001,2025-03-12_16h23.43.921,practice_test1_AC,2022.2.5,None,
7,First_Order,2.0,audwhere,stimulus/audwhere_stim/dummy.wav,stimulus/audwhere_stim/dummy.wav,stimulus/audwhere_stim/left_toward_270h.wav,stimulus/audwhere_stim/right_toward_270h.wav,stimulus/audwhere_stim/blank_white.png,stimulus/audwhere_stim/direction_box.png,stimulus/audwhere_stim/direction_yes.png,stimulus/audwhere_stim/direction_no.png,None,Direction,None,Direction,1,0.0,0,5.25,0,5.25,0,5.25,0,0.0,0.75,0,0.0,0,0.0,0,0.0,0,0.0,0,0.0,0,0.0,1,0.5,1,2.125,0,,,,,0,9,9,9,,,,,81.22412745794281,81.22412745794281,81.22412745794281,81.22412745794281,81.22412745794281,81.22412745794281,81.22412745794281,81.22412745794281,81.14226883362669,81.22412745794281,81.22412745794281,81.22412745794281,81.14226883362669,81.22412745794281,81.22412745794281,81.22412745794281,83.32119554199744,87.16581870801747,81.22412745794281,81.22412745794281,86.50812091701664,81.22412745794281,81.22412745794281,81.22412745794281,81.22412745794281,81.67454545793589,82.72269366693217,81.64097924967452,82.67279237497132,83.32119554199744,84.37059020798188,83.2879424166788,84.32040204200894,81.22412745794281,86.50812091701664,81.22412745794281,86.50812091701664,86.46435999998357,87.43046991701704,81.22412745794281,None,0,,,reldom2_s033,001,2025-03-12_16h23.43.921,practice_test1_AC,2022.2.5,None,
8,First_Order,2.0,audwhere,stimulus/audwhere_stim/dummy.wav,stimulus/audwhere_stim/dummy.wav,stimulus/audwhere_stim/right_away_280h.wav,stimulus/audwhere_stim/right_toward_290h.wav,stimulus/audwhere_stim/blank_white.png,stimulus/audwhere_stim/side_box.png,stimulus/audwhere_stim/side_yes.png,stimulus/audwhere_stim/side_no.png,None,Side,None,Side,1,0.0,0,5.25,0,5.25,0,5.25,0,0.0,0.75,0,0.0,0,0.0,0,0.0,0,0.0,0,0.0,0,0.0,1,0.5,1,2.125,0,,,,,0,10,10,10,,,,,87.43046991701704,87.43046991701704,87.43046991701704,87.43046991701704,87.43046991701704,87.43046991701704,87.43046991701704,87.43046991701704,87.34306625035435,87.43046991701704,87.43046991701704,87.43046991701704,87.34306625035435,87.43046991701704,87.43046991701704,87.43046991701704,89.53001512493938,93.40920687501784,87.43046991701704,87.43046991701704,92.70763724995777,87.43046991701704,87.43046991701704,87.43046991701704,87.43046991701704,87.8803687079344,88.93006725003943,87.84708120866368,88.8797188749304,89.53001512493938,90.56620004202705,89.49661466660133,,87.43046991701704,92.70763724995777,87.43046991701704,92.70763724995777,92.66441245796159,93.62859820795711,87.43046991701704,1,1,1.7943487090524286,,reldom2_s033,001,2025-03-12_16h23.43.921,practice_test1_AC,2022.2.5,None,
9,First_Order,2.0,audwhere,stimulus/audwhere_stim/dummy.wav,stimulus/audwhere_stim/dummy.wav,stimulus/audwhere_stim/right_away_270h.wav,stimulus/audwhere_stim/right_toward_300h.wav,stimulus/audwhere_stim/blank_white.png,stimulus/audwhere_stim/side_box.png,stimulus/audwhere_stim/side_yes.png,stimulus/audwhere_stim/side_no.png,None,Side,None,Side,1,0.0,0,5.25,0,5.25,0,5.25,0,0.0,0.75,0,0.0,0,0.0,0,0.0,0,0.0,0,0.0,0,0.0,1,0.5,1,2.125,0,,,,,0,11,11,11,,,,,93.62859820795711,93.62859820795711,93.62859820795711,93.62859820795711,93.62859820795711,93.62859820795711,93.62859820795711,93.62859820795711,93.54254020835117,93.62859820795711,93.62859820795711,93.62859820795711,93.54254020835117,93.62859820795711,93.62859820795711,93.62859820795711,95.73019058303908,99.5788887499366,93.62859820795711,93.62859820795711,98.92506537493318,93.62859820795711,93.62859820795711,93.62859820795711,93.62859820795711,94.08013095799834,95.12959708296694,94.04642129160153,95.07987849996425,95.73019058303908,96.78031758300494,95.6967436246962,,93.62859820795711,98.92506537493318,93.62859820795711,98.92506537493318,98.83093683293555,99.79692824999802,93.62859820795711,1,1,1.352116834023036,,reldom2_s033,001,2025-03-12_16h23.43.921,practice_test1_AC,2022.2.5,None,
10,First_Order,2.0,audwhere,stimulus/audwhere_stim/dummy.wav,stimulus/audwhere_stim/dummy.wav,stimulus/audwhere_stim/right_toward_300h.wav,stimulus/audwhere_stim/right_away_290h.wav,stimulus/audwhere_stim/blank_white.png,stimulus/audwhere_stim/direction_box.png,stimulus/audwhere_stim/direction_yes.png,stimulus/audwhere_stim/direction_no.png,None,Direction,None,Side,2,0.0,0,5.25,0,5.25,0,5.25,0,0.0,0.75,0,0.0,0,0.0,0,0.0,0,0.0,0,0.0,0,0.0,1,0.5,1,2.125,0,,,,,0,12,12,12,,,,,99.79692824999802,99.79692824999802,99.79692824999802,99.79692824999802,99.79692824999802,99.79692824999802,99.79692824999802,99.79692824999802,99.71222208326992,99.79692824999802,99.79692824999802,99.79692824999802,99.71222208326992,99.79692824999802,99.79692824999802,99.79692824999802,101.89874137495644,105.77557112497743,99.79692824999802,99.79692824999802,105.11679870798253,99.79692824999802,99.79692824999802,99.79692824999802,99.79692824999802,100.24755379196722,101.29859520797618,100.2142808336687,101.24764729198068,101.89874137495644,102.96407645801082,101.865232333603,,99.79692824999802,105.11679870798253,99.79692824999802,105.11679870798253,105.02228529204149,106.01551954203751,99.79692824999802,2,1,1.4067328760866076,,reldom2_s033,001,2025-03-12_16h23.43.921,practice_test1_AC,2022.2.5,None,
0,0.0,None,fixation,stimulus/viswhere_stim/blank_white.png,stimulus/viswhere_stim/blank_white.png,stimulus/audwhere_stim/blank_white.png,stimulus/audwhere_stim/blank_white.png,stimulus/viswhere_stim/blank_white.png,stimulus/viswhere_stim/blank_white.png,stimulus/viswhere_stim/blank_white.png,stimulus/viswhere_stim/blank_white.png,0.0,0.0,0.0,0.0,0,0.0,0,0.0,0,0.0,0,0.0,0,0.0,0.0,0,0.0,0,0.0,0,0.0,0,0.0,0,0.0,0,0.0,0,0.0,0,0.0,5,,,,,0,13,13,13,,,,,106.01551954203751,106.01551954203751,106.01551954203751,106.01551954203751,106.01551954203751,106.01551954203751,106.01551954203751,106.01551954203751,105.90890445831076,106.01551954203751,106.01551954203751,106.01551954203751,105.90890445831076,106.01551954203751,106.01551954203751,106.01551954203751,106.01551954203751,106.01551954203751,106.01551954203751,106.01551954203751,106.01551954203751,106.01551954203751,106.01551954203751,106.01551954203751,106.01551954203751,106.01551954203751,106.01551954203751,105.95890445831077,106.01551954203751,106.01551954203751,106.01551954203751,105.95890445831077,106.01551954203751,106.01551954203751,106.01551954203751,106.01551954203751,106.01551954203751,111.31342391693033,111.31342391693033,111.10644937492907,None,0,,,reldom2_s033,001,2025-03-12_16h23.43.921,practice_test1_AC,2022.2.5,None,
11,Second_Order,2.0,audwhere,stimulus/audwhere_stim/right_toward_270h.wav,stimulus/audwhere_stim/left_toward_290h.wav,stimulus/audwhere_stim/left_away_270h.wav,stimulus/audwhere_stim/left_toward_290h.wav,stimulus/viswhere_stim/match_blank.png,stimulus/viswhere_stim/match_box.png,stimulus/viswhere_stim/match_yes.png,stimulus/viswhere_stim/match_no.png,2.0,Match,Direction,Side,2,5.25,0,5.25,0,5.25,0,5.25,0,0.75,0.75,0,0.0,0,0.0,0,0.0,0,0.0,1,0.5,1,2.125,1,0.5,1,2.125,0,,,,,0,14,14,14,,,,,111.31342391693033,116.55482449999545,111.31342391693033,111.31342391693033,111.31342391693033,111.31342391693033,111.76257141702808,112.75308312498964,111.76691187470375,,113.3873180829687,114.37799033301417,113.39605287468682,,116.55482449999545,117.42624770803377,119.48060287500266,123.33923158294056,117.42624770803377,117.42624770803377,122.72462870797608,117.42624770803377,117.42624770803377,117.42624770803377,117.42624770803377,117.86897345795296,118.93069054197986,117.83608729165668,,119.48060287500266,120.53073862497695,119.44692133361629,,117.42624770803377,122.72462870797608,117.42624770803377,122.72462870797608,122.58109308301937,123.46363124996424,117.42624770803377,2,1,1.8257820010185242,,reldom2_s033,001,2025-03-12_16h23.43.921,practice_test1_AC,2022.2.5,None,
12,Second_Order,2.0,audwhere,stimulus/audwhere_stim/left_toward_270h.wav,stimulus/audwhere_stim/right_toward_300h.wav,stimulus/audwhere_stim/right_toward_300h.wav,stimulus/audwhere_stim/right_away_270h.wav,stimulus/viswhere_stim/match_blank.png,stimulus/viswhere_stim/match_box.png,stimulus/viswhere_stim/match_yes.png,stimulus/viswhere_stim/match_no.png,2.0,Match,Direction,Side,2,5.25,0,5.25,0,5.25,0,5.25,0,0.75,0.75,0,0.0,0,0.0,0,0.0,0,0.0,1,0.5,1,2.125,1,0.5,1,2.125,0,,,,,0,15,15,15,,,,,123.46363124996424,128.71194679196924,123.46363124996424,123.46363124996424,123.46363124996424,123.46363124996424,123.91309766704217,124.90314870793372,123.91811649961552,,125.53511549998075,126.52823191694915,125.54559874959911,126.53521466697566,128.71194679196924,129.5719942919677,131.61341066693421,135.4801630829461,129.5719942919677,129.5719942919677,134.8666867079446,129.5719942919677,129.5719942919677,129.5719942919677,129.5719942919677,130.02027824998368,131.06316854199395,129.98701508361071,,131.61341066693421,132.66361233300995,131.5800658336996,,129.5719942919677,134.8666867079446,129.5719942919677,134.8666867079446,134.77276579197496,135.7652012920007,129.5719942919677,2,1,1.6261831669835374,,reldom2_s033,001,2025-03-12_16h23.43.921,practice_test1_AC,2022.2.5,None,
0,0.0,None,fixation,stimulus/viswhere_stim/blank_white.png,stimulus/viswhere_stim/blank_white.png,stimulus/audwhere_stim/blank_white.png,stimulus/audwhere_stim/blank_white.png,stimulus/viswhere_stim/blank_white.png,stimulus/viswhere_stim/blank_white.png,stimulus/viswhere_stim/blank_white.png,stimulus/viswhere_stim/blank_white.png,0.0,0.0,0.0,0.0,0,0.0,0,0.0,0,0.0,0,0.0,0,0.0,0.0,0,0.0,0,0.0,0,0.0,0,0.0,0,0.0,0,0.0,0,0.0,0,0.0,5,,,,,0,16,16,16,,,,,135.7652012920007,135.7652012920007,135.7652012920007,135.7652012920007,135.7652012920007,135.7652012920007,135.7652012920007,135.7652012920007,135.6735446250299,135.7652012920007,135.7652012920007,135.7652012920007,135.6735446250299,135.7652012920007,135.7652012920007,135.7652012920007,135.7652012920007,135.7652012920007,135.7652012920007,135.7652012920007,135.7652012920007,135.7652012920007,135.7652012920007,135.7652012920007,135.7652012920007,135.7652012920007,135.7652012920007,135.72354462502992,135.7652012920007,135.7652012920007,135.7652012920007,135.72354462502992,135.7652012920007,135.7652012920007,135.7652012920007,135.7652012920007,135.7652012920007,141.1426646669861,141.1426646669861,140.82041554199532,None,0,,,reldom2_s033,001,2025-03-12_16h23.43.921,practice_test1_AC,2022.2.5,None,
13,First_Order,3.0,viswhat,stimulus/viswhat_stim/blank_white.png,stimulus/viswhat_stim/blank_white.png,stimulus/viswhat_stim/land_animal-ostrich.png,stimulus/viswhat_stim/land_vehicle-trolley.png,stimulus/viswhat_stim/blank_white.png,stimulus/viswhat_stim/location_box.png,stimulus/viswhat_stim/location_yes.png,stimulus/viswhat_stim/location_no.png,None,Location,None,Location,1,0.0,0,5.25,0,5.25,0,5.25,0,0.0,0.75,0,0.0,0,0.0,1,0.5,1,2.125,0,0.0,0,0.0,0,0.0,0,0.0,0,,,,,0,17,17,17,,,,,141.1426646669861,141.1426646669861,141.1426646669861,141.1426646669861,141.1426646669861,141.1426646669861,141.1426646669861,141.1426646669861,141.10603941666585,141.1426646669861,141.1426646669861,141.1426646669861,141.10603941666585,141.1426646669861,141.1426646669861,141.1426646669861,143.25709579198156,147.10646308294963,141.1426646669861,141.1426646669861,146.4223127500154,141.61909575003665,142.64761608303525,143.25709579198156,144.29043270798866,141.1426646669861,141.1426646669861,141.1227060833325,141.1426646669861,141.1426646669861,141.1426646669861,141.1227060833325,141.1426646669861,141.1426646669861,146.4223127500154,141.1426646669861,146.4223127500154,146.37322954193223,147.32749275001697,141.1426646669861,1,1,1.512953000026755,,reldom2_s033,001,2025-03-12_16h23.43.921,practice_test1_AC,2022.2.5,None,
14,First_Order,3.0,viswhat,stimulus/viswhat_stim/blank_white.png,stimulus/viswhat_stim/blank_white.png,stimulus/viswhat_stim/water_vehicle-cruiser.png,stimulus/viswhat_stim/water_animal-stingray.png,stimulus/viswhat_stim/blank_white.png,stimulus/viswhat_stim/location_box.png,stimulus/viswhat_stim/location_yes.png,stimulus/viswhat_stim/location_no.png,None,Location,None,Location,1,0.0,0,5.25,0,5.25,0,5.25,0,0.0,0.75,0,0.0,0,0.0,1,0.5,1,2.125,0,0.0,0,0.0,0,0.0,0,0.0,0,,,,,0,18,18,18,,,,,147.32749275001697,147.32749275001697,147.32749275001697,147.32749275001697,147.32749275001697,147.32749275001697,147.32749275001697,147.32749275001697,147.20646308294965,147.32749275001697,147.32749275001697,147.32749275001697,147.20646308294965,147.32749275001697,147.32749275001697,147.32749275001697,149.431731791934,153.29157145798672,147.32749275001697,147.32749275001697,152.67930483294185,147.80382612498943,148.89135262498166,149.431731791934,150.51731429202482,147.32749275001697,147.32749275001697,147.25646308294964,147.32749275001697,147.32749275001697,147.32749275001697,147.25646308294964,147.32749275001697,147.32749275001697,152.67930483294185,147.32749275001697,152.67930483294185,152.54949466697872,153.51770304201636,147.32749275001697,1,1,0.823623375967145,,reldom2_s033,001,2025-03-12_16h23.43.921,practice_test1_AC,2022.2.5,None,
15,First_Order,3.0,viswhat,stimulus/viswhat_stim/blank_white.png,stimulus/viswhat_stim/blank_white.png,stimulus/viswhat_stim/water_vehicle-cargoboat.png,stimulus/viswhat_stim/water_animal-squid.png,stimulus/viswhat_stim/blank_white.png,stimulus/viswhat_stim/type_box.png,stimulus/viswhat_stim/type_yes.png,stimulus/viswhat_stim/type_no.png,None,Type,None,Location,2,0.0,0,5.25,0,5.25,0,5.25,0,0.0,0.75,0,0.0,0,0.0,1,0.5,1,2.125,0,0.0,0,0.0,0,0.0,0,0.0,0,,,,,0,19,19,19,,,,,153.51770304201636,153.51770304201636,153.51770304201636,153.51770304201636,153.51770304201636,153.51770304201636,153.51770304201636,153.51770304201636,153.4582381246534,153.51770304201636,153.51770304201636,153.51770304201636,153.4582381246534,153.51770304201636,153.51770304201636,153.51770304201636,155.62839829199947,159.48570429196116,153.51770304201636,153.51770304201636,158.8094342079712,154.00183987501077,155.04072487493977,155.62839829199947,156.67219512502197,153.51770304201636,153.51770304201636,153.49157145798674,153.51770304201636,153.51770304201636,153.51770304201636,153.49157145798674,153.51770304201636,153.51770304201636,158.8094342079712,153.51770304201636,158.8094342079712,158.745713124983,159.64817720802967,153.51770304201636,2,1,0.5692979580489919,,reldom2_s033,001,2025-03-12_16h23.43.921,practice_test1_AC,2022.2.5,None,
16,First_Order,3.0,viswhat,stimulus/viswhat_stim/blank_white.png,stimulus/viswhat_stim/blank_white.png,stimulus/viswhat_stim/water_vehicle-ferryboat.png,stimulus/viswhat_stim/water_animal-seaturtle.png,stimulus/viswhat_stim/blank_white.png,stimulus/viswhat_stim/type_box.png,stimulus/viswhat_stim/type_yes.png,stimulus/viswhat_stim/type_no.png,None,Type,None,Location,2,0.0,0,5.25,0,5.25,0,5.25,0,0.0,0.75,0,0.0,0,0.0,1,0.5,1,2.125,0,0.0,0,0.0,0,0.0,0,0.0,0,,,,,0,20,20,20,,,,,159.64817720802967,159.64817720802967,159.64817720802967,159.64817720802967,159.64817720802967,159.64817720802967,159.64817720802967,159.64817720802967,159.58570429196118,159.64817720802967,159.64817720802967,159.64817720802967,159.58570429196118,159.64817720802967,159.64817720802967,159.64817720802967,161.75178316701204,165.60128337494098,159.64817720802967,159.64817720802967,164.94530991697684,160.13492104201578,161.18925937497988,161.75178316701204,162.7731121670222,159.64817720802967,159.64817720802967,159.6190376252945,159.64817720802967,159.64817720802967,159.64817720802967,159.6190376252945,159.64817720802967,159.64817720802967,164.94530991697684,159.64817720802967,164.94530991697684,164.87672983296216,165.85035441699438,159.64817720802967,2,1,0.7547706260811538,,reldom2_s033,001,2025-03-12_16h23.43.921,practice_test1_AC,2022.2.5,None,
0,0.0,None,fixation,stimulus/viswhat_stim/blank_white.png,stimulus/viswhat_stim/blank_white.png,stimulus/audwhat_stim/blank_white.png,stimulus/audwhat_stim/blank_white.png,stimulus/viswhat_stim/blank_white.png,stimulus/viswhat_stim/blank_white.png,stimulus/viswhere_stim/blank_white.png,stimulus/viswhere_stim/blank_white.png,0.0,0.0,0.0,0.0,0,0.0,0,0.0,0,0.0,0,0.0,0,0.0,0.0,0,0.0,0,0.0,0,0.0,0,0.0,0,0.0,0,0.0,0,0.0,0,0.0,5,,,,,0,21,21,21,,,,,165.85035441699438,165.85035441699438,165.85035441699438,165.85035441699438,165.85035441699438,165.85035441699438,165.85035441699438,165.85035441699438,165.7495104996177,165.85035441699438,165.85035441699438,165.85035441699438,165.7495104996177,165.85035441699438,165.85035441699438,165.85035441699438,165.85035441699438,165.85035441699438,165.85035441699438,165.85035441699438,165.85035441699438,165.85035441699438,165.85035441699438,165.85035441699438,165.85035441699438,165.85035441699438,165.85035441699438,165.79951049961772,165.85035441699438,165.85035441699438,165.85035441699438,165.79951049961772,165.85035441699438,165.85035441699438,165.85035441699438,165.85035441699438,165.85035441699438,171.104751167004,171.104751167004,170.91316804196686,None,0,,,reldom2_s033,001,2025-03-12_16h23.43.921,practice_test1_AC,2022.2.5,None,
17,Second_Order,3.0,viswhat,stimulus/viswhat_stim/land_vehicle-motorcycle.png,stimulus/viswhat_stim/land_animal-dog.png,stimulus/viswhat_stim/water_animal-seahorse.png,stimulus/viswhat_stim/water_vehicle-cargoboat.png,stimulus/viswhere_stim/match_blank.png,stimulus/viswhere_stim/match_box.png,stimulus/viswhere_stim/match_yes.png,stimulus/viswhere_stim/match_no.png,1.0,Match,Location,Location,1,5.25,0,5.25,0,5.25,0,5.25,0,0.75,0.75,1,0.5,1,2.125,1,0.5,1,2.125,0,0.0,0,0.0,0,0.0,0,0.0,0,,,,,0,22,22,22,,,,,171.104751167004,176.35355679201894,171.56971262500156,172.56126320792828,173.19463816704229,174.18455754197203,171.104751167004,171.104751167004,171.10288158329982,171.104751167004,171.104751167004,171.104751167004,171.10288158329982,171.104751167004,176.35355679201894,177.16525324992836,179.22800433298107,183.0962987500243,177.16525324992836,177.16525324992836,182.43405741697643,177.61091854202095,178.62116408301517,179.22800433298107,180.2450494170189,177.16525324992836,177.16525324992836,177.13642612502446,177.16525324992836,177.16525324992836,177.16525324992836,177.13642612502446,177.16525324992836,177.16525324992836,182.43405741697643,177.16525324992836,182.43405741697643,182.36090279195923,183.15701583295595,177.16525324992836,1,1,0.8019815000006929,,reldom2_s033,001,2025-03-12_16h23.43.921,practice_test1_AC,2022.2.5,None,
18,Second_Order,3.0,viswhat,stimulus/viswhat_stim/water_animal-squid.png,stimulus/viswhat_stim/land_animal-snake.png,stimulus/viswhat_stim/land_animal-fox.png,stimulus/viswhat_stim/land_vehicle-oldcar.png,stimulus/viswhere_stim/match_blank.png,stimulus/viswhere_stim/match_box.png,stimulus/viswhere_stim/match_yes.png,stimulus/viswhere_stim/match_no.png,2.0,Match,Type,Location,2,5.25,0,5.25,0,5.25,0,5.25,0,0.75,0.75,1,0.5,1,2.125,1,0.5,1,2.125,0,0.0,0,0.0,0,0.0,0,0.0,0,,,,,0,23,23,23,,,,,183.15701583295595,188.40161341696512,183.62038812495302,184.61697866697796,185.25412583292928,186.25302674993873,183.15701583295595,183.15701583295595,183.16296541669098,183.15701583295595,183.15701583295595,183.15701583295595,183.16296541669098,183.15701583295595,188.40161341696512,189.25158462498803,191.3215997919906,195.185830041999,189.25158462498803,189.25158462498803,194.5256266669603,189.70392983302008,190.73953662498388,191.3215997919906,192.3614852919709,189.25158462498803,189.25158462498803,189.2183767912987,189.25158462498803,189.25158462498803,189.25158462498803,189.2183767912987,189.25158462498803,189.25158462498803,194.5256266669603,189.25158462498803,194.5256266669603,194.4421085829381,195.42242016701493,189.25158462498803,2,1,1.9842021249933168,,reldom2_s033,001,2025-03-12_16h23.43.921,practice_test1_AC,2022.2.5,None,
0,0.0,None,fixation,stimulus/viswhat_stim/blank_white.png,stimulus/viswhat_stim/blank_white.png,stimulus/audwhat_stim/blank_white.png,stimulus/audwhat_stim/blank_white.png,stimulus/viswhat_stim/blank_white.png,stimulus/viswhat_stim/blank_white.png,stimulus/viswhere_stim/blank_white.png,stimulus/viswhere_stim/blank_white.png,0.0,0.0,0.0,0.0,0,0.0,0,0.0,0,0.0,0,0.0,0,0.0,0.0,0,0.0,0,0.0,0,0.0,0,0.0,0,0.0,0,0.0,0,0.0,0,0.0,6,,,,,0,24,24,24,,,,,195.42242016701493,195.42242016701493,195.42242016701493,195.42242016701493,195.42242016701493,195.42242016701493,195.42242016701493,195.42242016701493,195.31916337533235,195.42242016701493,195.42242016701493,195.42242016701493,195.31916337533235,195.42242016701493,195.42242016701493,195.42242016701493,195.42242016701493,195.42242016701493,195.42242016701493,195.42242016701493,195.42242016701493,195.42242016701493,195.42242016701493,195.42242016701493,195.42242016701493,195.42242016701493,195.42242016701493,195.36916337533233,195.42242016701493,195.42242016701493,195.42242016701493,195.36916337533233,195.42242016701493,195.42242016701493,195.42242016701493,195.42242016701493,195.42242016701493,200.6042448329972,200.6042448329972,201.66775270795915,None,0,,,reldom2_s033,001,2025-03-12_16h23.43.921,practice_test1_AC,2022.2.5,None,
19,First_Order,4.0,audwhat,stimulus/audwhat_stim/dummy.wav,stimulus/audwhat_stim/dummy.wav,stimulus/audwhat_stim/percussion xylophone_high-pitch_D_loud.wav,stimulus/audwhat_stim/string viola_high-pitch_D_loud.wav,stimulus/audwhat_stim/blank_white.png,stimulus/audwhat_stim/pitch_box.png,stimulus/audwhat_stim/pitch_yes.png,stimulus/audwhat_stim/pitch_no.png,None,Pitch,None,Pitch,1,0.0,0,5.25,0,5.25,0,5.25,0,0.0,0.75,0,0.0,0,0.0,0,0.0,0,0.0,0,0.0,0,0.0,1,0.5,1,2.125,0,,,,,0,25,25,25,,,,,201.66775270795915,201.66775270795915,201.66775270795915,201.66775270795915,201.66775270795915,201.66775270795915,201.66775270795915,201.66775270795915,201.58326924968668,201.66775270795915,201.66775270795915,201.66775270795915,201.58326924968668,201.66775270795915,201.66775270795915,201.66775270795915,203.77145695802756,207.6294479999924,201.66775270795915,201.66775270795915,206.96771608293056,201.66775270795915,201.66775270795915,201.66775270795915,201.66775270795915,202.11901741696056,203.17125766701065,202.08575304161448,203.1205549170263,203.77145695802756,204.82319595804438,203.73813008360256,,201.66775270795915,206.96771608293056,201.66775270795915,206.96771608293056,206.87401820800733,207.84882745798677,201.66775270795915,1,1,1.3039908340433612,,reldom2_s033,001,2025-03-12_16h23.43.921,practice_test1_AC,2022.2.5,None,
20,First_Order,4.0,audwhat,stimulus/audwhat_stim/dummy.wav,stimulus/audwhat_stim/dummy.wav,stimulus/audwhat_stim/string cello_high-pitch_Ftri_loud.wav,stimulus/audwhat_stim/string viola_low-pitch_F_loud.wav,stimulus/audwhat_stim/blank_white.png,stimulus/audwhat_stim/pitch_box.png,stimulus/audwhat_stim/pitch_yes.png,stimulus/audwhat_stim/pitch_no.png,None,Pitch,None,Category,2,0.0,0,5.25,0,5.25,0,5.25,0,0.0,0.75,0,0.0,0,0.0,0,0.0,0,0.0,0,0.0,0,0.0,1,0.5,1,2.125,0,,,,,0,26,26,26,,,,,207.84882745798677,207.84882745798677,207.84882745798677,207.84882745798677,207.84882745798677,207.84882745798677,207.84882745798677,207.84882745798677,207.76278133332576,207.84882745798677,207.84882745798677,207.84882745798677,207.76278133332576,207.84882745798677,207.84882745798677,207.84882745798677,209.94682345795445,213.80713845801074,207.84882745798677,207.84882745798677,213.14966975001153,207.84882745798677,207.84882745798677,207.84882745798677,207.84882745798677,208.2981736669317,209.3471036249539,208.26519424963433,,209.94682345795445,211.003409332945,209.91367241664946,,207.84882745798677,213.14966975001153,207.84882745798677,213.14966975001153,213.0553032499738,214.02459758298937,207.84882745798677,2,1,0.8568393749883398,,reldom2_s033,001,2025-03-12_16h23.43.921,practice_test1_AC,2022.2.5,None,
21,First_Order,4.0,audwhat,stimulus/audwhat_stim/dummy.wav,stimulus/audwhat_stim/dummy.wav,stimulus/audwhat_stim/string viola_high-pitch_D_loud.wav,stimulus/audwhat_stim/percussion xylophone_high-pitch_D_loud.wav,stimulus/audwhat_stim/blank_white.png,stimulus/audwhat_stim/pitch_box.png,stimulus/audwhat_stim/pitch_yes.png,stimulus/audwhat_stim/pitch_no.png,None,Pitch,None,Pitch,1,0.0,0,5.25,0,5.25,0,5.25,0,0.0,0.75,0,0.0,0,0.0,0,0.0,0,0.0,0,0.0,0,0.0,1,0.5,1,2.125,0,,,,,0,27,27,27,,,,,214.02459758298937,214.02459758298937,214.02459758298937,214.02459758298937,214.02459758298937,214.02459758298937,214.02459758298937,214.02459758298937,213.9404717913441,214.02459758298937,214.02459758298937,214.02459758298937,213.9404717913441,214.02459758298937,214.02459758298937,214.02459758298937,216.105385791976,219.9656261249911,214.02459758298937,214.02459758298937,219.34656062501017,214.02459758298937,214.02459758298937,214.02459758298937,214.02459758298937,214.4933459169697,215.55615800002124,214.45983095869113,,216.105385791976,217.18542875000276,216.07174074970342,217.13472954195458,214.02459758298937,219.34656062501017,214.02459758298937,219.34656062501017,219.25229125004262,220.2318317500176,214.02459758298937,1,1,0.8935678330017254,,reldom2_s033,001,2025-03-12_16h23.43.921,practice_test1_AC,2022.2.5,None,
22,First_Order,4.0,audwhat,stimulus/audwhat_stim/dummy.wav,stimulus/audwhat_stim/dummy.wav,stimulus/audwhat_stim/string cello_low-pitch_F_loud.wav,stimulus/audwhat_stim/string viola_high-pitch_Ftri_loud.wav,stimulus/audwhat_stim/blank_white.png,stimulus/audwhat_stim/category_box.png,stimulus/audwhat_stim/category_yes.png,stimulus/audwhat_stim/category_no.png,None,Category,None,Category,1,0.0,0,5.25,0,5.25,0,5.25,0,0.0,0.75,0,0.0,0,0.0,0,0.0,0,0.0,0,0.0,0,0.0,1,0.5,1,2.125,0,,,,,0,28,28,28,,,,,220.2318317500176,220.2318317500176,220.2318317500176,220.2318317500176,220.2318317500176,220.2318317500176,220.2318317500176,220.2318317500176,220.14357970832694,220.2318317500176,220.2318317500176,220.2318317500176,220.14357970832694,220.2318317500176,220.2318317500176,220.2318317500176,222.3416981670307,226.18590375001077,220.2318317500176,220.2318317500176,225.52633687492926,220.2318317500176,220.2318317500176,220.2318317500176,220.2318317500176,220.68513833300676,221.73864854197018,220.65164379164733,,222.3416981670307,223.4091412499547,222.3077379996578,,220.2318317500176,225.52633687492926,220.2318317500176,225.52633687492926,225.43202129204292,226.4230818329379,220.2318317500176,1,1,1.2936643339926377,,reldom2_s033,001,2025-03-12_16h23.43.921,practice_test1_AC,2022.2.5,None,
0,0.0,None,fixation,stimulus/viswhat_stim/blank_white.png,stimulus/viswhat_stim/blank_white.png,stimulus/audwhat_stim/blank_white.png,stimulus/audwhat_stim/blank_white.png,stimulus/viswhat_stim/blank_white.png,stimulus/viswhat_stim/blank_white.png,stimulus/viswhere_stim/blank_white.png,stimulus/viswhere_stim/blank_white.png,0.0,0.0,0.0,0.0,0,0.0,0,0.0,0,0.0,0,0.0,0,0.0,0.0,0,0.0,0,0.0,0,0.0,0,0.0,0,0.0,0,0.0,0,0.0,0,0.0,5,,,,,0,29,29,29,,,,,226.4230818329379,226.4230818329379,226.4230818329379,226.4230818329379,226.4230818329379,226.4230818329379,226.4230818329379,226.4230818329379,226.31923708334412,226.4230818329379,226.4230818329379,226.4230818329379,226.31923708334412,226.4230818329379,226.4230818329379,226.4230818329379,226.4230818329379,226.4230818329379,226.4230818329379,226.4230818329379,226.4230818329379,226.4230818329379,226.4230818329379,226.4230818329379,226.4230818329379,226.4230818329379,226.4230818329379,226.3692370833441,226.4230818329379,226.4230818329379,226.4230818329379,226.3692370833441,226.4230818329379,226.4230818329379,226.4230818329379,226.4230818329379,226.4230818329379,231.71557470795233,231.71557470795233,231.5083950420376,None,0,,,reldom2_s033,001,2025-03-12_16h23.43.921,practice_test1_AC,2022.2.5,None,
23,Second_Order,4.0,audwhat,stimulus/audwhat_stim/percussion mallet_high-pitch_D_loud.wav,stimulus/audwhat_stim/string cello_high-pitch_D_loud.wav,stimulus/audwhat_stim/percussion mallet_low-pitch_F_loud.wav,stimulus/audwhat_stim/percussion xylophone_high-pitch_Ftri_loud.wav,stimulus/viswhere_stim/match_blank.png,stimulus/viswhere_stim/match_box.png,stimulus/viswhere_stim/match_yes.png,stimulus/viswhere_stim/match_no.png,2.0,Match,Pitch,Category,2,5.25,0,5.25,0,5.25,0,5.25,0,0.75,0.75,0,0.0,0,0.0,0,0.0,0,0.0,1,0.5,1,2.125,1,0.5,1,2.125,0,,,,,0,30,30,30,,,,,231.71557470795233,236.96126387501135,231.71557470795233,231.71557470795233,231.71557470795233,231.71557470795233,232.16069041693117,233.15335024998058,232.16904516664025,,233.7860416249605,234.77742804202717,233.79417720862355,,236.96126387501135,237.82178679201752,239.86358141701203,243.76565704203676,237.82178679201752,237.82178679201752,243.10757691704202,237.82178679201752,237.82178679201752,237.82178679201752,237.82178679201752,238.26781279197894,239.3133111669449,238.23468099959817,,239.86358141701203,240.91390449996106,239.83040049969375,240.8640181249939,237.82178679201752,243.10757691704202,237.82178679201752,243.10757691704202,243.01390733302105,243.89011629193556,237.82178679201752,2,1,1.773159334086813,,reldom2_s033,001,2025-03-12_16h23.43.921,practice_test1_AC,2022.2.5,None,
24,Second_Order,4.0,audwhat,stimulus/audwhat_stim/percussion mallet_low-pitch_Ftri_loud.wav,stimulus/audwhat_stim/percussion xylophone_high-pitch_F_loud.wav,stimulus/audwhat_stim/string cello_low-pitch_F_loud.wav,stimulus/audwhat_stim/string cello_high-pitch_Ftri_loud.wav,stimulus/viswhere_stim/match_blank.png,stimulus/viswhere_stim/match_box.png,stimulus/viswhere_stim/match_yes.png,stimulus/viswhere_stim/match_no.png,1.0,Match,Category,Category,1,5.25,0,5.25,0,5.25,0,5.25,0,0.75,0.75,0,0.0,0,0.0,0,0.0,0,0.0,1,0.5,1,2.125,1,0.5,1,2.125,0,,,,,0,31,31,31,,,,,243.89011629193556,249.1362725419458,243.89011629193556,243.89011629193556,243.89011629193556,243.89011629193556,244.33548195799813,245.32882599998266,244.3439958335987,,245.97134533303324,246.96945070801303,245.97906070860725,246.96945070801303,249.1362725419458,249.99091745796613,252.03021708293818,255.90122708294075,249.99091745796613,249.99091745796613,255.28714608296286,249.99091745796613,249.99091745796613,249.99091745796613,249.99091745796613,250.43611629202496,251.48126212495845,250.4032771665991,,252.03021708293818,253.08254099998157,251.9966312086365,,249.99091745796613,255.28714608296286,249.99091745796613,255.28714608296286,255.1927535419818,256.1846578329569,249.99091745796613,1,1,0.9887224590638652,,reldom2_s033,001,2025-03-12_16h23.43.921,practice_test1_AC,2022.2.5,None,
0,0.0,None,fixation,stimulus/viswhat_stim/blank_white.png,stimulus/viswhat_stim/blank_white.png,stimulus/audwhat_stim/blank_white.png,stimulus/audwhat_stim/blank_white.png,stimulus/viswhat_stim/blank_white.png,stimulus/viswhat_stim/blank_white.png,stimulus/viswhere_stim/blank_white.png,stimulus/viswhere_stim/blank_white.png,0.0,0.0,0.0,0.0,0,0.0,0,0.0,0,0.0,0,0.0,0,0.0,0.0,0,0.0,0,0.0,0,0.0,0,0.0,0,0.0,0,0.0,0,0.0,0,0.0,5,,,,,0,32,32,32,,,,,256.1846578329569,256.1846578329569,256.1846578329569,256.1846578329569,256.1846578329569,256.1846578329569,256.1846578329569,256.1846578329569,256.0786312913134,256.1846578329569,256.1846578329569,256.1846578329569,256.0786312913134,256.1846578329569,256.1846578329569,256.1846578329569,256.1846578329569,256.1846578329569,256.1846578329569,256.1846578329569,256.1846578329569,256.1846578329569,256.1846578329569,256.1846578329569,256.1846578329569,256.1846578329569,256.1846578329569,256.1286312913134,256.1846578329569,256.1846578329569,256.1846578329569,256.1286312913134,256.1846578329569,256.1846578329569,256.1846578329569,256.1846578329569,256.1846578329569,261.4567204170162,261.4567204170162,261.2545515829697,None,0,,,reldom2_s033,001,2025-03-12_16h23.43.921,practice_test1_AC,2022.2.5,None,
,,,,,,,,,,,,,,,,,,,,,,,,,,,,,,,,,,,,,,,,,,,,,,,,,,,,,,,,,,,,,,,,,,,,,,,,,,,,,,,,,,,,,,,,,,,,,,,,,,,261.4567204170162,,,,,,,
