Trial,Order,Block,Type,Stimuli_File1,Stimuli_File2,Stimuli_File3,Stimuli_File4,Cue_File1,Cue_File2,Response_File_Yes,Response_File_No,Match,Cue_Dimension,Pair1_Dimension,Pair2_Dimension,Key,Cue1_Duration,Cue1_Onset,Cue2_Duration,Cue2_Onset,ResponseYes_Duration,ResponseYes_Onset,ResponseNo_Duration,ResponseNo_Onset,ITI_Within,ITI_Between,Image1_Duration,Image1_Onset,Image2_Duration,Image2_Onset,Image3_Duration,Image3_Onset,Image4_Duration,Image4_Onset,Sound1_Duration,Sound1_Onset,Sound2_Duration,Sound2_Onset,Sound3_Duration,Sound3_Onset,Sound4_Duration,Sound4_Onset,Fixation_Duration,trials_2.thisRepN,trials_2.thisTrialN,trials_2.thisN,trials_2.thisIndex,trials.thisRepN,trials.thisTrialN,trials.thisN,trials.thisIndex,text_start.started,key_resp_start.started,key_resp_start.keys,key_resp_start.rt,text2.started,key_resp_2.started,key_resp_2.keys,key_resp_2.rt,cue_file1.started,cue_file1.stopped,image_1.started,image_1.stopped,image_2.started,image_2.stopped,sound_icon1.started,sound_icon1.stopped,sound_1.started,sound_1.stopped,sound_icon2.started,sound_icon2.stopped,sound_2.started,sound_2.stopped,image_blank_1.started,image_blank_1.stopped,key_press.started,key_press.stopped,fixation_text.started,cue_file2.started,cue_file2.stopped,image_3.started,image_3.stopped,image_4.started,image_4.stopped,sound_icon3.started,sound_icon3.stopped,sound_3.started,sound_3.stopped,sound_icon4.started,sound_icon4.stopped,sound_4.started,sound_4.stopped,response_yes.started,response_yes.stopped,response_no.started,response_no.stopped,iti_blank.started,iti_blank.stopped,fixation_text.stopped,key_press.keys,key_press.corr,key_press.rt,participant,session,date,expName,psychopyVersion,frameRate,
,,,,,,,,,,,,,,,,,,,,,,,,,,,,,,,,,,,,,,,,,,,,,,,,,,,,6.518014124943875,6.518014124943875,2,0.8003962079528719,,,,,,,,,,,,,,,,,,,,,,,,,,,,,,,,,,,,,,,,,,,,,,,,reldom2_s033,001,2025-03-12_17h00.28.642,Where-B-Scan_AC,2022.2.5,60.07333463057757,
,,,,,,,,,,,,,,,,,,,,,,,,,,,,,,,,,,,,,,,,,,,,0,0,0,0,,,,,,,,,7.349844333017245,7.349844333017245,5,17.341634207987227,,,,,,,,,,,,,,,,,,,,,,,,,,,,,,,,,,,,,,,,,,,,reldom2_s033,001,2025-03-12_17h00.28.642,Where-B-Scan_AC,2022.2.5,60.07333463057757,
,,,,,,,,,,,,,,,,,,,,,,,,,,,,,,,,,,,,,,,,,,,,1,0,1,0,,,,,,,,,24.705899707973003,24.705899707973003,5,1.984555208007805,,,,,,,,,,,,,,,,,,,,,,,,,,,,,,,,,,,,,,,,,,,,reldom2_s033,001,2025-03-12_17h00.28.642,Where-B-Scan_AC,2022.2.5,60.07333463057757,
,,,,,,,,,,,,,,,,,,,,,,,,,,,,,,,,,,,,,,,,,,,,2,0,2,0,,,,,,,,,26.710187750053592,26.710187750053592,5,1.9793947079451755,,,,,,,,,,,,,,,,,,,,,,,,,,,,,,,,,,,,,,,,,,,,reldom2_s033,001,2025-03-12_17h00.28.642,Where-B-Scan_AC,2022.2.5,60.07333463057757,
,,,,,,,,,,,,,,,,,,,,,,,,,,,,,,,,,,,,,,,,,,,,3,0,3,0,,,,,,,,,28.70686591695994,28.70686591695994,5,1.9814042079960927,,,,,,,,,,,,,,,,,,,,,,,,,,,,,,,,,,,,,,,,,,,,reldom2_s033,001,2025-03-12_17h00.28.642,Where-B-Scan_AC,2022.2.5,60.07333463057757,
0,0.0,None,fixation,stimulus/audwhere_stim/blank_white.png,stimulus/audwhere_stim/blank_white.png,stimulus/viswhere_stim/blank_white.png,stimulus/viswhere_stim/blank_white.png,stimulus/audwhere_stim/blank_white.png,stimulus/audwhere_stim/blank_white.png,stimulus/audwhere_stim/blank_white.png,stimulus/audwhere_stim/blank_white.png,0.0,0.0,0.0,0.0,0,0.0,0,0.0,0,0.0,0,0.0,0,0.0,0.0,0,0.0,0,0.0,0,0.0,0,0.0,0,0.0,0,0.0,0,0.0,0,0.0,16,,,,,0,0,0,0,,,,,,,,,30.89800229202956,30.89800229202956,30.89800229202956,30.89800229202956,30.89800229202956,30.89800229202956,30.89800229202956,30.89800229202956,30.807173124716307,30.89800229202956,30.89800229202956,30.89800229202956,30.807173124716307,30.89800229202956,30.89800229202956,30.89800229202956,30.89800229202956,30.89800229202956,30.89800229202956,30.89800229202956,30.89800229202956,30.89800229202956,30.89800229202956,30.89800229202956,30.89800229202956,30.89800229202956,30.89800229202956,30.857173124716304,30.89800229202956,30.89800229202956,30.89800229202956,30.857173124716304,30.89800229202956,30.89800229202956,30.89800229202956,30.89800229202956,30.89800229202956,36.09530562500004,36.09530562500004,47.14751879195683,None,0,,reldom2_s033,001,2025-03-12_17h00.28.642,Where-B-Scan_AC,2022.2.5,60.07333463057757,
1,First_Order,1.0,audwhere,stimulus/audwhere_stim/dummy.wav,stimulus/audwhere_stim/dummy.wav,stimulus/audwhere_stim/right_away_290h.wav,stimulus/audwhere_stim/right_toward_300h.wav,stimulus/audwhere_stim/blank_white.png,stimulus/audwhere_stim/direction_box.png,stimulus/audwhere_stim/direction_yes.png,stimulus/audwhere_stim/direction_no.png,None,Direction,None,Side,2,0.0,0,5.125,0,5.125,0,5.125,0,0.0,0.625,0,0.0,0,0.0,0,0.0,0,0.0,0,0.0,0,0.0,1,0.5,1,2.125,0,,,,,0,1,1,1,,,,,,,,,47.14751879195683,47.14751879195683,47.14751879195683,47.14751879195683,47.14751879195683,47.14751879195683,47.14751879195683,47.14751879195683,47.07719058296643,47.14751879195683,47.14751879195683,47.14751879195683,47.07719058296643,47.14751879195683,47.14751879195683,47.14751879195683,49.24002050003037,53.2653526669601,47.14751879195683,47.14751879195683,52.31351799995173,47.14751879195683,47.14751879195683,47.14751879195683,47.14751879195683,47.63757033296861,48.705581707996316,47.60964149964663,,49.24002050003037,50.30966070794966,49.21197416662859,,47.14751879195683,52.31351799995173,47.14751879195683,52.31351799995173,52.35294845805038,53.02154820796568,47.14751879195683,2,1,3.2084852919215336,reldom2_s033,001,2025-03-12_17h00.28.642,Where-B-Scan_AC,2022.2.5,60.07333463057757,
2,First_Order,1.0,audwhere,stimulus/audwhere_stim/dummy.wav,stimulus/audwhere_stim/dummy.wav,stimulus/audwhere_stim/left_toward_290h.wav,stimulus/audwhere_stim/right_toward_280h.wav,stimulus/audwhere_stim/blank_white.png,stimulus/audwhere_stim/side_box.png,stimulus/audwhere_stim/side_yes.png,stimulus/audwhere_stim/side_no.png,None,Side,None,Direction,2,0.0,0,5.125,0,5.125,0,5.125,0,0.0,0.625,0,0.0,0,0.0,0,0.0,0,0.0,0,0.0,0,0.0,1,0.5,1,2.125,0,,,,,0,2,2,2,,,,,,,,,53.2653526669601,53.2653526669601,53.2653526669601,53.2653526669601,53.2653526669601,53.2653526669601,53.2653526669601,53.2653526669601,53.193835166313995,53.2653526669601,53.2653526669601,53.2653526669601,53.193835166313995,53.2653526669601,53.2653526669601,53.2653526669601,55.348355249967426,59.37402674998157,53.2653526669601,53.2653526669601,58.42182495794259,53.2653526669601,53.2653526669601,53.2653526669601,53.2653526669601,53.74662025005091,54.81591733300593,53.719074874712774,,55.348355249967426,56.42014983296394,55.32037179166606,,53.2653526669601,58.42182495794259,53.2653526669601,58.42182495794259,58.461181916994974,59.128440083004534,53.2653526669601,2,1,0.8286304159555584,reldom2_s033,001,2025-03-12_17h00.28.642,Where-B-Scan_AC,2022.2.5,60.07333463057757,
3,First_Order,1.0,audwhere,stimulus/audwhere_stim/dummy.wav,stimulus/audwhere_stim/dummy.wav,stimulus/audwhere_stim/right_toward_280h.wav,stimulus/audwhere_stim/right_away_300h.wav,stimulus/audwhere_stim/blank_white.png,stimulus/audwhere_stim/direction_box.png,stimulus/audwhere_stim/direction_yes.png,stimulus/audwhere_stim/direction_no.png,None,Direction,None,Side,2,0.0,0,5.125,0,5.125,0,5.125,0,0.0,0.625,0,0.0,0,0.0,0,0.0,0,0.0,0,0.0,0,0.0,1,0.5,1,2.125,0,,,,,0,3,3,3,,,,,,,,,59.37402674998157,59.37402674998157,59.37402674998157,59.37402674998157,59.37402674998157,59.37402674998157,59.37402674998157,59.37402674998157,59.301146291343805,59.37402674998157,59.37402674998157,59.37402674998157,59.301146291343805,59.37402674998157,59.37402674998157,59.37402674998157,61.48676445800811,,59.37402674998157,59.37402674998157,64.54536537500098,59.37402674998157,59.37402674998157,59.37402674998157,59.37402674998157,59.82124733296223,60.85673004202545,59.79325641662969,,61.48676445800811,62.52354716695845,61.457888041685024,,59.37402674998157,64.54536537500098,59.37402674998157,64.54536537500098,64.5847384580411,65.25922233297024,59.37402674998157,2,1,1.0558645830024034,reldom2_s033,001,2025-03-12_17h00.28.642,Where-B-Scan_AC,2022.2.5,60.07333463057757,
4,First_Order,1.0,audwhere,stimulus/audwhere_stim/dummy.wav,stimulus/audwhere_stim/dummy.wav,stimulus/audwhere_stim/left_toward_270h.wav,stimulus/audwhere_stim/right_toward_300h.wav,stimulus/audwhere_stim/blank_white.png,stimulus/audwhere_stim/direction_box.png,stimulus/audwhere_stim/direction_yes.png,stimulus/audwhere_stim/direction_no.png,None,Direction,None,Direction,1,0.0,0,5.125,0,5.125,0,5.125,0,0.0,0.625,0,0.0,0,0.0,0,0.0,0,0.0,0,0.0,0,0.0,1,0.5,1,2.125,0,,,,,0,4,4,4,,,,,,,,,65.46692070795689,65.46692070795689,65.46692070795689,65.46692070795689,65.46692070795689,65.46692070795689,65.46692070795689,65.46692070795689,65.39255566630356,65.46692070795689,65.46692070795689,65.46692070795689,65.39255566630356,65.46692070795689,65.46692070795689,65.46692070795689,67.54420200001914,71.60768224997446,65.46692070795689,65.46692070795689,70.6236292499816,65.46692070795689,65.46692070795689,65.46692070795689,65.46692070795689,65.91882020805497,66.95789812505245,65.8898979166445,,67.54420200001914,68.58836158295162,67.51551329164455,,65.46692070795689,70.6236292499816,65.46692070795689,70.6236292499816,70.66361787496135,71.34306720795576,65.46692070795689,1,1,0.8079249999718741,reldom2_s033,001,2025-03-12_17h00.28.642,Where-B-Scan_AC,2022.2.5,60.07333463057757,
0,0.0,None,fixation,stimulus/audwhere_stim/blank_white.png,stimulus/audwhere_stim/blank_white.png,stimulus/viswhere_stim/blank_white.png,stimulus/viswhere_stim/blank_white.png,stimulus/audwhere_stim/blank_white.png,stimulus/audwhere_stim/blank_white.png,stimulus/audwhere_stim/blank_white.png,stimulus/audwhere_stim/blank_white.png,0.0,0.0,0.0,0.0,0,0.0,0,0.0,0,0.0,0,0.0,0,0.0,0.0,0,0.0,0,0.0,0,0.0,0,0.0,0,0.0,0,0.0,0,0.0,0,0.0,10,,,,,0,5,5,5,,,,,,,,,71.60768224997446,71.60768224997446,71.60768224997446,71.60768224997446,71.60768224997446,71.60768224997446,71.60768224997446,71.60768224997446,71.51609575029772,71.60768224997446,71.60768224997446,71.60768224997446,71.51609575029772,71.60768224997446,71.60768224997446,71.60768224997446,71.60768224997446,71.60768224997446,71.60768224997446,71.60768224997446,71.60768224997446,71.60768224997446,71.60768224997446,71.60768224997446,71.60768224997446,71.60768224997446,71.60768224997446,71.56609575029773,71.60768224997446,71.60768224997446,71.60768224997446,71.56609575029773,71.60768224997446,71.60768224997446,71.60768224997446,71.60768224997446,71.60768224997446,76.79670516704209,76.79670516704209,81.77745770802721,None,0,,reldom2_s033,001,2025-03-12_17h00.28.642,Where-B-Scan_AC,2022.2.5,60.07333463057757,
5,Second_Order,1.0,audwhere,stimulus/audwhere_stim/right_toward_300h.wav,stimulus/audwhere_stim/left_toward_280h.wav,stimulus/audwhere_stim/right_toward_280h.wav,stimulus/audwhere_stim/right_away_280h.wav,stimulus/audwhere_stim/match_blank.png,stimulus/audwhere_stim/match_box.png,stimulus/audwhere_stim/match_yes.png,stimulus/audwhere_stim/match_no.png,2.0,Match,Direction,Side,2,5.125,0,5.125,0,5.125,0,5.125,0,0.75,0.75,0,0.0,0,0.0,0,0.0,0,0.0,1,0.5,1,2.125,1,0.5,1,2.125,0,,,,,0,6,6,6,,,,,,,,,81.77745770802721,86.8988800829975,81.77745770802721,81.77745770802721,81.77745770802721,81.77745770802721,82.22452333301771,83.210494708037,82.23802624963379,,83.85887891694438,84.84851316700224,83.86332145863368,,86.8988800829975,87.75317112496123,89.81275675003417,93.74892975005787,87.75317112496123,87.75317112496123,92.92244833300356,87.75317112496123,87.75317112496123,87.75317112496123,87.75317112496123,88.19851337501314,89.22922204202041,88.17022491671766,,89.81275675003417,90.85051883303095,89.784063958625,,87.75317112496123,92.92244833300356,87.75317112496123,92.92244833300356,92.92244833300356,,87.75317112496123,2,1,1.1004761660005897,reldom2_s033,001,2025-03-12_17h00.28.642,Where-B-Scan_AC,2022.2.5,60.07333463057757,
6,Second_Order,1.0,audwhere,stimulus/audwhere_stim/right_toward_270h.wav,stimulus/audwhere_stim/right_away_290h.wav,stimulus/audwhere_stim/left_toward_300h.wav,stimulus/audwhere_stim/left_away_290h.wav,stimulus/audwhere_stim/match_blank.png,stimulus/audwhere_stim/match_box.png,stimulus/audwhere_stim/match_yes.png,stimulus/audwhere_stim/match_no.png,1.0,Match,Side,Side,1,5.125,0,5.125,0,5.125,0,5.125,0,0.625,0.625,0,0.0,0,0.0,0,0.0,0,0.0,1,0.5,1,2.125,1,0.5,1,2.125,0,,,,,0,7,7,7,,,,,,,,,93.74892975005787,98.86485524999443,93.74892975005787,93.74892975005787,93.74892975005787,93.74892975005787,94.20097566698678,95.18883179198019,94.21547274961291,,95.82569291698746,96.82201270805672,95.83679008362039,96.82546145794913,98.86485524999443,99.59121562505607,101.64870112505741,,99.59121562505607,99.59121562505607,104.74662474996876,99.59121562505607,99.59121562505607,99.59121562505607,99.59121562505607,100.03667554201093,101.06644287495874,100.0084955836103,,101.64870112505741,102.68352462502662,101.62012824969521,,99.59121562505607,104.74662474996876,99.59121562505607,104.74662474996876,104.786081291968,105.45711041695904,99.59121562505607,1,1,0.6954662909265608,reldom2_s033,001,2025-03-12_17h00.28.642,Where-B-Scan_AC,2022.2.5,60.07333463057757,
0,0.0,None,fixation,stimulus/audwhere_stim/blank_white.png,stimulus/audwhere_stim/blank_white.png,stimulus/viswhere_stim/blank_white.png,stimulus/viswhere_stim/blank_white.png,stimulus/audwhere_stim/blank_white.png,stimulus/audwhere_stim/blank_white.png,stimulus/audwhere_stim/blank_white.png,stimulus/audwhere_stim/blank_white.png,0.0,0.0,0.0,0.0,0,0.0,0,0.0,0,0.0,0,0.0,0,0.0,0.0,0,0.0,0,0.0,0,0.0,0,0.0,0,0.0,0,0.0,0,0.0,0,0.0,9,,,,,0,8,8,8,,,,,,,,,105.68516429199371,105.68516429199371,105.68516429199371,105.68516429199371,105.68516429199371,105.68516429199371,105.68516429199371,105.68516429199371,105.59044375029237,105.68516429199371,105.68516429199371,105.68516429199371,105.59044375029237,105.68516429199371,105.68516429199371,105.68516429199371,105.68516429199371,105.68516429199371,105.68516429199371,105.68516429199371,105.68516429199371,105.68516429199371,105.68516429199371,105.68516429199371,105.68516429199371,105.68516429199371,105.68516429199371,105.64044375029238,105.68516429199371,105.68516429199371,105.68516429199371,105.64044375029238,105.68516429199371,105.68516429199371,105.68516429199371,105.68516429199371,105.68516429199371,110.91367216699291,110.91367216699291,114.94109020801261,None,0,,reldom2_s033,001,2025-03-12_17h00.28.642,Where-B-Scan_AC,2022.2.5,60.07333463057757,
7,First_Order,2.0,audwhere,stimulus/audwhere_stim/dummy.wav,stimulus/audwhere_stim/dummy.wav,stimulus/audwhere_stim/left_toward_270h.wav,stimulus/audwhere_stim/right_toward_270h.wav,stimulus/audwhere_stim/blank_white.png,stimulus/audwhere_stim/direction_box.png,stimulus/audwhere_stim/direction_yes.png,stimulus/audwhere_stim/direction_no.png,None,Direction,None,Direction,1,0.0,0,5.125,0,5.125,0,5.125,0,0.0,0.625,0,0.0,0,0.0,0,0.0,0,0.0,0,0.0,0,0.0,1,0.5,1,2.125,0,,,,,0,9,9,9,,,,,,,,,114.94109020801261,114.94109020801261,114.94109020801261,114.94109020801261,114.94109020801261,114.94109020801261,114.94109020801261,114.94109020801261,114.85806945802179,114.94109020801261,114.94109020801261,114.94109020801261,114.85806945802179,114.94109020801261,114.94109020801261,114.94109020801261,117.04130541696213,,114.94109020801261,114.94109020801261,120.10865954204928,114.94109020801261,114.94109020801261,114.94109020801261,114.94109020801261,115.39816916699056,116.44756300002337,115.36955166672512,,117.04130541696213,118.094772499986,117.01217558369196,,114.94109020801261,120.10865954204928,114.94109020801261,120.10865954204928,120.14889249997213,120.83252362499479,114.94109020801261,1,1,0.9428418329916894,reldom2_s033,001,2025-03-12_17h00.28.642,Where-B-Scan_AC,2022.2.5,60.07333463057757,
8,First_Order,2.0,audwhere,stimulus/audwhere_stim/dummy.wav,stimulus/audwhere_stim/dummy.wav,stimulus/audwhere_stim/left_toward_280h.wav,stimulus/audwhere_stim/right_toward_290h.wav,stimulus/audwhere_stim/blank_white.png,stimulus/audwhere_stim/side_box.png,stimulus/audwhere_stim/side_yes.png,stimulus/audwhere_stim/side_no.png,None,Side,None,Direction,2,0.0,0,5.125,0,5.125,0,5.125,0,0.0,0.625,0,0.0,0,0.0,0,0.0,0,0.0,0,0.0,0,0.0,1,0.5,1,2.125,0,,,,,0,10,10,10,,,,,,,,,121.04041191702709,121.04041191702709,121.04041191702709,121.04041191702709,121.04041191702709,121.04041191702709,121.04041191702709,121.04041191702709,120.96585695832812,121.04041191702709,121.04041191702709,121.04041191702709,120.96585695832812,121.04041191702709,121.04041191702709,121.04041191702709,123.133018833003,127.1641490419861,121.04041191702709,121.04041191702709,126.19209091702942,121.04041191702709,121.04041191702709,121.04041191702709,121.04041191702709,121.49523466697428,122.53946799994446,121.4667612496453,,123.133018833003,124.18734845798463,123.10395879164959,,121.04041191702709,126.19209091702942,121.04041191702709,126.19209091702942,126.2319014579989,126.91480816702824,121.04041191702709,2,1,0.6487240419955924,reldom2_s033,001,2025-03-12_17h00.28.642,Where-B-Scan_AC,2022.2.5,60.07333463057757,
9,First_Order,2.0,audwhere,stimulus/audwhere_stim/dummy.wav,stimulus/audwhere_stim/dummy.wav,stimulus/audwhere_stim/left_away_270h.wav,stimulus/audwhere_stim/left_toward_290h.wav,stimulus/audwhere_stim/blank_white.png,stimulus/audwhere_stim/side_box.png,stimulus/audwhere_stim/side_yes.png,stimulus/audwhere_stim/side_no.png,None,Side,None,Side,1,0.0,0,5.125,0,5.125,0,5.125,0,0.0,0.625,0,0.0,0,0.0,0,0.0,0,0.0,0,0.0,0,0.0,1,0.5,1,2.125,0,,,,,0,11,11,11,,,,,,,,,127.1641490419861,127.1641490419861,127.1641490419861,127.1641490419861,127.1641490419861,127.1641490419861,127.1641490419861,127.1641490419861,127.08780854128611,127.1641490419861,127.1641490419861,127.1641490419861,127.08780854128611,127.1641490419861,127.1641490419861,127.1641490419861,129.26169808302075,,127.1641490419861,127.1641490419861,132.3192298329668,127.1641490419861,127.1641490419861,127.1641490419861,127.1641490419861,127.61835466697812,128.6668453749735,127.58901591663404,,129.26169808302075,130.31774954195134,129.2326507496803,,127.1641490419861,132.3192298329668,127.1641490419861,132.3192298329668,132.3594359579729,133.01005870802328,127.1641490419861,1,1,0.7152127489680424,reldom2_s033,001,2025-03-12_17h00.28.642,Where-B-Scan_AC,2022.2.5,60.07333463057757,
10,First_Order,2.0,audwhere,stimulus/audwhere_stim/dummy.wav,stimulus/audwhere_stim/dummy.wav,stimulus/audwhere_stim/right_away_290h.wav,stimulus/audwhere_stim/right_toward_290h.wav,stimulus/audwhere_stim/blank_white.png,stimulus/audwhere_stim/side_box.png,stimulus/audwhere_stim/side_yes.png,stimulus/audwhere_stim/side_no.png,None,Side,None,Side,1,0.0,0,5.125,0,5.125,0,5.125,0,0.0,0.625,0,0.0,0,0.0,0,0.0,0,0.0,0,0.0,0,0.0,1,0.5,1,2.125,0,,,,,0,12,12,12,,,,,,,,,133.2610069999937,133.2610069999937,133.2610069999937,133.2610069999937,133.2610069999937,133.2610069999937,133.2610069999937,133.2610069999937,133.1842948752766,133.2610069999937,133.2610069999937,133.2610069999937,133.1842948752766,133.2610069999937,133.2610069999937,133.2610069999937,135.36622891703155,139.3921019169502,133.2610069999937,133.2610069999937,138.43568533298094,133.2610069999937,133.2610069999937,133.2610069999937,133.2610069999937,133.71829350001644,134.77215812494978,133.68926154164754,,135.36622891703155,136.4259309170302,135.33728187467594,,133.2610069999937,138.43568533298094,133.2610069999937,138.43568533298094,138.47654958302155,139.16208708297927,133.2610069999937,1,1,0.7035385830095038,reldom2_s033,001,2025-03-12_17h00.28.642,Where-B-Scan_AC,2022.2.5,60.07333463057757,
0,0.0,None,fixation,stimulus/audwhere_stim/blank_white.png,stimulus/audwhere_stim/blank_white.png,stimulus/viswhere_stim/blank_white.png,stimulus/viswhere_stim/blank_white.png,stimulus/audwhere_stim/blank_white.png,stimulus/audwhere_stim/blank_white.png,stimulus/audwhere_stim/blank_white.png,stimulus/audwhere_stim/blank_white.png,0.0,0.0,0.0,0.0,0,0.0,0,0.0,0,0.0,0,0.0,0,0.0,0.0,0,0.0,0,0.0,0,0.0,0,0.0,0,0.0,0,0.0,0,0.0,0,0.0,9,,,,,0,13,13,13,,,,,,,,,139.3921019169502,139.3921019169502,139.3921019169502,139.3921019169502,139.3921019169502,139.3921019169502,139.3921019169502,139.3921019169502,139.29542041631262,139.3921019169502,139.3921019169502,139.3921019169502,139.29542041631262,139.3921019169502,139.3921019169502,139.3921019169502,139.3921019169502,139.3921019169502,139.3921019169502,139.3921019169502,139.3921019169502,139.3921019169502,139.3921019169502,139.3921019169502,139.3921019169502,139.3921019169502,139.3921019169502,139.3454204163126,139.3921019169502,139.3921019169502,139.3921019169502,139.3454204163126,139.3921019169502,139.3921019169502,139.3921019169502,139.3921019169502,139.3921019169502,144.62624100001995,144.62624100001995,148.5282934580464,None,0,,reldom2_s033,001,2025-03-12_17h00.28.642,Where-B-Scan_AC,2022.2.5,60.07333463057757,
11,Second_Order,2.0,audwhere,stimulus/audwhere_stim/left_toward_280h.wav,stimulus/audwhere_stim/left_away_290h.wav,stimulus/audwhere_stim/left_away_290h.wav,stimulus/audwhere_stim/right_away_280h.wav,stimulus/audwhere_stim/match_blank.png,stimulus/audwhere_stim/match_box.png,stimulus/audwhere_stim/match_yes.png,stimulus/audwhere_stim/match_no.png,2.0,Match,Side,Direction,2,5.125,0,5.125,0,5.125,0,5.125,0,0.75,0.75,0,0.0,0,0.0,0,0.0,0,0.0,1,0.5,1,2.125,1,0.5,1,2.125,0,,,,,0,14,14,14,,,,,,,,,148.5282934580464,153.64092879195232,148.5282934580464,148.5282934580464,148.5282934580464,148.5282934580464,148.97845708299428,149.96503345796373,148.99216695869498,,150.61317691695876,151.602413082961,150.61691762466606,,153.64092879195232,154.4909645000007,156.54008495796006,160.48491799994372,154.4909645000007,154.4909645000007,159.64827416697517,154.4909645000007,154.4909645000007,154.4909645000007,154.4909645000007,154.94664862495847,155.99342708301265,154.91756754165206,,156.54008495796006,157.5951485419646,156.5113241666152,,154.4909645000007,159.64827416697517,154.4909645000007,159.64827416697517,159.6885172079783,,154.4909645000007,2,1,0.8113005410414189,reldom2_s033,001,2025-03-12_17h00.28.642,Where-B-Scan_AC,2022.2.5,60.07333463057757,
12,Second_Order,2.0,audwhere,stimulus/audwhere_stim/left_away_270h.wav,stimulus/audwhere_stim/left_toward_280h.wav,stimulus/audwhere_stim/right_away_280h.wav,stimulus/audwhere_stim/right_toward_300h.wav,stimulus/audwhere_stim/match_blank.png,stimulus/audwhere_stim/match_box.png,stimulus/audwhere_stim/match_yes.png,stimulus/audwhere_stim/match_no.png,1.0,Match,Side,Side,1,5.125,0,5.125,0,5.125,0,5.125,0,0.625,0.625,0,0.0,0,0.0,0,0.0,0,0.0,1,0.5,1,2.125,1,0.5,1,2.125,0,,,,,0,15,15,15,,,,,,,,,160.48491799994372,165.60190387500916,160.48491799994372,160.48491799994372,160.48491799994372,160.48491799994372,160.93875716696493,161.9259162079543,160.95292212471057,,162.5611560420366,163.55972033296712,162.57373329165083,,165.60190387500916,166.32973800005857,168.40896841697395,172.44466649997048,166.32973800005857,166.32973800005857,171.49606829194818,166.32973800005857,166.32973800005857,166.32973800005857,166.32973800005857,166.78050687501673,167.82076649996452,166.75225849968072,,168.40896841697395,169.45682329195552,168.3800376667098,,166.32973800005857,171.49606829194818,166.32973800005857,171.49606829194818,171.49606829194818,172.17601183301304,166.32973800005857,1,1,0.7031135829165578,reldom2_s033,001,2025-03-12_17h00.28.642,Where-B-Scan_AC,2022.2.5,60.07333463057757,
0,0.0,None,fixation,stimulus/audwhere_stim/blank_white.png,stimulus/audwhere_stim/blank_white.png,stimulus/viswhere_stim/blank_white.png,stimulus/viswhere_stim/blank_white.png,stimulus/audwhere_stim/blank_white.png,stimulus/audwhere_stim/blank_white.png,stimulus/audwhere_stim/blank_white.png,stimulus/audwhere_stim/blank_white.png,0.0,0.0,0.0,0.0,0,0.0,0,0.0,0,0.0,0,0.0,0,0.0,0.0,0,0.0,0,0.0,0,0.0,0,0.0,0,0.0,0,0.0,0,0.0,0,0.0,8,,,,,0,16,16,16,,,,,,,,,172.44466649997048,172.44466649997048,172.44466649997048,172.44466649997048,172.44466649997048,172.44466649997048,172.44466649997048,172.44466649997048,172.34864241632945,172.44466649997048,172.44466649997048,172.44466649997048,172.34864241632945,172.44466649997048,172.44466649997048,172.44466649997048,172.44466649997048,172.44466649997048,172.44466649997048,172.44466649997048,172.44466649997048,172.44466649997048,172.44466649997048,172.44466649997048,172.44466649997048,172.44466649997048,172.44466649997048,172.39864241632944,172.44466649997048,172.44466649997048,172.44466649997048,172.39864241632944,172.44466649997048,172.44466649997048,172.44466649997048,172.44466649997048,172.44466649997048,177.6393032920314,177.6393032920314,180.66206208302174,None,0,,reldom2_s033,001,2025-03-12_17h00.28.642,Where-B-Scan_AC,2022.2.5,60.07333463057757,
13,First_Order,3.0,viswhere,stimulus/viswhere_stim/blank_white.png,stimulus/viswhere_stim/blank_white.png,stimulus/viswhere_stim/150-deg_dot-left_seagreen.png,stimulus/viswhere_stim/150-deg_dot-right_royalblue.png,stimulus/viswhere_stim/blank_white.png,stimulus/viswhere_stim/line_box.png,stimulus/viswhere_stim/line_yes.png,stimulus/viswhere_stim/line_no.png,None,Line,None,Line,1,0.0,0,5.125,0,5.125,0,5.125,0,0.0,0.625,0,0.0,0,0.0,1,0.5,1,2.125,0,0.0,0,0.0,0,0.0,0,0.0,0,,,,,0,17,17,17,,,,,,,,,180.66206208302174,180.66206208302174,180.66206208302174,180.66206208302174,180.66206208302174,180.66206208302174,180.66206208302174,180.66206208302174,180.64200091668562,180.66206208302174,180.66206208302174,180.66206208302174,180.64200091668562,180.66206208302174,180.66206208302174,180.66206208302174,182.76182699995115,186.72144779202063,180.66206208302174,180.66206208302174,185.7933675419772,181.14529795804992,182.16534362500533,182.76182699995115,183.7699356250232,180.66206208302174,180.66206208302174,180.64200091668562,180.66206208302174,180.66206208302174,180.66206208302174,180.64200091668562,180.66206208302174,180.66206208302174,185.7933675419772,180.66206208302174,185.7933675419772,185.8794649579795,186.5057573330123,180.66206208302174,1,1,0.8128471670206636,reldom2_s033,001,2025-03-12_17h00.28.642,Where-B-Scan_AC,2022.2.5,60.07333463057757,
14,First_Order,3.0,viswhere,stimulus/viswhere_stim/blank_white.png,stimulus/viswhere_stim/blank_white.png,stimulus/viswhere_stim/90-deg_dot-right_cyan.png,stimulus/viswhere_stim/90-deg_dot-left_turquoise.png,stimulus/viswhere_stim/blank_white.png,stimulus/viswhere_stim/line_box.png,stimulus/viswhere_stim/line_yes.png,stimulus/viswhere_stim/line_no.png,None,Line,None,Line,1,0.0,0,5.125,0,5.125,0,5.125,0,0.0,0.625,0,0.0,0,0.0,1,0.5,1,2.125,0,0.0,0,0.0,0,0.0,0,0.0,0,,,,,0,18,18,18,,,,,,,,,186.72144779202063,186.72144779202063,186.72144779202063,186.72144779202063,186.72144779202063,186.72144779202063,186.72144779202063,186.72144779202063,186.69961295831794,186.72144779202063,186.72144779202063,186.72144779202063,186.69961295831794,186.72144779202063,186.72144779202063,186.72144779202063,188.82340937503614,192.7933297919808,186.72144779202063,186.72144779202063,191.84942366695032,187.1994617920136,188.2121867920505,188.82340937503614,189.84262412495445,186.72144779202063,186.72144779202063,186.71627962498462,186.72144779202063,186.72144779202063,186.72144779202063,186.71627962498462,186.72144779202063,186.72144779202063,191.84942366695032,186.72144779202063,191.84942366695032,191.9454285419779,192.572409083019,186.72144779202063,1,1,0.6815637908875942,reldom2_s033,001,2025-03-12_17h00.28.642,Where-B-Scan_AC,2022.2.5,60.07333463057757,
15,First_Order,3.0,viswhere,stimulus/viswhere_stim/blank_white.png,stimulus/viswhere_stim/blank_white.png,stimulus/viswhere_stim/60-deg_dot-right_salmon.png,stimulus/viswhere_stim/150-deg_dot-right_turquoise.png,stimulus/viswhere_stim/blank_white.png,stimulus/viswhere_stim/dot_box.png,stimulus/viswhere_stim/dot_yes.png,stimulus/viswhere_stim/dot_no.png,None,Dot,None,Dot,1,0.0,0,5.125,0,5.125,0,5.125,0,0.0,0.625,0,0.0,0,0.0,1,0.5,1,2.125,0,0.0,0,0.0,0,0.0,0,0.0,0,,,,,0,19,19,19,,,,,,,,,192.7933297919808,192.7933297919808,192.7933297919808,192.7933297919808,192.7933297919808,192.7933297919808,192.7933297919808,192.7933297919808,192.7695991663107,192.7933297919808,192.7933297919808,192.7933297919808,192.7695991663107,192.7933297919808,192.7933297919808,192.7933297919808,194.89863645797595,198.85554504196625,192.7933297919808,192.7933297919808,197.9296499999473,193.27329233300406,194.28751987498254,194.89863645797595,195.91747279197443,192.7933297919808,192.7933297919808,192.7862658329774,192.7933297919808,192.7933297919808,192.7933297919808,192.7862658329774,192.7933297919808,192.7933297919808,197.9296499999473,192.7933297919808,197.9296499999473,198.0126614579931,198.6397935419809,192.7933297919808,1,1,1.2134133749641478,reldom2_s033,001,2025-03-12_17h00.28.642,Where-B-Scan_AC,2022.2.5,60.07333463057757,
16,First_Order,3.0,viswhere,stimulus/viswhere_stim/blank_white.png,stimulus/viswhere_stim/blank_white.png,stimulus/viswhere_stim/120-deg_dot-left_peru.png,stimulus/viswhere_stim/120-deg_dot-right_royalblue.png,stimulus/viswhere_stim/blank_white.png,stimulus/viswhere_stim/dot_box.png,stimulus/viswhere_stim/dot_yes.png,stimulus/viswhere_stim/dot_no.png,None,Dot,None,Line,2,0.0,0,5.125,0,5.125,0,5.125,0,0.0,0.625,0,0.0,0,0.0,1,0.5,1,2.125,0,0.0,0,0.0,0,0.0,0,0.0,0,,,,,0,20,20,20,,,,,,,,,198.85554504196625,198.85554504196625,198.85554504196625,198.85554504196625,198.85554504196625,198.85554504196625,198.85554504196625,198.85554504196625,198.83420733335274,198.85554504196625,198.85554504196625,198.85554504196625,198.83420733335274,198.85554504196625,198.85554504196625,198.85554504196625,200.96352216694504,204.9914215829922,198.85554504196625,198.85554504196625,203.99246258300263,199.3300202919636,200.3357614580309,200.96352216694504,201.9762926249532,198.85554504196625,198.85554504196625,198.85087400001942,198.85554504196625,198.85554504196625,198.85554504196625,198.85087400001942,198.85554504196625,198.85554504196625,203.99246258300263,198.85554504196625,203.99246258300263,204.07624037505593,204.70914312498644,198.85554504196625,2,1,0.6316651250235736,reldom2_s033,001,2025-03-12_17h00.28.642,Where-B-Scan_AC,2022.2.5,60.07333463057757,
0,0.0,None,fixation,stimulus/audwhere_stim/blank_white.png,stimulus/audwhere_stim/blank_white.png,stimulus/viswhere_stim/blank_white.png,stimulus/viswhere_stim/blank_white.png,stimulus/audwhere_stim/blank_white.png,stimulus/audwhere_stim/blank_white.png,stimulus/audwhere_stim/blank_white.png,stimulus/audwhere_stim/blank_white.png,0.0,0.0,0.0,0.0,0,0.0,0,0.0,0,0.0,0,0.0,0,0.0,0.0,0,0.0,0,0.0,0,0.0,0,0.0,0,0.0,0,0.0,0,0.0,0,0.0,10,,,,,0,21,21,21,,,,,,,,,204.9914215829922,204.9914215829922,204.9914215829922,204.9914215829922,204.9914215829922,204.9914215829922,204.9914215829922,204.9914215829922,204.8941642503099,204.9914215829922,204.9914215829922,204.9914215829922,204.8941642503099,204.9914215829922,204.9914215829922,204.9914215829922,204.9914215829922,204.9914215829922,204.9914215829922,204.9914215829922,204.9914215829922,204.9914215829922,204.9914215829922,204.9914215829922,204.9914215829922,204.9914215829922,204.9914215829922,204.9441642503099,204.9914215829922,204.9914215829922,204.9914215829922,204.9441642503099,204.9914215829922,204.9914215829922,204.9914215829922,204.9914215829922,204.9914215829922,210.1724771669833,210.1724771669833,215.1439936249517,None,0,,reldom2_s033,001,2025-03-12_17h00.28.642,Where-B-Scan_AC,2022.2.5,60.07333463057757,
17,Second_Order,3.0,viswhere,stimulus/viswhere_stim/90-deg_dot-left_lightsseagreen.png,stimulus/viswhere_stim/90-deg_dot-right_lightsseagreen.png,stimulus/viswhere_stim/120-deg_dot-right_cyan.png,stimulus/viswhere_stim/60-deg_dot-right_royalblue.png,stimulus/audwhere_stim/match_blank.png,stimulus/audwhere_stim/match_box.png,stimulus/audwhere_stim/match_yes.png,stimulus/audwhere_stim/match_no.png,2.0,Match,Line,Dot,2,5.125,0,5.125,0,5.125,0,5.125,0,0.75,0.75,1,0.5,1,2.125,1,0.5,1,2.125,0,0.0,0,0.0,0,0.0,0,0.0,0,,,,,0,22,22,22,,,,,,,,,215.1439936249517,220.26142279198393,215.6154053750215,216.6020857919939,217.25038995803334,218.2391081249807,215.1439936249517,215.1439936249517,215.15669995828844,215.1439936249517,215.1439936249517,215.1439936249517,215.15669995828844,215.1439936249517,220.26142279198393,221.05534950003494,223.14019841700792,227.02162087499164,221.05534950003494,221.05534950003494,226.18687958305236,221.5171077500563,222.5285022079479,223.14019841700792,224.15778050001245,221.05534950003494,221.05534950003494,221.02958866628666,221.05534950003494,221.05534950003494,221.05534950003494,221.02958866628666,221.05534950003494,221.05534950003494,226.18687958305236,221.05534950003494,226.18687958305236,226.25607358303387,,221.05534950003494,2,1,0.9723257499281317,reldom2_s033,001,2025-03-12_17h00.28.642,Where-B-Scan_AC,2022.2.5,60.07333463057757,
18,Second_Order,3.0,viswhere,stimulus/viswhere_stim/90-deg_dot-left_lightsseagreen.png,stimulus/viswhere_stim/60-deg_dot-left_mediumslateblue.png,stimulus/viswhere_stim/60-deg_dot-right_lightsseagreen.png,stimulus/viswhere_stim/30-deg_dot-right_goldenrod.png,stimulus/audwhere_stim/match_blank.png,stimulus/audwhere_stim/match_box.png,stimulus/audwhere_stim/match_yes.png,stimulus/audwhere_stim/match_no.png,1.0,Match,Dot,Dot,1,5.125,0,5.125,0,5.125,0,5.125,0,0.625,0.625,1,0.5,1,2.125,1,0.5,1,2.125,0,0.0,0,0.0,0,0.0,0,0.0,0,,,,,0,23,23,23,,,,,,,,,227.02162087499164,232.1391142080538,227.50710179202724,228.49653933302034,229.13241354201455,230.1301234170096,227.02162087499164,227.02162087499164,227.03544616694563,227.02162087499164,227.02162087499164,227.02162087499164,227.03544616694563,227.02162087499164,232.1391142080538,232.80357645801269,234.8842393750092,238.93091808294412,232.80357645801269,232.80357645801269,237.92527150001843,233.26545491698198,234.2746063329978,234.8842393750092,235.90181354200467,232.80357645801269,232.80357645801269,232.7858123333504,232.80357645801269,232.80357645801269,232.80357645801269,232.7858123333504,232.80357645801269,232.80357645801269,237.92527150001843,232.80357645801269,237.92527150001843,238.0082799999509,238.63477266696282,232.80357645801269,1,1,0.5197139990050346,reldom2_s033,001,2025-03-12_17h00.28.642,Where-B-Scan_AC,2022.2.5,60.07333463057757,
0,0.0,None,fixation,stimulus/audwhere_stim/blank_white.png,stimulus/audwhere_stim/blank_white.png,stimulus/viswhere_stim/blank_white.png,stimulus/viswhere_stim/blank_white.png,stimulus/audwhere_stim/blank_white.png,stimulus/audwhere_stim/blank_white.png,stimulus/audwhere_stim/blank_white.png,stimulus/audwhere_stim/blank_white.png,0.0,0.0,0.0,0.0,0,0.0,0,0.0,0,0.0,0,0.0,0,0.0,0.0,0,0.0,0,0.0,0,0.0,0,0.0,0,0.0,0,0.0,0,0.0,0,0.0,9,,,,,0,24,24,24,,,,,,,,,238.93091808294412,238.93091808294412,238.93091808294412,238.93091808294412,238.93091808294412,238.93091808294412,238.93091808294412,238.93091808294412,238.83237050039074,238.93091808294412,238.93091808294412,238.93091808294412,238.83237050039074,238.93091808294412,238.93091808294412,238.93091808294412,238.93091808294412,238.93091808294412,238.93091808294412,238.93091808294412,238.93091808294412,238.93091808294412,238.93091808294412,238.93091808294412,238.93091808294412,238.93091808294412,238.93091808294412,238.88237050039075,238.93091808294412,238.93091808294412,238.93091808294412,238.88237050039075,238.93091808294412,238.93091808294412,238.93091808294412,238.93091808294412,238.93091808294412,244.16206687502563,244.16206687502563,248.11523070803378,None,0,,reldom2_s033,001,2025-03-12_17h00.28.642,Where-B-Scan_AC,2022.2.5,60.07333463057757,
19,First_Order,4.0,viswhere,stimulus/viswhere_stim/blank_white.png,stimulus/viswhere_stim/blank_white.png,stimulus/viswhere_stim/90-deg_dot-left_seagreen.png,stimulus/viswhere_stim/150-deg_dot-left_lightsseagreen.png,stimulus/viswhere_stim/blank_white.png,stimulus/viswhere_stim/dot_box.png,stimulus/viswhere_stim/dot_yes.png,stimulus/viswhere_stim/dot_no.png,None,Dot,None,Dot,1,0.0,0,5.125,0,5.125,0,5.125,0,0.0,0.625,0,0.0,0,0.0,1,0.5,1,2.125,0,0.0,0,0.0,0,0.0,0,0.0,0,,,,,0,25,25,25,,,,,,,,,248.11523070803378,248.11523070803378,248.11523070803378,248.11523070803378,248.11523070803378,248.11523070803378,248.11523070803378,248.11523070803378,248.09643070869305,248.11523070803378,248.11523070803378,248.11523070803378,248.09643070869305,248.11523070803378,248.11523070803378,248.11523070803378,250.22421991697047,254.17177308304235,248.11523070803378,248.11523070803378,253.242352167028,248.59402320801746,249.6102615420241,250.22421991697047,251.2294496250106,248.11523070803378,248.11523070803378,248.09643070869305,248.11523070803378,248.11523070803378,248.11523070803378,248.09643070869305,248.11523070803378,248.11523070803378,253.242352167028,248.11523070803378,253.242352167028,253.32997070800047,253.9552747500129,248.11523070803378,1,1,0.6938234999543056,reldom2_s033,001,2025-03-12_17h00.28.642,Where-B-Scan_AC,2022.2.5,60.07333463057757,
20,First_Order,4.0,viswhere,stimulus/viswhere_stim/blank_white.png,stimulus/viswhere_stim/blank_white.png,stimulus/viswhere_stim/30-deg_dot-left_peru.png,stimulus/viswhere_stim/30-deg_dot-right_salmon.png,stimulus/viswhere_stim/blank_white.png,stimulus/viswhere_stim/dot_box.png,stimulus/viswhere_stim/dot_yes.png,stimulus/viswhere_stim/dot_no.png,None,Dot,None,Line,2,0.0,0,5.125,0,5.125,0,5.125,0,0.0,0.625,0,0.0,0,0.0,1,0.5,1,2.125,0,0.0,0,0.0,0,0.0,0,0.0,0,,,,,0,26,26,26,,,,,,,,,254.17177308304235,254.17177308304235,254.17177308304235,254.17177308304235,254.17177308304235,254.17177308304235,254.17177308304235,254.17177308304235,254.15100883327736,254.17177308304235,254.17177308304235,254.17177308304235,254.15100883327736,254.17177308304235,254.17177308304235,254.17177308304235,256.283398999949,260.23367300000973,254.17177308304235,254.17177308304235,259.3011290000286,254.64686191699002,255.6564400830539,256.283398999949,257.3000984999817,254.17177308304235,254.17177308304235,254.16767549994404,254.17177308304235,254.17177308304235,254.17177308304235,254.16767549994404,254.17177308304235,254.17177308304235,259.3011290000286,254.17177308304235,259.3011290000286,259.39923304202966,260.0283818329917,254.17177308304235,2,1,0.9496845409739763,reldom2_s033,001,2025-03-12_17h00.28.642,Where-B-Scan_AC,2022.2.5,60.07333463057757,
21,First_Order,4.0,viswhere,stimulus/viswhere_stim/blank_white.png,stimulus/viswhere_stim/blank_white.png,stimulus/viswhere_stim/60-deg_dot-left_lightsseagreen.png,stimulus/viswhere_stim/30-deg_dot-left_slateblue.png,stimulus/viswhere_stim/blank_white.png,stimulus/viswhere_stim/line_box.png,stimulus/viswhere_stim/line_yes.png,stimulus/viswhere_stim/line_no.png,None,Line,None,Dot,2,0.0,0,5.125,0,5.125,0,5.125,0,0.0,0.625,0,0.0,0,0.0,1,0.5,1,2.125,0,0.0,0,0.0,0,0.0,0,0.0,0,,,,,0,27,27,27,,,,,,,,,260.23367300000973,260.23367300000973,260.23367300000973,260.23367300000973,260.23367300000973,260.23367300000973,260.23367300000973,260.23367300000973,260.2119623333759,260.23367300000973,260.23367300000973,260.23367300000973,260.2119623333759,260.23367300000973,260.23367300000973,260.23367300000973,262.34044587495737,266.30347525002435,260.23367300000973,260.23367300000973,265.36915358295664,260.7133912499994,261.72935062495526,262.34044587495737,263.3439462080132,260.23367300000973,260.23367300000973,260.22862900004253,260.23367300000973,260.23367300000973,260.23367300000973,260.22862900004253,260.23367300000973,260.23367300000973,265.36915358295664,260.23367300000973,265.36915358295664,265.4517953329487,266.0727678750409,260.23367300000973,2,1,0.7970199169358239,reldom2_s033,001,2025-03-12_17h00.28.642,Where-B-Scan_AC,2022.2.5,60.07333463057757,
22,First_Order,4.0,viswhere,stimulus/viswhere_stim/blank_white.png,stimulus/viswhere_stim/blank_white.png,stimulus/viswhere_stim/120-deg_dot-right_peru.png,stimulus/viswhere_stim/150-deg_dot-right_peru.png,stimulus/viswhere_stim/blank_white.png,stimulus/viswhere_stim/line_box.png,stimulus/viswhere_stim/line_yes.png,stimulus/viswhere_stim/line_no.png,None,Line,None,Dot,2,0.0,0,5.125,0,5.125,0,5.125,0,0.0,0.625,0,0.0,0,0.0,1,0.5,1,2.125,0,0.0,0,0.0,0,0.0,0,0.0,0,,,,,0,28,28,28,,,,,,,,,266.30347525002435,266.30347525002435,266.30347525002435,266.30347525002435,266.30347525002435,266.30347525002435,266.30347525002435,266.30347525002435,266.2823434163195,266.30347525002435,266.30347525002435,266.30347525002435,266.2823434163195,266.30347525002435,266.30347525002435,266.30347525002435,268.4147754580481,272.4488970830571,266.30347525002435,266.30347525002435,271.44152100000065,266.78406416694634,267.8010221669683,268.4147754580481,269.42285462503787,266.30347525002435,266.30347525002435,266.2990100829862,266.30347525002435,266.30347525002435,266.30347525002435,266.2990100829862,266.30347525002435,266.30347525002435,271.44152100000065,266.30347525002435,271.44152100000065,271.52478445798624,272.1563753329683,266.30347525002435,2,1,0.6453662909334525,reldom2_s033,001,2025-03-12_17h00.28.642,Where-B-Scan_AC,2022.2.5,60.07333463057757,
0,0.0,None,fixation,stimulus/audwhere_stim/blank_white.png,stimulus/audwhere_stim/blank_white.png,stimulus/viswhere_stim/blank_white.png,stimulus/viswhere_stim/blank_white.png,stimulus/audwhere_stim/blank_white.png,stimulus/audwhere_stim/blank_white.png,stimulus/audwhere_stim/blank_white.png,stimulus/audwhere_stim/blank_white.png,0.0,0.0,0.0,0.0,0,0.0,0,0.0,0,0.0,0,0.0,0,0.0,0.0,0,0.0,0,0.0,0,0.0,0,0.0,0,0.0,0,0.0,0,0.0,0,0.0,10,,,,,0,29,29,29,,,,,,,,,272.4488970830571,272.4488970830571,272.4488970830571,272.4488970830571,272.4488970830571,272.4488970830571,272.4488970830571,272.4488970830571,272.35040604133,272.4488970830571,272.4488970830571,272.4488970830571,272.35040604133,272.4488970830571,272.4488970830571,272.4488970830571,272.4488970830571,272.4488970830571,272.4488970830571,272.4488970830571,272.4488970830571,272.4488970830571,272.4488970830571,272.4488970830571,272.4488970830571,272.4488970830571,272.4488970830571,272.40040604133003,272.4488970830571,272.4488970830571,272.4488970830571,272.40040604133003,272.4488970830571,272.4488970830571,272.4488970830571,272.4488970830571,272.4488970830571,277.6386951250024,277.6386951250024,282.57612291700207,None,0,,reldom2_s033,001,2025-03-12_17h00.28.642,Where-B-Scan_AC,2022.2.5,60.07333463057757,
23,Second_Order,4.0,viswhere,stimulus/viswhere_stim/60-deg_dot-right_peru.png,stimulus/viswhere_stim/60-deg_dot-left_royalblue.png,stimulus/viswhere_stim/90-deg_dot-left_slateblue.png,stimulus/viswhere_stim/90-deg_dot-right_royalblue.png,stimulus/audwhere_stim/match_blank.png,stimulus/audwhere_stim/match_box.png,stimulus/audwhere_stim/match_yes.png,stimulus/audwhere_stim/match_no.png,1.0,Match,Line,Line,1,5.125,0,5.125,0,5.125,0,5.125,0,0.75,0.75,1,0.5,1,2.125,1,0.5,1,2.125,0,0.0,0,0.0,0,0.0,0,0.0,0,,,,,0,30,30,30,,,,,,,,,282.57612291700207,287.6965120419627,283.05575824994594,284.0545465829782,284.6789113749983,285.6751735829748,282.57612291700207,282.57612291700207,282.58959970835906,282.57612291700207,282.57612291700207,282.57612291700207,282.58959970835906,282.57612291700207,287.6965120419627,288.491194000002,290.57058345805854,294.45728624996264,288.491194000002,288.491194000002,293.6260010829428,288.93803049996495,289.95702075003646,290.57058345805854,291.58306641702075,288.491194000002,288.491194000002,288.4811507920502,288.491194000002,288.491194000002,288.491194000002,288.4811507920502,288.491194000002,288.491194000002,293.6260010829428,288.491194000002,293.6260010829428,293.68077591701876,294.45728624996264,288.491194000002,1,1,0.5479658748954535,reldom2_s033,001,2025-03-12_17h00.28.642,Where-B-Scan_AC,2022.2.5,60.07333463057757,
24,Second_Order,4.0,viswhere,stimulus/viswhere_stim/120-deg_dot-left_peru.png,stimulus/viswhere_stim/120-deg_dot-right_peru.png,stimulus/viswhere_stim/30-deg_dot-right_peru.png,stimulus/viswhere_stim/30-deg_dot-left_lightsseagreen.png,stimulus/audwhere_stim/match_blank.png,stimulus/audwhere_stim/match_box.png,stimulus/audwhere_stim/match_yes.png,stimulus/audwhere_stim/match_no.png,1.0,Match,Line,Line,1,5.125,0,5.125,0,5.125,0,5.125,0,0.625,0.625,1,0.5,1,2.125,1,0.5,1,2.125,0,0.0,0,0.0,0,0.0,0,0.0,0,,,,,0,31,31,31,,,,,,,,,294.45728624996264,299.5783491249895,294.93221945804544,295.9187261669431,296.56693362502847,297.5558490420226,294.45728624996264,294.45728624996264,294.4714571249904,294.45728624996264,294.45728624996264,294.45728624996264,294.4714571249904,294.45728624996264,299.5783491249895,300.24887000001036,302.33658337499946,306.36464200005867,300.24887000001036,300.24887000001036,305.38633245800156,300.7119472080376,301.7255176670151,302.33658337499946,303.33906104194466,300.24887000001036,300.24887000001036,300.2254165413401,300.24887000001036,300.24887000001036,300.24887000001036,300.2254165413401,300.24887000001036,300.24887000001036,305.38633245800156,300.24887000001036,305.38633245800156,305.4405215829611,306.07121062499937,300.24887000001036,1,1,0.7734102079411969,reldom2_s033,001,2025-03-12_17h00.28.642,Where-B-Scan_AC,2022.2.5,60.07333463057757,
0,0.0,None,fixation,stimulus/audwhere_stim/blank_white.png,stimulus/audwhere_stim/blank_white.png,stimulus/viswhere_stim/blank_white.png,stimulus/viswhere_stim/blank_white.png,stimulus/audwhere_stim/blank_white.png,stimulus/audwhere_stim/blank_white.png,stimulus/audwhere_stim/blank_white.png,stimulus/audwhere_stim/blank_white.png,0.0,0.0,0.0,0.0,0,0.0,0,0.0,0,0.0,0,0.0,0,0.0,0.0,0,0.0,0,0.0,0,0.0,0,0.0,0,0.0,0,0.0,0,0.0,0,0.0,9,,,,,0,32,32,32,,,,,,,,,306.36464200005867,306.36464200005867,306.36464200005867,306.36464200005867,306.36464200005867,306.36464200005867,306.36464200005867,306.36464200005867,306.2648065833685,306.36464200005867,306.36464200005867,306.36464200005867,306.2648065833685,306.36464200005867,306.36464200005867,306.36464200005867,306.36464200005867,306.36464200005867,306.36464200005867,306.36464200005867,306.36464200005867,306.36464200005867,306.36464200005867,306.36464200005867,306.36464200005867,306.36464200005867,306.36464200005867,306.3148065833685,306.36464200005867,306.36464200005867,306.36464200005867,306.3148065833685,306.36464200005867,306.36464200005867,306.36464200005867,306.36464200005867,306.36464200005867,311.56707195797935,311.56707195797935,315.63257341703866,None,0,,reldom2_s033,001,2025-03-12_17h00.28.642,Where-B-Scan_AC,2022.2.5,60.07333463057757,
25,First_Order,5.0,audwhere,stimulus/audwhere_stim/dummy.wav,stimulus/audwhere_stim/dummy.wav,stimulus/audwhere_stim/right_toward_280h.wav,stimulus/audwhere_stim/right_away_290h.wav,stimulus/audwhere_stim/blank_white.png,stimulus/audwhere_stim/side_box.png,stimulus/audwhere_stim/side_yes.png,stimulus/audwhere_stim/side_no.png,None,Side,None,Side,1,0.0,0,5.125,0,5.125,0,5.125,0,0.0,0.625,0,0.0,0,0.0,0,0.0,0,0.0,0,0.0,0,0.0,1,0.5,1,2.125,0,,,,,0,33,33,33,,,,,,,,,315.63257341703866,315.63257341703866,315.63257341703866,315.63257341703866,315.63257341703866,315.63257341703866,315.63257341703866,315.63257341703866,315.56194937465864,315.63257341703866,315.63257341703866,315.63257341703866,315.56194937465864,315.63257341703866,315.63257341703866,315.63257341703866,317.71230912499595,,315.63257341703866,315.63257341703866,320.8169661669526,315.63257341703866,315.63257341703866,315.63257341703866,315.63257341703866,316.09595795802306,317.1601734999567,316.0664064996565,,317.71230912499595,318.7825528749963,317.68281387462434,,315.63257341703866,320.8169661669526,315.63257341703866,320.8169661669526,320.8582216670038,321.5105000420008,315.63257341703866,1,1,0.6282688749488443,reldom2_s033,001,2025-03-12_17h00.28.642,Where-B-Scan_AC,2022.2.5,60.07333463057757,
26,First_Order,5.0,audwhere,stimulus/audwhere_stim/dummy.wav,stimulus/audwhere_stim/dummy.wav,stimulus/audwhere_stim/right_toward_300h.wav,stimulus/audwhere_stim/left_toward_270h.wav,stimulus/audwhere_stim/blank_white.png,stimulus/audwhere_stim/direction_box.png,stimulus/audwhere_stim/direction_yes.png,stimulus/audwhere_stim/direction_no.png,None,Direction,None,Direction,1,0.0,0,5.125,0,5.125,0,5.125,0,0.0,0.625,0,0.0,0,0.0,0,0.0,0,0.0,0,0.0,0,0.0,1,0.5,1,2.125,0,,,,,0,34,34,34,,,,,,,,,321.72293666703627,321.72293666703627,321.72293666703627,321.72293666703627,321.72293666703627,321.72293666703627,321.72293666703627,321.72293666703627,321.6438333753341,321.72293666703627,321.72293666703627,321.72293666703627,321.6438333753341,321.72293666703627,321.72293666703627,321.72293666703627,323.8242175830528,327.85084262501914,321.72293666703627,321.72293666703627,326.89747679198626,321.72293666703627,321.72293666703627,321.72293666703627,321.72293666703627,322.1894643330015,323.2186352079734,322.1592533336409,,323.8242175830528,324.8995657500345,323.79421312461295,,321.72293666703627,326.89747679198626,321.72293666703627,326.89747679198626,326.9382051669527,327.5924656250281,321.72293666703627,1,1,0.8571514580398798,reldom2_s033,001,2025-03-12_17h00.28.642,Where-B-Scan_AC,2022.2.5,60.07333463057757,
27,First_Order,5.0,audwhere,stimulus/audwhere_stim/dummy.wav,stimulus/audwhere_stim/dummy.wav,stimulus/audwhere_stim/left_toward_290h.wav,stimulus/audwhere_stim/left_away_300h.wav,stimulus/audwhere_stim/blank_white.png,stimulus/audwhere_stim/direction_box.png,stimulus/audwhere_stim/direction_yes.png,stimulus/audwhere_stim/direction_no.png,None,Direction,None,Side,2,0.0,0,5.125,0,5.125,0,5.125,0,0.0,0.625,0,0.0,0,0.0,0,0.0,0,0.0,0,0.0,0,0.0,1,0.5,1,2.125,0,,,,,0,35,35,35,,,,,,,,,327.85084262501914,327.85084262501914,327.85084262501914,327.85084262501914,327.85084262501914,327.85084262501914,327.85084262501914,327.85084262501914,327.7667557912956,327.85084262501914,327.85084262501914,327.85084262501914,327.7667557912956,327.85084262501914,327.85084262501914,327.85084262501914,329.9444467499852,333.9732390829595,327.85084262501914,327.85084262501914,333.0223138750298,327.85084262501914,327.85084262501914,327.85084262501914,327.85084262501914,328.316141749965,329.3865612919908,328.2859878336933,,329.9444467499852,331.01924699998926,329.91399024968655,,327.85084262501914,333.0223138750298,327.85084262501914,333.0223138750298,333.0642059169477,333.71922025003005,327.85084262501914,2,1,1.1628248749766499,reldom2_s033,001,2025-03-12_17h00.28.642,Where-B-Scan_AC,2022.2.5,60.07333463057757,
28,First_Order,5.0,audwhere,stimulus/audwhere_stim/dummy.wav,stimulus/audwhere_stim/dummy.wav,stimulus/audwhere_stim/right_away_300h.wav,stimulus/audwhere_stim/right_toward_290h.wav,stimulus/audwhere_stim/blank_white.png,stimulus/audwhere_stim/direction_box.png,stimulus/audwhere_stim/direction_yes.png,stimulus/audwhere_stim/direction_no.png,None,Direction,None,Side,2,0.0,0,5.125,0,5.125,0,5.125,0,0.0,0.625,0,0.0,0,0.0,0,0.0,0,0.0,0,0.0,0,0.0,1,0.5,1,2.125,0,,,,,0,36,36,36,,,,,,,,,333.9732390829595,333.9732390829595,333.9732390829595,333.9732390829595,333.9732390829595,333.9732390829595,333.9732390829595,333.9732390829595,333.8936890412898,333.9732390829595,333.9732390829595,333.9732390829595,333.8936890412898,333.9732390829595,333.9732390829595,333.9732390829595,336.0671573750442,340.124144542031,333.9732390829595,333.9732390829595,339.15247308299877,333.9732390829595,333.9732390829595,333.9732390829595,333.9732390829595,334.4374223330524,335.50826366699766,334.4071362916768,,336.0671573750442,337.1004664170323,336.03720324970004,,333.9732390829595,339.15247308299877,333.9732390829595,339.15247308299877,339.1936580420006,339.84971516695805,333.9732390829595,2,1,0.875429957988672,reldom2_s033,001,2025-03-12_17h00.28.642,Where-B-Scan_AC,2022.2.5,60.07333463057757,
0,0.0,None,fixation,stimulus/audwhere_stim/blank_white.png,stimulus/audwhere_stim/blank_white.png,stimulus/viswhere_stim/blank_white.png,stimulus/viswhere_stim/blank_white.png,stimulus/audwhere_stim/blank_white.png,stimulus/audwhere_stim/blank_white.png,stimulus/audwhere_stim/blank_white.png,stimulus/audwhere_stim/blank_white.png,0.0,0.0,0.0,0.0,0,0.0,0,0.0,0,0.0,0,0.0,0,0.0,0.0,0,0.0,0,0.0,0,0.0,0,0.0,0,0.0,0,0.0,0,0.0,0,0.0,10,,,,,0,37,37,37,,,,,,,,,340.124144542031,340.124144542031,340.124144542031,340.124144542031,340.124144542031,340.124144542031,340.124144542031,340.124144542031,340.0242922503113,340.124144542031,340.124144542031,340.124144542031,340.0242922503113,340.124144542031,340.124144542031,340.124144542031,340.124144542031,340.124144542031,340.124144542031,340.124144542031,340.124144542031,340.124144542031,340.124144542031,340.124144542031,340.124144542031,340.124144542031,340.124144542031,340.0742922503113,340.124144542031,340.124144542031,340.124144542031,340.0742922503113,340.124144542031,340.124144542031,340.124144542031,340.124144542031,340.124144542031,345.3296815829817,345.3296815829817,350.29871074995026,None,0,,reldom2_s033,001,2025-03-12_17h00.28.642,Where-B-Scan_AC,2022.2.5,60.07333463057757,
29,Second_Order,5.0,audwhere,stimulus/audwhere_stim/right_toward_270h.wav,stimulus/audwhere_stim/right_away_280h.wav,stimulus/audwhere_stim/left_away_270h.wav,stimulus/audwhere_stim/right_away_300h.wav,stimulus/audwhere_stim/match_blank.png,stimulus/audwhere_stim/match_box.png,stimulus/audwhere_stim/match_yes.png,stimulus/audwhere_stim/match_no.png,2.0,Match,Side,Direction,2,5.125,0,5.125,0,5.125,0,5.125,0,0.75,0.75,0,0.0,0,0.0,0,0.0,0,0.0,1,0.5,1,2.125,1,0.5,1,2.125,0,,,,,0,38,38,38,,,,,,,,,350.29871074995026,355.4194974580314,350.29871074995026,350.29871074995026,350.29871074995026,350.29871074995026,350.7583501669578,351.74743395799305,350.76120441669286,351.74743395799305,352.3836442079628,353.3813645830378,352.395954749609,,355.4194974580314,356.2714058329584,358.3481805829797,362.26344008301385,356.2714058329584,356.2714058329584,361.4544554169988,356.2714058329584,356.2714058329584,356.2714058329584,356.2714058329584,356.6849134169752,357.7473377919523,356.6553002086623,,358.3481805829797,359.4197323330445,358.31828583364063,,356.2714058329584,361.4544554169988,356.2714058329584,361.4544554169988,361.4544554169988,,356.2714058329584,2,1,0.5203098328784108,reldom2_s033,001,2025-03-12_17h00.28.642,Where-B-Scan_AC,2022.2.5,60.07333463057757,
30,Second_Order,5.0,audwhere,stimulus/audwhere_stim/right_away_300h.wav,stimulus/audwhere_stim/right_toward_300h.wav,stimulus/audwhere_stim/left_toward_290h.wav,stimulus/audwhere_stim/left_away_270h.wav,stimulus/audwhere_stim/match_blank.png,stimulus/audwhere_stim/match_box.png,stimulus/audwhere_stim/match_yes.png,stimulus/audwhere_stim/match_no.png,1.0,Match,Side,Side,1,5.125,0,5.125,0,5.125,0,5.125,0,0.625,0.625,0,0.0,0,0.0,0,0.0,0,0.0,1,0.5,1,2.125,1,0.5,1,2.125,0,,,,,0,39,39,39,,,,,,,,,362.26344008301385,367.3851467500208,362.26344008301385,362.26344008301385,362.26344008301385,362.26344008301385,362.7221946249483,363.7092779580271,362.7357317086464,,364.3440073749516,365.34235900000203,364.3568009586927,,367.3851467500208,368.1144247079501,370.17426666698884,374.22098020801786,368.1144247079501,368.1144247079501,373.3000646249857,368.1144247079501,368.1144247079501,368.1144247079501,368.1144247079501,368.5701240419876,369.62312725000083,368.54076879163426,,370.17426666698884,371.2335334169911,370.14582491672286,,368.1144247079501,373.3000646249857,368.1144247079501,373.3000646249857,373.3000646249857,373.9889704580419,368.1144247079501,1,1,0.6510535829002038,reldom2_s033,001,2025-03-12_17h00.28.642,Where-B-Scan_AC,2022.2.5,60.07333463057757,
0,0.0,None,fixation,stimulus/audwhere_stim/blank_white.png,stimulus/audwhere_stim/blank_white.png,stimulus/viswhere_stim/blank_white.png,stimulus/viswhere_stim/blank_white.png,stimulus/audwhere_stim/blank_white.png,stimulus/audwhere_stim/blank_white.png,stimulus/audwhere_stim/blank_white.png,stimulus/audwhere_stim/blank_white.png,0.0,0.0,0.0,0.0,0,0.0,0,0.0,0,0.0,0,0.0,0,0.0,0.0,0,0.0,0,0.0,0,0.0,0,0.0,0,0.0,0,0.0,0,0.0,0,0.0,8,,,,,0,40,40,40,,,,,,,,,374.22098020801786,374.22098020801786,374.22098020801786,374.22098020801786,374.22098020801786,374.22098020801786,374.22098020801786,374.22098020801786,374.1223037913752,374.22098020801786,374.22098020801786,374.22098020801786,374.1223037913752,374.22098020801786,374.22098020801786,374.22098020801786,374.22098020801786,374.22098020801786,374.22098020801786,374.22098020801786,374.22098020801786,374.22098020801786,374.22098020801786,374.22098020801786,374.22098020801786,374.22098020801786,374.22098020801786,374.1723037913752,374.22098020801786,374.22098020801786,374.22098020801786,374.1723037913752,374.22098020801786,374.22098020801786,374.22098020801786,374.22098020801786,374.22098020801786,379.42075833305717,379.42075833305717,382.4813856249675,None,0,,reldom2_s033,001,2025-03-12_17h00.28.642,Where-B-Scan_AC,2022.2.5,60.07333463057757,
31,First_Order,6.0,audwhere,stimulus/audwhere_stim/dummy.wav,stimulus/audwhere_stim/dummy.wav,stimulus/audwhere_stim/left_toward_270h.wav,stimulus/audwhere_stim/right_toward_280h.wav,stimulus/audwhere_stim/blank_white.png,stimulus/audwhere_stim/side_box.png,stimulus/audwhere_stim/side_yes.png,stimulus/audwhere_stim/side_no.png,None,Side,None,Direction,2,0.0,0,5.125,0,5.125,0,5.125,0,0.0,0.625,0,0.0,0,0.0,0,0.0,0,0.0,0,0.0,0,0.0,1,0.5,1,2.125,0,,,,,0,41,41,41,,,,,,,,,382.4813856249675,382.4813856249675,382.4813856249675,382.4813856249675,382.4813856249675,382.4813856249675,382.4813856249675,382.4813856249675,382.40868229166756,382.4813856249675,382.4813856249675,382.4813856249675,382.40868229166756,382.4813856249675,382.4813856249675,382.4813856249675,384.5566928749904,388.6113614169881,382.4813856249675,382.4813856249675,387.6587636669865,382.4813856249675,382.4813856249675,382.4813856249675,382.4813856249675,382.9455600420479,384.00624037499074,382.9159309996214,,384.5566928749904,385.62517620797735,384.52780337463287,,382.4813856249675,387.6587636669865,382.4813856249675,387.6587636669865,387.6999362499919,388.3546634169761,382.4813856249675,2,1,0.6795068749925122,reldom2_s033,001,2025-03-12_17h00.28.642,Where-B-Scan_AC,2022.2.5,60.07333463057757,
32,First_Order,6.0,audwhere,stimulus/audwhere_stim/dummy.wav,stimulus/audwhere_stim/dummy.wav,stimulus/audwhere_stim/right_toward_280h.wav,stimulus/audwhere_stim/left_toward_290h.wav,stimulus/audwhere_stim/blank_white.png,stimulus/audwhere_stim/direction_box.png,stimulus/audwhere_stim/direction_yes.png,stimulus/audwhere_stim/direction_no.png,None,Direction,None,Direction,1,0.0,0,5.125,0,5.125,0,5.125,0,0.0,0.625,0,0.0,0,0.0,0,0.0,0,0.0,0,0.0,0,0.0,1,0.5,1,2.125,0,,,,,0,42,42,42,,,,,,,,,388.6113614169881,388.6113614169881,388.6113614169881,388.6113614169881,388.6113614169881,388.6113614169881,388.6113614169881,388.6113614169881,388.5293020413102,388.6113614169881,388.6113614169881,388.6113614169881,388.5293020413102,388.6113614169881,388.6113614169881,388.6113614169881,390.70747520797886,394.73509270802606,388.6113614169881,388.6113614169881,393.7842149169883,388.6113614169881,388.6113614169881,388.6113614169881,388.6113614169881,389.07788887503557,390.14693170797545,389.04850891669435,,390.70747520797886,391.7364891669713,390.6759849587145,,388.6113614169881,393.7842149169883,388.6113614169881,393.7842149169883,393.82513333298266,394.4801505829673,388.6113614169881,1,1,0.7216972078895196,reldom2_s033,001,2025-03-12_17h00.28.642,Where-B-Scan_AC,2022.2.5,60.07333463057757,
33,First_Order,6.0,audwhere,stimulus/audwhere_stim/dummy.wav,stimulus/audwhere_stim/dummy.wav,stimulus/audwhere_stim/left_toward_270h.wav,stimulus/audwhere_stim/left_away_300h.wav,stimulus/audwhere_stim/blank_white.png,stimulus/audwhere_stim/side_box.png,stimulus/audwhere_stim/side_yes.png,stimulus/audwhere_stim/side_no.png,None,Side,None,Side,1,0.0,0,5.125,0,5.125,0,5.125,0,0.0,0.625,0,0.0,0,0.0,0,0.0,0,0.0,0,0.0,0,0.0,1,0.5,1,2.125,0,,,,,0,43,43,43,,,,,,,,,394.73509270802606,394.73509270802606,394.73509270802606,394.73509270802606,394.73509270802606,394.73509270802606,394.73509270802606,394.73509270802606,394.6546109163047,394.73509270802606,394.73509270802606,394.73509270802606,394.6546109163047,394.73509270802606,394.73509270802606,394.73509270802606,396.8213654999854,,394.73509270802606,394.73509270802606,399.92628991696984,394.73509270802606,394.73509270802606,394.73509270802606,394.73509270802606,395.1984127080068,396.2640554170357,395.1687977086442,,396.8213654999854,397.8882867919747,396.7913221666279,,394.73509270802606,399.92628991696984,394.73509270802606,399.92628991696984,399.92628991696984,400.5794593329774,394.73509270802606,1,1,1.1857377500273287,reldom2_s033,001,2025-03-12_17h00.28.642,Where-B-Scan_AC,2022.2.5,60.07333463057757,
34,First_Order,6.0,audwhere,stimulus/audwhere_stim/dummy.wav,stimulus/audwhere_stim/dummy.wav,stimulus/audwhere_stim/right_toward_300h.wav,stimulus/audwhere_stim/left_toward_290h.wav,stimulus/audwhere_stim/blank_white.png,stimulus/audwhere_stim/side_box.png,stimulus/audwhere_stim/side_yes.png,stimulus/audwhere_stim/side_no.png,None,Side,None,Direction,2,0.0,0,5.125,0,5.125,0,5.125,0,0.0,0.625,0,0.0,0,0.0,0,0.0,0,0.0,0,0.0,0,0.0,1,0.5,1,2.125,0,,,,,0,44,44,44,,,,,,,,,400.83333074999973,400.83333074999973,400.83333074999973,400.83333074999973,400.83333074999973,400.83333074999973,400.83333074999973,400.83333074999973,400.75362429130666,400.83333074999973,400.83333074999973,400.83333074999973,400.75362429130666,400.83333074999973,400.83333074999973,400.83333074999973,402.917801167001,,400.83333074999973,400.83333074999973,406.02429308299907,400.83333074999973,400.83333074999973,400.83333074999973,400.83333074999973,401.2974285830278,402.3614744170336,401.26766387460907,,402.917801167001,403.98736087500583,402.8874263336804,,400.83333074999973,406.02429308299907,400.83333074999973,406.02429308299907,406.02429308299907,406.6799412500113,400.83333074999973,2,1,0.9633775000693277,reldom2_s033,001,2025-03-12_17h00.28.642,Where-B-Scan_AC,2022.2.5,60.07333463057757,
0,0.0,None,fixation,stimulus/audwhere_stim/blank_white.png,stimulus/audwhere_stim/blank_white.png,stimulus/viswhere_stim/blank_white.png,stimulus/viswhere_stim/blank_white.png,stimulus/audwhere_stim/blank_white.png,stimulus/audwhere_stim/blank_white.png,stimulus/audwhere_stim/blank_white.png,stimulus/audwhere_stim/blank_white.png,0.0,0.0,0.0,0.0,0,0.0,0,0.0,0,0.0,0,0.0,0,0.0,0.0,0,0.0,0,0.0,0,0.0,0,0.0,0,0.0,0,0.0,0,0.0,0,0.0,8,,,,,0,45,45,45,,,,,,,,,406.95615983300377,406.95615983300377,406.95615983300377,406.95615983300377,406.95615983300377,406.95615983300377,406.95615983300377,406.95615983300377,406.85502929138795,406.95615983300377,406.95615983300377,406.95615983300377,406.85502929138795,406.95615983300377,406.95615983300377,406.95615983300377,406.95615983300377,406.95615983300377,406.95615983300377,406.95615983300377,406.95615983300377,406.95615983300377,406.95615983300377,406.95615983300377,406.95615983300377,406.95615983300377,406.95615983300377,406.90502929138796,406.95615983300377,406.95615983300377,406.95615983300377,406.90502929138796,406.95615983300377,406.95615983300377,406.95615983300377,406.95615983300377,406.95615983300377,412.14437512494624,412.14437512494624,415.12631670804694,None,0,,reldom2_s033,001,2025-03-12_17h00.28.642,Where-B-Scan_AC,2022.2.5,60.07333463057757,
35,Second_Order,6.0,audwhere,stimulus/audwhere_stim/left_toward_280h.wav,stimulus/audwhere_stim/right_toward_270h.wav,stimulus/audwhere_stim/left_away_300h.wav,stimulus/audwhere_stim/right_away_280h.wav,stimulus/audwhere_stim/match_blank.png,stimulus/audwhere_stim/match_box.png,stimulus/audwhere_stim/match_yes.png,stimulus/audwhere_stim/match_no.png,1.0,Match,Direction,Direction,1,5.125,0,5.125,0,5.125,0,5.125,0,0.75,0.75,0,0.0,0,0.0,0,0.0,0,0.0,1,0.5,1,2.125,1,0.5,1,2.125,0,,,,,0,46,46,46,,,,,,,,,415.12631670804694,420.2399552500574,415.12631670804694,415.12631670804694,415.12631670804694,415.12631670804694,415.57743941701483,416.56413470802363,415.5915346666627,,417.1992850829847,418.19746354199015,417.21205149969705,,420.2399552500574,421.0790480830474,423.1612720419653,427.08155808295123,421.0790480830474,421.0790480830474,426.2657575829653,421.0790480830474,421.0790480830474,421.0790480830474,421.0790480830474,421.5388431249885,422.6034355419688,421.50915287464545,,423.1612720419653,424.23000204202253,423.1314273746141,,421.0790480830474,426.2657575829653,421.0790480830474,426.2657575829653,426.2657575829653,,421.0790480830474,1,1,0.9283793329959735,reldom2_s033,001,2025-03-12_17h00.28.642,Where-B-Scan_AC,2022.2.5,60.07333463057757,
36,Second_Order,6.0,audwhere,stimulus/audwhere_stim/left_toward_300h.wav,stimulus/audwhere_stim/right_toward_280h.wav,stimulus/audwhere_stim/left_away_300h.wav,stimulus/audwhere_stim/right_away_300h.wav,stimulus/audwhere_stim/match_blank.png,stimulus/audwhere_stim/match_box.png,stimulus/audwhere_stim/match_yes.png,stimulus/audwhere_stim/match_no.png,1.0,Match,Direction,Direction,1,5.125,0,5.125,0,5.125,0,5.125,0,0.625,0.625,0,0.0,0,0.0,0,0.0,0,0.0,1,0.5,1,2.125,1,0.5,1,2.125,0,,,,,0,47,47,47,,,,,,,,,427.08155808295123,432.20142908301204,427.08155808295123,427.08155808295123,427.08155808295123,427.08155808295123,427.5399285419844,428.5381993330084,427.5527986667041,,429.16041925002355,430.15869225002825,429.1730106666839,430.1625161250122,432.20142908301204,432.93143541703466,434.9919521249831,439.0468503329903,432.93143541703466,432.93143541703466,438.12108570802957,432.93143541703466,432.93143541703466,432.93143541703466,432.93143541703466,433.38723300001584,434.44072991702706,433.3576363747163,,434.9919521249831,436.05547608295456,434.9624446246928,,432.93143541703466,438.12108570802957,432.93143541703466,438.12108570802957,438.12108570802957,438.77281370805576,432.93143541703466,1,1,0.7921825830126181,reldom2_s033,001,2025-03-12_17h00.28.642,Where-B-Scan_AC,2022.2.5,60.07333463057757,
0,0.0,None,fixation,stimulus/audwhere_stim/blank_white.png,stimulus/audwhere_stim/blank_white.png,stimulus/viswhere_stim/blank_white.png,stimulus/viswhere_stim/blank_white.png,stimulus/audwhere_stim/blank_white.png,stimulus/audwhere_stim/blank_white.png,stimulus/audwhere_stim/blank_white.png,stimulus/audwhere_stim/blank_white.png,0.0,0.0,0.0,0.0,0,0.0,0,0.0,0,0.0,0,0.0,0,0.0,0.0,0,0.0,0,0.0,0,0.0,0,0.0,0,0.0,0,0.0,0,0.0,0,0.0,10,,,,,0,48,48,48,,,,,,,,,439.0468503329903,439.0468503329903,439.0468503329903,439.0468503329903,439.0468503329903,439.0468503329903,439.0468503329903,439.0468503329903,438.9458069163685,439.0468503329903,439.0468503329903,439.0468503329903,438.9458069163685,439.0468503329903,439.0468503329903,439.0468503329903,439.0468503329903,439.0468503329903,439.0468503329903,439.0468503329903,439.0468503329903,439.0468503329903,439.0468503329903,439.0468503329903,439.0468503329903,439.0468503329903,439.0468503329903,438.9958069163685,439.0468503329903,439.0468503329903,439.0468503329903,438.9958069163685,439.0468503329903,439.0468503329903,439.0468503329903,439.0468503329903,439.0468503329903,444.25150166696403,444.25150166696403,449.24329945794307,None,0,,reldom2_s033,001,2025-03-12_17h00.28.642,Where-B-Scan_AC,2022.2.5,60.07333463057757,
37,First_Order,7.0,viswhere,stimulus/viswhere_stim/blank_white.png,stimulus/viswhere_stim/blank_white.png,stimulus/viswhere_stim/150-deg_dot-left_turquoise.png,stimulus/viswhere_stim/120-deg_dot-left_mediumslateblue.png,stimulus/viswhere_stim/blank_white.png,stimulus/viswhere_stim/line_box.png,stimulus/viswhere_stim/line_yes.png,stimulus/viswhere_stim/line_no.png,None,Line,None,Dot,2,0.0,0,5.125,0,5.125,0,5.125,0,0.0,0.625,0,0.0,0,0.0,1,0.5,1,2.125,0,0.0,0,0.0,0,0.0,0,0.0,0,,,,,0,49,49,49,,,,,,,,,449.24329945794307,449.24329945794307,449.24329945794307,449.24329945794307,449.24329945794307,449.24329945794307,449.24329945794307,449.24329945794307,449.2227164996244,449.24329945794307,449.24329945794307,449.24329945794307,449.2227164996244,449.24329945794307,449.24329945794307,449.24329945794307,451.3546483749524,455.29729829204734,449.24329945794307,449.24329945794307,454.37456699996255,449.72203970805276,450.7415708330227,451.3546483749524,452.3591269579483,449.24329945794307,449.24329945794307,449.23938316629113,449.24329945794307,449.24329945794307,449.24329945794307,449.23938316629113,449.24329945794307,449.24329945794307,454.37456699996255,449.24329945794307,454.37456699996255,454.4579826670233,455.07910241698846,449.24329945794307,2,1,0.7905325830215588,reldom2_s033,001,2025-03-12_17h00.28.642,Where-B-Scan_AC,2022.2.5,60.07333463057757,
38,First_Order,7.0,viswhere,stimulus/viswhere_stim/blank_white.png,stimulus/viswhere_stim/blank_white.png,stimulus/viswhere_stim/120-deg_dot-left_mediumslateblue.png,stimulus/viswhere_stim/120-deg_dot-right_seagreen.png,stimulus/viswhere_stim/blank_white.png,stimulus/viswhere_stim/dot_box.png,stimulus/viswhere_stim/dot_yes.png,stimulus/viswhere_stim/dot_no.png,None,Dot,None,Line,2,0.0,0,5.125,0,5.125,0,5.125,0,0.0,0.625,0,0.0,0,0.0,1,0.5,1,2.125,0,0.0,0,0.0,0,0.0,0,0.0,0,,,,,0,50,50,50,,,,,,,,,455.29729829204734,455.29729829204734,455.29729829204734,455.29729829204734,455.29729829204734,455.29729829204734,455.29729829204734,455.29729829204734,455.27630800028174,455.29729829204734,455.29729829204734,455.29729829204734,455.27630800028174,455.29729829204734,455.29729829204734,455.29729829204734,457.41078854200896,461.38373591704294,455.29729829204734,455.29729829204734,460.4279797079507,455.7735540829599,456.7832655420061,457.41078854200896,458.42690441699233,455.29729829204734,455.29729829204734,455.2929746669484,455.29729829204734,455.29729829204734,455.29729829204734,455.2929746669484,455.29729829204734,455.29729829204734,460.4279797079507,455.29729829204734,460.4279797079507,460.5250708749518,461.15339179197326,455.29729829204734,2,1,0.8442964159185067,reldom2_s033,001,2025-03-12_17h00.28.642,Where-B-Scan_AC,2022.2.5,60.07333463057757,
39,First_Order,7.0,viswhere,stimulus/viswhere_stim/blank_white.png,stimulus/viswhere_stim/blank_white.png,stimulus/viswhere_stim/60-deg_dot-right_salmon.png,stimulus/viswhere_stim/60-deg_dot-left_peru.png,stimulus/viswhere_stim/blank_white.png,stimulus/viswhere_stim/line_box.png,stimulus/viswhere_stim/line_yes.png,stimulus/viswhere_stim/line_no.png,None,Line,None,Line,1,0.0,0,5.125,0,5.125,0,5.125,0,0.0,0.625,0,0.0,0,0.0,1,0.5,1,2.125,0,0.0,0,0.0,0,0.0,0,0.0,0,,,,,0,51,51,51,,,,,,,,,461.38373591704294,461.38373591704294,461.38373591704294,461.38373591704294,461.38373591704294,461.38373591704294,461.38373591704294,461.38373591704294,461.3632929162898,461.38373591704294,461.38373591704294,461.38373591704294,461.3632929162898,461.38373591704294,461.38373591704294,461.38373591704294,463.4997644169489,467.4523068330018,461.38373591704294,461.38373591704294,466.52530216705054,461.85992912505753,462.8728858330287,463.4997644169489,464.5180077080149,461.38373591704294,461.38373591704294,461.3799595829565,461.38373591704294,461.38373591704294,461.38373591704294,461.3799595829565,461.38373591704294,461.38373591704294,466.52530216705054,461.38373591704294,466.52530216705054,466.6086891669547,467.23373954195995,461.38373591704294,1,1,0.6758039159467444,reldom2_s033,001,2025-03-12_17h00.28.642,Where-B-Scan_AC,2022.2.5,60.07333463057757,
40,First_Order,7.0,viswhere,stimulus/viswhere_stim/blank_white.png,stimulus/viswhere_stim/blank_white.png,stimulus/viswhere_stim/60-deg_dot-right_slateblue.png,stimulus/viswhere_stim/90-deg_dot-right_royalblue.png,stimulus/viswhere_stim/blank_white.png,stimulus/viswhere_stim/dot_box.png,stimulus/viswhere_stim/dot_yes.png,stimulus/viswhere_stim/dot_no.png,None,Dot,None,Dot,1,0.0,0,5.125,0,5.125,0,5.125,0,0.0,0.625,0,0.0,0,0.0,1,0.5,1,2.125,0,0.0,0,0.0,0,0.0,0,0.0,0,,,,,0,52,52,52,,,,,,,,,467.4523068330018,467.4523068330018,467.4523068330018,467.4523068330018,467.4523068330018,467.4523068330018,467.4523068330018,467.4523068330018,467.43089237537544,467.4523068330018,467.4523068330018,467.4523068330018,467.43089237537544,467.4523068330018,467.4523068330018,467.4523068330018,469.55276266695,473.6032368330052,467.4523068330018,467.4523068330018,472.577044500038,467.9296622079564,468.9422452499857,469.55276266695,470.5715652080253,467.4523068330018,467.4523068330018,467.4475590420421,467.4523068330018,467.4523068330018,467.4523068330018,467.4475590420421,467.4523068330018,467.4523068330018,472.577044500038,467.4523068330018,472.577044500038,472.67551924998406,473.3074684579624,467.4523068330018,1,1,0.7214252080302685,reldom2_s033,001,2025-03-12_17h00.28.642,Where-B-Scan_AC,2022.2.5,60.07333463057757,
0,0.0,None,fixation,stimulus/audwhere_stim/blank_white.png,stimulus/audwhere_stim/blank_white.png,stimulus/viswhere_stim/blank_white.png,stimulus/viswhere_stim/blank_white.png,stimulus/audwhere_stim/blank_white.png,stimulus/audwhere_stim/blank_white.png,stimulus/audwhere_stim/blank_white.png,stimulus/audwhere_stim/blank_white.png,0.0,0.0,0.0,0.0,0,0.0,0,0.0,0,0.0,0,0.0,0,0.0,0.0,0,0.0,0,0.0,0,0.0,0,0.0,0,0.0,0,0.0,0,0.0,0,0.0,8,,,,,0,53,53,53,,,,,,,,,473.6032368330052,473.6032368330052,473.6032368330052,473.6032368330052,473.6032368330052,473.6032368330052,473.6032368330052,473.6032368330052,473.50157233335386,473.6032368330052,473.6032368330052,473.6032368330052,473.50157233335386,473.6032368330052,473.6032368330052,473.6032368330052,473.6032368330052,473.6032368330052,473.6032368330052,473.6032368330052,473.6032368330052,473.6032368330052,473.6032368330052,473.6032368330052,473.6032368330052,473.6032368330052,473.6032368330052,473.5515723333539,473.6032368330052,473.6032368330052,473.6032368330052,473.5515723333539,473.6032368330052,473.6032368330052,473.6032368330052,473.6032368330052,473.6032368330052,478.811525166966,478.811525166966,481.7208322919905,None,0,,reldom2_s033,001,2025-03-12_17h00.28.642,Where-B-Scan_AC,2022.2.5,60.07333463057757,
41,Second_Order,7.0,viswhere,stimulus/viswhere_stim/60-deg_dot-right_seagreen.png,stimulus/viswhere_stim/30-deg_dot-right_mediumslateblue.png,stimulus/viswhere_stim/60-deg_dot-left_mediumslateblue.png,stimulus/viswhere_stim/150-deg_dot-left_salmon.png,stimulus/audwhere_stim/match_blank.png,stimulus/audwhere_stim/match_box.png,stimulus/audwhere_stim/match_yes.png,stimulus/audwhere_stim/match_no.png,1.0,Match,Dot,Dot,1,5.125,0,5.125,0,5.125,0,5.125,0,0.75,0.75,1,0.5,1,2.125,1,0.5,1,2.125,0,0.0,0,0.0,0,0.0,0,0.0,0,,,,,0,54,54,54,,,,,,,,,481.7208322919905,486.84453133295756,482.1978085830342,483.18558129202574,483.8205265830038,484.8177961669862,481.7208322919905,481.7208322919905,481.7340106253124,481.7208322919905,481.7208322919905,481.7208322919905,481.7340106253124,481.7208322919905,486.84453133295756,487.6397620829521,489.72172820800915,493.5816787920194,487.6397620829521,487.6397620829521,492.7793283329811,488.08589287498035,489.0878679580055,489.72172820800915,490.7315850419691,487.6397620829521,487.6397620829521,487.6298035420012,487.6397620829521,487.6397620829521,487.6397620829521,487.6298035420012,487.6397620829521,487.6397620829521,492.7793283329811,487.6397620829521,492.7793283329811,492.83870691701304,493.618539166986,487.6397620829521,1,1,0.8219817910576239,reldom2_s033,001,2025-03-12_17h00.28.642,Where-B-Scan_AC,2022.2.5,60.07333463057757,
42,Second_Order,7.0,viswhere,stimulus/viswhere_stim/90-deg_dot-right_goldenrod.png,stimulus/viswhere_stim/120-deg_dot-right_mediumslateblue.png,stimulus/viswhere_stim/60-deg_dot-right_peru.png,stimulus/viswhere_stim/60-deg_dot-left_mediumslateblue.png,stimulus/audwhere_stim/match_blank.png,stimulus/audwhere_stim/match_box.png,stimulus/audwhere_stim/match_yes.png,stimulus/audwhere_stim/match_no.png,2.0,Match,Dot,Line,2,5.125,0,5.125,0,5.125,0,5.125,0,0.625,0.625,1,0.5,1,2.125,1,0.5,1,2.125,0,0.0,0,0.0,0,0.0,0,0.0,0,,,,,0,55,55,55,,,,,,,,,493.618539166986,498.73861733300146,494.1066477079876,495.0952743330272,495.7313239170471,496.72957383305766,493.618539166986,493.618539166986,493.6316787920194,493.618539166986,493.618539166986,493.618539166986,493.6316787920194,493.618539166986,498.73861733300146,499.40858799999114,501.49488804198336,505.5291107080411,499.40858799999114,499.40858799999114,504.54651766701136,499.8716170419939,500.8852403749479,501.49488804198336,502.49709033302497,499.40858799999114,499.40858799999114,499.3858041663266,499.40858799999114,499.40858799999114,499.40858799999114,499.3858041663266,499.40858799999114,499.40858799999114,504.54651766701136,499.40858799999114,504.54651766701136,504.60083295800723,505.23399283294566,499.40858799999114,2,1,0.6825899999821559,reldom2_s033,001,2025-03-12_17h00.28.642,Where-B-Scan_AC,2022.2.5,60.07333463057757,
0,0.0,None,fixation,stimulus/audwhere_stim/blank_white.png,stimulus/audwhere_stim/blank_white.png,stimulus/viswhere_stim/blank_white.png,stimulus/viswhere_stim/blank_white.png,stimulus/audwhere_stim/blank_white.png,stimulus/audwhere_stim/blank_white.png,stimulus/audwhere_stim/blank_white.png,stimulus/audwhere_stim/blank_white.png,0.0,0.0,0.0,0.0,0,0.0,0,0.0,0,0.0,0,0.0,0,0.0,0.0,0,0.0,0,0.0,0,0.0,0,0.0,0,0.0,0,0.0,0,0.0,0,0.0,8,,,,,0,56,56,56,,,,,,,,,505.5291107080411,505.5291107080411,505.5291107080411,505.5291107080411,505.5291107080411,505.5291107080411,505.5291107080411,505.5291107080411,505.42864300038974,505.5291107080411,505.5291107080411,505.5291107080411,505.42864300038974,505.5291107080411,505.5291107080411,505.5291107080411,505.5291107080411,505.5291107080411,505.5291107080411,505.5291107080411,505.5291107080411,505.5291107080411,505.5291107080411,505.5291107080411,505.5291107080411,505.5291107080411,505.5291107080411,505.47864300038975,505.5291107080411,505.5291107080411,505.5291107080411,505.47864300038975,505.5291107080411,505.5291107080411,505.5291107080411,505.5291107080411,505.5291107080411,510.75830258300994,510.75830258300994,513.7241648329655,None,0,,reldom2_s033,001,2025-03-12_17h00.28.642,Where-B-Scan_AC,2022.2.5,60.07333463057757,
43,First_Order,8.0,viswhere,stimulus/viswhere_stim/blank_white.png,stimulus/viswhere_stim/blank_white.png,stimulus/viswhere_stim/120-deg_dot-left_lightsseagreen.png,stimulus/viswhere_stim/120-deg_dot-right_royalblue.png,stimulus/viswhere_stim/blank_white.png,stimulus/viswhere_stim/line_box.png,stimulus/viswhere_stim/line_yes.png,stimulus/viswhere_stim/line_no.png,None,Line,None,Line,1,0.0,0,5.125,0,5.125,0,5.125,0,0.0,0.625,0,0.0,0,0.0,1,0.5,1,2.125,0,0.0,0,0.0,0,0.0,0,0.0,0,,,,,0,57,57,57,,,,,,,,,513.7241648329655,513.7241648329655,513.7241648329655,513.7241648329655,513.7241648329655,513.7241648329655,513.7241648329655,513.7241648329655,513.7012942916868,513.7241648329655,513.7241648329655,513.7241648329655,513.7012942916868,513.7241648329655,513.7241648329655,513.7241648329655,515.8252370420378,519.802213542047,513.7241648329655,513.7241648329655,518.846149708028,514.2006490420317,515.2155902499799,515.8252370420378,516.8444782500155,513.7241648329655,513.7241648329655,513.7179609583535,513.7241648329655,513.7241648329655,513.7241648329655,513.7179609583535,513.7241648329655,513.7241648329655,518.846149708028,513.7241648329655,518.846149708028,518.9434325000038,519.571941458038,513.7241648329655,1,1,0.7218950829701498,reldom2_s033,001,2025-03-12_17h00.28.642,Where-B-Scan_AC,2022.2.5,60.07333463057757,
44,First_Order,8.0,viswhere,stimulus/viswhere_stim/blank_white.png,stimulus/viswhere_stim/blank_white.png,stimulus/viswhere_stim/60-deg_dot-right_peru.png,stimulus/viswhere_stim/90-deg_dot-right_turquoise.png,stimulus/viswhere_stim/blank_white.png,stimulus/viswhere_stim/dot_box.png,stimulus/viswhere_stim/dot_yes.png,stimulus/viswhere_stim/dot_no.png,None,Dot,None,Dot,1,0.0,0,5.125,0,5.125,0,5.125,0,0.0,0.625,0,0.0,0,0.0,1,0.5,1,2.125,0,0.0,0,0.0,0,0.0,0,0.0,0,,,,,0,58,58,58,,,,,,,,,519.802213542047,519.802213542047,519.802213542047,519.802213542047,519.802213542047,519.802213542047,519.802213542047,519.802213542047,519.7819604583395,519.802213542047,519.802213542047,519.802213542047,519.7819604583395,519.802213542047,519.802213542047,519.802213542047,521.905961542041,525.8607748750364,519.802213542047,519.802213542047,524.9301356249489,520.2804574579932,521.2949319999898,521.905961542041,522.9262792080408,519.802213542047,519.802213542047,519.7986271250062,519.802213542047,519.802213542047,519.802213542047,519.7986271250062,519.802213542047,519.802213542047,524.9301356249489,519.802213542047,524.9301356249489,525.0317189169582,525.6587687080028,519.802213542047,1,1,0.6822310410207137,reldom2_s033,001,2025-03-12_17h00.28.642,Where-B-Scan_AC,2022.2.5,60.07333463057757,
45,First_Order,8.0,viswhere,stimulus/viswhere_stim/blank_white.png,stimulus/viswhere_stim/blank_white.png,stimulus/viswhere_stim/150-deg_dot-right_lightsseagreen.png,stimulus/viswhere_stim/150-deg_dot-left_royalblue.png,stimulus/viswhere_stim/blank_white.png,stimulus/viswhere_stim/dot_box.png,stimulus/viswhere_stim/dot_yes.png,stimulus/viswhere_stim/dot_no.png,None,Dot,None,Line,2,0.0,0,5.125,0,5.125,0,5.125,0,0.0,0.625,0,0.0,0,0.0,1,0.5,1,2.125,0,0.0,0,0.0,0,0.0,0,0.0,0,,,,,0,59,59,59,,,,,,,,,525.8607748750364,525.8607748750364,525.8607748750364,525.8607748750364,525.8607748750364,525.8607748750364,525.8607748750364,525.8607748750364,525.8389913333425,525.8607748750364,525.8607748750364,525.8607748750364,525.8389913333425,525.8607748750364,525.8607748750364,525.8607748750364,527.964899542043,531.9356394170318,525.8607748750364,525.8607748750364,530.9908253330505,526.3422667919658,527.3477308750153,527.964899542043,528.9775914580096,525.8607748750364,525.8607748750364,525.8556580000092,525.8607748750364,525.8607748750364,525.8607748750364,525.8556580000092,525.8607748750364,525.8607748750364,530.9908253330505,525.8607748750364,530.9908253330505,531.0885299580405,531.7143344170181,525.8607748750364,2,1,0.5606714580208063,reldom2_s033,001,2025-03-12_17h00.28.642,Where-B-Scan_AC,2022.2.5,60.07333463057757,
46,First_Order,8.0,viswhere,stimulus/viswhere_stim/blank_white.png,stimulus/viswhere_stim/blank_white.png,stimulus/viswhere_stim/30-deg_dot-left_salmon.png,stimulus/viswhere_stim/150-deg_dot-left_turquoise.png,stimulus/viswhere_stim/blank_white.png,stimulus/viswhere_stim/line_box.png,stimulus/viswhere_stim/line_yes.png,stimulus/viswhere_stim/line_no.png,None,Line,None,Dot,2,0.0,0,5.125,0,5.125,0,5.125,0,0.0,0.625,0,0.0,0,0.0,1,0.5,1,2.125,0,0.0,0,0.0,0,0.0,0,0.0,0,,,,,0,60,60,60,,,,,,,,,531.9356394170318,531.9356394170318,531.9356394170318,531.9356394170318,531.9356394170318,531.9356394170318,531.9356394170318,531.9356394170318,531.9095586253874,531.9356394170318,531.9356394170318,531.9356394170318,531.9095586253874,531.9356394170318,531.9356394170318,531.9356394170318,534.0359133749735,538.0766522920458,531.9356394170318,531.9356394170318,537.0645734999562,532.4172751669539,533.4211884579854,534.0359133749735,535.042893041973,531.9356394170318,531.9356394170318,531.926225292054,531.9356394170318,531.9356394170318,531.9356394170318,531.926225292054,531.9356394170318,531.9356394170318,537.0645734999562,531.9356394170318,537.0645734999562,537.1524179580156,537.7837793329963,531.9356394170318,2,1,1.1507903330493718,reldom2_s033,001,2025-03-12_17h00.28.642,Where-B-Scan_AC,2022.2.5,60.07333463057757,
0,0.0,None,fixation,stimulus/audwhere_stim/blank_white.png,stimulus/audwhere_stim/blank_white.png,stimulus/viswhere_stim/blank_white.png,stimulus/viswhere_stim/blank_white.png,stimulus/audwhere_stim/blank_white.png,stimulus/audwhere_stim/blank_white.png,stimulus/audwhere_stim/blank_white.png,stimulus/audwhere_stim/blank_white.png,0.0,0.0,0.0,0.0,0,0.0,0,0.0,0,0.0,0,0.0,0,0.0,0.0,0,0.0,0,0.0,0,0.0,0,0.0,0,0.0,0,0.0,0,0.0,0,0.0,9,,,,,0,61,61,61,,,,,,,,,538.0766522920458,538.0766522920458,538.0766522920458,538.0766522920458,538.0766522920458,538.0766522920458,538.0766522920458,538.0766522920458,537.9776822083708,538.0766522920458,538.0766522920458,538.0766522920458,537.9776822083708,538.0766522920458,538.0766522920458,538.0766522920458,538.0766522920458,538.0766522920458,538.0766522920458,538.0766522920458,538.0766522920458,538.0766522920458,538.0766522920458,538.0766522920458,538.0766522920458,538.0766522920458,538.0766522920458,538.0276822083707,538.0766522920458,538.0766522920458,538.0766522920458,538.0276822083707,538.0766522920458,538.0766522920458,538.0766522920458,538.0766522920458,538.0766522920458,543.2876844999846,543.2876844999846,547.217803208041,None,0,,reldom2_s033,001,2025-03-12_17h00.28.642,Where-B-Scan_AC,2022.2.5,60.07333463057757,
47,Second_Order,8.0,viswhere,stimulus/viswhere_stim/90-deg_dot-left_lightsseagreen.png,stimulus/viswhere_stim/120-deg_dot-left_royalblue.png,stimulus/viswhere_stim/30-deg_dot-right_mediumslateblue.png,stimulus/viswhere_stim/60-deg_dot-right_lightsseagreen.png,stimulus/audwhere_stim/match_blank.png,stimulus/audwhere_stim/match_box.png,stimulus/audwhere_stim/match_yes.png,stimulus/audwhere_stim/match_no.png,1.0,Match,Dot,Dot,1,5.125,0,5.125,0,5.125,0,5.125,0,0.75,0.75,1,0.5,1,2.125,1,0.5,1,2.125,0,0.0,0,0.0,0,0.0,0,0.0,0,,,,,0,62,62,62,,,,,,,,,547.217803208041,552.3413055420388,547.7011199579574,548.69961637503,549.3217612920562,550.3202585000545,547.217803208041,547.217803208041,547.2315268332915,547.217803208041,547.217803208041,547.217803208041,547.2315268332915,547.217803208041,552.3413055420388,553.1358524579555,555.2092887080507,559.0749826249667,553.1358524579555,553.1358524579555,558.2618969579926,553.5803683330305,554.5965516669676,555.2092887080507,556.2110307080438,553.1358524579555,553.1358524579555,553.1093814583805,553.1358524579555,553.1358524579555,553.1358524579555,553.1093814583805,553.1358524579555,553.1358524579555,558.2618969579926,553.1358524579555,558.2618969579926,558.3311688329559,559.1115601670463,553.1358524579555,1,1,0.8379695829935372,reldom2_s033,001,2025-03-12_17h00.28.642,Where-B-Scan_AC,2022.2.5,60.07333463057757,
48,Second_Order,8.0,viswhere,stimulus/viswhere_stim/60-deg_dot-left_seagreen.png,stimulus/viswhere_stim/90-deg_dot-left_peru.png,stimulus/viswhere_stim/30-deg_dot-right_turquoise.png,stimulus/viswhere_stim/30-deg_dot-left_lightsseagreen.png,stimulus/audwhere_stim/match_blank.png,stimulus/audwhere_stim/match_box.png,stimulus/audwhere_stim/match_yes.png,stimulus/audwhere_stim/match_no.png,2.0,Match,Dot,Line,2,5.125,0,5.125,0,5.125,0,5.125,0,0.625,0.625,1,0.5,1,2.125,1,0.5,1,2.125,0,0.0,0,0.0,0,0.0,0,0.0,0,,,,,0,63,63,63,,,,,,,,,559.1115601670463,564.2350670000305,559.6083222919842,560.5970199579606,561.2160244169645,562.213748582988,559.1115601670463,559.1115601670463,559.1249826249666,559.1115601670463,559.1115601670463,559.1115601670463,559.1249826249666,559.1115601670463,564.2350670000305,564.8966761670308,566.9867752500577,571.0338597079972,564.8966761670308,564.8966761670308,570.0239702080144,565.3589892920572,566.3734850420151,566.9867752500577,568.0076137919677,564.8966761670308,564.8966761670308,564.886287375361,564.8966761670308,564.8966761670308,564.8966761670308,564.886287375361,564.8966761670308,564.8966761670308,570.0239702080144,564.8966761670308,570.0239702080144,570.1054049170343,570.7494828749914,564.8966761670308,2,1,1.283020623959601,reldom2_s033,001,2025-03-12_17h00.28.642,Where-B-Scan_AC,2022.2.5,60.07333463057757,
0,0.0,None,fixation,stimulus/audwhere_stim/blank_white.png,stimulus/audwhere_stim/blank_white.png,stimulus/viswhere_stim/blank_white.png,stimulus/viswhere_stim/blank_white.png,stimulus/audwhere_stim/blank_white.png,stimulus/audwhere_stim/blank_white.png,stimulus/audwhere_stim/blank_white.png,stimulus/audwhere_stim/blank_white.png,0.0,0.0,0.0,0.0,0,0.0,0,0.0,0,0.0,0,0.0,0,0.0,0.0,0,0.0,0,0.0,0,0.0,0,0.0,0,0.0,0,0.0,0,0.0,0,0.0,16,,,,,0,64,64,64,,,,,,,,,571.0338597079972,571.0338597079972,571.0338597079972,571.0338597079972,571.0338597079972,571.0338597079972,571.0338597079972,571.0338597079972,570.932968666389,571.0338597079972,571.0338597079972,571.0338597079972,570.932968666389,571.0338597079972,571.0338597079972,571.0338597079972,571.0338597079972,571.0338597079972,571.0338597079972,571.0338597079972,571.0338597079972,571.0338597079972,571.0338597079972,571.0338597079972,571.0338597079972,571.0338597079972,571.0338597079972,570.982968666389,571.0338597079972,571.0338597079972,571.0338597079972,570.982968666389,571.0338597079972,571.0338597079972,571.0338597079972,571.0338597079972,571.0338597079972,576.2205652920529,576.2205652920529,587.1743755419739,None,0,,reldom2_s033,001,2025-03-12_17h00.28.642,Where-B-Scan_AC,2022.2.5,60.07333463057757,
