Trial,Order,Block,Type,Stimuli_File1,Stimuli_File2,Stimuli_File3,Stimuli_File4,Cue_File1,Cue_File2,Response_File_Yes,Response_File_No,Match,Cue_Dimension,Pair1_Dimension,Pair2_Dimension,Key,Cue1_Duration,Cue1_Onset,Cue2_Duration,Cue2_Onset,ResponseYes_Duration,ResponseYes_Onset,ResponseNo_Duration,ResponseNo_Onset,ITI_Within,ITI_Between,Image1_Duration,Image1_Onset,Image2_Duration,Image2_Onset,Image3_Duration,Image3_Onset,Image4_Duration,Image4_Onset,Sound1_Duration,Sound1_Onset,Sound2_Duration,Sound2_Onset,Sound3_Duration,Sound3_Onset,Sound4_Duration,Sound4_Onset,Fixation_Duration,trials_2.thisRepN,trials_2.thisTrialN,trials_2.thisN,trials_2.thisIndex,trials.thisRepN,trials.thisTrialN,trials.thisN,trials.thisIndex,text_start.started,key_resp_start.started,key_resp_start.keys,key_resp_start.rt,text2.started,key_resp_2.started,key_resp_2.keys,key_resp_2.rt,cue_file1.started,cue_file1.stopped,image_1.started,image_1.stopped,image_2.started,image_2.stopped,sound_icon1.started,sound_icon1.stopped,sound_1.started,sound_1.stopped,sound_icon2.started,sound_icon2.stopped,sound_2.started,sound_2.stopped,image_blank_1.started,image_blank_1.stopped,key_press.started,key_press.stopped,fixation_text.started,cue_file2.started,cue_file2.stopped,image_3.started,image_3.stopped,image_4.started,image_4.stopped,sound_icon3.started,sound_icon3.stopped,sound_3.started,sound_3.stopped,sound_icon4.started,sound_icon4.stopped,sound_4.started,sound_4.stopped,response_yes.started,response_yes.stopped,response_no.started,response_no.stopped,iti_blank.started,iti_blank.stopped,fixation_text.stopped,key_press.keys,key_press.corr,key_press.rt,participant,session,date,expName,psychopyVersion,frameRate,
,,,,,,,,,,,,,,,,,,,,,,,,,,,,,,,,,,,,,,,,,,,,,,,,,,,,7.362858124892227,7.362858124892227,2,0.6862878340762109,,,,,,,,,,,,,,,,,,,,,,,,,,,,,,,,,,,,,,,,,,,,,,,,reldom2_s033,001,2025-03-12_17h11.33.275,Aud-B-Scan_AC,2022.2.5,None,
,,,,,,,,,,,,,,,,,,,,,,,,,,,,,,,,,,,,,,,,,,,,0,0,0,0,,,,,,,,,8.077697665896267,8.077697665896267,5,18.085518167121336,,,,,,,,,,,,,,,,,,,,,,,,,,,,,,,,,,,,,,,,,,,,reldom2_s033,001,2025-03-12_17h11.33.275,Aud-B-Scan_AC,2022.2.5,None,
,,,,,,,,,,,,,,,,,,,,,,,,,,,,,,,,,,,,,,,,,,,,1,0,1,0,,,,,,,,,26.176126457983628,26.176126457983628,5,1.9845690001966432,,,,,,,,,,,,,,,,,,,,,,,,,,,,,,,,,,,,,,,,,,,,reldom2_s033,001,2025-03-12_17h11.33.275,Aud-B-Scan_AC,2022.2.5,None,
,,,,,,,,,,,,,,,,,,,,,,,,,,,,,,,,,,,,,,,,,,,,2,0,2,0,,,,,,,,,28.178550999960862,28.178550999960862,5,1.981424834113568,,,,,,,,,,,,,,,,,,,,,,,,,,,,,,,,,,,,,,,,,,,,reldom2_s033,001,2025-03-12_17h11.33.275,Aud-B-Scan_AC,2022.2.5,None,
,,,,,,,,,,,,,,,,,,,,,,,,,,,,,,,,,,,,,,,,,,,,3,0,3,0,,,,,,,,,30.17576279095374,30.17576279095374,5,1.9836629170458764,,,,,,,,,,,,,,,,,,,,,,,,,,,,,,,,,,,,,,,,,,,,reldom2_s033,001,2025-03-12_17h11.33.275,Aud-B-Scan_AC,2022.2.5,None,
0,0.0,None,fixation,stimulus/audwhat_stim/blank_white.png,stimulus/audwhat_stim/blank_white.png,stimulus/audwhere_stim/blank_white.png,stimulus/audwhere_stim/blank_white.png,stimulus/audwhat_stim/blank_white.png,stimulus/audwhat_stim/blank_white.png,stimulus/audwhat_stim/blank_white.png,stimulus/audwhat_stim/blank_white.png,0.0,0.0,0.0,0.0,0,0.0,0,0.0,0,0.0,0,0.0,0,0.0,0.0,0,0,0,0,0,0,0,0,0,0.0,0,0.0,0,0.0,0,0.0,16,,,,,0,0,0,0,,,,,,,,,32.36451937491074,32.36451937491074,32.36451937491074,32.36451937491074,32.36451937491074,32.36451937491074,32.36451937491074,32.36451937491074,32.27744466656974,32.36451937491074,32.36451937491074,32.36451937491074,32.27744466656974,32.36451937491074,32.36451937491074,32.36451937491074,32.36451937491074,32.36451937491074,32.36451937491074,32.36451937491074,32.36451937491074,32.36451937491074,32.36451937491074,32.36451937491074,32.36451937491074,32.36451937491074,32.36451937491074,32.32744466656974,32.36451937491074,32.36451937491074,32.36451937491074,32.32744466656974,32.36451937491074,32.36451937491074,32.36451937491074,32.36451937491074,32.36451937491074,37.558838707976975,37.558838707976975,48.60488045797683,None,0,,reldom2_s033,001,2025-03-12_17h11.33.275,Aud-B-Scan_AC,2022.2.5,None,
1,First_Order,1.0,audwhat,stimulus/audwhat_stim/dummy.wav,stimulus/audwhat_stim/dummy.wav,stimulus/audwhat_stim/string viola_low-pitch_F_loud.wav,stimulus/audwhat_stim/string cello_high-pitch_Dtri_loud.wav,stimulus/audwhat_stim/blank_white.png,stimulus/audwhat_stim/pitch_box.png,stimulus/audwhat_stim/pitch_yes.png,stimulus/audwhat_stim/pitch_no.png,None,Pitch,None,Category,2,0.0,0,5.125,0,5.125,0,5.125,0,0.0,0.625,0,0,0,0,0,0,0,0,0,0.0,0,0.0,1,0.5,1,2.125,0,,,,,0,1,1,1,,,,,,,,,48.60488045797683,48.60488045797683,48.60488045797683,48.60488045797683,48.60488045797683,48.60488045797683,48.60488045797683,48.60488045797683,48.53201287493575,48.60488045797683,48.60488045797683,48.60488045797683,48.53201287493575,48.60488045797683,48.60488045797683,48.60488045797683,50.70817895792425,54.72172033297829,48.60488045797683,48.60488045797683,53.78550416592043,48.60488045797683,48.60488045797683,48.60488045797683,48.60488045797683,49.0623413749272,50.113488207920454,49.03306145762714,,50.70817895792425,51.77022083289921,50.67913349956895,,48.60488045797683,53.78550416592043,48.60488045797683,53.78550416592043,53.82616245793179,54.511877915938385,48.60488045797683,2,1,0.7302476661279798,reldom2_s033,001,2025-03-12_17h11.33.275,Aud-B-Scan_AC,2022.2.5,None,
2,First_Order,1.0,audwhat,stimulus/audwhat_stim/dummy.wav,stimulus/audwhat_stim/dummy.wav,stimulus/audwhat_stim/percussion xylophone_high-pitch_Ftri_loud.wav,stimulus/audwhat_stim/string viola_high-pitch_Ftri_loud.wav,stimulus/audwhat_stim/blank_white.png,stimulus/audwhat_stim/pitch_box.png,stimulus/audwhat_stim/pitch_yes.png,stimulus/audwhat_stim/pitch_no.png,None,Pitch,None,Pitch,1,0.0,0,5.125,0,5.125,0,5.125,0,0.0,0.625,0,0,0,0,0,0,0,0,0,0.0,0,0.0,1,0.5,1,2.125,0,,,,,0,2,2,2,,,,,,,,,54.72172033297829,54.72172033297829,54.72172033297829,54.72172033297829,54.72172033297829,54.72172033297829,54.72172033297829,54.72172033297829,54.64521124927172,54.72172033297829,54.72172033297829,54.72172033297829,54.64521124927172,54.72172033297829,54.72172033297829,54.72172033297829,56.8312755409861,60.85261616599746,54.72172033297829,54.72172033297829,59.90735058300197,54.72172033297829,54.72172033297829,54.72172033297829,54.72172033297829,55.17922212497797,56.23560908297077,55.150483707610206,56.18905808299314,56.8312755409861,57.887496415991336,56.80197312456245,,54.72172033297829,59.90735058300197,54.72172033297829,59.90735058300197,59.947877374943346,60.597579082939774,54.72172033297829,1,1,1.0341824170900509,reldom2_s033,001,2025-03-12_17h11.33.275,Aud-B-Scan_AC,2022.2.5,None,
3,First_Order,1.0,audwhat,stimulus/audwhat_stim/dummy.wav,stimulus/audwhat_stim/dummy.wav,stimulus/audwhat_stim/string viola_low-pitch_Dtri_loud.wav,stimulus/audwhat_stim/percussion mallet_low-pitch_Dtri_loud.wav,stimulus/audwhat_stim/blank_white.png,stimulus/audwhat_stim/category_box.png,stimulus/audwhat_stim/category_yes.png,stimulus/audwhat_stim/category_no.png,None,Category,None,Pitch,2,0.0,0,5.125,0,5.125,0,5.125,0,0.0,0.625,0,0,0,0,0,0,0,0,0,0.0,0,0.0,1,0.5,1,2.125,0,,,,,0,3,3,3,,,,,,,,,60.85261616599746,60.85261616599746,60.85261616599746,60.85261616599746,60.85261616599746,60.85261616599746,60.85261616599746,60.85261616599746,60.77149770831068,60.85261616599746,60.85261616599746,60.85261616599746,60.77149770831068,60.85261616599746,60.85261616599746,60.85261616599746,62.939997874898836,,60.85261616599746,60.85261616599746,66.0029249159852,60.85261616599746,60.85261616599746,60.85261616599746,60.85261616599746,61.31532708299346,62.38517508294899,61.286145457594344,,62.939997874898836,64.01013549999334,62.91091799963421,,60.85261616599746,66.0029249159852,60.85261616599746,66.0029249159852,66.04380612494424,66.6960141249001,60.85261616599746,2,1,0.5416537920245901,reldom2_s033,001,2025-03-12_17h11.33.275,Aud-B-Scan_AC,2022.2.5,None,
4,First_Order,1.0,audwhat,stimulus/audwhat_stim/dummy.wav,stimulus/audwhat_stim/dummy.wav,stimulus/audwhat_stim/percussion mallet_low-pitch_D_loud.wav,stimulus/audwhat_stim/percussion xylophone_high-pitch_Dtri_loud.wav,stimulus/audwhat_stim/blank_white.png,stimulus/audwhat_stim/pitch_box.png,stimulus/audwhat_stim/pitch_yes.png,stimulus/audwhat_stim/pitch_no.png,None,Pitch,None,Category,2,0.0,0,5.125,0,5.125,0,5.125,0,0.0,0.625,0,0,0,0,0,0,0,0,0,0.0,0,0.0,1,0.5,1,2.125,0,,,,,0,4,4,4,,,,,,,,,66.95104624994565,66.95104624994565,66.95104624994565,66.95104624994565,66.95104624994565,66.95104624994565,66.95104624994565,66.95104624994565,66.87011874924258,66.95104624994565,66.95104624994565,66.95104624994565,66.87011874924258,66.95104624994565,66.95104624994565,66.95104624994565,69.03289891593158,73.09403479099274,66.95104624994565,66.95104624994565,72.12764599989168,66.95104624994565,66.95104624994565,66.95104624994565,66.95104624994565,67.41374462493695,68.47836541594006,67.38401366660061,,69.03289891593158,70.09490124997683,69.00299174961789,70.04928987496532,66.95104624994565,72.12764599989168,66.95104624994565,72.12764599989168,72.16992087499239,72.82241662498564,66.95104624994565,2,1,1.1521207080222666,reldom2_s033,001,2025-03-12_17h11.33.275,Aud-B-Scan_AC,2022.2.5,None,
0,0.0,None,fixation,stimulus/audwhat_stim/blank_white.png,stimulus/audwhat_stim/blank_white.png,stimulus/audwhere_stim/blank_white.png,stimulus/audwhere_stim/blank_white.png,stimulus/audwhat_stim/blank_white.png,stimulus/audwhat_stim/blank_white.png,stimulus/audwhat_stim/blank_white.png,stimulus/audwhat_stim/blank_white.png,0.0,0.0,0.0,0.0,0,0.0,0,0.0,0,0.0,0,0.0,0,0.0,0.0,0,0,0,0,0,0,0,0,0,0.0,0,0.0,0,0.0,0,0.0,8,,,,,0,5,5,5,,,,,,,,,73.09403479099274,73.09403479099274,73.09403479099274,73.09403479099274,73.09403479099274,73.09403479099274,73.09403479099274,73.09403479099274,72.99605612424978,73.09403479099274,73.09403479099274,73.09403479099274,72.99605612424978,73.09403479099274,73.09403479099274,73.09403479099274,73.09403479099274,73.09403479099274,73.09403479099274,73.09403479099274,73.09403479099274,73.09403479099274,73.09403479099274,73.09403479099274,73.09403479099274,73.09403479099274,73.09403479099274,73.04605612424979,73.09403479099274,73.09403479099274,73.09403479099274,73.04605612424979,73.09403479099274,73.09403479099274,73.09403479099274,73.09403479099274,73.09403479099274,78.31447070790455,78.31447070790455,81.23193599993829,None,0,,reldom2_s033,001,2025-03-12_17h11.33.275,Aud-B-Scan_AC,2022.2.5,None,
5,Second_Order,1.0,audwhat,stimulus/audwhat_stim/percussion mallet_high-pitch_Dtri_loud.wav,stimulus/audwhat_stim/string cello_high-pitch_Dtri_loud.wav,stimulus/audwhat_stim/string viola_low-pitch_F_loud.wav,stimulus/audwhat_stim/percussion mallet_low-pitch_F_loud.wav,stimulus/audwhat_stim/match_blank.png,stimulus/audwhat_stim/match_box.png,stimulus/audwhat_stim/match_yes.png,stimulus/audwhat_stim/match_no.png,1.0,Match,Pitch,Pitch,1,5.125,0,5.125,0,5.125,0,5.125,0,0.75,0.75,0,0,0,0,0,0,0,0,1,0.5,1,2.125,1,0.5,1,2.125,0,,,,,0,6,6,6,,,,,,,,,81.23193599993829,86.35361524997279,81.23193599993829,81.23193599993829,81.23193599993829,81.23193599993829,81.69192508293781,82.69022504088935,81.70458599966175,,83.31240837497171,84.31079612497706,83.32502320764276,,86.35361524997279,87.20275429089088,89.26755683298688,,87.20275429089088,87.20275429089088,92.35887187498156,87.20275429089088,87.20275429089088,87.20275429089088,87.20275429089088,87.65928104089107,88.7159715408925,87.63059104158698,,89.26755683298688,90.32971037493553,89.23863183259188,,87.20275429089088,92.35887187498156,87.20275429089088,92.35887187498156,92.3994019998936,,87.20275429089088,1,1,0.8852905001258478,reldom2_s033,001,2025-03-12_17h11.33.275,Aud-B-Scan_AC,2022.2.5,None,
6,Second_Order,1.0,audwhat,stimulus/audwhat_stim/percussion mallet_low-pitch_F_loud.wav,stimulus/audwhat_stim/percussion mallet_high-pitch_Dtri_loud.wav,stimulus/audwhat_stim/string viola_low-pitch_Ftri_loud.wav,stimulus/audwhat_stim/percussion mallet_low-pitch_Ftri_loud.wav,stimulus/audwhat_stim/match_blank.png,stimulus/audwhat_stim/match_box.png,stimulus/audwhat_stim/match_yes.png,stimulus/audwhat_stim/match_no.png,2.0,Match,Category,Pitch,2,5.125,0,5.125,0,5.125,0,5.125,0,0.625,0.625,0,0,0,0,0,0,0,0,1,0.5,1,2.125,1,0.5,1,2.125,0,,,,,0,7,7,7,,,,,,,,,93.1663424159633,98.2808272499824,93.1663424159633,93.1663424159633,93.1663424159633,93.1663424159633,93.61766608292237,94.60556199995335,93.63184270757871,,95.24021812493447,96.23810587497428,95.25271733262731,,98.2808272499824,99.01189116598107,101.06618929095566,,99.01189116598107,99.01189116598107,104.18753858294804,99.01189116598107,99.01189116598107,99.01189116598107,99.01189116598107,99.46762695792131,100.51781945792027,99.43842658267046,,101.06618929095566,102.12491341598798,101.03669933259177,,99.01189116598107,104.18753858294804,99.01189116598107,104.18753858294804,104.18753858294804,104.87522916588932,99.01189116598107,2,1,0.6915057911537588,reldom2_s033,001,2025-03-12_17h11.33.275,Aud-B-Scan_AC,2022.2.5,None,
0,0.0,None,fixation,stimulus/audwhat_stim/blank_white.png,stimulus/audwhat_stim/blank_white.png,stimulus/audwhere_stim/blank_white.png,stimulus/audwhere_stim/blank_white.png,stimulus/audwhat_stim/blank_white.png,stimulus/audwhat_stim/blank_white.png,stimulus/audwhat_stim/blank_white.png,stimulus/audwhat_stim/blank_white.png,0.0,0.0,0.0,0.0,0,0.0,0,0.0,0,0.0,0,0.0,0,0.0,0.0,0,0,0,0,0,0,0,0,0,0.0,0,0.0,0,0.0,0,0.0,10,,,,,0,8,8,8,,,,,,,,,105.10686254093889,105.10686254093889,105.10686254093889,105.10686254093889,105.10686254093889,105.10686254093889,105.10686254093889,105.10686254093889,105.00856249922265,105.10686254093889,105.10686254093889,105.10686254093889,105.00856249922265,105.10686254093889,105.10686254093889,105.10686254093889,105.10686254093889,105.10686254093889,105.10686254093889,105.10686254093889,105.10686254093889,105.10686254093889,105.10686254093889,105.10686254093889,105.10686254093889,105.10686254093889,105.10686254093889,105.05856249922266,105.10686254093889,105.10686254093889,105.10686254093889,105.05856249922266,105.10686254093889,105.10686254093889,105.10686254093889,105.10686254093889,105.10686254093889,110.29902579099871,110.29902579099871,115.36170529096853,None,0,,reldom2_s033,001,2025-03-12_17h11.33.275,Aud-B-Scan_AC,2022.2.5,None,
7,First_Order,2.0,audwhat,stimulus/audwhat_stim/dummy.wav,stimulus/audwhat_stim/dummy.wav,stimulus/audwhat_stim/percussion xylophone_high-pitch_F_loud.wav,stimulus/audwhat_stim/percussion mallet_low-pitch_D_loud.wav,stimulus/audwhat_stim/blank_white.png,stimulus/audwhat_stim/category_box.png,stimulus/audwhat_stim/category_yes.png,stimulus/audwhat_stim/category_no.png,None,Category,None,Category,1,0.0,0,5.125,0,5.125,0,5.125,0,0.0,0.625,0,0,0,0,0,0,0,0,0,0.0,0,0.0,1,0.5,1,2.125,0,,,,,0,9,9,9,,,,,,,,,115.36170529096853,115.36170529096853,115.36170529096853,115.36170529096853,115.36170529096853,115.36170529096853,115.36170529096853,115.36170529096853,115.29047829161088,115.36170529096853,115.36170529096853,115.36170529096853,115.29047829161088,115.36170529096853,115.36170529096853,115.36170529096853,117.45141633297317,121.47312287497334,115.36170529096853,115.36170529096853,120.52367654093541,115.36170529096853,115.36170529096853,115.36170529096853,115.36170529096853,115.82548766594846,116.89635437494144,115.79581308266303,116.8501989999786,117.45141633297317,118.52468229096849,117.42114083265575,,115.36170529096853,120.52367654093541,115.36170529096853,120.52367654093541,120.56502354098484,121.21993062493857,115.36170529096853,1,1,2.636821750085801,reldom2_s033,001,2025-03-12_17h11.33.275,Aud-B-Scan_AC,2022.2.5,None,
8,First_Order,2.0,audwhat,stimulus/audwhat_stim/dummy.wav,stimulus/audwhat_stim/dummy.wav,stimulus/audwhat_stim/percussion mallet_low-pitch_D_loud.wav,stimulus/audwhat_stim/string viola_low-pitch_D_loud.wav,stimulus/audwhat_stim/blank_white.png,stimulus/audwhat_stim/pitch_box.png,stimulus/audwhat_stim/pitch_yes.png,stimulus/audwhat_stim/pitch_no.png,None,Pitch,None,Pitch,1,0.0,0,5.125,0,5.125,0,5.125,0,0.0,0.625,0,0,0,0,0,0,0,0,0,0.0,0,0.0,1,0.5,1,2.125,0,,,,,0,10,10,10,,,,,,,,,121.47312287497334,121.47312287497334,121.47312287497334,121.47312287497334,121.47312287497334,121.47312287497334,121.47312287497334,121.47312287497334,121.39414616630722,121.47312287497334,121.47312287497334,121.47312287497334,121.39414616630722,121.47312287497334,121.47312287497334,121.47312287497334,123.55728745798115,,121.47312287497334,121.47312287497334,126.66062533296645,121.47312287497334,121.47312287497334,121.47312287497334,121.47312287497334,121.93473245797213,123.0018329579616,121.9050893326678,,123.55728745798115,124.62475458299741,123.52734304155844,,121.47312287497334,126.66062533296645,121.47312287497334,126.66062533296645,126.70199633296579,127.35316329100169,121.47312287497334,1,1,1.5020198330748826,reldom2_s033,001,2025-03-12_17h11.33.275,Aud-B-Scan_AC,2022.2.5,None,
9,First_Order,2.0,audwhat,stimulus/audwhat_stim/dummy.wav,stimulus/audwhat_stim/dummy.wav,stimulus/audwhat_stim/percussion mallet_low-pitch_D_loud.wav,stimulus/audwhat_stim/percussion mallet_high-pitch_Ftri_loud.wav,stimulus/audwhat_stim/blank_white.png,stimulus/audwhat_stim/category_box.png,stimulus/audwhat_stim/category_yes.png,stimulus/audwhat_stim/category_no.png,None,Category,None,Category,1,0.0,0,5.125,0,5.125,0,5.125,0,0.0,0.625,0,0,0,0,0,0,0,0,0,0.0,0,0.0,1,0.5,1,2.125,0,,,,,0,11,11,11,,,,,,,,,127.56910208298359,127.56910208298359,127.56910208298359,127.56910208298359,127.56910208298359,127.56910208298359,127.56910208298359,127.56910208298359,127.48649662433502,127.56910208298359,127.56910208298359,127.56910208298359,127.48649662433502,127.56910208298359,127.56910208298359,127.56910208298359,129.66493720794097,133.6935151249636,127.56910208298359,127.56910208298359,132.74168266600464,127.56910208298359,127.56910208298359,127.56910208298359,127.56910208298359,128.03486720798537,129.10504658299033,128.00464195764314,,129.66493720794097,130.7388218329288,129.63454216666676,,127.56910208298359,132.74168266600464,127.56910208298359,132.74168266600464,132.78294249996543,133.43772212497424,127.56910208298359,1,1,0.5502795830834657,reldom2_s033,001,2025-03-12_17h11.33.275,Aud-B-Scan_AC,2022.2.5,None,
10,First_Order,2.0,audwhat,stimulus/audwhat_stim/dummy.wav,stimulus/audwhat_stim/dummy.wav,stimulus/audwhat_stim/string cello_high-pitch_F_loud.wav,stimulus/audwhat_stim/percussion mallet_high-pitch_F_loud.wav,stimulus/audwhat_stim/blank_white.png,stimulus/audwhat_stim/category_box.png,stimulus/audwhat_stim/category_yes.png,stimulus/audwhat_stim/category_no.png,None,Category,None,Pitch,2,0.0,0,5.125,0,5.125,0,5.125,0,0.0,0.625,0,0,0,0,0,0,0,0,0,0.0,0,0.0,1,0.5,1,2.125,0,,,,,0,12,12,12,,,,,,,,,133.6935151249636,133.6935151249636,133.6935151249636,133.6935151249636,133.6935151249636,133.6935151249636,133.6935151249636,133.6935151249636,133.61203274925552,133.6935151249636,133.6935151249636,133.6935151249636,133.61203274925552,133.6935151249636,133.6935151249636,133.6935151249636,135.78968983294908,139.83907224994618,133.6935151249636,133.6935151249636,138.86774804093875,133.6935151249636,133.6935151249636,133.6935151249636,133.6935151249636,134.1591490409337,135.23119641595986,134.1291448326704,,135.78968983294908,136.82033208291978,135.75937312463455,,133.6935151249636,138.86774804093875,133.6935151249636,138.86774804093875,138.90897150000092,139.56533112493344,133.6935151249636,2,1,0.652713333023712,reldom2_s033,001,2025-03-12_17h11.33.275,Aud-B-Scan_AC,2022.2.5,None,
0,0.0,None,fixation,stimulus/audwhat_stim/blank_white.png,stimulus/audwhat_stim/blank_white.png,stimulus/audwhere_stim/blank_white.png,stimulus/audwhere_stim/blank_white.png,stimulus/audwhat_stim/blank_white.png,stimulus/audwhat_stim/blank_white.png,stimulus/audwhat_stim/blank_white.png,stimulus/audwhat_stim/blank_white.png,0.0,0.0,0.0,0.0,0,0.0,0,0.0,0,0.0,0,0.0,0,0.0,0.0,0,0,0,0,0,0,0,0,0,0.0,0,0.0,0,0.0,0,0.0,8,,,,,0,13,13,13,,,,,,,,,139.83907224994618,139.83907224994618,139.83907224994618,139.83907224994618,139.83907224994618,139.83907224994618,139.83907224994618,139.83907224994618,139.7394445413103,139.83907224994618,139.83907224994618,139.83907224994618,139.7394445413103,139.83907224994618,139.83907224994618,139.83907224994618,139.83907224994618,139.83907224994618,139.83907224994618,139.83907224994618,139.83907224994618,139.83907224994618,139.83907224994618,139.83907224994618,139.83907224994618,139.83907224994618,139.83907224994618,139.78944454131027,139.83907224994618,139.83907224994618,139.83907224994618,139.78944454131027,139.83907224994618,139.83907224994618,139.83907224994618,139.83907224994618,139.83907224994618,145.0374690409517,145.0374690409517,147.96697766589932,None,0,,reldom2_s033,001,2025-03-12_17h11.33.275,Aud-B-Scan_AC,2022.2.5,None,
11,Second_Order,2.0,audwhat,stimulus/audwhat_stim/string viola_high-pitch_Dtri_loud.wav,stimulus/audwhat_stim/string cello_low-pitch_D_loud.wav,stimulus/audwhat_stim/percussion mallet_high-pitch_Dtri_loud.wav,stimulus/audwhat_stim/percussion mallet_low-pitch_Ftri_loud.wav,stimulus/audwhat_stim/match_blank.png,stimulus/audwhat_stim/match_box.png,stimulus/audwhat_stim/match_yes.png,stimulus/audwhat_stim/match_no.png,1.0,Match,Category,Category,1,5.125,0,5.125,0,5.125,0,5.125,0,0.75,0.75,0,0,0,0,0,0,0,0,1,0.5,1,2.125,1,0.5,1,2.125,0,,,,,0,14,14,14,,,,,,,,,147.96697766589932,153.09052129089832,147.96697766589932,147.96697766589932,147.96697766589932,147.96697766589932,148.42492449993733,149.41592491592746,148.42790620756958,,150.05043633293826,151.04823399998713,150.06253537460387,,153.09052129089832,153.93911183299497,156.01629824994598,159.9273262079805,153.93911183299497,153.93911183299497,159.11653166590258,153.93911183299497,153.93911183299497,153.93911183299497,153.93911183299497,154.4003717500018,155.46228695788886,154.37095495761994,,156.01629824994598,157.08288795792032,155.98662724957492,,153.93911183299497,159.11653166590258,153.93911183299497,159.11653166590258,159.11653166590258,,153.93911183299497,1,1,0.927382625057362,reldom2_s033,001,2025-03-12_17h11.33.275,Aud-B-Scan_AC,2022.2.5,None,
12,Second_Order,2.0,audwhat,stimulus/audwhat_stim/string viola_low-pitch_F_loud.wav,stimulus/audwhat_stim/string viola_high-pitch_Ftri_loud.wav,stimulus/audwhat_stim/percussion mallet_low-pitch_Ftri_loud.wav,stimulus/audwhat_stim/percussion xylophone_high-pitch_Dtri_loud.wav,stimulus/audwhat_stim/match_blank.png,stimulus/audwhat_stim/match_box.png,stimulus/audwhat_stim/match_yes.png,stimulus/audwhat_stim/match_no.png,1.0,Match,Category,Category,1,5.125,0,5.125,0,5.125,0,5.125,0,0.625,0.625,0,0,0,0,0,0,0,0,1,0.5,1,2.125,1,0.5,1,2.125,0,,,,,0,15,15,15,,,,,,,,,159.9273262079805,165.0518802079605,159.9273262079805,159.9273262079805,159.9273262079805,159.9273262079805,160.38597729091998,161.3765690829605,160.38862758264102,,162.01164908299688,163.0093501249794,162.02361687465262,,165.0518802079605,165.78015783289447,167.84560341597535,,165.78015783289447,165.78015783289447,170.94048891589046,165.78015783289447,165.78015783289447,165.78015783289447,165.78015783289447,166.23789387498982,167.29284345789347,166.20870791661244,,167.84560341597535,168.91079212492332,167.81655404164147,168.86505812499672,165.78015783289447,170.94048891589046,165.78015783289447,170.94048891589046,170.94048891589046,171.62856112490408,165.78015783289447,1,1,1.673389833071269,reldom2_s033,001,2025-03-12_17h11.33.275,Aud-B-Scan_AC,2022.2.5,None,
0,0.0,None,fixation,stimulus/audwhat_stim/blank_white.png,stimulus/audwhat_stim/blank_white.png,stimulus/audwhere_stim/blank_white.png,stimulus/audwhere_stim/blank_white.png,stimulus/audwhat_stim/blank_white.png,stimulus/audwhat_stim/blank_white.png,stimulus/audwhat_stim/blank_white.png,stimulus/audwhat_stim/blank_white.png,0.0,0.0,0.0,0.0,0,0.0,0,0.0,0,0.0,0,0.0,0,0.0,0.0,0,0,0,0,0,0,0,0,0,0.0,0,0.0,0,0.0,0,0.0,9,,,,,0,16,16,16,,,,,,,,,171.86186787497718,171.86186787497718,171.86186787497718,171.86186787497718,171.86186787497718,171.86186787497718,171.86186787497718,171.86186787497718,171.76189445823744,171.86186787497718,171.86186787497718,171.86186787497718,171.76189445823744,171.86186787497718,171.86186787497718,171.86186787497718,171.86186787497718,171.86186787497718,171.86186787497718,171.86186787497718,171.86186787497718,171.86186787497718,171.86186787497718,171.86186787497718,171.86186787497718,171.86186787497718,171.86186787497718,171.81189445823742,171.86186787497718,171.86186787497718,171.86186787497718,171.81189445823742,171.86186787497718,171.86186787497718,171.86186787497718,171.86186787497718,171.86186787497718,177.07344741595443,177.07344741595443,181.09292929095682,None,0,,reldom2_s033,001,2025-03-12_17h11.33.275,Aud-B-Scan_AC,2022.2.5,None,
13,First_Order,3.0,audwhere,stimulus/audwhere_stim/dummy.wav,stimulus/audwhere_stim/dummy.wav,stimulus/audwhere_stim/left_toward_290h.wav,stimulus/audwhere_stim/right_toward_280h.wav,stimulus/audwhere_stim/blank_white.png,stimulus/audwhere_stim/direction_box.png,stimulus/audwhere_stim/direction_yes.png,stimulus/audwhere_stim/direction_no.png,None,Direction,None,Direction,1,0.0,0,5.125,0,5.125,0,5.125,0,0.0,0.625,0,0,0,0,0,0,0,0,0,0.0,0,0.0,1,0.5,1,2.125,0,,,,,0,17,17,17,,,,,,,,,181.09292929095682,181.09292929095682,181.09292929095682,181.09292929095682,181.09292929095682,181.09292929095682,181.09292929095682,181.09292929095682,181.02189445755602,181.09292929095682,181.09292929095682,181.09292929095682,181.02189445755602,181.09292929095682,181.09292929095682,181.09292929095682,183.18960762489587,187.2130962909432,181.09292929095682,181.09292929095682,186.26182449993212,181.09292929095682,181.09292929095682,181.09292929095682,181.09292929095682,181.55939245794434,182.63334666599985,181.52928099962108,,183.18960762489587,184.26397049997468,183.1600779996409,,181.09292929095682,186.26182449993212,181.09292929095682,186.26182449993212,186.30308683298063,186.9590666659642,181.09292929095682,1,1,1.5632910000858828,reldom2_s033,001,2025-03-12_17h11.33.275,Aud-B-Scan_AC,2022.2.5,None,
14,First_Order,3.0,audwhere,stimulus/audwhere_stim/dummy.wav,stimulus/audwhere_stim/dummy.wav,stimulus/audwhere_stim/left_toward_270h.wav,stimulus/audwhere_stim/right_toward_290h.wav,stimulus/audwhere_stim/blank_white.png,stimulus/audwhere_stim/direction_box.png,stimulus/audwhere_stim/direction_yes.png,stimulus/audwhere_stim/direction_no.png,None,Direction,None,Direction,1,0.0,0,5.125,0,5.125,0,5.125,0,0.0,0.625,0,0,0,0,0,0,0,0,0,0.0,0,0.0,1,0.5,1,2.125,0,,,,,0,18,18,18,,,,,,,,,187.2130962909432,187.2130962909432,187.2130962909432,187.2130962909432,187.2130962909432,187.2130962909432,187.2130962909432,187.2130962909432,187.13351016622815,187.2130962909432,187.2130962909432,187.2130962909432,187.13351016622815,187.2130962909432,187.2130962909432,187.2130962909432,189.30922312499024,193.33533979090862,187.2130962909432,187.2130962909432,192.38602258299943,187.2130962909432,187.2130962909432,187.2130962909432,187.2130962909432,187.67864387494046,188.74986250000075,187.64877362462383,,189.30922312499024,190.33854620798957,189.27900912455905,,187.2130962909432,192.38602258299943,187.2130962909432,192.38602258299943,192.42737824993674,193.0821655408945,187.2130962909432,1,1,0.9625261671608314,reldom2_s033,001,2025-03-12_17h11.33.275,Aud-B-Scan_AC,2022.2.5,None,
15,First_Order,3.0,audwhere,stimulus/audwhere_stim/dummy.wav,stimulus/audwhere_stim/dummy.wav,stimulus/audwhere_stim/left_away_290h.wav,stimulus/audwhere_stim/left_toward_280h.wav,stimulus/audwhere_stim/blank_white.png,stimulus/audwhere_stim/direction_box.png,stimulus/audwhere_stim/direction_yes.png,stimulus/audwhere_stim/direction_no.png,None,Direction,None,Side,2,0.0,0,5.125,0,5.125,0,5.125,0,0.0,0.625,0,0,0,0,0,0,0,0,0,0.0,0,0.0,1,0.5,1,2.125,0,,,,,0,19,19,19,,,,,,,,,193.33533979090862,193.33533979090862,193.33533979090862,193.33533979090862,193.33533979090862,193.33533979090862,193.33533979090862,193.33533979090862,193.25644266631767,193.33533979090862,193.33533979090862,193.33533979090862,193.25644266631767,193.33533979090862,193.33533979090862,193.33533979090862,195.43333949998487,199.46129074995406,193.33533979090862,193.33533979090862,198.50884891592432,193.33533979090862,193.33533979090862,193.33533979090862,193.33533979090862,193.8016035829205,194.87470370798837,193.7716146245987,,195.43333949998487,196.50834041589405,195.40331762464874,,193.33533979090862,198.50884891592432,193.33533979090862,198.50884891592432,198.55036645790096,199.20721308293287,193.33533979090862,2,1,0.9143500421196222,reldom2_s033,001,2025-03-12_17h11.33.275,Aud-B-Scan_AC,2022.2.5,None,
16,First_Order,3.0,audwhere,stimulus/audwhere_stim/dummy.wav,stimulus/audwhere_stim/dummy.wav,stimulus/audwhere_stim/left_toward_300h.wav,stimulus/audwhere_stim/left_away_290h.wav,stimulus/audwhere_stim/blank_white.png,stimulus/audwhere_stim/direction_box.png,stimulus/audwhere_stim/direction_yes.png,stimulus/audwhere_stim/direction_no.png,None,Direction,None,Side,2,0.0,0,5.125,0,5.125,0,5.125,0,0.0,0.625,0,0,0,0,0,0,0,0,0,0.0,0,0.0,1,0.5,1,2.125,0,,,,,0,20,20,20,,,,,,,,,199.46129074995406,199.46129074995406,199.46129074995406,199.46129074995406,199.46129074995406,199.46129074995406,199.46129074995406,199.46129074995406,199.38169687430687,199.46129074995406,199.46129074995406,199.46129074995406,199.38169687430687,199.46129074995406,199.46129074995406,199.46129074995406,201.56437883293256,,199.46129074995406,199.46129074995406,204.64520645793527,199.46129074995406,199.46129074995406,199.46129074995406,199.46129074995406,199.92905408295337,200.95882904098835,199.8991290826273,,201.56437883293256,202.59708258300088,201.53351654165115,,199.46129074995406,204.64520645793527,199.46129074995406,204.64520645793527,204.68662537494674,205.34351174999028,199.46129074995406,2,1,0.8296641251072288,reldom2_s033,001,2025-03-12_17h11.33.275,Aud-B-Scan_AC,2022.2.5,None,
0,0.0,None,fixation,stimulus/audwhat_stim/blank_white.png,stimulus/audwhat_stim/blank_white.png,stimulus/audwhere_stim/blank_white.png,stimulus/audwhere_stim/blank_white.png,stimulus/audwhat_stim/blank_white.png,stimulus/audwhat_stim/blank_white.png,stimulus/audwhat_stim/blank_white.png,stimulus/audwhat_stim/blank_white.png,0.0,0.0,0.0,0.0,0,0.0,0,0.0,0,0.0,0,0.0,0,0.0,0.0,0,0,0,0,0,0,0,0,0,0.0,0,0.0,0,0.0,0,0.0,10,,,,,0,21,21,21,,,,,,,,,205.5759791659657,205.5759791659657,205.5759791659657,205.5759791659657,205.5759791659657,205.5759791659657,205.5759791659657,205.5759791659657,205.47684508332364,205.5759791659657,205.5759791659657,205.5759791659657,205.47684508332364,205.5759791659657,205.5759791659657,205.5759791659657,205.5759791659657,205.5759791659657,205.5759791659657,205.5759791659657,205.5759791659657,205.5759791659657,205.5759791659657,205.5759791659657,205.5759791659657,205.5759791659657,205.5759791659657,205.52684508332362,205.5759791659657,205.5759791659657,205.5759791659657,205.52684508332362,205.5759791659657,205.5759791659657,205.5759791659657,205.5759791659657,205.5759791659657,210.77163549989928,210.77163549989928,215.7440557499649,None,0,,reldom2_s033,001,2025-03-12_17h11.33.275,Aud-B-Scan_AC,2022.2.5,None,
17,Second_Order,3.0,audwhere,stimulus/audwhere_stim/right_toward_290h.wav,stimulus/audwhere_stim/right_away_290h.wav,stimulus/audwhere_stim/right_away_280h.wav,stimulus/audwhere_stim/left_away_300h.wav,stimulus/audwhat_stim/match_blank.png,stimulus/audwhat_stim/match_box.png,stimulus/audwhat_stim/match_yes.png,stimulus/audwhat_stim/match_no.png,2.0,Match,Side,Direction,2,5.125,0,5.125,0,5.125,0,5.125,0,0.75,0.75,0,0,0,0,0,0,0,0,1,0.5,1,2.125,1,0.5,1,2.125,0,,,,,0,22,22,22,,,,,,,,,215.7440557499649,220.86472429090645,215.7440557499649,215.7440557499649,215.7440557499649,215.7440557499649,216.20122933294624,217.18885849998333,216.21483070758794,,217.82408741593827,218.82188512489665,217.83602724963956,,220.86472429090645,221.71497487497982,223.7996599159669,227.71444045798853,221.71497487497982,221.71497487497982,226.86313912493642,221.71497487497982,221.71497487497982,221.71497487497982,221.71497487497982,222.13052599993534,223.19696758291684,222.10068841657292,,223.7996599159669,224.8718163749436,223.76934145758085,,221.71497487497982,226.86313912493642,221.71497487497982,226.86313912493642,226.90434729098342,,221.71497487497982,2,1,0.7340418340172619,reldom2_s033,001,2025-03-12_17h11.33.275,Aud-B-Scan_AC,2022.2.5,None,
18,Second_Order,3.0,audwhere,stimulus/audwhere_stim/right_toward_270h.wav,stimulus/audwhere_stim/left_toward_270h.wav,stimulus/audwhere_stim/right_away_300h.wav,stimulus/audwhere_stim/left_away_280h.wav,stimulus/audwhat_stim/match_blank.png,stimulus/audwhat_stim/match_box.png,stimulus/audwhat_stim/match_yes.png,stimulus/audwhat_stim/match_no.png,1.0,Match,Direction,Direction,1,5.125,0,5.125,0,5.125,0,5.125,0,0.625,0.625,0,0,0,0,0,0,0,0,1,0.5,1,2.125,1,0.5,1,2.125,0,,,,,0,23,23,23,,,,,,,,,227.71444045798853,232.83711108297575,227.71444045798853,227.71444045798853,227.71444045798853,227.71444045798853,228.16306595795322,229.16250866593327,228.17616174958337,,229.7970801659394,230.78610245790333,229.80136554158915,,232.83711108297575,233.57455924991518,235.648941499996,239.67520499997772,233.57455924991518,233.57455924991518,238.75042474991642,233.57455924991518,233.57455924991518,233.57455924991518,233.57455924991518,233.98843716597185,235.0503481659107,233.95870312460855,,235.648941499996,236.71607783297077,235.61937133263953,,233.57455924991518,238.75042474991642,233.57455924991518,238.75042474991642,238.75042474991642,239.4013097079005,233.57455924991518,1,1,0.913050250033848,reldom2_s033,001,2025-03-12_17h11.33.275,Aud-B-Scan_AC,2022.2.5,None,
0,0.0,None,fixation,stimulus/audwhat_stim/blank_white.png,stimulus/audwhat_stim/blank_white.png,stimulus/audwhere_stim/blank_white.png,stimulus/audwhere_stim/blank_white.png,stimulus/audwhat_stim/blank_white.png,stimulus/audwhat_stim/blank_white.png,stimulus/audwhat_stim/blank_white.png,stimulus/audwhat_stim/blank_white.png,0.0,0.0,0.0,0.0,0,0.0,0,0.0,0,0.0,0,0.0,0,0.0,0.0,0,0,0,0,0,0,0,0,0,0.0,0,0.0,0,0.0,0,0.0,8,,,,,0,24,24,24,,,,,,,,,239.67520499997772,239.67520499997772,239.67520499997772,239.67520499997772,239.67520499997772,239.67520499997772,239.67520499997772,239.67520499997772,239.57555029125265,239.67520499997772,239.67520499997772,239.67520499997772,239.57555029125265,239.67520499997772,239.67520499997772,239.67520499997772,239.67520499997772,239.67520499997772,239.67520499997772,239.67520499997772,239.67520499997772,239.67520499997772,239.67520499997772,239.67520499997772,239.67520499997772,239.67520499997772,239.67520499997772,239.62555029125264,239.67520499997772,239.67520499997772,239.67520499997772,239.62555029125264,239.67520499997772,239.67520499997772,239.67520499997772,239.67520499997772,239.67520499997772,244.9012449159054,244.9012449159054,247.912221165956,None,0,,reldom2_s033,001,2025-03-12_17h11.33.275,Aud-B-Scan_AC,2022.2.5,None,
19,First_Order,4.0,audwhere,stimulus/audwhere_stim/dummy.wav,stimulus/audwhere_stim/dummy.wav,stimulus/audwhere_stim/right_toward_280h.wav,stimulus/audwhere_stim/left_toward_280h.wav,stimulus/audwhere_stim/blank_white.png,stimulus/audwhere_stim/side_box.png,stimulus/audwhere_stim/side_yes.png,stimulus/audwhere_stim/side_no.png,None,Side,None,Direction,2,0.0,0,5.125,0,5.125,0,5.125,0,0.0,0.625,0,0,0,0,0,0,0,0,0,0.0,0,0.0,1,0.5,1,2.125,0,,,,,0,25,25,25,,,,,,,,,247.912221165956,247.912221165956,247.912221165956,247.912221165956,247.912221165956,247.912221165956,247.912221165956,247.912221165956,247.8416673326089,247.912221165956,247.912221165956,247.912221165956,247.8416673326089,247.912221165956,247.912221165956,247.912221165956,250.0013040829217,,247.912221165956,247.912221165956,253.06350687495433,247.912221165956,247.912221165956,247.912221165956,247.912221165956,248.37733954098076,249.44527224998455,248.34750874963746,,250.0013040829217,251.07307524990756,249.9712328746139,,247.912221165956,253.06350687495433,247.912221165956,253.06350687495433,253.1042452909751,253.75824945792556,247.912221165956,2,1,0.8063610000535846,reldom2_s033,001,2025-03-12_17h11.33.275,Aud-B-Scan_AC,2022.2.5,None,
20,First_Order,4.0,audwhere,stimulus/audwhere_stim/dummy.wav,stimulus/audwhere_stim/dummy.wav,stimulus/audwhere_stim/left_toward_290h.wav,stimulus/audwhere_stim/right_toward_270h.wav,stimulus/audwhere_stim/blank_white.png,stimulus/audwhere_stim/side_box.png,stimulus/audwhere_stim/side_yes.png,stimulus/audwhere_stim/side_no.png,None,Side,None,Direction,2,0.0,0,5.125,0,5.125,0,5.125,0,0.0,0.625,0,0,0,0,0,0,0,0,0,0.0,0,0.0,1,0.5,1,2.125,0,,,,,0,26,26,26,,,,,,,,,254.01072295790073,254.01072295790073,254.01072295790073,254.01072295790073,254.01072295790073,254.01072295790073,254.01072295790073,254.01072295790073,253.93243429126065,254.01072295790073,254.01072295790073,254.01072295790073,253.93243429126065,254.01072295790073,254.01072295790073,254.01072295790073,256.0978829159867,,254.01072295790073,254.01072295790073,259.2007078329334,254.01072295790073,254.01072295790073,254.01072295790073,254.01072295790073,254.47453316592146,255.5417438329896,254.4445678325758,,256.0978829159867,257.1663423749851,256.06838708260716,,254.01072295790073,259.2007078329334,254.01072295790073,259.2007078329334,259.24203399999533,259.8935844999505,254.01072295790073,2,1,1.17190625006333,reldom2_s033,001,2025-03-12_17h11.33.275,Aud-B-Scan_AC,2022.2.5,None,
21,First_Order,4.0,audwhere,stimulus/audwhere_stim/dummy.wav,stimulus/audwhere_stim/dummy.wav,stimulus/audwhere_stim/left_toward_270h.wav,stimulus/audwhere_stim/left_away_300h.wav,stimulus/audwhere_stim/blank_white.png,stimulus/audwhere_stim/side_box.png,stimulus/audwhere_stim/side_yes.png,stimulus/audwhere_stim/side_no.png,None,Side,None,Side,1,0.0,0,5.125,0,5.125,0,5.125,0,0.0,0.625,0,0,0,0,0,0,0,0,0,0.0,0,0.0,1,0.5,1,2.125,0,,,,,0,27,27,27,,,,,,,,,260.1057017908897,260.1057017908897,260.1057017908897,260.1057017908897,260.1057017908897,260.1057017908897,260.1057017908897,260.1057017908897,260.02691783328385,260.1057017908897,260.1057017908897,260.1057017908897,260.02691783328385,260.1057017908897,260.1057017908897,260.1057017908897,262.19639712490607,,260.1057017908897,260.1057017908897,265.25733212498017,260.1057017908897,260.1057017908897,260.1057017908897,260.1057017908897,260.5710973748937,261.6387494999217,260.5412874576325,,262.19639712490607,263.2665617909515,262.1653751246088,,260.1057017908897,265.25733212498017,260.1057017908897,265.25733212498017,265.29843912494835,265.9527932079509,260.1057017908897,1,1,0.8033979161409661,reldom2_s033,001,2025-03-12_17h11.33.275,Aud-B-Scan_AC,2022.2.5,None,
22,First_Order,4.0,audwhere,stimulus/audwhere_stim/dummy.wav,stimulus/audwhere_stim/dummy.wav,stimulus/audwhere_stim/left_away_290h.wav,stimulus/audwhere_stim/left_toward_270h.wav,stimulus/audwhere_stim/blank_white.png,stimulus/audwhere_stim/side_box.png,stimulus/audwhere_stim/side_yes.png,stimulus/audwhere_stim/side_no.png,None,Side,None,Side,1,0.0,0,5.125,0,5.125,0,5.125,0,0.0,0.625,0,0,0,0,0,0,0,0,0,0.0,0,0.0,1,0.5,1,2.125,0,,,,,0,28,28,28,,,,,,,,,266.20778329099994,266.20778329099994,266.20778329099994,266.20778329099994,266.20778329099994,266.20778329099994,266.20778329099994,266.20778329099994,266.1270260413022,266.20778329099994,266.20778329099994,266.20778329099994,266.1270260413022,266.20778329099994,266.20778329099994,266.20778329099994,268.2970165829174,,266.20778329099994,266.20778329099994,271.3612210409483,266.20778329099994,266.20778329099994,266.20778329099994,266.20778329099994,266.6713528749533,267.7388476249762,266.6416140415861,,268.2970165829174,269.36864916596096,268.2667598745941,,266.20778329099994,271.3612210409483,266.20778329099994,271.3612210409483,271.40259716589935,272.05656070797704,266.20778329099994,1,1,0.9792662911349908,reldom2_s033,001,2025-03-12_17h11.33.275,Aud-B-Scan_AC,2022.2.5,None,
0,0.0,None,fixation,stimulus/audwhat_stim/blank_white.png,stimulus/audwhat_stim/blank_white.png,stimulus/audwhere_stim/blank_white.png,stimulus/audwhere_stim/blank_white.png,stimulus/audwhat_stim/blank_white.png,stimulus/audwhat_stim/blank_white.png,stimulus/audwhat_stim/blank_white.png,stimulus/audwhat_stim/blank_white.png,0.0,0.0,0.0,0.0,0,0.0,0,0.0,0,0.0,0,0.0,0,0.0,0.0,0,0,0,0,0,0,0,0,0,0.0,0,0.0,0,0.0,0,0.0,10,,,,,0,29,29,29,,,,,,,,,272.3322122079553,272.3322122079553,272.3322122079553,272.3322122079553,272.3322122079553,272.3322122079553,272.3322122079553,272.3322122079553,272.2308891662707,272.3322122079553,272.3322122079553,272.3322122079553,272.2308891662707,272.3322122079553,272.3322122079553,272.3322122079553,272.3322122079553,272.3322122079553,272.3322122079553,272.3322122079553,272.3322122079553,272.3322122079553,272.3322122079553,272.3322122079553,272.3322122079553,272.3322122079553,272.3322122079553,272.2808891662707,272.3322122079553,272.3322122079553,272.3322122079553,272.2808891662707,272.3322122079553,272.3322122079553,272.3322122079553,272.3322122079553,272.3322122079553,277.52448987495154,277.52448987495154,282.4916066249134,None,0,,reldom2_s033,001,2025-03-12_17h11.33.275,Aud-B-Scan_AC,2022.2.5,None,
23,Second_Order,4.0,audwhere,stimulus/audwhere_stim/right_toward_300h.wav,stimulus/audwhere_stim/left_toward_270h.wav,stimulus/audwhere_stim/left_away_300h.wav,stimulus/audwhere_stim/right_away_300h.wav,stimulus/audwhat_stim/match_blank.png,stimulus/audwhat_stim/match_box.png,stimulus/audwhat_stim/match_yes.png,stimulus/audwhat_stim/match_no.png,1.0,Match,Direction,Direction,1,5.125,0,5.125,0,5.125,0,5.125,0,0.75,0.75,0,0,0,0,0,0,0,0,1,0.5,1,2.125,1,0.5,1,2.125,0,,,,,0,30,30,30,,,,,,,,,282.4916066249134,287.6138106659055,282.4916066249134,282.4916066249134,282.4916066249134,282.4916066249134,282.93849404098,283.92615629092325,282.952465457671,,284.573424165952,285.56353429099545,284.57667741662976,285.56353429099545,287.6138106659055,288.4638284998946,290.54478979099076,294.4650062499568,288.4638284998946,288.4638284998946,293.6524366249796,288.4638284998946,288.4638284998946,288.4638284998946,288.4638284998946,288.8789200829342,289.94380837492645,288.84946608258565,,290.54478979099076,291.6157058329554,290.51518033264824,,288.4638284998946,293.6524366249796,288.4638284998946,293.6524366249796,293.6524366249796,,288.4638284998946,1,1,0.900763750076294,reldom2_s033,001,2025-03-12_17h11.33.275,Aud-B-Scan_AC,2022.2.5,None,
24,Second_Order,4.0,audwhere,stimulus/audwhere_stim/right_toward_300h.wav,stimulus/audwhere_stim/left_toward_300h.wav,stimulus/audwhere_stim/left_away_290h.wav,stimulus/audwhere_stim/right_away_280h.wav,stimulus/audwhat_stim/match_blank.png,stimulus/audwhat_stim/match_box.png,stimulus/audwhat_stim/match_yes.png,stimulus/audwhat_stim/match_no.png,1.0,Match,Direction,Direction,1,5.125,0,5.125,0,5.125,0,5.125,0,0.625,0.625,0,0,0,0,0,0,0,0,1,0.5,1,2.125,1,0.5,1,2.125,0,,,,,0,31,31,31,,,,,,,,,294.4650062499568,299.579658582923,294.4650062499568,294.4650062499568,294.4650062499568,294.4650062499568,294.91648058290593,295.903131457977,294.93045083264974,,296.53858012496494,297.53658504097257,296.5512329165979,,299.579658582923,300.30488299997523,302.3754007499665,,300.30488299997523,300.30488299997523,305.469794082921,300.30488299997523,300.30488299997523,300.30488299997523,300.30488299997523,300.76177012489643,301.8219776659971,300.7326259576405,,302.3754007499665,303.4403600828955,302.3456118746583,,300.30488299997523,305.469794082921,300.30488299997523,305.469794082921,305.469794082921,306.1188976659905,300.30488299997523,1,1,0.8854512909892946,reldom2_s033,001,2025-03-12_17h11.33.275,Aud-B-Scan_AC,2022.2.5,None,
0,0.0,None,fixation,stimulus/audwhat_stim/blank_white.png,stimulus/audwhat_stim/blank_white.png,stimulus/audwhere_stim/blank_white.png,stimulus/audwhere_stim/blank_white.png,stimulus/audwhat_stim/blank_white.png,stimulus/audwhat_stim/blank_white.png,stimulus/audwhat_stim/blank_white.png,stimulus/audwhat_stim/blank_white.png,0.0,0.0,0.0,0.0,0,0.0,0,0.0,0,0.0,0,0.0,0,0.0,0.0,0,0,0,0,0,0,0,0,0,0.0,0,0.0,0,0.0,0,0.0,9,,,,,0,32,32,32,,,,,,,,,306.3928969159024,306.3928969159024,306.3928969159024,306.3928969159024,306.3928969159024,306.3928969159024,306.3928969159024,306.3928969159024,306.2923502083014,306.3928969159024,306.3928969159024,306.3928969159024,306.2923502083014,306.3928969159024,306.3928969159024,306.3928969159024,306.3928969159024,306.3928969159024,306.3928969159024,306.3928969159024,306.3928969159024,306.3928969159024,306.3928969159024,306.3928969159024,306.3928969159024,306.3928969159024,306.3928969159024,306.3423502083014,306.3928969159024,306.3928969159024,306.3928969159024,306.3423502083014,306.3928969159024,306.3928969159024,306.3928969159024,306.3928969159024,306.3928969159024,311.60946391592734,311.60946391592734,315.6352916659089,None,0,,reldom2_s033,001,2025-03-12_17h11.33.275,Aud-B-Scan_AC,2022.2.5,None,
25,First_Order,5.0,audwhat,stimulus/audwhat_stim/dummy.wav,stimulus/audwhat_stim/dummy.wav,stimulus/audwhat_stim/percussion xylophone_high-pitch_Ftri_loud.wav,stimulus/audwhat_stim/percussion mallet_low-pitch_F_loud.wav,stimulus/audwhat_stim/blank_white.png,stimulus/audwhat_stim/pitch_box.png,stimulus/audwhat_stim/pitch_yes.png,stimulus/audwhat_stim/pitch_no.png,None,Pitch,None,Category,2,0.0,0,5.125,0,5.125,0,5.125,0,0.0,0.625,0,0,0,0,0,0,0,0,0,0.0,0,0.0,1,0.5,1,2.125,0,,,,,0,33,33,33,,,,,,,,,315.6352916659089,315.6352916659089,315.6352916659089,315.6352916659089,315.6352916659089,315.6352916659089,315.6352916659089,315.6352916659089,315.5623304165589,315.6352916659089,315.6352916659089,315.6352916659089,315.5623304165589,315.6352916659089,315.6352916659089,315.6352916659089,317.71988466591574,,315.6352916659089,315.6352916659089,320.78662004088983,315.6352916659089,315.6352916659089,315.6352916659089,315.6352916659089,316.0979808329139,317.16334604099393,316.06799429160696,317.11680145794526,317.71988466591574,318.7929068329977,317.68969845766355,,315.6352916659089,320.78662004088983,315.6352916659089,320.78662004088983,320.82786274992395,321.4796912499005,315.6352916659089,2,1,0.8355273330816999,reldom2_s033,001,2025-03-12_17h11.33.275,Aud-B-Scan_AC,2022.2.5,None,
26,First_Order,5.0,audwhat,stimulus/audwhat_stim/dummy.wav,stimulus/audwhat_stim/dummy.wav,stimulus/audwhat_stim/percussion mallet_low-pitch_Dtri_loud.wav,stimulus/audwhat_stim/percussion xylophone_high-pitch_Ftri_loud.wav,stimulus/audwhat_stim/blank_white.png,stimulus/audwhat_stim/category_box.png,stimulus/audwhat_stim/category_yes.png,stimulus/audwhat_stim/category_no.png,None,Category,None,Category,1,0.0,0,5.125,0,5.125,0,5.125,0,0.0,0.625,0,0,0,0,0,0,0,0,0,0.0,0,0.0,1,0.5,1,2.125,0,,,,,0,34,34,34,,,,,,,,,321.7336624999298,321.7336624999298,321.7336624999298,321.7336624999298,321.7336624999298,321.7336624999298,321.7336624999298,321.7336624999298,321.6539927912255,321.7336624999298,321.7336624999298,321.7336624999298,321.6539927912255,321.7336624999298,321.7336624999298,321.7336624999298,323.83262608293444,,321.7336624999298,321.7336624999298,326.9147307079984,321.7336624999298,321.7336624999298,321.7336624999298,321.7336624999298,322.20184316590894,323.2727204998955,322.1700645826679,,323.83262608293444,324.86424733290914,323.8024431246488,324.86424733290914,321.7336624999298,326.9147307079984,321.7336624999298,326.9147307079984,326.9559447079664,327.61273045791313,321.7336624999298,1,1,0.9077467920724303,reldom2_s033,001,2025-03-12_17h11.33.275,Aud-B-Scan_AC,2022.2.5,None,
27,First_Order,5.0,audwhat,stimulus/audwhat_stim/dummy.wav,stimulus/audwhat_stim/dummy.wav,stimulus/audwhat_stim/string cello_low-pitch_Dtri_loud.wav,stimulus/audwhat_stim/percussion mallet_low-pitch_Dtri_loud.wav,stimulus/audwhat_stim/blank_white.png,stimulus/audwhat_stim/pitch_box.png,stimulus/audwhat_stim/pitch_yes.png,stimulus/audwhat_stim/pitch_no.png,None,Pitch,None,Pitch,1,0.0,0,5.125,0,5.125,0,5.125,0,0.0,0.625,0,0,0,0,0,0,0,0,0,0.0,0,0.0,1,0.5,1,2.125,0,,,,,0,35,35,35,,,,,,,,,327.82611645793077,327.82611645793077,327.82611645793077,327.82611645793077,327.82611645793077,327.82611645793077,327.82611645793077,327.82611645793077,327.74606379124646,327.82611645793077,327.82611645793077,327.82611645793077,327.74606379124646,327.82611645793077,327.82611645793077,327.82611645793077,329.9195357079152,,327.82611645793077,327.82611645793077,332.98728449991904,327.82611645793077,327.82611645793077,327.82611645793077,327.82611645793077,328.2924502079841,329.3622849159874,328.2625017496214,,329.9195357079152,330.99191679095384,329.8896969996315,,327.82611645793077,332.98728449991904,327.82611645793077,332.98728449991904,333.0283990409225,333.68425737496,327.82611645793077,1,1,0.847860083100386,reldom2_s033,001,2025-03-12_17h11.33.275,Aud-B-Scan_AC,2022.2.5,None,
28,First_Order,5.0,audwhat,stimulus/audwhat_stim/dummy.wav,stimulus/audwhat_stim/dummy.wav,stimulus/audwhat_stim/percussion xylophone_high-pitch_Ftri_loud.wav,stimulus/audwhat_stim/percussion mallet_low-pitch_F_loud.wav,stimulus/audwhat_stim/blank_white.png,stimulus/audwhat_stim/category_box.png,stimulus/audwhat_stim/category_yes.png,stimulus/audwhat_stim/category_no.png,None,Category,None,Category,1,0.0,0,5.125,0,5.125,0,5.125,0,0.0,0.625,0,0,0,0,0,0,0,0,0,0.0,0,0.0,1,0.5,1,2.125,0,,,,,0,36,36,36,,,,,,,,,333.9387520829914,333.9387520829914,333.9387520829914,333.9387520829914,333.9387520829914,333.9387520829914,333.9387520829914,333.9387520829914,333.8583192082898,333.9387520829914,333.9387520829914,333.9387520829914,333.8583192082898,333.9387520829914,333.9387520829914,333.9387520829914,336.04293137497734,,333.9387520829914,333.9387520829914,339.12238600000273,333.9387520829914,333.9387520829914,333.9387520829914,333.9387520829914,334.407740790979,335.4822272079764,334.3777359575654,335.43551341595594,336.04293137497734,337.0745387909701,336.0126019166239,,333.9387520829914,339.12238600000273,333.9387520829914,339.12238600000273,339.16372454096563,339.82049933297094,333.9387520829914,1,1,1.0464837910840288,reldom2_s033,001,2025-03-12_17h11.33.275,Aud-B-Scan_AC,2022.2.5,None,
0,0.0,None,fixation,stimulus/audwhat_stim/blank_white.png,stimulus/audwhat_stim/blank_white.png,stimulus/audwhere_stim/blank_white.png,stimulus/audwhere_stim/blank_white.png,stimulus/audwhat_stim/blank_white.png,stimulus/audwhat_stim/blank_white.png,stimulus/audwhat_stim/blank_white.png,stimulus/audwhat_stim/blank_white.png,0.0,0.0,0.0,0.0,0,0.0,0,0.0,0,0.0,0,0.0,0,0.0,0.0,0,0,0,0,0,0,0,0,0,0.0,0,0.0,0,0.0,0,0.0,8,,,,,0,37,37,37,,,,,,,,,340.0546447499655,340.0546447499655,340.0546447499655,340.0546447499655,340.0546447499655,340.0546447499655,340.0546447499655,340.0546447499655,339.95383266630427,340.0546447499655,340.0546447499655,340.0546447499655,339.95383266630427,340.0546447499655,340.0546447499655,340.0546447499655,340.0546447499655,340.0546447499655,340.0546447499655,340.0546447499655,340.0546447499655,340.0546447499655,340.0546447499655,340.0546447499655,340.0546447499655,340.0546447499655,340.0546447499655,340.0038326663043,340.0546447499655,340.0546447499655,340.0546447499655,340.0038326663043,340.0546447499655,340.0546447499655,340.0546447499655,340.0546447499655,340.0546447499655,345.26453741593286,345.26453741593286,348.2036832909798,None,0,,reldom2_s033,001,2025-03-12_17h11.33.275,Aud-B-Scan_AC,2022.2.5,None,
29,Second_Order,5.0,audwhat,stimulus/audwhat_stim/string viola_low-pitch_Dtri_loud.wav,stimulus/audwhat_stim/percussion mallet_low-pitch_Dtri_loud.wav,stimulus/audwhat_stim/string viola_low-pitch_Dtri_loud.wav,stimulus/audwhat_stim/string cello_high-pitch_Ftri_loud.wav,stimulus/audwhat_stim/match_blank.png,stimulus/audwhat_stim/match_box.png,stimulus/audwhat_stim/match_yes.png,stimulus/audwhat_stim/match_no.png,2.0,Match,Pitch,Category,2,5.125,0,5.125,0,5.125,0,5.125,0,0.75,0.75,0,0,0,0,0,0,0,0,1,0.5,1,2.125,1,0.5,1,2.125,0,,,,,0,38,38,38,,,,,,,,,348.2036832909798,353.3197835829342,348.2036832909798,348.2036832909798,348.2036832909798,348.2036832909798,348.6569707909366,349.6442156659905,348.67108283256334,,350.2795880829217,351.2774777499726,350.29192866658946,,353.3197835829342,354.1706136659486,356.2560023749247,360.17672070791014,354.1706136659486,354.1706136659486,359.3638157079695,354.1706136659486,354.1706136659486,354.1706136659486,354.1706136659486,354.58833645796403,355.65425520797726,354.55841529166014,,356.2560023749247,357.3239616249921,356.2261385826316,,354.1706136659486,359.3638157079695,354.1706136659486,359.3638157079695,359.3638157079695,,354.1706136659486,2,1,0.890166542143561,reldom2_s033,001,2025-03-12_17h11.33.275,Aud-B-Scan_AC,2022.2.5,None,
30,Second_Order,5.0,audwhat,stimulus/audwhat_stim/string viola_high-pitch_Ftri_loud.wav,stimulus/audwhat_stim/percussion xylophone_high-pitch_Ftri_loud.wav,stimulus/audwhat_stim/string viola_low-pitch_D_loud.wav,stimulus/audwhat_stim/percussion mallet_low-pitch_D_loud.wav,stimulus/audwhat_stim/match_blank.png,stimulus/audwhat_stim/match_box.png,stimulus/audwhat_stim/match_yes.png,stimulus/audwhat_stim/match_no.png,1.0,Match,Pitch,Pitch,1,5.125,0,5.125,0,5.125,0,5.125,0,0.625,0.625,0,0,0,0,0,0,0,0,1,0.5,1,2.125,1,0.5,1,2.125,0,,,,,0,39,39,39,,,,,,,,,360.17672070791014,365.297645540908,360.17672070791014,360.17672070791014,360.17672070791014,360.17672070791014,360.634522874956,361.622053375002,360.6485434165845,,362.2567990409443,363.25549770798534,362.2692153326391,363.2591170408996,365.297645540908,366.0276066659717,368.1050291249994,,366.0276066659717,366.0276066659717,371.202395665925,366.0276066659717,366.0276066659717,366.0276066659717,366.0276066659717,366.44316579098813,367.50494829099625,366.4133337495771,,368.1050291249994,369.1713262909325,368.0749647495725,,366.0276066659717,371.202395665925,366.0276066659717,371.202395665925,371.202395665925,371.8516861659009,366.0276066659717,1,1,0.6325190000934526,reldom2_s033,001,2025-03-12_17h11.33.275,Aud-B-Scan_AC,2022.2.5,None,
0,0.0,None,fixation,stimulus/audwhat_stim/blank_white.png,stimulus/audwhat_stim/blank_white.png,stimulus/audwhere_stim/blank_white.png,stimulus/audwhere_stim/blank_white.png,stimulus/audwhat_stim/blank_white.png,stimulus/audwhat_stim/blank_white.png,stimulus/audwhat_stim/blank_white.png,stimulus/audwhat_stim/blank_white.png,0.0,0.0,0.0,0.0,0,0.0,0,0.0,0,0.0,0,0.0,0,0.0,0.0,0,0,0,0,0,0,0,0,0,0.0,0,0.0,0,0.0,0,0.0,9,,,,,0,40,40,40,,,,,,,,,372.1258907079464,372.1258907079464,372.1258907079464,372.1258907079464,372.1258907079464,372.1258907079464,372.1258907079464,372.1258907079464,372.02559066625156,372.1258907079464,372.1258907079464,372.1258907079464,372.02559066625156,372.1258907079464,372.1258907079464,372.1258907079464,372.1258907079464,372.1258907079464,372.1258907079464,372.1258907079464,372.1258907079464,372.1258907079464,372.1258907079464,372.1258907079464,372.1258907079464,372.1258907079464,372.1258907079464,372.07559066625157,372.1258907079464,372.1258907079464,372.1258907079464,372.07559066625157,372.1258907079464,372.1258907079464,372.1258907079464,372.1258907079464,372.1258907079464,377.3481956250034,377.3481956250034,381.3766615409404,None,0,,reldom2_s033,001,2025-03-12_17h11.33.275,Aud-B-Scan_AC,2022.2.5,None,
31,First_Order,6.0,audwhat,stimulus/audwhat_stim/dummy.wav,stimulus/audwhat_stim/dummy.wav,stimulus/audwhat_stim/string viola_low-pitch_D_loud.wav,stimulus/audwhat_stim/percussion mallet_low-pitch_D_loud.wav,stimulus/audwhat_stim/blank_white.png,stimulus/audwhat_stim/category_box.png,stimulus/audwhat_stim/category_yes.png,stimulus/audwhat_stim/category_no.png,None,Category,None,Pitch,2,0.0,0,5.125,0,5.125,0,5.125,0,0.0,0.625,0,0,0,0,0,0,0,0,0,0.0,0,0.0,1,0.5,1,2.125,0,,,,,0,41,41,41,,,,,,,,,381.3766615409404,381.3766615409404,381.3766615409404,381.3766615409404,381.3766615409404,381.3766615409404,381.3766615409404,381.3766615409404,381.30335070767126,381.3766615409404,381.3766615409404,381.3766615409404,381.30335070767126,381.3766615409404,381.3766615409404,381.3766615409404,383.47596499999054,387.5042183329351,381.3766615409404,381.3766615409404,386.55507120792754,381.3766615409404,381.3766615409404,381.3766615409404,381.3766615409404,381.8428443749435,382.9177532909671,381.81365199963716,,383.47596499999054,384.50568683294114,383.4456802915704,,381.3766615409404,386.55507120792754,381.3766615409404,386.55507120792754,386.59672079095617,387.2499839159427,381.3766615409404,2,1,0.5786587501643226,reldom2_s033,001,2025-03-12_17h11.33.275,Aud-B-Scan_AC,2022.2.5,None,
32,First_Order,6.0,audwhat,stimulus/audwhat_stim/dummy.wav,stimulus/audwhat_stim/dummy.wav,stimulus/audwhat_stim/percussion mallet_high-pitch_Dtri_loud.wav,stimulus/audwhat_stim/string viola_high-pitch_Dtri_loud.wav,stimulus/audwhat_stim/blank_white.png,stimulus/audwhat_stim/pitch_box.png,stimulus/audwhat_stim/pitch_yes.png,stimulus/audwhat_stim/pitch_no.png,None,Pitch,None,Pitch,1,0.0,0,5.125,0,5.125,0,5.125,0,0.0,0.625,0,0,0,0,0,0,0,0,0,0.0,0,0.0,1,0.5,1,2.125,0,,,,,0,42,42,42,,,,,,,,,387.5042183329351,387.5042183329351,387.5042183329351,387.5042183329351,387.5042183329351,387.5042183329351,387.5042183329351,387.5042183329351,387.42445716625855,387.5042183329351,387.5042183329351,387.5042183329351,387.42445716625855,387.5042183329351,387.5042183329351,387.5042183329351,389.59227008291055,,387.5042183329351,387.5042183329351,392.66052141599357,387.5042183329351,387.5042183329351,387.5042183329351,387.5042183329351,387.96871312498115,389.0374674159102,387.9388151246278,,389.59227008291055,390.66284166590776,389.5623611666417,,387.5042183329351,392.66052141599357,387.5042183329351,392.66052141599357,392.7017685829196,393.3546017499175,387.5042183329351,1,1,0.9568060000892729,reldom2_s033,001,2025-03-12_17h11.33.275,Aud-B-Scan_AC,2022.2.5,None,
33,First_Order,6.0,audwhat,stimulus/audwhat_stim/dummy.wav,stimulus/audwhat_stim/dummy.wav,stimulus/audwhat_stim/string cello_high-pitch_D_loud.wav,stimulus/audwhat_stim/string viola_low-pitch_F_loud.wav,stimulus/audwhat_stim/blank_white.png,stimulus/audwhat_stim/pitch_box.png,stimulus/audwhat_stim/pitch_yes.png,stimulus/audwhat_stim/pitch_no.png,None,Pitch,None,Category,2,0.0,0,5.125,0,5.125,0,5.125,0,0.0,0.625,0,0,0,0,0,0,0,0,0,0.0,0,0.0,1,0.5,1,2.125,0,,,,,0,43,43,43,,,,,,,,,393.608761957963,393.608761957963,393.608761957963,393.608761957963,393.608761957963,393.608761957963,393.608761957963,393.608761957963,393.5287121662715,393.608761957963,393.608761957963,393.608761957963,393.5287121662715,393.608761957963,393.608761957963,393.608761957963,395.6992550829891,,393.608761957963,393.608761957963,398.767340124934,393.608761957963,393.608761957963,393.608761957963,393.608761957963,394.0729396248935,395.142190790968,394.0433712076085,,395.6992550829891,396.7718127910048,395.6692125825832,,393.608761957963,398.767340124934,393.608761957963,398.767340124934,398.808556499891,399.46225637500174,393.608761957963,2,1,0.8725999580929056,reldom2_s033,001,2025-03-12_17h11.33.275,Aud-B-Scan_AC,2022.2.5,None,
34,First_Order,6.0,audwhat,stimulus/audwhat_stim/dummy.wav,stimulus/audwhat_stim/dummy.wav,stimulus/audwhat_stim/percussion mallet_low-pitch_F_loud.wav,stimulus/audwhat_stim/string viola_low-pitch_F_loud.wav,stimulus/audwhat_stim/blank_white.png,stimulus/audwhat_stim/category_box.png,stimulus/audwhat_stim/category_yes.png,stimulus/audwhat_stim/category_no.png,None,Category,None,Pitch,2,0.0,0,5.125,0,5.125,0,5.125,0,0.0,0.625,0,0,0,0,0,0,0,0,0,0.0,0,0.0,1,0.5,1,2.125,0,,,,,0,44,44,44,,,,,,,,,399.7167310829973,399.7167310829973,399.7167310829973,399.7167310829973,399.7167310829973,399.7167310829973,399.7167310829973,399.7167310829973,399.6365133743112,399.7167310829973,399.7167310829973,399.7167310829973,399.6365133743112,399.7167310829973,399.7167310829973,399.7167310829973,401.8186201659264,,399.7167310829973,399.7167310829973,404.90211312496103,399.7167310829973,399.7167310829973,399.7167310829973,399.7167310829973,400.1854087909451,401.25926124991383,400.1539555416132,,401.8186201659264,402.85164387489203,401.7886322076122,,399.7167310829973,404.90211312496103,399.7167310829973,404.90211312496103,404.94351241597906,405.59948999993503,399.7167310829973,2,1,0.6468003330519423,reldom2_s033,001,2025-03-12_17h11.33.275,Aud-B-Scan_AC,2022.2.5,None,
0,0.0,None,fixation,stimulus/audwhat_stim/blank_white.png,stimulus/audwhat_stim/blank_white.png,stimulus/audwhere_stim/blank_white.png,stimulus/audwhere_stim/blank_white.png,stimulus/audwhat_stim/blank_white.png,stimulus/audwhat_stim/blank_white.png,stimulus/audwhat_stim/blank_white.png,stimulus/audwhat_stim/blank_white.png,0.0,0.0,0.0,0.0,0,0.0,0,0.0,0,0.0,0,0.0,0,0.0,0.0,0,0,0,0,0,0,0,0,0,0.0,0,0.0,0,0.0,0,0.0,9,,,,,0,45,45,45,,,,,,,,,405.83395845792256,405.83395845792256,405.83395845792256,405.83395845792256,405.83395845792256,405.83395845792256,405.83395845792256,405.83395845792256,405.73282333326836,405.83395845792256,405.83395845792256,405.83395845792256,405.73282333326836,405.83395845792256,405.83395845792256,405.83395845792256,405.83395845792256,405.83395845792256,405.83395845792256,405.83395845792256,405.83395845792256,405.83395845792256,405.83395845792256,405.83395845792256,405.83395845792256,405.83395845792256,405.83395845792256,405.78282333326837,405.83395845792256,405.83395845792256,405.83395845792256,405.78282333326837,405.83395845792256,405.83395845792256,405.83395845792256,405.83395845792256,405.83395845792256,411.0440517079551,411.0440517079551,414.9993112909142,None,0,,reldom2_s033,001,2025-03-12_17h11.33.275,Aud-B-Scan_AC,2022.2.5,None,
35,Second_Order,6.0,audwhat,stimulus/audwhat_stim/string cello_low-pitch_D_loud.wav,stimulus/audwhat_stim/percussion mallet_low-pitch_D_loud.wav,stimulus/audwhat_stim/percussion mallet_low-pitch_D_loud.wav,stimulus/audwhat_stim/percussion xylophone_high-pitch_Ftri_loud.wav,stimulus/audwhat_stim/match_blank.png,stimulus/audwhat_stim/match_box.png,stimulus/audwhat_stim/match_yes.png,stimulus/audwhat_stim/match_no.png,2.0,Match,Pitch,Category,2,5.125,0,5.125,0,5.125,0,5.125,0,0.75,0.75,0,0,0,0,0,0,0,0,1,0.5,1,2.125,1,0.5,1,2.125,0,,,,,0,46,46,46,,,,,,,,,414.9993112909142,420.1197625409113,414.9993112909142,414.9993112909142,414.9993112909142,414.9993112909142,415.4450569159817,416.4319342079107,415.45849670767007,,417.0796827909071,418.068700915901,417.0838254576704,418.08180070796516,420.1197625409113,420.9747023329837,423.0157785828924,,420.9747023329837,420.9747023329837,426.1265740409726,420.9747023329837,420.9747023329837,420.9747023329837,420.9747023329837,421.3916180409724,422.46028395800386,421.3618037916642,,423.0157785828924,424.0871779579902,422.9858252496381,424.0410774999764,420.9747023329837,426.1265740409726,420.9747023329837,426.1265740409726,426.1685748749878,,420.9747023329837,2,1,0.6941624170867726,reldom2_s033,001,2025-03-12_17h11.33.275,Aud-B-Scan_AC,2022.2.5,None,
36,Second_Order,6.0,audwhat,stimulus/audwhat_stim/string cello_low-pitch_Dtri_loud.wav,stimulus/audwhat_stim/percussion mallet_low-pitch_Dtri_loud.wav,stimulus/audwhat_stim/string viola_high-pitch_F_loud.wav,stimulus/audwhat_stim/percussion xylophone_high-pitch_F_loud.wav,stimulus/audwhat_stim/match_blank.png,stimulus/audwhat_stim/match_box.png,stimulus/audwhat_stim/match_yes.png,stimulus/audwhat_stim/match_no.png,1.0,Match,Pitch,Pitch,1,5.125,0,5.125,0,5.125,0,5.125,0,0.625,0.625,0,0,0,0,0,0,0,0,1,0.5,1,2.125,1,0.5,1,2.125,0,,,,,0,47,47,47,,,,,,,,,426.9407467909623,432.0641248750035,426.9407467909623,426.9407467909623,426.9407467909623,426.9407467909623,427.38867129094433,428.3750256249914,427.4028622075605,,429.02366354095284,430.01363283290993,429.02725237462823,,432.0641248750035,432.79664374992717,434.87502166593913,438.8992198749911,432.79664374992717,432.79664374992717,437.97439887491055,432.79664374992717,432.79664374992717,432.79664374992717,432.79664374992717,433.2564290409209,434.3222674999852,433.2267588746656,,434.87502166593913,435.940320707974,434.84502583259405,435.8938263749005,432.79664374992717,437.97439887491055,432.79664374992717,437.97439887491055,437.97439887491055,438.6261737078894,432.79664374992717,1,1,0.515755292144604,reldom2_s033,001,2025-03-12_17h11.33.275,Aud-B-Scan_AC,2022.2.5,None,
0,0.0,None,fixation,stimulus/audwhat_stim/blank_white.png,stimulus/audwhat_stim/blank_white.png,stimulus/audwhere_stim/blank_white.png,stimulus/audwhere_stim/blank_white.png,stimulus/audwhat_stim/blank_white.png,stimulus/audwhat_stim/blank_white.png,stimulus/audwhat_stim/blank_white.png,stimulus/audwhat_stim/blank_white.png,0.0,0.0,0.0,0.0,0,0.0,0,0.0,0,0.0,0,0.0,0,0.0,0.0,0,0,0,0,0,0,0,0,0,0.0,0,0.0,0,0.0,0,0.0,10,,,,,0,48,48,48,,,,,,,,,438.8992198749911,438.8992198749911,438.8992198749911,438.8992198749911,438.8992198749911,438.8992198749911,438.8992198749911,438.8992198749911,438.8003647493043,438.8992198749911,438.8992198749911,438.8992198749911,438.8003647493043,438.8992198749911,438.8992198749911,438.8992198749911,438.8992198749911,438.8992198749911,438.8992198749911,438.8992198749911,438.8992198749911,438.8992198749911,438.8992198749911,438.8992198749911,438.8992198749911,438.8992198749911,438.8992198749911,438.85036474930433,438.8992198749911,438.8992198749911,438.8992198749911,438.85036474930433,438.8992198749911,438.8992198749911,438.8992198749911,438.8992198749911,438.8992198749911,444.1270665409975,444.1270665409975,449.1217827498913,None,0,,reldom2_s033,001,2025-03-12_17h11.33.275,Aud-B-Scan_AC,2022.2.5,None,
37,First_Order,7.0,audwhere,stimulus/audwhere_stim/dummy.wav,stimulus/audwhere_stim/dummy.wav,stimulus/audwhere_stim/right_toward_300h.wav,stimulus/audwhere_stim/left_toward_290h.wav,stimulus/audwhere_stim/blank_white.png,stimulus/audwhere_stim/direction_box.png,stimulus/audwhere_stim/direction_yes.png,stimulus/audwhere_stim/direction_no.png,None,Direction,None,Direction,1,0.0,0,5.125,0,5.125,0,5.125,0,0.0,0.625,0,0,0,0,0,0,0,0,0,0.0,0,0.0,1,0.5,1,2.125,0,,,,,0,49,49,49,,,,,,,,,449.1217827498913,449.1217827498913,449.1217827498913,449.1217827498913,449.1217827498913,449.1217827498913,449.1217827498913,449.1217827498913,449.0499451666061,449.1217827498913,449.1217827498913,449.1217827498913,449.0499451666061,449.1217827498913,449.1217827498913,449.1217827498913,451.2202408328885,,449.1217827498913,449.1217827498913,454.30211879091803,449.1217827498913,449.1217827498913,449.1217827498913,449.1217827498913,449.58737379091326,450.6615901659243,449.55747749965326,,451.2202408328885,452.29592516599223,451.1901739995849,,449.1217827498913,454.30211879091803,449.1217827498913,454.30211879091803,454.34333224990405,454.9989281249,449.1217827498913,1,1,1.1420079161180183,reldom2_s033,001,2025-03-12_17h11.33.275,Aud-B-Scan_AC,2022.2.5,None,
38,First_Order,7.0,audwhere,stimulus/audwhere_stim/dummy.wav,stimulus/audwhere_stim/dummy.wav,stimulus/audwhere_stim/right_toward_290h.wav,stimulus/audwhere_stim/right_away_270h.wav,stimulus/audwhere_stim/blank_white.png,stimulus/audwhere_stim/side_box.png,stimulus/audwhere_stim/side_yes.png,stimulus/audwhere_stim/side_no.png,None,Side,None,Side,1,0.0,0,5.125,0,5.125,0,5.125,0,0.0,0.625,0,0,0,0,0,0,0,0,0,0.0,0,0.0,1,0.5,1,2.125,0,,,,,0,50,50,50,,,,,,,,,455.2116223749472,455.2116223749472,455.2116223749472,455.2116223749472,455.2116223749472,455.2116223749472,455.2116223749472,455.2116223749472,455.1322614582333,455.2116223749472,455.2116223749472,455.2116223749472,455.1322614582333,455.2116223749472,455.2116223749472,455.2116223749472,457.2994564579567,,455.2116223749472,455.2116223749472,460.36654749989975,455.2116223749472,455.2116223749472,455.2116223749472,455.2116223749472,455.6757982498966,456.7431064998964,455.64565204159976,,457.2994564579567,458.37181491591036,457.26986166666416,,455.2116223749472,460.36654749989975,455.2116223749472,460.36654749989975,460.40773991600145,461.0610267498996,455.2116223749472,1,1,0.9258011251222342,reldom2_s033,001,2025-03-12_17h11.33.275,Aud-B-Scan_AC,2022.2.5,None,
39,First_Order,7.0,audwhere,stimulus/audwhere_stim/dummy.wav,stimulus/audwhere_stim/dummy.wav,stimulus/audwhere_stim/left_away_290h.wav,stimulus/audwhere_stim/left_toward_290h.wav,stimulus/audwhere_stim/blank_white.png,stimulus/audwhere_stim/direction_box.png,stimulus/audwhere_stim/direction_yes.png,stimulus/audwhere_stim/direction_no.png,None,Direction,None,Side,2,0.0,0,5.125,0,5.125,0,5.125,0,0.0,0.625,0,0,0,0,0,0,0,0,0,0.0,0,0.0,1,0.5,1,2.125,0,,,,,0,51,51,51,,,,,,,,,461.3144202909898,461.3144202909898,461.3144202909898,461.3144202909898,461.3144202909898,461.3144202909898,461.3144202909898,461.3144202909898,461.23529454125867,461.3144202909898,461.3144202909898,461.3144202909898,461.23529454125867,461.3144202909898,461.3144202909898,461.3144202909898,463.4171878329944,,461.3144202909898,461.3144202909898,466.50049454090185,461.3144202909898,461.3144202909898,461.3144202909898,461.3144202909898,461.7824681659695,462.85757541598286,461.75241149956514,,463.4171878329944,464.4476334579522,463.3873041666268,,461.3144202909898,466.50049454090185,461.3144202909898,466.50049454090185,466.54160799994133,467.1987315409351,461.3144202909898,2,1,0.9229967921273783,reldom2_s033,001,2025-03-12_17h11.33.275,Aud-B-Scan_AC,2022.2.5,None,
40,First_Order,7.0,audwhere,stimulus/audwhere_stim/dummy.wav,stimulus/audwhere_stim/dummy.wav,stimulus/audwhere_stim/right_away_280h.wav,stimulus/audwhere_stim/right_toward_290h.wav,stimulus/audwhere_stim/blank_white.png,stimulus/audwhere_stim/direction_box.png,stimulus/audwhere_stim/direction_yes.png,stimulus/audwhere_stim/direction_no.png,None,Direction,None,Side,2,0.0,0,5.125,0,5.125,0,5.125,0,0.0,0.625,0,0,0,0,0,0,0,0,0,0.0,0,0.0,1,0.5,1,2.125,0,,,,,0,52,52,52,,,,,,,,,467.4108425829327,467.4108425829327,467.4108425829327,467.4108425829327,467.4108425829327,467.4108425829327,467.4108425829327,467.4108425829327,467.33206487426844,467.4108425829327,467.4108425829327,467.4108425829327,467.33206487426844,467.4108425829327,467.4108425829327,467.4108425829327,469.5221497078892,,467.4108425829327,467.4108425829327,472.56556191598065,467.4108425829327,467.4108425829327,467.4108425829327,467.4108425829327,467.8774562079925,468.91567720798776,467.8474978325578,,469.5221497078892,470.55430645798333,469.49217866658387,,467.4108425829327,472.56556191598065,467.4108425829327,472.56556191598065,472.60646533290856,473.26723541598767,467.4108425829327,2,1,1.1247386251343414,reldom2_s033,001,2025-03-12_17h11.33.275,Aud-B-Scan_AC,2022.2.5,None,
0,0.0,None,fixation,stimulus/audwhat_stim/blank_white.png,stimulus/audwhat_stim/blank_white.png,stimulus/audwhere_stim/blank_white.png,stimulus/audwhere_stim/blank_white.png,stimulus/audwhat_stim/blank_white.png,stimulus/audwhat_stim/blank_white.png,stimulus/audwhat_stim/blank_white.png,stimulus/audwhat_stim/blank_white.png,0.0,0.0,0.0,0.0,0,0.0,0,0.0,0,0.0,0,0.0,0,0.0,0.0,0,0,0,0,0,0,0,0,0,0.0,0,0.0,0,0.0,0,0.0,8,,,,,0,53,53,53,,,,,,,,,473.5426558329491,473.5426558329491,473.5426558329491,473.5426558329491,473.5426558329491,473.5426558329491,473.5426558329491,473.5426558329491,473.4415584582913,473.5426558329491,473.5426558329491,473.5426558329491,473.4415584582913,473.5426558329491,473.5426558329491,473.5426558329491,473.5426558329491,473.5426558329491,473.5426558329491,473.5426558329491,473.5426558329491,473.5426558329491,473.5426558329491,473.5426558329491,473.5426558329491,473.5426558329491,473.5426558329491,473.4915584582913,473.5426558329491,473.5426558329491,473.5426558329491,473.4915584582913,473.5426558329491,473.5426558329491,473.5426558329491,473.5426558329491,473.5426558329491,478.7530837499071,478.7530837499071,481.688365790993,None,0,,reldom2_s033,001,2025-03-12_17h11.33.275,Aud-B-Scan_AC,2022.2.5,None,
41,Second_Order,7.0,audwhere,stimulus/audwhere_stim/left_toward_300h.wav,stimulus/audwhere_stim/right_toward_280h.wav,stimulus/audwhere_stim/right_toward_270h.wav,stimulus/audwhere_stim/right_away_290h.wav,stimulus/audwhat_stim/match_blank.png,stimulus/audwhat_stim/match_box.png,stimulus/audwhat_stim/match_yes.png,stimulus/audwhat_stim/match_no.png,2.0,Match,Direction,Side,2,5.125,0,5.125,0,5.125,0,5.125,0,0.75,0.75,0,0,0,0,0,0,0,0,1,0.5,1,2.125,1,0.5,1,2.125,0,,,,,0,54,54,54,,,,,,,,,481.688365790993,486.8114223749144,481.688365790993,481.688365790993,481.688365790993,481.688365790993,482.1469630409265,483.1361390829552,482.1489985825649,,483.77134283294436,484.7693522499176,483.7836337496449,,486.8114223749144,487.6601338329492,489.70375858293846,,487.6601338329492,487.6601338329492,492.8193287909962,487.6601338329492,487.6601338329492,487.6601338329492,487.6601338329492,488.07778245792724,489.14744083292317,488.0480375826048,,489.70375858293846,490.7782364159357,489.67354358261605,,487.6601338329492,492.8193287909962,487.6601338329492,492.8193287909962,492.8604536249768,,487.6601338329492,2,1,0.8868113750359043,reldom2_s033,001,2025-03-12_17h11.33.275,Aud-B-Scan_AC,2022.2.5,None,
42,Second_Order,7.0,audwhere,stimulus/audwhere_stim/right_toward_290h.wav,stimulus/audwhere_stim/left_toward_270h.wav,stimulus/audwhere_stim/left_toward_290h.wav,stimulus/audwhere_stim/left_away_280h.wav,stimulus/audwhat_stim/match_blank.png,stimulus/audwhat_stim/match_box.png,stimulus/audwhat_stim/match_yes.png,stimulus/audwhat_stim/match_no.png,2.0,Match,Direction,Side,2,5.125,0,5.125,0,5.125,0,5.125,0,0.625,0.625,0,0,0,0,0,0,0,0,1,0.5,1,2.125,1,0.5,1,2.125,0,,,,,0,55,55,55,,,,,,,,,493.6332759578945,498.75583462498616,493.6332759578945,493.6332759578945,493.6332759578945,493.6332759578945,494.0937379579991,495.0795570409391,494.1070097495724,,495.71514504100196,496.71342966589145,495.72780808265475,,498.75583462498616,499.48401916597504,501.56052674993407,505.5930857498897,499.48401916597504,499.48401916597504,504.66543995798565,499.48401916597504,499.48401916597504,499.48401916597504,499.48401916597504,499.9429591249209,501.0056078749476,499.91310562455715,,501.56052674993407,502.63075049989857,501.53139662457784,,499.48401916597504,504.66543995798565,499.48401916597504,504.66543995798565,504.66543995798565,505.3186223329976,499.48401916597504,2,1,0.8858229591278359,reldom2_s033,001,2025-03-12_17h11.33.275,Aud-B-Scan_AC,2022.2.5,None,
0,0.0,None,fixation,stimulus/audwhat_stim/blank_white.png,stimulus/audwhat_stim/blank_white.png,stimulus/audwhere_stim/blank_white.png,stimulus/audwhere_stim/blank_white.png,stimulus/audwhat_stim/blank_white.png,stimulus/audwhat_stim/blank_white.png,stimulus/audwhat_stim/blank_white.png,stimulus/audwhat_stim/blank_white.png,0.0,0.0,0.0,0.0,0,0.0,0,0.0,0,0.0,0,0.0,0,0.0,0.0,0,0,0,0,0,0,0,0,0,0.0,0,0.0,0,0.0,0,0.0,10,,,,,0,56,56,56,,,,,,,,,505.5930857498897,505.5930857498897,505.5930857498897,505.5930857498897,505.5930857498897,505.5930857498897,505.5930857498897,505.5930857498897,505.4929197082839,505.5930857498897,505.5930857498897,505.5930857498897,505.4929197082839,505.5930857498897,505.5930857498897,505.5930857498897,505.5930857498897,505.5930857498897,505.5930857498897,505.5930857498897,505.5930857498897,505.5930857498897,505.5930857498897,505.5930857498897,505.5930857498897,505.5930857498897,505.5930857498897,505.54291970828393,505.5930857498897,505.5930857498897,505.5930857498897,505.54291970828393,505.5930857498897,505.5930857498897,505.5930857498897,505.5930857498897,505.5930857498897,510.81704074994195,510.81704074994195,515.865638374933,None,0,,reldom2_s033,001,2025-03-12_17h11.33.275,Aud-B-Scan_AC,2022.2.5,None,
43,First_Order,8.0,audwhere,stimulus/audwhere_stim/dummy.wav,stimulus/audwhere_stim/dummy.wav,stimulus/audwhere_stim/right_toward_270h.wav,stimulus/audwhere_stim/left_toward_300h.wav,stimulus/audwhere_stim/blank_white.png,stimulus/audwhere_stim/side_box.png,stimulus/audwhere_stim/side_yes.png,stimulus/audwhere_stim/side_no.png,None,Side,None,Direction,2,0.0,0,5.125,0,5.125,0,5.125,0,0.0,0.625,0,0,0,0,0,0,0,0,0,0.0,0,0.0,1,0.5,1,2.125,0,,,,,0,57,57,57,,,,,,,,,515.865638374933,515.865638374933,515.865638374933,515.865638374933,515.865638374933,515.865638374933,515.865638374933,515.865638374933,515.793512291663,515.865638374933,515.865638374933,515.865638374933,515.793512291663,515.865638374933,515.865638374933,515.865638374933,517.9504894159036,,515.865638374933,515.865638374933,521.0158018328948,515.865638374933,515.865638374933,515.865638374933,515.865638374933,516.3305461249547,517.3953597910004,516.3010272496069,,517.9504894159036,519.021526040975,517.9202492496154,,515.865638374933,521.0158018328948,515.865638374933,521.0158018328948,521.0570918329759,521.7111588330008,515.865638374933,2,1,0.8050752920098603,reldom2_s033,001,2025-03-12_17h11.33.275,Aud-B-Scan_AC,2022.2.5,None,
44,First_Order,8.0,audwhere,stimulus/audwhere_stim/dummy.wav,stimulus/audwhere_stim/dummy.wav,stimulus/audwhere_stim/right_toward_270h.wav,stimulus/audwhere_stim/left_toward_280h.wav,stimulus/audwhere_stim/blank_white.png,stimulus/audwhere_stim/side_box.png,stimulus/audwhere_stim/side_yes.png,stimulus/audwhere_stim/side_no.png,None,Side,None,Direction,2,0.0,0,5.125,0,5.125,0,5.125,0,0.0,0.625,0,0,0,0,0,0,0,0,0,0.0,0,0.0,1,0.5,1,2.125,0,,,,,0,58,58,58,,,,,,,,,521.9647397910012,521.9647397910012,521.9647397910012,521.9647397910012,521.9647397910012,521.9647397910012,521.9647397910012,521.9647397910012,521.8856692492574,521.9647397910012,521.9647397910012,521.9647397910012,521.8856692492574,521.9647397910012,521.9647397910012,521.9647397910012,524.0563419159735,,521.9647397910012,521.9647397910012,527.1258594579995,521.9647397910012,521.9647397910012,521.9647397910012,521.9647397910012,522.43205187493,523.499396582949,522.4010999996137,,524.0563419159735,525.1302615829045,524.026588291574,,521.9647397910012,527.1258594579995,521.9647397910012,527.1258594579995,527.166943540913,527.8210832909681,521.9647397910012,2,1,0.917087500100024,reldom2_s033,001,2025-03-12_17h11.33.275,Aud-B-Scan_AC,2022.2.5,None,
45,First_Order,8.0,audwhere,stimulus/audwhere_stim/dummy.wav,stimulus/audwhere_stim/dummy.wav,stimulus/audwhere_stim/right_toward_270h.wav,stimulus/audwhere_stim/left_toward_290h.wav,stimulus/audwhere_stim/blank_white.png,stimulus/audwhere_stim/direction_box.png,stimulus/audwhere_stim/direction_yes.png,stimulus/audwhere_stim/direction_no.png,None,Direction,None,Direction,1,0.0,0,5.125,0,5.125,0,5.125,0,0.0,0.625,0,0,0,0,0,0,0,0,0,0.0,0,0.0,1,0.5,1,2.125,0,,,,,0,59,59,59,,,,,,,,,528.0741176248994,528.0741176248994,528.0741176248994,528.0741176248994,528.0741176248994,528.0741176248994,528.0741176248994,528.0741176248994,527.9953705832905,528.0741176248994,528.0741176248994,528.0741176248994,527.9953705832905,528.0741176248994,528.0741176248994,528.0741176248994,530.1796792909736,,528.0741176248994,528.0741176248994,533.26644333289,528.0741176248994,528.0741176248994,528.0741176248994,528.0741176248994,528.5442362499889,529.6188091658987,528.5136992915689,,530.1796792909736,531.2107168328948,530.1482083326594,,528.0741176248994,533.26644333289,528.0741176248994,533.26644333289,533.26644333289,533.9245394999161,528.0741176248994,1,1,1.0508644171059132,reldom2_s033,001,2025-03-12_17h11.33.275,Aud-B-Scan_AC,2022.2.5,None,
46,First_Order,8.0,audwhere,stimulus/audwhere_stim/dummy.wav,stimulus/audwhere_stim/dummy.wav,stimulus/audwhere_stim/left_away_300h.wav,stimulus/audwhere_stim/left_toward_300h.wav,stimulus/audwhere_stim/blank_white.png,stimulus/audwhere_stim/side_box.png,stimulus/audwhere_stim/side_yes.png,stimulus/audwhere_stim/side_no.png,None,Side,None,Side,1,0.0,0,5.125,0,5.125,0,5.125,0,0.0,0.625,0,0,0,0,0,0,0,0,0,0.0,0,0.0,1,0.5,1,2.125,0,,,,,0,60,60,60,,,,,,,,,534.1800917079672,534.1800917079672,534.1800917079672,534.1800917079672,534.1800917079672,534.1800917079672,534.1800917079672,534.1800917079672,534.0989745413264,534.1800917079672,534.1800917079672,534.1800917079672,534.0989745413264,534.1800917079672,534.1800917079672,534.1800917079672,536.2746178329689,,534.1800917079672,534.1800917079672,539.3399834579322,534.1800917079672,534.1800917079672,534.1800917079672,534.1800917079672,534.6464488329366,535.716377499979,534.6163641246424,,536.2746178329689,537.3462363329018,536.244797999567,,534.1800917079672,539.3399834579322,534.1800917079672,539.3399834579322,539.3811615000013,540.0364485409809,534.1800917079672,1,1,0.7427018340677023,reldom2_s033,001,2025-03-12_17h11.33.275,Aud-B-Scan_AC,2022.2.5,None,
0,0.0,None,fixation,stimulus/audwhat_stim/blank_white.png,stimulus/audwhat_stim/blank_white.png,stimulus/audwhere_stim/blank_white.png,stimulus/audwhere_stim/blank_white.png,stimulus/audwhat_stim/blank_white.png,stimulus/audwhat_stim/blank_white.png,stimulus/audwhat_stim/blank_white.png,stimulus/audwhat_stim/blank_white.png,0.0,0.0,0.0,0.0,0,0.0,0,0.0,0,0.0,0,0.0,0,0.0,0.0,0,0,0,0,0,0,0,0,0,0.0,0,0.0,0,0.0,0,0.0,9,,,,,0,61,61,61,,,,,,,,,540.3122665409464,540.3122665409464,540.3122665409464,540.3122665409464,540.3122665409464,540.3122665409464,540.3122665409464,540.3122665409464,540.2105523333031,540.3122665409464,540.3122665409464,540.3122665409464,540.2105523333031,540.3122665409464,540.3122665409464,540.3122665409464,540.3122665409464,540.3122665409464,540.3122665409464,540.3122665409464,540.3122665409464,540.3122665409464,540.3122665409464,540.3122665409464,540.3122665409464,540.3122665409464,540.3122665409464,540.260552333303,540.3122665409464,540.3122665409464,540.3122665409464,540.260552333303,540.3122665409464,540.3122665409464,540.3122665409464,540.3122665409464,540.3122665409464,545.5174637909513,545.5174637909513,549.4689737498993,None,0,,reldom2_s033,001,2025-03-12_17h11.33.275,Aud-B-Scan_AC,2022.2.5,None,
47,Second_Order,8.0,audwhere,stimulus/audwhere_stim/right_away_300h.wav,stimulus/audwhere_stim/right_toward_270h.wav,stimulus/audwhere_stim/left_away_280h.wav,stimulus/audwhere_stim/left_toward_270h.wav,stimulus/audwhat_stim/match_blank.png,stimulus/audwhat_stim/match_box.png,stimulus/audwhat_stim/match_yes.png,stimulus/audwhat_stim/match_no.png,1.0,Match,Side,Side,1,5.125,0,5.125,0,5.125,0,5.125,0,0.75,0.75,0,0,0,0,0,0,0,0,1,0.5,1,2.125,1,0.5,1,2.125,0,,,,,0,62,62,62,,,,,,,,,549.4689737498993,554.5846883329796,549.4689737498993,549.4689737498993,549.4689737498993,549.4689737498993,549.9234417079715,550.9221232499694,549.9365678326615,,551.5449197909329,552.5425569158979,551.5568117915575,,554.5846883329796,555.435939457966,557.4755773749202,,555.435939457966,555.435939457966,560.5884777909378,555.435939457966,555.435939457966,555.435939457966,555.435939457966,555.8518108749995,556.9196930408943,555.8217289576462,,557.4755773749202,558.5504006659612,557.4458936246267,,555.435939457966,560.5884777909378,555.435939457966,560.5884777909378,560.6292275829474,,555.435939457966,1,1,0.6871412500040606,reldom2_s033,001,2025-03-12_17h11.33.275,Aud-B-Scan_AC,2022.2.5,None,
48,Second_Order,8.0,audwhere,stimulus/audwhere_stim/right_toward_270h.wav,stimulus/audwhere_stim/right_away_270h.wav,stimulus/audwhere_stim/left_away_280h.wav,stimulus/audwhere_stim/left_toward_290h.wav,stimulus/audwhat_stim/match_blank.png,stimulus/audwhat_stim/match_box.png,stimulus/audwhat_stim/match_yes.png,stimulus/audwhat_stim/match_no.png,1.0,Match,Side,Side,1,5.125,0,5.125,0,5.125,0,5.125,0,0.625,0.625,0,0,0,0,0,0,0,0,1,0.5,1,2.125,1,0.5,1,2.125,0,,,,,0,63,63,63,,,,,,,,,561.4001245409017,566.5125748330029,561.4001245409017,561.4001245409017,561.4001245409017,561.4001245409017,561.8493136659963,562.8367544999346,561.8635939995913,,563.4845059579238,564.4742514579557,563.4879367076248,,566.5125748330029,567.2434181659482,569.3236497499747,573.3554631249281,567.2434181659482,567.2434181659482,572.4273585829651,567.2434181659482,567.2434181659482,567.2434181659482,567.2434181659482,567.6582311659586,568.7226440409431,567.6280424575709,,569.3236497499747,570.3913700409466,569.2936858325886,,567.2434181659482,572.4273585829651,567.2434181659482,572.4273585829651,572.4273585829651,573.081320749945,567.2434181659482,1,1,0.7049019171390682,reldom2_s033,001,2025-03-12_17h11.33.275,Aud-B-Scan_AC,2022.2.5,None,
0,0.0,None,fixation,stimulus/audwhat_stim/blank_white.png,stimulus/audwhat_stim/blank_white.png,stimulus/audwhere_stim/blank_white.png,stimulus/audwhere_stim/blank_white.png,stimulus/audwhat_stim/blank_white.png,stimulus/audwhat_stim/blank_white.png,stimulus/audwhat_stim/blank_white.png,stimulus/audwhat_stim/blank_white.png,0.0,0.0,0.0,0.0,0,0.0,0,0.0,0,0.0,0,0.0,0,0.0,0.0,0,0,0,0,0,0,0,0,0,0.0,0,0.0,0,0.0,0,0.0,16,,,,,0,64,64,64,,,,,,,,,573.3554631249281,573.3554631249281,573.3554631249281,573.3554631249281,573.3554631249281,573.3554631249281,573.3554631249281,573.3554631249281,573.2555147082622,573.3554631249281,573.3554631249281,573.3554631249281,573.2555147082622,573.3554631249281,573.3554631249281,573.3554631249281,573.3554631249281,573.3554631249281,573.3554631249281,573.3554631249281,573.3554631249281,573.3554631249281,573.3554631249281,573.3554631249281,573.3554631249281,573.3554631249281,573.3554631249281,573.3055147082622,573.3554631249281,573.3554631249281,573.3554631249281,573.3055147082622,573.3554631249281,573.3554631249281,573.3554631249281,573.3554631249281,573.3554631249281,578.5830994999269,578.5830994999269,589.4799952909816,None,0,,reldom2_s033,001,2025-03-12_17h11.33.275,Aud-B-Scan_AC,2022.2.5,None,
