Trial,Order,Block,Type,Stimuli_File1,Stimuli_File2,Stimuli_File3,Stimuli_File4,Cue_File1,Cue_File2,Response_File_Yes,Response_File_No,Match,Cue_Dimension,Pair1_Dimension,Pair2_Dimension,Key,Cue1_Duration,Cue1_Onset,Cue2_Duration,Cue2_Onset,ResponseYes_Duration,ResponseYes_Onset,ResponseNo_Duration,ResponseNo_Onset,ITI_Within,ITI_Between,Image1_Duration,Image1_Onset,Image2_Duration,Image2_Onset,Image3_Duration,Image3_Onset,Image4_Duration,Image4_Onset,Sound1_Duration,Sound1_Onset,Sound2_Duration,Sound2_Onset,Sound3_Duration,Sound3_Onset,Sound4_Duration,Sound4_Onset,Fixation_Duration,trials_2.thisRepN,trials_2.thisTrialN,trials_2.thisN,trials_2.thisIndex,trials.thisRepN,trials.thisTrialN,trials.thisN,trials.thisIndex,text_start.started,key_resp_start.started,key_resp_start.keys,key_resp_start.rt,cue_file1.started,cue_file1.stopped,image_1.started,image_1.stopped,image_2.started,image_2.stopped,sound_icon1.started,sound_icon1.stopped,sound_1.started,sound_1.stopped,sound_icon2.started,sound_icon2.stopped,sound_2.started,sound_2.stopped,image_blank_1.started,image_blank_1.stopped,key_press.started,key_press.stopped,fixation_text.started,cue_file2.started,cue_file2.stopped,image_3.started,image_3.stopped,image_4.started,image_4.stopped,sound_icon3.started,sound_icon3.stopped,sound_3.started,sound_3.stopped,sound_icon4.started,sound_icon4.stopped,sound_4.started,sound_4.stopped,response_yes.started,response_yes.stopped,response_no.started,response_no.stopped,iti_blank.started,iti_blank.stopped,fixation_text.stopped,key_press.keys,key_press.corr,key_press.rt,text_score.started,participant,session,date,expName,psychopyVersion,frameRate,
,,,,,,,,,,,,,,,,,,,,,,,,,,,,,,,,,,,,,,,,,,,,,,,,,,,,9.630385375001424,9.630385375001424,2,1.6494881659982639,,,,,,,,,,,,,,,,,,,,,,,,,,,,,,,,,,,,,,,,,,,,,reldom2_s017,001,2025-02-20_14h50.43.194,practice_test2_AC,2022.2.5,None,
,,,,,,,,,,,,,,,,,,,,,,,,,,,,,,,,,,,,,,,,,,,,0,0,0,0,,,,,,,,,,,,,,,,,,,,,,,,,,,,,,,,,,,,,,,,,,,,,,,,,,,,,reldom2_s017,001,2025-02-20_14h50.43.194,practice_test2_AC,2022.2.5,None,
,,,,,,,,,,,,,,,,,,,,,,,,,,,,,,,,,,,,,,,,,,,,1,0,1,0,,,,,,,,,,,,,,,,,,,,,,,,,,,,,,,,,,,,,,,,,,,,,,,,,,,,,reldom2_s017,001,2025-02-20_14h50.43.194,practice_test2_AC,2022.2.5,None,
,,,,,,,,,,,,,,,,,,,,,,,,,,,,,,,,,,,,,,,,,,,,2,0,2,0,,,,,,,,,,,,,,,,,,,,,,,,,,,,,,,,,,,,,,,,,,,,,,,,,,,,,reldom2_s017,001,2025-02-20_14h50.43.194,practice_test2_AC,2022.2.5,None,
,,,,,,,,,,,,,,,,,,,,,,,,,,,,,,,,,,,,,,,,,,,,3,0,3,0,,,,,,,,,,,,,,,,,,,,,,,,,,,,,,,,,,,,,,,,,,,,,,,,,,,,,reldom2_s017,001,2025-02-20_14h50.43.194,practice_test2_AC,2022.2.5,None,
0,0.0,None,fixation,stimulus/viswhat_stim/blank_white.png,stimulus/viswhat_stim/blank_white.png,stimulus/audwhat_stim/blank_white.png,stimulus/audwhat_stim/blank_white.png,stimulus/viswhat_stim/blank_white.png,stimulus/viswhat_stim/blank_white.png,stimulus/viswhat_stim/blank_white.png,stimulus/viswhat_stim/blank_white.png,0.0,0.0,0.0,0.0,0,0.0,0,0.0,0,0.0,0,0.0,0,0.0,0.0,0,0.0,0,0.0,0,0.0,0,0.0,0,0.0,0,0.0,0,0.0,0,0.0,6,,,,,0,0,0,0,,,,,11.540473959001247,11.540473959001247,11.540473959001247,11.540473959001247,11.540473959001247,11.540473959001247,11.540473959001247,11.540473959001247,11.44088662566707,11.540473959001247,11.540473959001247,11.540473959001247,11.44088662566707,11.540473959001247,11.540473959001247,11.540473959001247,11.540473959001247,11.540473959001247,11.540473959001247,11.540473959001247,11.540473959001247,11.540473959001247,11.540473959001247,11.540473959001247,11.540473959001247,11.540473959001247,11.540473959001247,11.49088662566707,11.540473959001247,11.540473959001247,11.540473959001247,11.49088662566707,11.540473959001247,11.540473959001247,11.540473959001247,11.540473959001247,11.540473959001247,16.730941417001304,16.730941417001304,17.777948417000516,None,0,,,reldom2_s017,001,2025-02-20_14h50.43.194,practice_test2_AC,2022.2.5,None,
1,First_Order,1.0,viswhat,stimulus/viswhat_stim/blank_white.png,stimulus/viswhat_stim/blank_white.png,stimulus/viswhat_stim/land_vehicle-vespa.png,stimulus/viswhat_stim/water_vehicle-yacht.png,stimulus/viswhat_stim/blank_white.png,stimulus/viswhat_stim/type_box.png,stimulus/viswhat_stim/type_yes.png,stimulus/viswhat_stim/type_no.png,None,Type,None,Type,1,0.0,0,5.25,0,5.25,0,5.25,0,0.0,0.75,0,0.0,0,0.0,1,0.5,1,2.125,0,0.0,0,0.0,0,0.0,0,0.0,0,,,,,0,1,1,1,,,,,17.777948417000516,17.777948417000516,17.777948417000516,17.777948417000516,17.777948417000516,17.777948417000516,17.777948417000516,17.777948417000516,17.701165792001483,17.777948417000516,17.777948417000516,17.777948417000516,17.701165792001483,17.777948417000516,17.777948417000516,17.777948417000516,19.857408125000802,23.72745920900161,17.777948417000516,17.777948417000516,23.065734249999878,18.22983158399984,19.27081845900102,19.857408125000802,20.90669820900075,17.777948417000516,17.777948417000516,17.734499125334818,17.777948417000516,17.777948417000516,17.777948417000516,17.734499125334818,17.777948417000516,17.777948417000516,23.065734249999878,17.777948417000516,23.065734249999878,22.981462334000753,23.93047291699986,17.777948417000516,None,0,,,reldom2_s017,001,2025-02-20_14h50.43.194,practice_test2_AC,2022.2.5,None,
2,First_Order,1.0,viswhat,stimulus/viswhat_stim/blank_white.png,stimulus/viswhat_stim/blank_white.png,stimulus/viswhat_stim/water_vehicle-cargoboat.png,stimulus/viswhat_stim/land_vehicle-oldcar.png,stimulus/viswhat_stim/blank_white.png,stimulus/viswhat_stim/location_box.png,stimulus/viswhat_stim/location_yes.png,stimulus/viswhat_stim/location_no.png,None,Location,None,Type,2,0.0,0,5.25,0,5.25,0,5.25,0,0.0,0.75,0,0.0,0,0.0,1,0.5,1,2.125,0,0.0,0,0.0,0,0.0,0,0.0,0,,,,,0,2,2,2,,,,,23.93047291699986,23.93047291699986,23.93047291699986,23.93047291699986,23.93047291699986,23.93047291699986,23.93047291699986,23.93047291699986,23.86079254233494,23.93047291699986,23.93047291699986,23.93047291699986,23.86079254233494,23.93047291699986,23.93047291699986,23.93047291699986,26.029950750000353,29.870178750001287,23.93047291699986,23.93047291699986,29.208435084001394,24.38673454200034,25.43600737500128,26.029950750000353,27.077848709001046,23.93047291699986,23.93047291699986,23.894125875668273,23.93047291699986,23.93047291699986,23.93047291699986,23.894125875668273,23.93047291699986,23.93047291699986,29.208435084001394,23.93047291699986,29.208435084001394,29.16986158400141,30.14962900000137,23.93047291699986,2,1,1.2366138329998648,,reldom2_s017,001,2025-02-20_14h50.43.194,practice_test2_AC,2022.2.5,None,
3,First_Order,1.0,viswhat,stimulus/viswhat_stim/blank_white.png,stimulus/viswhat_stim/blank_white.png,stimulus/viswhat_stim/land_vehicle-vespa.png,stimulus/viswhat_stim/water_vehicle-sailboat.png,stimulus/viswhat_stim/blank_white.png,stimulus/viswhat_stim/type_box.png,stimulus/viswhat_stim/type_yes.png,stimulus/viswhat_stim/type_no.png,None,Type,None,Type,1,0.0,0,5.25,0,5.25,0,5.25,0,0.0,0.75,0,0.0,0,0.0,1,0.5,1,2.125,0,0.0,0,0.0,0,0.0,0,0.0,0,,,,,0,3,3,3,,,,,30.14962900000137,30.14962900000137,30.14962900000137,30.14962900000137,30.14962900000137,30.14962900000137,30.14962900000137,30.14962900000137,30.041844208333835,30.14962900000137,30.14962900000137,30.14962900000137,30.041844208333835,30.14962900000137,30.14962900000137,30.14962900000137,32.247993834000226,36.11114700000144,30.14962900000137,30.14962900000137,35.483263542000714,30.597350625001127,31.67873099999997,32.247993834000226,33.3310249590013,30.14962900000137,30.14962900000137,30.091844208333836,30.14962900000137,30.14962900000137,30.14962900000137,30.091844208333836,30.14962900000137,30.14962900000137,35.483263542000714,30.14962900000137,35.483263542000714,35.36268329199993,36.64305675000105,30.14962900000137,1,1,1.1258139999972627,,reldom2_s017,001,2025-02-20_14h50.43.194,practice_test2_AC,2022.2.5,None,
4,First_Order,1.0,viswhat,stimulus/viswhat_stim/blank_white.png,stimulus/viswhat_stim/blank_white.png,stimulus/viswhat_stim/land_animal-elephant.png,stimulus/viswhat_stim/water_animal-lobster.png,stimulus/viswhat_stim/blank_white.png,stimulus/viswhat_stim/location_box.png,stimulus/viswhat_stim/location_yes.png,stimulus/viswhat_stim/location_no.png,None,Location,None,Type,2,0.0,0,5.25,0,5.25,0,5.25,0,0.0,0.75,0,0.0,0,0.0,1,0.5,1,2.125,0,0.0,0,0.0,0,0.0,0,0.0,0,,,,,0,4,4,4,,,,,36.64305675000105,36.64305675000105,36.64305675000105,36.64305675000105,36.64305675000105,36.64305675000105,36.64305675000105,36.64305675000105,36.2778136666681,36.64305675000105,36.64305675000105,36.64305675000105,36.2778136666681,36.64305675000105,36.64305675000105,36.64305675000105,38.6897649170005,42.58757562500068,36.64305675000105,36.64305675000105,42.22755624999991,37.0157088750002,38.31873604200155,38.6897649170005,39.996962292001626,36.64305675000105,36.64305675000105,36.46114700000144,36.64305675000105,36.64305675000105,36.64305675000105,36.46114700000144,36.64305675000105,36.64305675000105,42.22755624999991,36.64305675000105,42.22755624999991,41.85974441700091,43.28031012500105,36.64305675000105,2,1,0.92919987499954,,reldom2_s017,001,2025-02-20_14h50.43.194,practice_test2_AC,2022.2.5,None,
0,0.0,None,fixation,stimulus/viswhat_stim/blank_white.png,stimulus/viswhat_stim/blank_white.png,stimulus/audwhat_stim/blank_white.png,stimulus/audwhat_stim/blank_white.png,stimulus/viswhat_stim/blank_white.png,stimulus/viswhat_stim/blank_white.png,stimulus/viswhat_stim/blank_white.png,stimulus/viswhat_stim/blank_white.png,0.0,0.0,0.0,0.0,0,0.0,0,0.0,0,0.0,0,0.0,0,0.0,0.0,0,0.0,0,0.0,0,0.0,0,0.0,0,0.0,0,0.0,0,0.0,0,0.0,6,,,,,0,5,5,5,,,,,43.28031012500105,43.28031012500105,43.28031012500105,43.28031012500105,43.28031012500105,43.28031012500105,43.28031012500105,43.28031012500105,43.18378637566699,43.28031012500105,43.28031012500105,43.28031012500105,43.18378637566699,43.28031012500105,43.28031012500105,43.28031012500105,43.28031012500105,43.28031012500105,43.28031012500105,43.28031012500105,43.28031012500105,43.28031012500105,43.28031012500105,43.28031012500105,43.28031012500105,43.28031012500105,43.28031012500105,43.233786375666995,43.28031012500105,43.28031012500105,43.28031012500105,43.233786375666995,43.28031012500105,43.28031012500105,43.28031012500105,43.28031012500105,43.28031012500105,48.470631334001155,48.470631334001155,49.45913812500112,None,0,,,reldom2_s017,001,2025-02-20_14h50.43.194,practice_test2_AC,2022.2.5,None,
5,Second_Order,1.0,viswhat,stimulus/viswhat_stim/land_animal-giraffe.png,stimulus/viswhat_stim/water_animal-stingray.png,stimulus/viswhat_stim/land_vehicle-trolley.png,stimulus/viswhat_stim/land_animal-elephant.png,stimulus/viswhat_stim/match_blank.png,stimulus/viswhat_stim/match_box.png,stimulus/viswhat_stim/match_yes.png,stimulus/viswhat_stim/match_no.png,2.0,Match,Type,Location,2,5.25,0,5.25,0,5.25,0,5.25,0,0.75,0.75,1,0.5,1,2.125,1,0.5,1,2.125,0,0.0,0,0.0,0,0.0,0,0.0,0,,,,,0,6,6,6,,,,,49.45913812500112,54.70230725000147,49.910253750000265,50.90076337500068,51.53736945900164,52.53411158400013,49.45913812500112,49.45913812500112,49.45835295900033,49.45913812500112,49.45913812500112,49.45913812500112,49.45835295900033,49.45913812500112,54.70230725000147,55.58687820900013,57.65250679200108,61.52738679200047,55.58687820900013,55.58687820900013,60.90414133400009,56.02197966700078,57.08366500000011,57.65250679200108,58.72584645900133,55.58687820900013,55.58687820900013,55.53526466700132,55.58687820900013,55.58687820900013,55.58687820900013,55.53526466700132,55.58687820900013,55.58687820900013,60.90414133400009,55.58687820900013,60.90414133400009,60.78398141700018,61.68470095900011,55.58687820900013,2,1,1.2976631250003265,,reldom2_s017,001,2025-02-20_14h50.43.194,practice_test2_AC,2022.2.5,None,
6,Second_Order,1.0,viswhat,stimulus/viswhat_stim/land_vehicle-scooter.png,stimulus/viswhat_stim/land_animal-moose.png,stimulus/viswhat_stim/water_vehicle-powercruiser.png,stimulus/viswhat_stim/land_vehicle-truck.png,stimulus/viswhat_stim/match_blank.png,stimulus/viswhat_stim/match_box.png,stimulus/viswhat_stim/match_yes.png,stimulus/viswhat_stim/match_no.png,2.0,Match,Location,Type,2,5.25,0,5.25,0,5.25,0,5.25,0,0.75,0.75,1,0.5,1,2.125,1,0.5,1,2.125,0,0.0,0,0.0,0,0.0,0,0.0,0,,,,,0,7,7,7,,,,,61.68470095900011,66.92681550000088,62.12653245900037,63.11846037500072,63.75327779200052,64.74999095900057,61.68470095900011,61.68470095900011,61.694053458667135,61.68470095900011,61.68470095900011,61.68470095900011,61.694053458667135,61.68470095900011,66.92681550000088,67.73488041700148,69.82131445900086,73.6836062500006,67.73488041700148,67.73488041700148,73.00467470900003,68.17871441700117,69.19721325000137,69.82131445900086,70.84123679200093,67.73488041700148,67.73488041700148,67.71142666700034,67.73488041700148,67.73488041700148,67.73488041700148,67.71142666700034,67.73488041700148,67.73488041700148,73.00467470900003,67.73488041700148,73.00467470900003,72.93261720900045,73.87644437500057,67.73488041700148,2,1,1.329350207999596,,reldom2_s017,001,2025-02-20_14h50.43.194,practice_test2_AC,2022.2.5,None,
0,0.0,None,fixation,stimulus/viswhat_stim/blank_white.png,stimulus/viswhat_stim/blank_white.png,stimulus/audwhat_stim/blank_white.png,stimulus/audwhat_stim/blank_white.png,stimulus/viswhat_stim/blank_white.png,stimulus/viswhat_stim/blank_white.png,stimulus/viswhat_stim/blank_white.png,stimulus/viswhat_stim/blank_white.png,0.0,0.0,0.0,0.0,0,0.0,0,0.0,0,0.0,0,0.0,0,0.0,0.0,0,0.0,0,0.0,0,0.0,0,0.0,0,0.0,0,0.0,0,0.0,0,0.0,7,,,,,0,8,8,8,,,,,73.87644437500057,73.87644437500057,73.87644437500057,73.87644437500057,73.87644437500057,73.87644437500057,73.87644437500057,73.87644437500057,73.78360625000059,73.87644437500057,73.87644437500057,73.87644437500057,73.78360625000059,73.87644437500057,73.87644437500057,73.87644437500057,73.87644437500057,73.87644437500057,73.87644437500057,73.87644437500057,73.87644437500057,73.87644437500057,73.87644437500057,73.87644437500057,73.87644437500057,73.87644437500057,73.87644437500057,73.8336062500006,73.87644437500057,73.87644437500057,73.87644437500057,73.8336062500006,73.87644437500057,73.87644437500057,73.87644437500057,73.87644437500057,73.87644437500057,79.08766216700133,79.08766216700133,81.12845929200012,None,0,,,reldom2_s017,001,2025-02-20_14h50.43.194,practice_test2_AC,2022.2.5,None,
7,First_Order,2.0,audwhat,stimulus/audwhat_stim/dummy.wav,stimulus/audwhat_stim/dummy.wav,stimulus/audwhat_stim/percussion xylophone_high-pitch_Ftri_loud.wav,stimulus/audwhat_stim/percussion mallet_low-pitch_F_loud.wav,stimulus/audwhat_stim/blank_white.png,stimulus/audwhat_stim/category_box.png,stimulus/audwhat_stim/category_yes.png,stimulus/audwhat_stim/category_no.png,None,Category,None,Category,1,0.0,0,5.25,0,5.25,0,5.25,0,0.0,0.75,0,0.0,0,0.0,0,0.0,0,0.0,0,0.0,0,0.0,1,0.5,1,2.125,0,,,,,0,9,9,9,,,,,81.12845929200012,81.12845929200012,81.12845929200012,81.12845929200012,81.12845929200012,81.12845929200012,81.12845929200012,81.12845929200012,81.05057995866689,81.12845929200012,81.12845929200012,81.12845929200012,81.05057995866689,81.12845929200012,81.12845929200012,81.12845929200012,83.22881704200154,87.0962495420008,81.12845929200012,81.12845929200012,86.43924816700019,81.12845929200012,81.12845929200012,81.12845929200012,81.12845929200012,81.5791217090009,82.6291527500016,81.54547633366771,82.57895733400073,83.22881704200154,84.28456625000035,83.19511345866728,,81.12845929200012,86.43924816700019,81.12845929200012,86.43924816700019,86.3453480420012,87.31546512500063,81.12845929200012,1,1,1.5515449169979547,,reldom2_s017,001,2025-02-20_14h50.43.194,practice_test2_AC,2022.2.5,None,
8,First_Order,2.0,audwhat,stimulus/audwhat_stim/dummy.wav,stimulus/audwhat_stim/dummy.wav,stimulus/audwhat_stim/percussion xylophone_high-pitch_F_loud.wav,stimulus/audwhat_stim/percussion mallet_low-pitch_D_loud.wav,stimulus/audwhat_stim/blank_white.png,stimulus/audwhat_stim/pitch_box.png,stimulus/audwhat_stim/pitch_yes.png,stimulus/audwhat_stim/pitch_no.png,None,Pitch,None,Category,2,0.0,0,5.25,0,5.25,0,5.25,0,0.0,0.75,0,0.0,0,0.0,0,0.0,0,0.0,0,0.0,0,0.0,1,0.5,1,2.125,0,,,,,0,10,10,10,,,,,87.31546512500063,87.31546512500063,87.31546512500063,87.31546512500063,87.31546512500063,87.31546512500063,87.31546512500063,87.31546512500063,87.22958287533413,87.31546512500063,87.31546512500063,87.31546512500063,87.22958287533413,87.31546512500063,87.31546512500063,87.31546512500063,89.41188537500057,93.25932158400065,87.31546512500063,87.31546512500063,92.6058565000003,87.31546512500063,87.31546512500063,87.31546512500063,87.31546512500063,87.76579254200078,88.81190975000027,87.7328903336677,88.81190975000027,89.41188537500057,90.46156208400134,89.37866270866677,,87.31546512500063,92.6058565000003,87.31546512500063,92.6058565000003,92.51197791699997,93.477290584,87.31546512500063,2,1,1.113906374999715,,reldom2_s017,001,2025-02-20_14h50.43.194,practice_test2_AC,2022.2.5,None,
9,First_Order,2.0,audwhat,stimulus/audwhat_stim/dummy.wav,stimulus/audwhat_stim/dummy.wav,stimulus/audwhat_stim/percussion mallet_low-pitch_Dtri_loud.wav,stimulus/audwhat_stim/string viola_low-pitch_Dtri_loud.wav,stimulus/audwhat_stim/blank_white.png,stimulus/audwhat_stim/category_box.png,stimulus/audwhat_stim/category_yes.png,stimulus/audwhat_stim/category_no.png,None,Category,None,Pitch,2,0.0,0,5.25,0,5.25,0,5.25,0,0.0,0.75,0,0.0,0,0.0,0,0.0,0,0.0,0,0.0,0,0.0,1,0.5,1,2.125,0,,,,,0,11,11,11,,,,,93.477290584,93.477290584,93.477290584,93.477290584,93.477290584,93.477290584,93.477290584,93.477290584,93.39265491733397,93.477290584,93.477290584,93.477290584,93.39265491733397,93.477290584,93.477290584,93.477290584,95.57897733400023,99.43532266700095,93.477290584,93.477290584,98.77829991700128,93.477290584,93.477290584,93.477290584,93.477290584,93.928771375,94.97859975000028,93.89513104166714,,95.57897733400023,96.62912383399998,95.5454464586676,,93.477290584,98.77829991700128,93.477290584,98.77829991700128,98.6841465840007,99.65336925000156,93.477290584,2,1,1.575345584000388,,reldom2_s017,001,2025-02-20_14h50.43.194,practice_test2_AC,2022.2.5,None,
10,First_Order,2.0,audwhat,stimulus/audwhat_stim/dummy.wav,stimulus/audwhat_stim/dummy.wav,stimulus/audwhat_stim/percussion mallet_low-pitch_F_loud.wav,stimulus/audwhat_stim/percussion mallet_high-pitch_Ftri_loud.wav,stimulus/audwhat_stim/blank_white.png,stimulus/audwhat_stim/category_box.png,stimulus/audwhat_stim/category_yes.png,stimulus/audwhat_stim/category_no.png,None,Category,None,Category,1,0.0,0,5.25,0,5.25,0,5.25,0,0.0,0.75,0,0.0,0,0.0,0,0.0,0,0.0,0,0.0,0,0.0,1,0.5,1,2.125,0,,,,,0,12,12,12,,,,,99.65336925000156,99.65336925000156,99.65336925000156,99.65336925000156,99.65336925000156,99.65336925000156,99.65336925000156,99.65336925000156,99.56865600033427,99.65336925000156,99.65336925000156,99.65336925000156,99.56865600033427,99.65336925000156,99.65336925000156,99.65336925000156,101.75265779200163,105.6151085420006,99.65336925000156,99.65336925000156,104.95670570900074,99.65336925000156,99.65336925000156,99.65336925000156,99.65336925000156,100.10427641700153,101.15264891700099,100.07077783366755,,101.75265779200163,102.80783945900112,101.71897033366828,,99.65336925000156,104.95670570900074,99.65336925000156,104.95670570900074,104.86233575000006,105.85078345900001,99.65336925000156,1,1,0.9576083749980171,,reldom2_s017,001,2025-02-20_14h50.43.194,practice_test2_AC,2022.2.5,None,
0,0.0,None,fixation,stimulus/viswhat_stim/blank_white.png,stimulus/viswhat_stim/blank_white.png,stimulus/audwhat_stim/blank_white.png,stimulus/audwhat_stim/blank_white.png,stimulus/viswhat_stim/blank_white.png,stimulus/viswhat_stim/blank_white.png,stimulus/viswhat_stim/blank_white.png,stimulus/viswhat_stim/blank_white.png,0.0,0.0,0.0,0.0,0,0.0,0,0.0,0,0.0,0,0.0,0,0.0,0.0,0,0.0,0,0.0,0,0.0,0,0.0,0,0.0,0,0.0,0,0.0,0,0.0,6,,,,,0,13,13,13,,,,,105.85078345900001,105.85078345900001,105.85078345900001,105.85078345900001,105.85078345900001,105.85078345900001,105.85078345900001,105.85078345900001,105.74844187533392,105.85078345900001,105.85078345900001,105.85078345900001,105.74844187533392,105.85078345900001,105.85078345900001,105.85078345900001,105.85078345900001,105.85078345900001,105.85078345900001,105.85078345900001,105.85078345900001,105.85078345900001,105.85078345900001,105.85078345900001,105.85078345900001,105.85078345900001,105.85078345900001,105.79844187533394,105.85078345900001,105.85078345900001,105.85078345900001,105.79844187533394,105.85078345900001,105.85078345900001,105.85078345900001,105.85078345900001,105.85078345900001,111.08284412500143,111.08284412500143,112.01943050000045,None,0,,,reldom2_s017,001,2025-02-20_14h50.43.194,practice_test2_AC,2022.2.5,None,
11,Second_Order,2.0,audwhat,stimulus/audwhat_stim/string cello_low-pitch_D_loud.wav,stimulus/audwhat_stim/string viola_high-pitch_Dtri_loud.wav,stimulus/audwhat_stim/percussion mallet_high-pitch_F_loud.wav,stimulus/audwhat_stim/percussion mallet_low-pitch_Dtri_loud.wav,stimulus/viswhat_stim/match_blank.png,stimulus/viswhat_stim/match_box.png,stimulus/viswhat_stim/match_yes.png,stimulus/viswhat_stim/match_no.png,1.0,Match,Category,Category,1,5.25,0,5.25,0,5.25,0,5.25,0,0.75,0.75,0,0.0,0,0.0,0,0.0,0,0.0,1,0.5,1,2.125,1,0.5,1,2.125,0,,,,,0,14,14,14,,,,,112.01943050000045,117.27792712500013,112.01943050000045,112.01943050000045,112.01943050000045,112.01943050000045,112.46931583400146,113.46723245900102,112.47784979166705,,114.09353429200019,115.08319566700084,114.09999416666712,,117.27792712500013,118.13581254200108,120.17817408400151,124.05327091700019,118.13581254200108,118.13581254200108,123.43918550000126,118.13581254200108,118.13581254200108,118.13581254200108,118.13581254200108,118.57968720900135,119.62854362500002,118.54677429166829,,120.17817408400151,121.23128295900096,120.14488445866688,,118.13581254200108,123.43918550000126,118.13581254200108,123.43918550000126,123.34428458399998,124.21967216700068,118.13581254200108,1,1,0.9731331660004798,,reldom2_s017,001,2025-02-20_14h50.43.194,practice_test2_AC,2022.2.5,None,
12,Second_Order,2.0,audwhat,stimulus/audwhat_stim/string viola_high-pitch_Dtri_loud.wav,stimulus/audwhat_stim/percussion xylophone_high-pitch_Dtri_loud.wav,stimulus/audwhat_stim/string viola_low-pitch_Ftri_loud.wav,stimulus/audwhat_stim/percussion mallet_low-pitch_Ftri_loud.wav,stimulus/viswhat_stim/match_blank.png,stimulus/viswhat_stim/match_box.png,stimulus/viswhat_stim/match_yes.png,stimulus/viswhat_stim/match_no.png,1.0,Match,Pitch,Pitch,1,5.25,0,5.25,0,5.25,0,5.25,0,0.75,0.75,0,0.0,0,0.0,0,0.0,0,0.0,1,0.5,1,2.125,1,0.5,1,2.125,0,,,,,0,15,15,15,,,,,124.21967216700068,129.4602315840002,124.21967216700068,124.21967216700068,124.21967216700068,124.21967216700068,124.66766370900041,125.66064558400103,124.67604912566664,,126.29404533400157,127.29450075000022,126.3020370416673,127.30139779199999,129.4602315840002,130.3176223340015,132.39897220900093,136.25099370899989,130.3176223340015,130.3176223340015,135.63956058400072,130.3176223340015,130.3176223340015,130.3176223340015,130.3176223340015,130.76007170900084,131.80263029200069,130.72693475066833,,132.39897220900093,133.44538591700075,132.36591545866784,,130.3176223340015,135.63956058400072,130.3176223340015,135.63956058400072,135.4957973340006,136.48796650000077,130.3176223340015,1,1,1.6950637499994627,,reldom2_s017,001,2025-02-20_14h50.43.194,practice_test2_AC,2022.2.5,None,
0,0.0,None,fixation,stimulus/viswhat_stim/blank_white.png,stimulus/viswhat_stim/blank_white.png,stimulus/audwhat_stim/blank_white.png,stimulus/audwhat_stim/blank_white.png,stimulus/viswhat_stim/blank_white.png,stimulus/viswhat_stim/blank_white.png,stimulus/viswhat_stim/blank_white.png,stimulus/viswhat_stim/blank_white.png,0.0,0.0,0.0,0.0,0,0.0,0,0.0,0,0.0,0,0.0,0,0.0,0.0,0,0.0,0,0.0,0,0.0,0,0.0,0,0.0,0,0.0,0,0.0,0,0.0,6,,,,,0,16,16,16,,,,,136.48796650000077,136.48796650000077,136.48796650000077,136.48796650000077,136.48796650000077,136.48796650000077,136.48796650000077,136.48796650000077,136.38432704233324,136.48796650000077,136.48796650000077,136.48796650000077,136.38432704233324,136.48796650000077,136.48796650000077,136.48796650000077,136.48796650000077,136.48796650000077,136.48796650000077,136.48796650000077,136.48796650000077,136.48796650000077,136.48796650000077,136.48796650000077,136.48796650000077,136.48796650000077,136.48796650000077,136.43432704233322,136.48796650000077,136.48796650000077,136.48796650000077,136.43432704233322,136.48796650000077,136.48796650000077,136.48796650000077,136.48796650000077,136.48796650000077,141.7118306250013,141.7118306250013,142.74363066700062,None,0,,,reldom2_s017,001,2025-02-20_14h50.43.194,practice_test2_AC,2022.2.5,None,
13,First_Order,3.0,audwhere,stimulus/audwhere_stim/dummy.wav,stimulus/audwhere_stim/dummy.wav,stimulus/audwhere_stim/left_toward_270h.wav,stimulus/audwhere_stim/right_toward_270h.wav,stimulus/audwhere_stim/blank_white.png,stimulus/audwhere_stim/direction_box.png,stimulus/audwhere_stim/direction_yes.png,stimulus/audwhere_stim/direction_no.png,None,Direction,None,Direction,1,0.0,0,5.25,0,5.25,0,5.25,0,0.0,0.75,0,0.0,0,0.0,0,0.0,0,0.0,0,0.0,0,0.0,1,0.5,1,2.125,0,,,,,0,17,17,17,,,,,142.74363066700062,142.74363066700062,142.74363066700062,142.74363066700062,142.74363066700062,142.74363066700062,142.74363066700062,142.74363066700062,142.66435808366685,142.74363066700062,142.74363066700062,142.74363066700062,142.66435808366685,142.74363066700062,142.74363066700062,142.74363066700062,144.84538529200108,148.69747470900074,142.74363066700062,142.74363066700062,148.04104004200053,142.74363066700062,142.74363066700062,142.74363066700062,142.74363066700062,143.19644095900003,144.24511404199984,143.16268475066707,144.19527474999995,144.84538529200108,145.89575795900055,144.8114523336683,145.84581083400008,142.74363066700062,148.04104004200053,142.74363066700062,148.04104004200053,147.9474838340011,148.9156855000001,142.74363066700062,1,1,2.9528180839988636,,reldom2_s017,001,2025-02-20_14h50.43.194,practice_test2_AC,2022.2.5,None,
14,First_Order,3.0,audwhere,stimulus/audwhere_stim/dummy.wav,stimulus/audwhere_stim/dummy.wav,stimulus/audwhere_stim/right_away_280h.wav,stimulus/audwhere_stim/right_toward_290h.wav,stimulus/audwhere_stim/blank_white.png,stimulus/audwhere_stim/side_box.png,stimulus/audwhere_stim/side_yes.png,stimulus/audwhere_stim/side_no.png,None,Side,None,Side,1,0.0,0,5.25,0,5.25,0,5.25,0,0.0,0.75,0,0.0,0,0.0,0,0.0,0,0.0,0,0.0,0,0.0,1,0.5,1,2.125,0,,,,,0,18,18,18,,,,,148.9156855000001,148.9156855000001,148.9156855000001,148.9156855000001,148.9156855000001,148.9156855000001,148.9156855000001,148.9156855000001,148.8308080423341,148.9156855000001,148.9156855000001,148.9156855000001,148.8308080423341,148.9156855000001,148.9156855000001,148.9156855000001,151.011511875,154.8601630000012,148.9156855000001,148.9156855000001,154.20568670900138,148.9156855000001,148.9156855000001,148.9156855000001,148.9156855000001,149.36449025000002,150.4117048750013,149.33105162566815,,151.011511875,152.06131650000134,150.97816691666802,,148.9156855000001,154.20568670900138,148.9156855000001,154.20568670900138,154.11182499999995,155.07859675000145,148.9156855000001,1,1,1.6101850839986582,,reldom2_s017,001,2025-02-20_14h50.43.194,practice_test2_AC,2022.2.5,None,
15,First_Order,3.0,audwhere,stimulus/audwhere_stim/dummy.wav,stimulus/audwhere_stim/dummy.wav,stimulus/audwhere_stim/right_away_270h.wav,stimulus/audwhere_stim/right_toward_300h.wav,stimulus/audwhere_stim/blank_white.png,stimulus/audwhere_stim/side_box.png,stimulus/audwhere_stim/side_yes.png,stimulus/audwhere_stim/side_no.png,None,Side,None,Side,1,0.0,0,5.25,0,5.25,0,5.25,0,0.0,0.75,0,0.0,0,0.0,0,0.0,0,0.0,0,0.0,0,0.0,1,0.5,1,2.125,0,,,,,0,19,19,19,,,,,155.07859675000145,155.07859675000145,155.07859675000145,155.07859675000145,155.07859675000145,155.07859675000145,155.07859675000145,155.07859675000145,154.99349633333455,155.07859675000145,155.07859675000145,155.07859675000145,154.99349633333455,155.07859675000145,155.07859675000145,155.07859675000145,157.17848883400075,161.02818016700076,155.07859675000145,155.07859675000145,160.3725246670001,155.07859675000145,155.07859675000145,155.07859675000145,155.07859675000145,155.5283772090006,156.5782055840009,155.49491379166673,,157.17848883400075,158.22814791700148,157.14496004166747,158.17782254200029,155.07859675000145,160.3725246670001,155.07859675000145,160.3725246670001,160.27868187500098,161.2454370000014,155.07859675000145,1,1,1.452525874999992,,reldom2_s017,001,2025-02-20_14h50.43.194,practice_test2_AC,2022.2.5,None,
16,First_Order,3.0,audwhere,stimulus/audwhere_stim/dummy.wav,stimulus/audwhere_stim/dummy.wav,stimulus/audwhere_stim/right_toward_300h.wav,stimulus/audwhere_stim/right_away_290h.wav,stimulus/audwhere_stim/blank_white.png,stimulus/audwhere_stim/direction_box.png,stimulus/audwhere_stim/direction_yes.png,stimulus/audwhere_stim/direction_no.png,None,Direction,None,Side,2,0.0,0,5.25,0,5.25,0,5.25,0,0.0,0.75,0,0.0,0,0.0,0,0.0,0,0.0,0,0.0,0,0.0,1,0.5,1,2.125,0,,,,,0,20,20,20,,,,,161.2454370000014,161.2454370000014,161.2454370000014,161.2454370000014,161.2454370000014,161.2454370000014,161.2454370000014,161.2454370000014,161.1615135003341,161.2454370000014,161.2454370000014,161.2454370000014,161.1615135003341,161.2454370000014,161.2454370000014,161.2454370000014,163.3538051250016,167.2161059170012,161.2454370000014,161.2454370000014,166.5561046670009,161.2454370000014,161.2454370000014,161.2454370000014,161.2454370000014,161.69984308400126,162.7530214590006,161.66550554166705,,163.3538051250016,164.40830166700107,163.31949025066777,,161.2454370000014,166.5561046670009,161.2454370000014,166.5561046670009,166.4620871670013,167.45234758400147,161.2454370000014,2,1,1.5267838339987065,,reldom2_s017,001,2025-02-20_14h50.43.194,practice_test2_AC,2022.2.5,None,
0,0.0,None,fixation,stimulus/viswhere_stim/blank_white.png,stimulus/viswhere_stim/blank_white.png,stimulus/audwhere_stim/blank_white.png,stimulus/audwhere_stim/blank_white.png,stimulus/viswhere_stim/blank_white.png,stimulus/viswhere_stim/blank_white.png,stimulus/viswhat_stim/blank_white.png,stimulus/viswhat_stim/blank_white.png,0.0,0.0,0.0,0.0,0,0.0,0,0.0,0,0.0,0,0.0,0,0.0,0.0,0,0.0,0,0.0,0,0.0,0,0.0,0,0.0,0,0.0,0,0.0,0,0.0,5,,,,,0,21,21,21,,,,,167.45234758400147,167.45234758400147,167.45234758400147,167.45234758400147,167.45234758400147,167.45234758400147,167.45234758400147,167.45234758400147,167.34943925033454,167.45234758400147,167.45234758400147,167.45234758400147,167.34943925033454,167.45234758400147,167.45234758400147,167.45234758400147,167.45234758400147,167.45234758400147,167.45234758400147,167.45234758400147,167.45234758400147,167.45234758400147,167.45234758400147,167.45234758400147,167.45234758400147,167.45234758400147,167.45234758400147,167.39943925033452,167.45234758400147,167.45234758400147,167.45234758400147,167.39943925033452,167.45234758400147,167.45234758400147,167.45234758400147,167.45234758400147,167.45234758400147,172.7714402090005,172.7714402090005,172.5104780420006,None,0,,,reldom2_s017,001,2025-02-20_14h50.43.194,practice_test2_AC,2022.2.5,None,
17,Second_Order,3.0,audwhere,stimulus/audwhere_stim/right_toward_270h.wav,stimulus/audwhere_stim/left_toward_290h.wav,stimulus/audwhere_stim/left_away_270h.wav,stimulus/audwhere_stim/left_toward_290h.wav,stimulus/viswhat_stim/match_blank.png,stimulus/viswhat_stim/match_box.png,stimulus/viswhat_stim/match_yes.png,stimulus/viswhat_stim/match_no.png,2.0,Match,Direction,Side,2,5.25,0,5.25,0,5.25,0,5.25,0,0.75,0.75,0,0.0,0,0.0,0,0.0,0,0.0,1,0.5,1,2.125,1,0.5,1,2.125,0,,,,,0,22,22,22,,,,,172.7714402090005,178.0180557500007,172.7714402090005,172.7714402090005,172.7714402090005,172.7714402090005,173.21823916700123,174.2097942500004,173.22609875066726,,174.84313100000145,175.83421774999988,174.8500752506682,,178.0180557500007,178.87373833400125,180.91581466700154,184.81804695900064,178.87373833400125,178.87373833400125,184.16279395900165,178.87373833400125,178.87373833400125,178.87373833400125,178.87373833400125,179.31735662500068,180.36634025000058,179.28425891666691,,180.91581466700154,181.96533287500097,180.8826173336677,,178.87373833400125,184.16279395900165,178.87373833400125,184.16279395900165,184.06924987500133,184.93977879200065,178.87373833400125,2,1,1.7998552079989167,,reldom2_s017,001,2025-02-20_14h50.43.194,practice_test2_AC,2022.2.5,None,
18,Second_Order,3.0,audwhere,stimulus/audwhere_stim/left_toward_270h.wav,stimulus/audwhere_stim/right_toward_300h.wav,stimulus/audwhere_stim/right_toward_300h.wav,stimulus/audwhere_stim/right_away_270h.wav,stimulus/viswhat_stim/match_blank.png,stimulus/viswhat_stim/match_box.png,stimulus/viswhat_stim/match_yes.png,stimulus/viswhat_stim/match_no.png,2.0,Match,Direction,Side,2,5.25,0,5.25,0,5.25,0,5.25,0,0.75,0.75,0,0.0,0,0.0,0,0.0,0,0.0,1,0.5,1,2.125,1,0.5,1,2.125,0,,,,,0,23,23,23,,,,,184.93977879200065,190.18548545900012,184.93977879200065,184.93977879200065,184.93977879200065,184.93977879200065,185.39340662500035,186.3854572500004,185.40163016666727,186.39265908400012,187.01764041700153,188.01087858400024,187.0263096666679,,190.18548545900012,191.04942200000005,193.09464491700055,196.99400866700125,191.04942200000005,191.04942200000005,196.33853920900037,191.04942200000005,191.04942200000005,191.04942200000005,191.04942200000005,191.49322204200143,192.5450139170007,191.46009033366707,,193.09464491700055,194.1442604590011,193.06154337566684,,191.04942200000005,196.33853920900037,191.04942200000005,196.33853920900037,196.24500583400004,197.2292409590009,191.04942200000005,2,1,1.1939601249996485,,reldom2_s017,001,2025-02-20_14h50.43.194,practice_test2_AC,2022.2.5,None,
0,0.0,None,fixation,stimulus/viswhere_stim/blank_white.png,stimulus/viswhere_stim/blank_white.png,stimulus/audwhere_stim/blank_white.png,stimulus/audwhere_stim/blank_white.png,stimulus/viswhere_stim/blank_white.png,stimulus/viswhere_stim/blank_white.png,stimulus/viswhat_stim/blank_white.png,stimulus/viswhat_stim/blank_white.png,0.0,0.0,0.0,0.0,0,0.0,0,0.0,0,0.0,0,0.0,0,0.0,0.0,0,0.0,0,0.0,0,0.0,0,0.0,0,0.0,0,0.0,0,0.0,0,0.0,5,,,,,0,24,24,24,,,,,197.2292409590009,197.2292409590009,197.2292409590009,197.2292409590009,197.2292409590009,197.2292409590009,197.2292409590009,197.2292409590009,197.1273420003346,197.2292409590009,197.2292409590009,197.2292409590009,197.1273420003346,197.2292409590009,197.2292409590009,197.2292409590009,197.2292409590009,197.2292409590009,197.2292409590009,197.2292409590009,197.2292409590009,197.2292409590009,197.2292409590009,197.2292409590009,197.2292409590009,197.2292409590009,197.2292409590009,197.1773420003346,197.2292409590009,197.2292409590009,197.2292409590009,197.1773420003346,197.2292409590009,197.2292409590009,197.2292409590009,197.2292409590009,197.2292409590009,202.58410562500103,202.58410562500103,202.28156258400122,None,0,,,reldom2_s017,001,2025-02-20_14h50.43.194,practice_test2_AC,2022.2.5,None,
19,First_Order,4.0,viswhere,stimulus/viswhere_stim/blank_white.png,stimulus/viswhere_stim/blank_white.png,stimulus/viswhere_stim/90-deg_dot-right_peru.png,stimulus/viswhere_stim/120-deg_dot-right_slateblue.png,stimulus/viswhere_stim/blank_white.png,stimulus/viswhere_stim/dot_box.png,stimulus/viswhere_stim/dot_yes.png,stimulus/viswhere_stim/dot_no.png,None,Dot,None,Dot,1,0.0,0,5.25,0,5.25,0,5.25,0,0.0,0.75,0,0.0,0,0.0,1,0.5,1,2.125,0,0.0,0,0.0,0,0.0,0,0.0,0,,,,,0,25,25,25,,,,,202.58410562500103,202.58410562500103,202.58410562500103,202.58410562500103,202.58410562500103,202.58410562500103,202.58410562500103,202.58410562500103,202.56026562566757,202.58410562500103,202.58410562500103,202.58410562500103,202.56026562566757,202.58410562500103,202.58410562500103,202.58410562500103,204.6888096670009,208.6507516670008,202.58410562500103,202.58410562500103,207.84313258400107,203.06129420900106,204.08023308400152,204.6888096670009,205.69642133400157,202.58410562500103,202.58410562500103,202.57693229233422,202.58410562500103,202.58410562500103,202.58410562500103,202.57693229233422,202.58410562500103,202.58410562500103,207.84313258400107,202.58410562500103,207.84313258400107,207.8031270420015,208.6507516670008,202.58410562500103,1,1,0.7984489999980724,,reldom2_s017,001,2025-02-20_14h50.43.194,practice_test2_AC,2022.2.5,None,
20,First_Order,4.0,viswhere,stimulus/viswhere_stim/blank_white.png,stimulus/viswhere_stim/blank_white.png,stimulus/viswhere_stim/30-deg_dot-right_turquoise.png,stimulus/viswhere_stim/60-deg_dot-right_seagreen.png,stimulus/viswhere_stim/blank_white.png,stimulus/viswhere_stim/line_box.png,stimulus/viswhere_stim/line_yes.png,stimulus/viswhere_stim/line_no.png,None,Line,None,Dot,2,0.0,0,5.25,0,5.25,0,5.25,0,0.0,0.75,0,0.0,0,0.0,1,0.5,1,2.125,0,0.0,0,0.0,0,0.0,0,0.0,0,,,,,0,26,26,26,,,,,208.6507516670008,208.6507516670008,208.6507516670008,208.6507516670008,208.6507516670008,208.6507516670008,208.6507516670008,208.6507516670008,208.62669670833324,208.6507516670008,208.6507516670008,208.6507516670008,208.62669670833324,208.6507516670008,208.6507516670008,208.6507516670008,210.76108529200064,214.719236500001,208.6507516670008,208.6507516670008,213.9177435420006,209.12853475000156,210.15196845900027,210.76108529200064,211.76706787500007,208.6507516670008,208.6507516670008,208.64336337499992,208.6507516670008,208.6507516670008,208.6507516670008,208.64336337499992,208.6507516670008,208.6507516670008,213.9177435420006,208.6507516670008,213.9177435420006,213.87854783400144,214.719236500001,208.6507516670008,2,1,0.9167807909980183,,reldom2_s017,001,2025-02-20_14h50.43.194,practice_test2_AC,2022.2.5,None,
21,First_Order,4.0,viswhere,stimulus/viswhere_stim/blank_white.png,stimulus/viswhere_stim/blank_white.png,stimulus/viswhere_stim/120-deg_dot-left_goldenrod.png,stimulus/viswhere_stim/90-deg_dot-left_seagreen.png,stimulus/viswhere_stim/blank_white.png,stimulus/viswhere_stim/line_box.png,stimulus/viswhere_stim/line_yes.png,stimulus/viswhere_stim/line_no.png,None,Line,None,Dot,2,0.0,0,5.25,0,5.25,0,5.25,0,0.0,0.75,0,0.0,0,0.0,1,0.5,1,2.125,0,0.0,0,0.0,0,0.0,0,0.0,0,,,,,0,27,27,27,,,,,214.719236500001,214.719236500001,214.719236500001,214.719236500001,214.719236500001,214.719236500001,214.719236500001,214.719236500001,214.69548408333443,214.719236500001,214.719236500001,214.719236500001,214.69548408333443,214.719236500001,214.719236500001,214.719236500001,216.8301679590004,220.69569633399988,214.719236500001,214.719236500001,219.99066787500124,215.19655600000078,216.22139541700017,216.8301679590004,217.8409439170009,214.719236500001,214.719236500001,214.71215075000111,214.719236500001,214.719236500001,214.719236500001,214.71215075000111,214.719236500001,214.719236500001,219.99066787500124,214.719236500001,219.99066787500124,219.95132637500137,220.8028513750014,214.719236500001,2,1,0.7202746669991029,,reldom2_s017,001,2025-02-20_14h50.43.194,practice_test2_AC,2022.2.5,None,
22,First_Order,4.0,viswhere,stimulus/viswhere_stim/blank_white.png,stimulus/viswhere_stim/blank_white.png,stimulus/viswhere_stim/150-deg_dot-right_royalblue.png,stimulus/viswhere_stim/150-deg_dot-left_slateblue.png,stimulus/viswhere_stim/blank_white.png,stimulus/viswhere_stim/dot_box.png,stimulus/viswhere_stim/dot_yes.png,stimulus/viswhere_stim/dot_no.png,None,Dot,None,Line,2,0.0,0,5.25,0,5.25,0,5.25,0,0.0,0.75,0,0.0,0,0.0,1,0.5,1,2.125,0,0.0,0,0.0,0,0.0,0,0.0,0,,,,,0,28,28,28,,,,,220.8028513750014,220.8028513750014,220.8028513750014,220.8028513750014,220.8028513750014,220.8028513750014,220.8028513750014,220.8028513750014,220.77902966733322,220.8028513750014,220.8028513750014,220.8028513750014,220.77902966733322,220.8028513750014,220.8028513750014,220.8028513750014,222.90754991700123,226.9466085840013,220.8028513750014,220.8028513750014,226.06600520900065,221.28297304199987,222.2925999170002,222.90754991700123,223.92076366699985,220.8028513750014,220.8028513750014,220.7956963339999,220.8028513750014,220.8028513750014,220.8028513750014,220.7956963339999,220.8028513750014,220.8028513750014,226.06600520900065,220.8028513750014,226.06600520900065,226.02646233400083,226.9466085840013,220.8028513750014,2,1,1.2793378330006817,,reldom2_s017,001,2025-02-20_14h50.43.194,practice_test2_AC,2022.2.5,None,
0,0.0,None,fixation,stimulus/viswhere_stim/blank_white.png,stimulus/viswhere_stim/blank_white.png,stimulus/audwhere_stim/blank_white.png,stimulus/audwhere_stim/blank_white.png,stimulus/viswhere_stim/blank_white.png,stimulus/viswhere_stim/blank_white.png,stimulus/viswhat_stim/blank_white.png,stimulus/viswhat_stim/blank_white.png,0.0,0.0,0.0,0.0,0,0.0,0,0.0,0,0.0,0,0.0,0,0.0,0.0,0,0.0,0,0.0,0,0.0,0,0.0,0,0.0,0,0.0,0,0.0,0,0.0,5,,,,,0,29,29,29,,,,,226.9466085840013,226.9466085840013,226.9466085840013,226.9466085840013,226.9466085840013,226.9466085840013,226.9466085840013,226.9466085840013,226.8455567083341,226.9466085840013,226.9466085840013,226.9466085840013,226.8455567083341,226.9466085840013,226.9466085840013,226.9466085840013,226.9466085840013,226.9466085840013,226.9466085840013,226.9466085840013,226.9466085840013,226.9466085840013,226.9466085840013,226.9466085840013,226.9466085840013,226.9466085840013,226.9466085840013,226.8955567083341,226.9466085840013,226.9466085840013,226.9466085840013,226.8955567083341,226.9466085840013,226.9466085840013,226.9466085840013,226.9466085840013,226.9466085840013,232.24091008400137,232.24091008400137,232.00780512500023,None,0,,,reldom2_s017,001,2025-02-20_14h50.43.194,practice_test2_AC,2022.2.5,None,
23,Second_Order,4.0,viswhere,stimulus/viswhere_stim/150-deg_dot-right_slateblue.png,stimulus/viswhere_stim/150-deg_dot-left_turquoise.png,stimulus/viswhere_stim/90-deg_dot-left_mediumslateblue.png,stimulus/viswhere_stim/90-deg_dot-right_peru.png,stimulus/viswhat_stim/match_blank.png,stimulus/viswhat_stim/match_box.png,stimulus/viswhat_stim/match_yes.png,stimulus/viswhat_stim/match_no.png,1.0,Match,Line,Line,1,5.25,0,5.25,0,5.25,0,5.25,0,0.75,0.75,1,0.5,1,2.125,1,0.5,1,2.125,0,0.0,0,0.0,0,0.0,0,0.0,0,,,,,0,30,30,30,,,,,232.24091008400137,237.48440325000047,232.71808825000153,233.71074916700127,234.34372737500053,235.33368741699996,232.24091008400137,232.24091008400137,232.25245350033416,232.24091008400137,232.24091008400137,232.24091008400137,232.25245350033416,232.24091008400137,237.48440325000047,238.28442320900103,240.361282459,244.25499325000055,238.28442320900103,238.28442320900103,243.53857854200032,238.74320037500001,239.74842479200015,240.361282459,241.37697050000133,238.28442320900103,238.28442320900103,238.2670052090005,238.28442320900103,238.28442320900103,238.28442320900103,238.2670052090005,238.28442320900103,238.28442320900103,243.53857854200032,238.28442320900103,243.53857854200032,243.47624645900032,244.25499325000055,238.28442320900103,1,1,0.8329959999991843,,reldom2_s017,001,2025-02-20_14h50.43.194,practice_test2_AC,2022.2.5,None,
24,Second_Order,4.0,viswhere,stimulus/viswhere_stim/150-deg_dot-right_mediumslateblue.png,stimulus/viswhere_stim/30-deg_dot-right_salmon.png,stimulus/viswhere_stim/120-deg_dot-right_royalblue.png,stimulus/viswhere_stim/120-deg_dot-left_salmon.png,stimulus/viswhat_stim/match_blank.png,stimulus/viswhat_stim/match_box.png,stimulus/viswhat_stim/match_yes.png,stimulus/viswhat_stim/match_no.png,2.0,Match,Dot,Line,2,5.25,0,5.25,0,5.25,0,5.25,0,0.75,0.75,1,0.5,1,2.125,1,0.5,1,2.125,0,0.0,0,0.0,0,0.0,0,0.0,0,,,,,0,31,31,31,,,,,244.25499325000055,249.50210037500074,244.73456925000028,245.72756350000054,246.36042858400106,247.35104083400074,244.25499325000055,244.25499325000055,244.2641490840004,244.25499325000055,244.25499325000055,244.25499325000055,244.2641490840004,244.25499325000055,249.50210037500074,250.30507220900108,252.39263641700018,256.24563387499984,250.30507220900108,250.30507220900108,255.5722464999999,250.76382483400084,251.78455974999997,252.39263641700018,253.4002193340002,250.30507220900108,250.30507220900108,250.27734370833474,250.30507220900108,250.30507220900108,250.30507220900108,250.27734370833474,250.30507220900108,250.30507220900108,255.5722464999999,250.30507220900108,255.5722464999999,255.5102703749999,256.43468937500074,250.30507220900108,2,1,0.725490582999555,,reldom2_s017,001,2025-02-20_14h50.43.194,practice_test2_AC,2022.2.5,None,
0,0.0,None,fixation,stimulus/viswhere_stim/blank_white.png,stimulus/viswhere_stim/blank_white.png,stimulus/audwhere_stim/blank_white.png,stimulus/audwhere_stim/blank_white.png,stimulus/viswhere_stim/blank_white.png,stimulus/viswhere_stim/blank_white.png,stimulus/viswhat_stim/blank_white.png,stimulus/viswhat_stim/blank_white.png,0.0,0.0,0.0,0.0,0,0.0,0,0.0,0,0.0,0,0.0,0,0.0,0.0,0,0.0,0,0.0,0,0.0,0,0.0,0,0.0,0,0.0,0,0.0,0,0.0,7,,,,,0,32,32,32,,,,,256.43468937500074,256.43468937500074,256.43468937500074,256.43468937500074,256.43468937500074,256.43468937500074,256.43468937500074,256.43468937500074,256.32896720833315,256.43468937500074,256.43468937500074,256.43468937500074,256.32896720833315,256.43468937500074,256.43468937500074,256.43468937500074,256.43468937500074,256.43468937500074,256.43468937500074,256.43468937500074,256.43468937500074,256.43468937500074,256.43468937500074,256.43468937500074,256.43468937500074,256.43468937500074,256.43468937500074,256.37896720833317,256.43468937500074,256.43468937500074,256.43468937500074,256.37896720833317,256.43468937500074,256.43468937500074,256.43468937500074,256.43468937500074,256.43468937500074,261.6253447500003,261.6253447500003,263.57095412499984,None,0,,,reldom2_s017,001,2025-02-20_14h50.43.194,practice_test2_AC,2022.2.5,None,
,,,,,,,,,,,,,,,,,,,,,,,,,,,,,,,,,,,,,,,,,,,,,,,,,,,,,,,,,,,,,,,,,,,,,,,,,,,,,,,,,,,,,,,,,,,,,,,,,,,263.57095412499984,,,,,,,
