Trial,Order,Block,Type,Stimuli_File1,Stimuli_File2,Stimuli_File3,Stimuli_File4,Cue_File1,Cue_File2,Response_File_Yes,Response_File_No,Match,Cue_Dimension,Pair1_Dimension,Pair2_Dimension,Key,Cue1_Duration,Cue1_Onset,Cue2_Duration,Cue2_Onset,ResponseYes_Duration,ResponseYes_Onset,ResponseNo_Duration,ResponseNo_Onset,ITI_Within,ITI_Between,Image1_Duration,Image1_Onset,Image2_Duration,Image2_Onset,Image3_Duration,Image3_Onset,Image4_Duration,Image4_Onset,Sound1_Duration,Sound1_Onset,Sound2_Duration,Sound2_Onset,Sound3_Duration,Sound3_Onset,Sound4_Duration,Sound4_Onset,Fixation_Duration,trials_2.thisRepN,trials_2.thisTrialN,trials_2.thisN,trials_2.thisIndex,trials.thisRepN,trials.thisTrialN,trials.thisN,trials.thisIndex,text_start.started,key_resp_start.started,key_resp_start.keys,key_resp_start.rt,text2.started,key_resp_2.started,key_resp_2.keys,key_resp_2.rt,cue_file1.started,cue_file1.stopped,image_1.started,image_1.stopped,image_2.started,image_2.stopped,sound_icon1.started,sound_icon1.stopped,sound_1.started,sound_1.stopped,sound_icon2.started,sound_icon2.stopped,sound_2.started,sound_2.stopped,image_blank_1.started,image_blank_1.stopped,key_press.started,key_press.stopped,fixation_text.started,cue_file2.started,cue_file2.stopped,image_3.started,image_3.stopped,image_4.started,image_4.stopped,sound_icon3.started,sound_icon3.stopped,sound_3.started,sound_3.stopped,sound_icon4.started,sound_icon4.stopped,sound_4.started,sound_4.stopped,response_yes.started,response_yes.stopped,response_no.started,response_no.stopped,iti_blank.started,iti_blank.stopped,fixation_text.stopped,key_press.keys,key_press.corr,key_press.rt,participant,session,date,expName,psychopyVersion,frameRate,
,,,,,,,,,,,,,,,,,,,,,,,,,,,,,,,,,,,,,,,,,,,,,,,,,,,,7.557795083000201,7.557795083000201,2,0.9992232500007958,,,,,,,,,,,,,,,,,,,,,,,,,,,,,,,,,,,,,,,,,,,,,,,,reldom2_s017,001,2025-02-20_15h12.51.129,Where-B-Scan_AC,2022.2.5,None,
,,,,,,,,,,,,,,,,,,,,,,,,,,,,,,,,,,,,,,,,,,,,0,0,0,0,,,,,,,,,8.588001666999844,8.588001666999844,5,39.13955970799998,,,,,,,,,,,,,,,,,,,,,,,,,,,,,,,,,,,,,,,,,,,,reldom2_s017,001,2025-02-20_15h12.51.129,Where-B-Scan_AC,2022.2.5,None,
,,,,,,,,,,,,,,,,,,,,,,,,,,,,,,,,,,,,,,,,,,,,1,0,1,0,,,,,,,,,47.743082541999684,47.743082541999684,5,1.9844682499997361,,,,,,,,,,,,,,,,,,,,,,,,,,,,,,,,,,,,,,,,,,,,reldom2_s017,001,2025-02-20_15h12.51.129,Where-B-Scan_AC,2022.2.5,None,
,,,,,,,,,,,,,,,,,,,,,,,,,,,,,,,,,,,,,,,,,,,,2,0,2,0,,,,,,,,,49.75498762499956,49.75498762499956,5,1.9744325000001481,,,,,,,,,,,,,,,,,,,,,,,,,,,,,,,,,,,,,,,,,,,,reldom2_s017,001,2025-02-20_15h12.51.129,Where-B-Scan_AC,2022.2.5,None,
,,,,,,,,,,,,,,,,,,,,,,,,,,,,,,,,,,,,,,,,,,,,3,0,3,0,,,,,,,,,51.742997374999504,51.742997374999504,5,1.985037624999677,,,,,,,,,,,,,,,,,,,,,,,,,,,,,,,,,,,,,,,,,,,,reldom2_s017,001,2025-02-20_15h12.51.129,Where-B-Scan_AC,2022.2.5,None,
0,0.0,None,fixation,stimulus/audwhere_stim/blank_white.png,stimulus/audwhere_stim/blank_white.png,stimulus/viswhere_stim/blank_white.png,stimulus/viswhere_stim/blank_white.png,stimulus/audwhere_stim/blank_white.png,stimulus/audwhere_stim/blank_white.png,stimulus/audwhere_stim/blank_white.png,stimulus/audwhere_stim/blank_white.png,0.0,0.0,0.0,0.0,0,0.0,0,0.0,0,0.0,0,0.0,0,0.0,0.0,0,0.0,0,0.0,0,0.0,0,0.0,0,0.0,0,0.0,0,0.0,0,0.0,16,,,,,0,0,0,0,,,,,,,,,53.94534104200011,53.94534104200011,53.94534104200011,53.94534104200011,53.94534104200011,53.94534104200011,53.94534104200011,53.94534104200011,53.84754745866655,53.94534104200011,53.94534104200011,53.94534104200011,53.84754745866655,53.94534104200011,53.94534104200011,53.94534104200011,53.94534104200011,53.94534104200011,53.94534104200011,53.94534104200011,53.94534104200011,53.94534104200011,53.94534104200011,53.94534104200011,53.94534104200011,53.94534104200011,53.94534104200011,53.897547458666544,53.94534104200011,53.94534104200011,53.94534104200011,53.897547458666544,53.94534104200011,53.94534104200011,53.94534104200011,53.94534104200011,53.94534104200011,59.12336691699966,59.12336691699966,70.15502079199996,None,0,,reldom2_s017,001,2025-02-20_15h12.51.129,Where-B-Scan_AC,2022.2.5,None,
1,First_Order,1.0,audwhere,stimulus/audwhere_stim/dummy.wav,stimulus/audwhere_stim/dummy.wav,stimulus/audwhere_stim/right_away_290h.wav,stimulus/audwhere_stim/right_toward_300h.wav,stimulus/audwhere_stim/blank_white.png,stimulus/audwhere_stim/direction_box.png,stimulus/audwhere_stim/direction_yes.png,stimulus/audwhere_stim/direction_no.png,None,Direction,None,Side,2,0.0,0,5.125,0,5.125,0,5.125,0,0.0,0.625,0,0.0,0,0.0,0,0.0,0,0.0,0,0.0,0,0.0,1,0.5,1,2.125,0,,,,,0,1,1,1,,,,,,,,,70.15502079199996,70.15502079199996,70.15502079199996,70.15502079199996,70.15502079199996,70.15502079199996,70.15502079199996,70.15502079199996,70.08912008299959,70.15502079199996,70.15502079199996,70.15502079199996,70.08912008299959,70.15502079199996,70.15502079199996,70.15502079199996,72.2726280830002,,70.15502079199996,70.15502079199996,75.30962312500014,70.15502079199996,70.15502079199996,70.15502079199996,70.15502079199996,70.63970616699953,71.69812358299987,70.61204958366694,,72.2726280830002,73.33240904200011,72.24513637466613,,70.15502079199996,75.30962312500014,70.15502079199996,75.30962312500014,75.38732941699982,76.04779249999956,70.15502079199996,2,1,2.008163874999809,reldom2_s017,001,2025-02-20_15h12.51.129,Where-B-Scan_AC,2022.2.5,None,
2,First_Order,1.0,audwhere,stimulus/audwhere_stim/dummy.wav,stimulus/audwhere_stim/dummy.wav,stimulus/audwhere_stim/left_toward_290h.wav,stimulus/audwhere_stim/right_toward_280h.wav,stimulus/audwhere_stim/blank_white.png,stimulus/audwhere_stim/side_box.png,stimulus/audwhere_stim/side_yes.png,stimulus/audwhere_stim/side_no.png,None,Side,None,Direction,2,0.0,0,5.125,0,5.125,0,5.125,0,0.0,0.625,0,0.0,0,0.0,0,0.0,0,0.0,0,0.0,0,0.0,1,0.5,1,2.125,0,,,,,0,2,2,2,,,,,,,,,76.24828158299988,76.24828158299988,76.24828158299988,76.24828158299988,76.24828158299988,76.24828158299988,76.24828158299988,76.24828158299988,76.18112583333289,76.24828158299988,76.24828158299988,76.24828158299988,76.18112583333289,76.24828158299988,76.24828158299988,76.24828158299988,78.35332312500032,82.36030520799977,76.24828158299988,76.24828158299988,81.42206766700019,76.24828158299988,76.24828158299988,76.24828158299988,76.24828158299988,76.73084870799994,77.78417916699982,76.70346674966665,,78.35332312500032,79.40735108300032,78.3260584166667,,76.24828158299988,81.42206766700019,76.24828158299988,81.42206766700019,81.46077187500032,82.11998370800029,76.24828158299988,2,1,1.4574045829995157,reldom2_s017,001,2025-02-20_15h12.51.129,Where-B-Scan_AC,2022.2.5,None,
3,First_Order,1.0,audwhere,stimulus/audwhere_stim/dummy.wav,stimulus/audwhere_stim/dummy.wav,stimulus/audwhere_stim/right_toward_280h.wav,stimulus/audwhere_stim/right_away_300h.wav,stimulus/audwhere_stim/blank_white.png,stimulus/audwhere_stim/direction_box.png,stimulus/audwhere_stim/direction_yes.png,stimulus/audwhere_stim/direction_no.png,None,Direction,None,Side,2,0.0,0,5.125,0,5.125,0,5.125,0,0.0,0.625,0,0.0,0,0.0,0,0.0,0,0.0,0,0.0,0,0.0,1,0.5,1,2.125,0,,,,,0,3,3,3,,,,,,,,,82.36030520799977,82.36030520799977,82.36030520799977,82.36030520799977,82.36030520799977,82.36030520799977,82.36030520799977,82.36030520799977,82.29178079133283,82.36030520799977,82.36030520799977,82.36030520799977,82.29178079133283,82.36030520799977,82.36030520799977,82.36030520799977,84.47704616699957,,82.36030520799977,82.36030520799977,87.51898091699968,82.36030520799977,82.36030520799977,82.36030520799977,82.36030520799977,82.84693474999949,83.90530487500018,82.8189919166664,,84.47704616699957,85.53541108300033,84.44946983366687,,82.36030520799977,87.51898091699968,82.36030520799977,87.51898091699968,87.55834095799946,88.21899595800005,82.36030520799977,2,1,1.7057709159998922,reldom2_s017,001,2025-02-20_15h12.51.129,Where-B-Scan_AC,2022.2.5,None,
4,First_Order,1.0,audwhere,stimulus/audwhere_stim/dummy.wav,stimulus/audwhere_stim/dummy.wav,stimulus/audwhere_stim/left_toward_270h.wav,stimulus/audwhere_stim/right_toward_300h.wav,stimulus/audwhere_stim/blank_white.png,stimulus/audwhere_stim/direction_box.png,stimulus/audwhere_stim/direction_yes.png,stimulus/audwhere_stim/direction_no.png,None,Direction,None,Direction,1,0.0,0,5.125,0,5.125,0,5.125,0,0.0,0.625,0,0.0,0,0.0,0,0.0,0,0.0,0,0.0,0,0.0,1,0.5,1,2.125,0,,,,,0,4,4,4,,,,,,,,,88.45775358300034,88.45775358300034,88.45775358300034,88.45775358300034,88.45775358300034,88.45775358300034,88.45775358300034,88.45775358300034,88.39088395833289,88.45775358300034,88.45775358300034,88.45775358300034,88.39088395833289,88.45775358300034,88.45775358300034,88.45775358300034,90.5734881669996,,88.45775358300034,88.45775358300034,93.61472433299969,88.45775358300034,88.45775358300034,88.45775358300034,88.45775358300034,88.94328620800025,90.00176499999998,88.91592824966689,,90.5734881669996,91.63326391699957,90.54608091666638,,88.45775358300034,93.61472433299969,88.45775358300034,93.61472433299969,93.65366970800005,94.31536849999975,88.45775358300034,1,1,1.3108880829995542,reldom2_s017,001,2025-02-20_15h12.51.129,Where-B-Scan_AC,2022.2.5,None,
0,0.0,None,fixation,stimulus/audwhere_stim/blank_white.png,stimulus/audwhere_stim/blank_white.png,stimulus/viswhere_stim/blank_white.png,stimulus/viswhere_stim/blank_white.png,stimulus/audwhere_stim/blank_white.png,stimulus/audwhere_stim/blank_white.png,stimulus/audwhere_stim/blank_white.png,stimulus/audwhere_stim/blank_white.png,0.0,0.0,0.0,0.0,0,0.0,0,0.0,0,0.0,0,0.0,0,0.0,0.0,0,0.0,0,0.0,0,0.0,0,0.0,0,0.0,0,0.0,0,0.0,0,0.0,10,,,,,0,5,5,5,,,,,,,,,94.57407616699948,94.57407616699948,94.57407616699948,94.57407616699948,94.57407616699948,94.57407616699948,94.57407616699948,94.57407616699948,94.48725754133295,94.57407616699948,94.57407616699948,94.57407616699948,94.48725754133295,94.57407616699948,94.57407616699948,94.57407616699948,94.57407616699948,94.57407616699948,94.57407616699948,94.57407616699948,94.57407616699948,94.57407616699948,94.57407616699948,94.57407616699948,94.57407616699948,94.57407616699948,94.57407616699948,94.53725754133296,94.57407616699948,94.57407616699948,94.57407616699948,94.53725754133296,94.57407616699948,94.57407616699948,94.57407616699948,94.57407616699948,94.57407616699948,99.79048475000036,99.79048475000036,104.7299915829999,None,0,,reldom2_s017,001,2025-02-20_15h12.51.129,Where-B-Scan_AC,2022.2.5,None,
5,Second_Order,1.0,audwhere,stimulus/audwhere_stim/right_toward_300h.wav,stimulus/audwhere_stim/left_toward_280h.wav,stimulus/audwhere_stim/right_toward_280h.wav,stimulus/audwhere_stim/right_away_280h.wav,stimulus/audwhere_stim/match_blank.png,stimulus/audwhere_stim/match_box.png,stimulus/audwhere_stim/match_yes.png,stimulus/audwhere_stim/match_no.png,2.0,Match,Direction,Side,2,5.125,0,5.125,0,5.125,0,5.125,0,0.75,0.75,0,0.0,0,0.0,0,0.0,0,0.0,1,0.5,1,2.125,1,0.5,1,2.125,0,,,,,0,6,6,6,,,,,,,,,104.7299915829999,109.84858708299998,104.7299915829999,104.7299915829999,104.7299915829999,104.7299915829999,105.18633675000001,106.17205025000021,105.20005033366694,,106.80763733299955,107.80543458299962,106.82020041666625,,109.84858708299998,110.69319579199964,112.75853433300017,116.68963887500013,110.69319579199964,110.69319579199964,115.84046162499999,110.69319579199964,110.69319579199964,110.69319579199964,110.69319579199964,111.13315862499985,112.18837062500006,111.10573445866636,,112.75853433300017,113.81658762499956,112.7312036666665,,110.69319579199964,115.84046162499999,110.69319579199964,115.84046162499999,115.8793595420002,,110.69319579199964,2,1,1.246572125000057,reldom2_s017,001,2025-02-20_15h12.51.129,Where-B-Scan_AC,2022.2.5,None,
6,Second_Order,1.0,audwhere,stimulus/audwhere_stim/right_toward_270h.wav,stimulus/audwhere_stim/right_away_290h.wav,stimulus/audwhere_stim/left_toward_300h.wav,stimulus/audwhere_stim/left_away_290h.wav,stimulus/audwhere_stim/match_blank.png,stimulus/audwhere_stim/match_box.png,stimulus/audwhere_stim/match_yes.png,stimulus/audwhere_stim/match_no.png,1.0,Match,Side,Side,1,5.125,0,5.125,0,5.125,0,5.125,0,0.625,0.625,0,0.0,0,0.0,0,0.0,0,0.0,1,0.5,1,2.125,1,0.5,1,2.125,0,,,,,0,7,7,7,,,,,,,,,116.68963887500013,121.80899916699946,116.68963887500013,116.68963887500013,116.68963887500013,116.68963887500013,117.14563399999952,118.13348908300031,117.16015074966641,,118.76856495799984,119.76722987500034,118.78084583366696,,121.80899916699946,122.5361347500002,124.60110366699973,,122.5361347500002,122.5361347500002,127.7254130829997,122.5361347500002,122.5361347500002,122.5361347500002,122.5361347500002,122.97561737500018,124.03088933300023,122.94825808366683,,124.60110366699973,125.65673504200004,124.5735777086668,,122.5361347500002,127.7254130829997,122.5361347500002,127.7254130829997,127.7254130829997,128.38717245800035,122.5361347500002,1,1,1.3658227500000066,reldom2_s017,001,2025-02-20_15h12.51.129,Where-B-Scan_AC,2022.2.5,None,
0,0.0,None,fixation,stimulus/audwhere_stim/blank_white.png,stimulus/audwhere_stim/blank_white.png,stimulus/viswhere_stim/blank_white.png,stimulus/viswhere_stim/blank_white.png,stimulus/audwhere_stim/blank_white.png,stimulus/audwhere_stim/blank_white.png,stimulus/audwhere_stim/blank_white.png,stimulus/audwhere_stim/blank_white.png,0.0,0.0,0.0,0.0,0,0.0,0,0.0,0,0.0,0,0.0,0,0.0,0.0,0,0.0,0,0.0,0,0.0,0,0.0,0,0.0,0,0.0,0,0.0,0,0.0,9,,,,,0,8,8,8,,,,,,,,,128.6080417080002,128.6080417080002,128.6080417080002,128.6080417080002,128.6080417080002,128.6080417080002,128.6080417080002,128.6080417080002,128.5205057913337,128.6080417080002,128.6080417080002,128.6080417080002,128.5205057913337,128.6080417080002,128.6080417080002,128.6080417080002,128.6080417080002,128.6080417080002,128.6080417080002,128.6080417080002,128.6080417080002,128.6080417080002,128.6080417080002,128.6080417080002,128.6080417080002,128.6080417080002,128.6080417080002,128.5705057913337,128.6080417080002,128.6080417080002,128.6080417080002,128.5705057913337,128.6080417080002,128.6080417080002,128.6080417080002,128.6080417080002,128.6080417080002,133.8223012919998,133.8223012919998,137.84816062499976,None,0,,reldom2_s017,001,2025-02-20_15h12.51.129,Where-B-Scan_AC,2022.2.5,None,
7,First_Order,2.0,audwhere,stimulus/audwhere_stim/dummy.wav,stimulus/audwhere_stim/dummy.wav,stimulus/audwhere_stim/left_toward_270h.wav,stimulus/audwhere_stim/right_toward_270h.wav,stimulus/audwhere_stim/blank_white.png,stimulus/audwhere_stim/direction_box.png,stimulus/audwhere_stim/direction_yes.png,stimulus/audwhere_stim/direction_no.png,None,Direction,None,Direction,1,0.0,0,5.125,0,5.125,0,5.125,0,0.0,0.625,0,0.0,0,0.0,0,0.0,0,0.0,0,0.0,0,0.0,1,0.5,1,2.125,0,,,,,0,9,9,9,,,,,,,,,137.84816062499976,137.84816062499976,137.84816062499976,137.84816062499976,137.84816062499976,137.84816062499976,137.84816062499976,137.84816062499976,137.77045108300027,137.84816062499976,137.84816062499976,137.84816062499976,137.77045108300027,137.84816062499976,137.84816062499976,137.84816062499976,139.9388986670001,143.95687437499964,137.84816062499976,137.84816062499976,143.0118731249995,137.84816062499976,137.84816062499976,137.84816062499976,137.84816062499976,138.3376430420003,139.40428616699955,138.3096505836668,,139.9388986670001,141.00867641700006,139.91109391666694,,137.84816062499976,143.0118731249995,137.84816062499976,143.0118731249995,143.05114887499985,143.71449366700017,137.84816062499976,2,0,1.648113165999348,reldom2_s017,001,2025-02-20_15h12.51.129,Where-B-Scan_AC,2022.2.5,None,
8,First_Order,2.0,audwhere,stimulus/audwhere_stim/dummy.wav,stimulus/audwhere_stim/dummy.wav,stimulus/audwhere_stim/left_toward_280h.wav,stimulus/audwhere_stim/right_toward_290h.wav,stimulus/audwhere_stim/blank_white.png,stimulus/audwhere_stim/side_box.png,stimulus/audwhere_stim/side_yes.png,stimulus/audwhere_stim/side_no.png,None,Side,None,Direction,2,0.0,0,5.125,0,5.125,0,5.125,0,0.0,0.625,0,0.0,0,0.0,0,0.0,0,0.0,0,0.0,0,0.0,1,0.5,1,2.125,0,,,,,0,10,10,10,,,,,,,,,143.95687437499964,143.95687437499964,143.95687437499964,143.95687437499964,143.95687437499964,143.95687437499964,143.95687437499964,143.95687437499964,143.88802566633345,143.95687437499964,143.95687437499964,143.95687437499964,143.88802566633345,143.95687437499964,143.95687437499964,143.95687437499964,146.04086287500013,,143.95687437499964,143.95687437499964,149.14699891700002,143.95687437499964,143.95687437499964,143.95687437499964,143.95687437499964,144.44432820800012,145.5081359169999,144.4166237496668,,146.04086287500013,147.10611549999976,146.01290324966638,,143.95687437499964,149.14699891700002,143.95687437499964,149.14699891700002,149.18617604199972,149.84886408300008,143.95687437499964,2,1,1.6707835420002084,reldom2_s017,001,2025-02-20_15h12.51.129,Where-B-Scan_AC,2022.2.5,None,
9,First_Order,2.0,audwhere,stimulus/audwhere_stim/dummy.wav,stimulus/audwhere_stim/dummy.wav,stimulus/audwhere_stim/left_away_270h.wav,stimulus/audwhere_stim/left_toward_290h.wav,stimulus/audwhere_stim/blank_white.png,stimulus/audwhere_stim/side_box.png,stimulus/audwhere_stim/side_yes.png,stimulus/audwhere_stim/side_no.png,None,Side,None,Side,1,0.0,0,5.125,0,5.125,0,5.125,0,0.0,0.625,0,0.0,0,0.0,0,0.0,0,0.0,0,0.0,0,0.0,1,0.5,1,2.125,0,,,,,0,11,11,11,,,,,,,,,150.0508410829998,150.0508410829998,150.0508410829998,150.0508410829998,150.0508410829998,150.0508410829998,150.0508410829998,150.0508410829998,149.98219741633343,150.0508410829998,150.0508410829998,150.0508410829998,149.98219741633343,150.0508410829998,150.0508410829998,150.0508410829998,152.13940850000017,,150.0508410829998,150.0508410829998,155.2083160000002,150.0508410829998,150.0508410829998,150.0508410829998,150.0508410829998,150.53969929199957,151.60520499999984,150.5118784166664,,152.13940850000017,153.20605041699946,152.11143779166676,,150.0508410829998,155.2083160000002,150.0508410829998,155.2083160000002,155.2476516249999,155.91179300000022,150.0508410829998,1,1,1.2992850420005198,reldom2_s017,001,2025-02-20_15h12.51.129,Where-B-Scan_AC,2022.2.5,None,
10,First_Order,2.0,audwhere,stimulus/audwhere_stim/dummy.wav,stimulus/audwhere_stim/dummy.wav,stimulus/audwhere_stim/right_away_290h.wav,stimulus/audwhere_stim/right_toward_290h.wav,stimulus/audwhere_stim/blank_white.png,stimulus/audwhere_stim/side_box.png,stimulus/audwhere_stim/side_yes.png,stimulus/audwhere_stim/side_no.png,None,Side,None,Side,1,0.0,0,5.125,0,5.125,0,5.125,0,0.0,0.625,0,0.0,0,0.0,0,0.0,0,0.0,0,0.0,0,0.0,1,0.5,1,2.125,0,,,,,0,12,12,12,,,,,,,,,156.15168724999967,156.15168724999967,156.15168724999967,156.15168724999967,156.15168724999967,156.15168724999967,156.15168724999967,156.15168724999967,156.08361333333337,156.15168724999967,156.15168724999967,156.15168724999967,156.08361333333337,156.15168724999967,156.15168724999967,156.15168724999967,158.24352041699967,162.28449154200007,156.15168724999967,156.15168724999967,161.3174202499995,156.15168724999967,156.15168724999967,156.15168724999967,156.15168724999967,156.64098250000006,157.70905241699984,156.61288033366625,,158.24352041699967,159.312818333,158.2159292086665,,156.15168724999967,161.3174202499995,156.15168724999967,161.3174202499995,161.35717741699955,162.02394483300031,156.15168724999967,1,1,1.1855789170003845,reldom2_s017,001,2025-02-20_15h12.51.129,Where-B-Scan_AC,2022.2.5,None,
0,0.0,None,fixation,stimulus/audwhere_stim/blank_white.png,stimulus/audwhere_stim/blank_white.png,stimulus/viswhere_stim/blank_white.png,stimulus/viswhere_stim/blank_white.png,stimulus/audwhere_stim/blank_white.png,stimulus/audwhere_stim/blank_white.png,stimulus/audwhere_stim/blank_white.png,stimulus/audwhere_stim/blank_white.png,0.0,0.0,0.0,0.0,0,0.0,0,0.0,0,0.0,0,0.0,0,0.0,0.0,0,0.0,0,0.0,0,0.0,0,0.0,0,0.0,0,0.0,0,0.0,0,0.0,9,,,,,0,13,13,13,,,,,,,,,162.28449154200007,162.28449154200007,162.28449154200007,162.28449154200007,162.28449154200007,162.28449154200007,162.28449154200007,162.28449154200007,162.1961915413332,162.28449154200007,162.28449154200007,162.28449154200007,162.1961915413332,162.28449154200007,162.28449154200007,162.28449154200007,162.28449154200007,162.28449154200007,162.28449154200007,162.28449154200007,162.28449154200007,162.28449154200007,162.28449154200007,162.28449154200007,162.28449154200007,162.28449154200007,162.28449154200007,162.2461915413332,162.28449154200007,162.28449154200007,162.28449154200007,162.2461915413332,162.28449154200007,162.28449154200007,162.28449154200007,162.28449154200007,162.28449154200007,167.48335599999973,167.48335599999973,171.4048137919999,None,0,,reldom2_s017,001,2025-02-20_15h12.51.129,Where-B-Scan_AC,2022.2.5,None,
11,Second_Order,2.0,audwhere,stimulus/audwhere_stim/left_toward_280h.wav,stimulus/audwhere_stim/left_away_290h.wav,stimulus/audwhere_stim/left_away_290h.wav,stimulus/audwhere_stim/right_away_280h.wav,stimulus/audwhere_stim/match_blank.png,stimulus/audwhere_stim/match_box.png,stimulus/audwhere_stim/match_yes.png,stimulus/audwhere_stim/match_no.png,2.0,Match,Side,Direction,2,5.125,0,5.125,0,5.125,0,5.125,0,0.75,0.75,0,0.0,0,0.0,0,0.0,0,0.0,1,0.5,1,2.125,1,0.5,1,2.125,0,,,,,0,14,14,14,,,,,,,,,171.4048137919999,176.51939183299964,171.4048137919999,171.4048137919999,171.4048137919999,171.4048137919999,171.8560197500001,172.84262766699976,171.87028958366616,,173.48021770800005,174.4810373749997,173.49146154166672,174.4810373749997,176.51939183299964,177.36655220800003,179.41300437500013,,177.36655220800003,177.36655220800003,182.5328547500003,177.36655220800003,177.36655220800003,177.36655220800003,177.36655220800003,177.81182962499952,178.8792034170001,177.78374612466658,,179.41300437500013,180.44253874999958,179.3850287086664,,177.36655220800003,182.5328547500003,177.36655220800003,182.5328547500003,182.5328547500003,,177.36655220800003,2,1,0.7134263330008253,reldom2_s017,001,2025-02-20_15h12.51.129,Where-B-Scan_AC,2022.2.5,None,
12,Second_Order,2.0,audwhere,stimulus/audwhere_stim/left_away_270h.wav,stimulus/audwhere_stim/left_toward_280h.wav,stimulus/audwhere_stim/right_away_280h.wav,stimulus/audwhere_stim/right_toward_300h.wav,stimulus/audwhere_stim/match_blank.png,stimulus/audwhere_stim/match_box.png,stimulus/audwhere_stim/match_yes.png,stimulus/audwhere_stim/match_no.png,1.0,Match,Side,Side,1,5.125,0,5.125,0,5.125,0,5.125,0,0.625,0.625,0,0.0,0,0.0,0,0.0,0,0.0,1,0.5,1,2.125,1,0.5,1,2.125,0,,,,,0,15,15,15,,,,,,,,,183.34723737500008,188.46327275000021,183.34723737500008,183.34723737500008,183.34723737500008,183.34723737500008,183.8002134999997,184.78811183299968,183.81408437466624,,185.43490691700026,186.42374604199995,185.4383799166665,,188.46327275000021,189.1930716249999,191.23093241700008,,189.1930716249999,189.1930716249999,194.34475808299976,189.1930716249999,189.1930716249999,189.1930716249999,189.1930716249999,189.63486870799989,190.6988301250003,189.60699591666642,,191.23093241700008,192.30135104199962,191.2030915416665,,189.1930716249999,194.34475808299976,189.1930716249999,194.34475808299976,194.3844077499998,195.04811266700017,189.1930716249999,1,1,1.0162064579999424,reldom2_s017,001,2025-02-20_15h12.51.129,Where-B-Scan_AC,2022.2.5,None,
0,0.0,None,fixation,stimulus/audwhere_stim/blank_white.png,stimulus/audwhere_stim/blank_white.png,stimulus/viswhere_stim/blank_white.png,stimulus/viswhere_stim/blank_white.png,stimulus/audwhere_stim/blank_white.png,stimulus/audwhere_stim/blank_white.png,stimulus/audwhere_stim/blank_white.png,stimulus/audwhere_stim/blank_white.png,0.0,0.0,0.0,0.0,0,0.0,0,0.0,0,0.0,0,0.0,0,0.0,0.0,0,0.0,0,0.0,0,0.0,0,0.0,0,0.0,0,0.0,0,0.0,0,0.0,8,,,,,0,16,16,16,,,,,,,,,195.27093004200015,195.27093004200015,195.27093004200015,195.27093004200015,195.27093004200015,195.27093004200015,195.27093004200015,195.27093004200015,195.18144600033352,195.27093004200015,195.27093004200015,195.27093004200015,195.18144600033352,195.27093004200015,195.27093004200015,195.27093004200015,195.27093004200015,195.27093004200015,195.27093004200015,195.27093004200015,195.27093004200015,195.27093004200015,195.27093004200015,195.27093004200015,195.27093004200015,195.27093004200015,195.27093004200015,195.2314460003335,195.27093004200015,195.27093004200015,195.27093004200015,195.2314460003335,195.27093004200015,195.27093004200015,195.27093004200015,195.27093004200015,195.27093004200015,200.4604628750003,200.4604628750003,203.44084120800017,None,0,,reldom2_s017,001,2025-02-20_15h12.51.129,Where-B-Scan_AC,2022.2.5,None,
13,First_Order,3.0,viswhere,stimulus/viswhere_stim/blank_white.png,stimulus/viswhere_stim/blank_white.png,stimulus/viswhere_stim/150-deg_dot-left_seagreen.png,stimulus/viswhere_stim/150-deg_dot-right_royalblue.png,stimulus/viswhere_stim/blank_white.png,stimulus/viswhere_stim/line_box.png,stimulus/viswhere_stim/line_yes.png,stimulus/viswhere_stim/line_no.png,None,Line,None,Line,1,0.0,0,5.125,0,5.125,0,5.125,0,0.0,0.625,0,0.0,0,0.0,1,0.5,1,2.125,0,0.0,0,0.0,0,0.0,0,0.0,0,,,,,0,17,17,17,,,,,,,,,203.44084120800017,203.44084120800017,203.44084120800017,203.44084120800017,203.44084120800017,203.44084120800017,203.44084120800017,203.44084120800017,203.41150145799966,203.44084120800017,203.44084120800017,203.44084120800017,203.41150145799966,203.44084120800017,203.44084120800017,203.44084120800017,205.54655550000007,209.49775845800013,203.44084120800017,203.44084120800017,208.57381983300002,203.91732087499986,204.92192816700026,205.54655550000007,206.557767583,203.44084120800017,203.44084120800017,203.42816812466634,203.44084120800017,203.44084120800017,203.44084120800017,203.42816812466634,203.44084120800017,203.44084120800017,208.57381983300002,203.44084120800017,208.57381983300002,208.65672908299985,209.28598862499985,203.44084120800017,1,1,0.8224371249998512,reldom2_s017,001,2025-02-20_15h12.51.129,Where-B-Scan_AC,2022.2.5,None,
14,First_Order,3.0,viswhere,stimulus/viswhere_stim/blank_white.png,stimulus/viswhere_stim/blank_white.png,stimulus/viswhere_stim/90-deg_dot-right_cyan.png,stimulus/viswhere_stim/90-deg_dot-left_turquoise.png,stimulus/viswhere_stim/blank_white.png,stimulus/viswhere_stim/line_box.png,stimulus/viswhere_stim/line_yes.png,stimulus/viswhere_stim/line_no.png,None,Line,None,Line,1,0.0,0,5.125,0,5.125,0,5.125,0,0.0,0.625,0,0.0,0,0.0,1,0.5,1,2.125,0,0.0,0,0.0,0,0.0,0,0.0,0,,,,,0,18,18,18,,,,,,,,,209.49775845800013,209.49775845800013,209.49775845800013,209.49775845800013,209.49775845800013,209.49775845800013,209.49775845800013,209.49775845800013,209.479899958333,209.49775845800013,209.49775845800013,209.49775845800013,209.479899958333,209.49775845800013,209.49775845800013,209.49775845800013,211.60793787500006,215.55759299999954,209.49775845800013,209.49775845800013,214.63710375000028,209.98823166700004,211.00631212499957,211.60793787500006,212.61491041699992,209.49775845800013,209.49775845800013,209.479899958333,209.49775845800013,209.49775845800013,209.49775845800013,209.479899958333,209.49775845800013,209.49775845800013,214.63710375000028,209.49775845800013,214.63710375000028,214.73534091700003,215.36300704199948,209.49775845800013,1,1,0.6349877909997304,reldom2_s017,001,2025-02-20_15h12.51.129,Where-B-Scan_AC,2022.2.5,None,
15,First_Order,3.0,viswhere,stimulus/viswhere_stim/blank_white.png,stimulus/viswhere_stim/blank_white.png,stimulus/viswhere_stim/60-deg_dot-right_salmon.png,stimulus/viswhere_stim/150-deg_dot-right_turquoise.png,stimulus/viswhere_stim/blank_white.png,stimulus/viswhere_stim/dot_box.png,stimulus/viswhere_stim/dot_yes.png,stimulus/viswhere_stim/dot_no.png,None,Dot,None,Dot,1,0.0,0,5.125,0,5.125,0,5.125,0,0.0,0.625,0,0.0,0,0.0,1,0.5,1,2.125,0,0.0,0,0.0,0,0.0,0,0.0,0,,,,,0,19,19,19,,,,,,,,,215.55759299999954,215.55759299999954,215.55759299999954,215.55759299999954,215.55759299999954,215.55759299999954,215.55759299999954,215.55759299999954,215.54008391633337,215.55759299999954,215.55759299999954,215.55759299999954,215.54008391633337,215.55759299999954,215.55759299999954,215.55759299999954,217.65587770799993,221.62207516699982,215.55759299999954,215.55759299999954,220.69093900000007,216.03128783299962,217.03421549999985,217.65587770799993,218.66342712499954,215.55759299999954,215.55759299999954,215.54008391633337,215.55759299999954,215.55759299999954,215.55759299999954,215.54008391633337,215.55759299999954,215.55759299999954,220.69093900000007,215.55759299999954,220.69093900000007,220.78650433300027,221.41404258300008,215.55759299999954,1,1,1.666502125000079,reldom2_s017,001,2025-02-20_15h12.51.129,Where-B-Scan_AC,2022.2.5,None,
16,First_Order,3.0,viswhere,stimulus/viswhere_stim/blank_white.png,stimulus/viswhere_stim/blank_white.png,stimulus/viswhere_stim/120-deg_dot-left_peru.png,stimulus/viswhere_stim/120-deg_dot-right_royalblue.png,stimulus/viswhere_stim/blank_white.png,stimulus/viswhere_stim/dot_box.png,stimulus/viswhere_stim/dot_yes.png,stimulus/viswhere_stim/dot_no.png,None,Dot,None,Line,2,0.0,0,5.125,0,5.125,0,5.125,0,0.0,0.625,0,0.0,0,0.0,1,0.5,1,2.125,0,0.0,0,0.0,0,0.0,0,0.0,0,,,,,0,20,20,20,,,,,,,,,221.62207516699982,221.62207516699982,221.62207516699982,221.62207516699982,221.62207516699982,221.62207516699982,221.62207516699982,221.62207516699982,221.6043060413334,221.62207516699982,221.62207516699982,221.62207516699982,221.6043060413334,221.62207516699982,221.62207516699982,221.62207516699982,223.72833858299964,227.76088837499992,221.62207516699982,221.62207516699982,226.74984633300028,222.11283537500003,223.12791687499976,223.72833858299964,224.7343408329998,221.62207516699982,221.62207516699982,221.6043060413334,221.62207516699982,221.62207516699982,221.62207516699982,221.6043060413334,221.62207516699982,221.62207516699982,226.74984633300028,221.62207516699982,226.74984633300028,226.84314408299997,227.46469570799945,221.62207516699982,2,1,0.8941022089993567,reldom2_s017,001,2025-02-20_15h12.51.129,Where-B-Scan_AC,2022.2.5,None,
0,0.0,None,fixation,stimulus/audwhere_stim/blank_white.png,stimulus/audwhere_stim/blank_white.png,stimulus/viswhere_stim/blank_white.png,stimulus/viswhere_stim/blank_white.png,stimulus/audwhere_stim/blank_white.png,stimulus/audwhere_stim/blank_white.png,stimulus/audwhere_stim/blank_white.png,stimulus/audwhere_stim/blank_white.png,0.0,0.0,0.0,0.0,0,0.0,0,0.0,0,0.0,0,0.0,0,0.0,0.0,0,0.0,0,0.0,0,0.0,0,0.0,0,0.0,0,0.0,0,0.0,0,0.0,10,,,,,0,21,21,21,,,,,,,,,227.76088837499992,227.76088837499992,227.76088837499992,227.76088837499992,227.76088837499992,227.76088837499992,227.76088837499992,227.76088837499992,227.6676823333331,227.76088837499992,227.76088837499992,227.76088837499992,227.6676823333331,227.76088837499992,227.76088837499992,227.76088837499992,227.76088837499992,227.76088837499992,227.76088837499992,227.76088837499992,227.76088837499992,227.76088837499992,227.76088837499992,227.76088837499992,227.76088837499992,227.76088837499992,227.76088837499992,227.7176823333331,227.76088837499992,227.76088837499992,227.76088837499992,227.7176823333331,227.76088837499992,227.76088837499992,227.76088837499992,227.76088837499992,227.76088837499992,232.98996104199978,232.98996104199978,237.87967120800022,None,0,,reldom2_s017,001,2025-02-20_15h12.51.129,Where-B-Scan_AC,2022.2.5,None,
17,Second_Order,3.0,viswhere,stimulus/viswhere_stim/90-deg_dot-left_lightsseagreen.png,stimulus/viswhere_stim/90-deg_dot-right_lightsseagreen.png,stimulus/viswhere_stim/120-deg_dot-right_cyan.png,stimulus/viswhere_stim/60-deg_dot-right_royalblue.png,stimulus/audwhere_stim/match_blank.png,stimulus/audwhere_stim/match_box.png,stimulus/audwhere_stim/match_yes.png,stimulus/audwhere_stim/match_no.png,2.0,Match,Line,Dot,2,5.125,0,5.125,0,5.125,0,5.125,0,0.75,0.75,1,0.5,1,2.125,1,0.5,1,2.125,0,0.0,0,0.0,0,0.0,0,0.0,0,,,,,0,22,22,22,,,,,,,,,237.87967120800022,243.00130437499956,238.36028608299966,239.34609850000015,239.98233487499965,240.979862917,237.87967120800022,237.87967120800022,237.88101387466656,237.87967120800022,237.87967120800022,237.87967120800022,237.88101387466656,237.87967120800022,243.00130437499956,243.797060375,245.87016808299995,249.73703362499964,243.797060375,243.797060375,248.93444566699964,244.2520792919995,245.2673095829996,245.87016808299995,246.8764383329999,243.797060375,243.797060375,243.76989112533334,243.797060375,243.797060375,243.797060375,243.76989112533334,243.797060375,243.797060375,248.93444566699964,243.797060375,248.93444566699964,248.99442991700016,249.77244670799973,243.797060375,2,1,0.803882416000306,reldom2_s017,001,2025-02-20_15h12.51.129,Where-B-Scan_AC,2022.2.5,None,
18,Second_Order,3.0,viswhere,stimulus/viswhere_stim/90-deg_dot-left_lightsseagreen.png,stimulus/viswhere_stim/60-deg_dot-left_mediumslateblue.png,stimulus/viswhere_stim/60-deg_dot-right_lightsseagreen.png,stimulus/viswhere_stim/30-deg_dot-right_goldenrod.png,stimulus/audwhere_stim/match_blank.png,stimulus/audwhere_stim/match_box.png,stimulus/audwhere_stim/match_yes.png,stimulus/audwhere_stim/match_no.png,1.0,Match,Dot,Dot,1,5.125,0,5.125,0,5.125,0,5.125,0,0.625,0.625,1,0.5,1,2.125,1,0.5,1,2.125,0,0.0,0,0.0,0,0.0,0,0.0,0,,,,,0,23,23,23,,,,,,,,,249.77244670799973,254.89599391699994,250.2547045829997,251.2405060000001,251.8757929579997,252.874528458,249.77244670799973,249.77244670799973,249.78703362499965,249.77244670799973,249.77244670799973,249.77244670799973,249.78703362499965,249.77244670799973,254.89599391699994,255.57024741700025,257.65769154200007,261.67890508300025,255.57024741700025,255.57024741700025,260.69380541699957,256.0246308329997,257.0391376669995,257.65769154200007,258.6619962499999,255.57024741700025,255.57024741700025,255.54655075033367,255.57024741700025,255.57024741700025,255.57024741700025,255.54655075033367,255.57024741700025,255.57024741700025,260.69380541699957,255.57024741700025,260.69380541699957,260.76164320800035,261.38267729200015,255.57024741700025,1,1,0.8646765409994259,reldom2_s017,001,2025-02-20_15h12.51.129,Where-B-Scan_AC,2022.2.5,None,
0,0.0,None,fixation,stimulus/audwhere_stim/blank_white.png,stimulus/audwhere_stim/blank_white.png,stimulus/viswhere_stim/blank_white.png,stimulus/viswhere_stim/blank_white.png,stimulus/audwhere_stim/blank_white.png,stimulus/audwhere_stim/blank_white.png,stimulus/audwhere_stim/blank_white.png,stimulus/audwhere_stim/blank_white.png,0.0,0.0,0.0,0.0,0,0.0,0,0.0,0,0.0,0,0.0,0,0.0,0.0,0,0.0,0,0.0,0,0.0,0,0.0,0,0.0,0,0.0,0,0.0,0,0.0,9,,,,,0,24,24,24,,,,,,,,,261.67890508300025,261.67890508300025,261.67890508300025,261.67890508300025,261.67890508300025,261.67890508300025,261.67890508300025,261.67890508300025,261.5864477503331,261.67890508300025,261.67890508300025,261.67890508300025,261.5864477503331,261.67890508300025,261.67890508300025,261.67890508300025,261.67890508300025,261.67890508300025,261.67890508300025,261.67890508300025,261.67890508300025,261.67890508300025,261.67890508300025,261.67890508300025,261.67890508300025,261.67890508300025,261.67890508300025,261.6364477503331,261.67890508300025,261.67890508300025,261.67890508300025,261.6364477503331,261.67890508300025,261.67890508300025,261.67890508300025,261.67890508300025,261.67890508300025,266.86259945799975,266.86259945799975,270.8556014169999,None,0,,reldom2_s017,001,2025-02-20_15h12.51.129,Where-B-Scan_AC,2022.2.5,None,
19,First_Order,4.0,viswhere,stimulus/viswhere_stim/blank_white.png,stimulus/viswhere_stim/blank_white.png,stimulus/viswhere_stim/90-deg_dot-left_seagreen.png,stimulus/viswhere_stim/150-deg_dot-left_lightsseagreen.png,stimulus/viswhere_stim/blank_white.png,stimulus/viswhere_stim/dot_box.png,stimulus/viswhere_stim/dot_yes.png,stimulus/viswhere_stim/dot_no.png,None,Dot,None,Dot,1,0.0,0,5.125,0,5.125,0,5.125,0,0.0,0.625,0,0.0,0,0.0,1,0.5,1,2.125,0,0.0,0,0.0,0,0.0,0,0.0,0,,,,,0,25,25,25,,,,,,,,,270.8556014169999,270.8556014169999,270.8556014169999,270.8556014169999,270.8556014169999,270.8556014169999,270.8556014169999,270.8556014169999,270.82576104199995,270.8556014169999,270.8556014169999,270.8556014169999,270.82576104199995,270.8556014169999,270.8556014169999,270.8556014169999,272.96189562499967,276.9294784169997,270.8556014169999,270.8556014169999,275.9899836249997,271.3299848329998,272.3383390829995,272.96189562499967,273.9739017920001,270.8556014169999,270.8556014169999,270.8424277086666,270.8556014169999,270.8556014169999,270.8556014169999,270.8424277086666,270.8556014169999,270.8556014169999,275.9899836249997,270.8556014169999,275.9899836249997,276.0771468749999,276.6986429999997,270.8556014169999,1,1,1.1180160000003525,reldom2_s017,001,2025-02-20_15h12.51.129,Where-B-Scan_AC,2022.2.5,None,
20,First_Order,4.0,viswhere,stimulus/viswhere_stim/blank_white.png,stimulus/viswhere_stim/blank_white.png,stimulus/viswhere_stim/30-deg_dot-left_peru.png,stimulus/viswhere_stim/30-deg_dot-right_salmon.png,stimulus/viswhere_stim/blank_white.png,stimulus/viswhere_stim/dot_box.png,stimulus/viswhere_stim/dot_yes.png,stimulus/viswhere_stim/dot_no.png,None,Dot,None,Line,2,0.0,0,5.125,0,5.125,0,5.125,0,0.0,0.625,0,0.0,0,0.0,1,0.5,1,2.125,0,0.0,0,0.0,0,0.0,0,0.0,0,,,,,0,26,26,26,,,,,,,,,276.9294784169997,276.9294784169997,276.9294784169997,276.9294784169997,276.9294784169997,276.9294784169997,276.9294784169997,276.9294784169997,276.9120737503329,276.9294784169997,276.9294784169997,276.9294784169997,276.9120737503329,276.9294784169997,276.9294784169997,276.9294784169997,279.0381432920003,282.98717045800004,276.9294784169997,276.9294784169997,282.05764954200004,277.41931575000035,278.4331001669998,279.0381432920003,280.04948308300027,276.9294784169997,276.9294784169997,276.9120737503329,276.9294784169997,276.9294784169997,276.9294784169997,276.9120737503329,276.9294784169997,276.9294784169997,282.05764954200004,276.9294784169997,282.05764954200004,282.1577478749996,282.7791512920003,276.9294784169997,2,1,0.7887056250001478,reldom2_s017,001,2025-02-20_15h12.51.129,Where-B-Scan_AC,2022.2.5,None,
21,First_Order,4.0,viswhere,stimulus/viswhere_stim/blank_white.png,stimulus/viswhere_stim/blank_white.png,stimulus/viswhere_stim/60-deg_dot-left_lightsseagreen.png,stimulus/viswhere_stim/30-deg_dot-left_slateblue.png,stimulus/viswhere_stim/blank_white.png,stimulus/viswhere_stim/line_box.png,stimulus/viswhere_stim/line_yes.png,stimulus/viswhere_stim/line_no.png,None,Line,None,Dot,2,0.0,0,5.125,0,5.125,0,5.125,0,0.0,0.625,0,0.0,0,0.0,1,0.5,1,2.125,0,0.0,0,0.0,0,0.0,0,0.0,0,,,,,0,27,27,27,,,,,,,,,282.98717045800004,282.98717045800004,282.98717045800004,282.98717045800004,282.98717045800004,282.98717045800004,282.98717045800004,282.98717045800004,282.969269333333,282.98717045800004,282.98717045800004,282.98717045800004,282.969269333333,282.98717045800004,282.98717045800004,282.98717045800004,285.0907717079999,289.0510439999998,282.98717045800004,282.98717045800004,288.11126799999965,283.46209699999963,284.4676252500003,285.0907717079999,286.09976362499947,282.98717045800004,282.98717045800004,282.969269333333,282.98717045800004,282.98717045800004,282.98717045800004,282.969269333333,282.98717045800004,282.98717045800004,288.11126799999965,282.98717045800004,288.11126799999965,288.21229454199965,288.8366741250002,282.98717045800004,2,1,1.4011490419998154,reldom2_s017,001,2025-02-20_15h12.51.129,Where-B-Scan_AC,2022.2.5,None,
22,First_Order,4.0,viswhere,stimulus/viswhere_stim/blank_white.png,stimulus/viswhere_stim/blank_white.png,stimulus/viswhere_stim/120-deg_dot-right_peru.png,stimulus/viswhere_stim/150-deg_dot-right_peru.png,stimulus/viswhere_stim/blank_white.png,stimulus/viswhere_stim/line_box.png,stimulus/viswhere_stim/line_yes.png,stimulus/viswhere_stim/line_no.png,None,Line,None,Dot,2,0.0,0,5.125,0,5.125,0,5.125,0,0.0,0.625,0,0.0,0,0.0,1,0.5,1,2.125,0,0.0,0,0.0,0,0.0,0,0.0,0,,,,,0,28,28,28,,,,,,,,,289.0510439999998,289.0510439999998,289.0510439999998,289.0510439999998,289.0510439999998,289.0510439999998,289.0510439999998,289.0510439999998,289.0333397083335,289.0510439999998,289.0510439999998,289.0510439999998,289.0333397083335,289.0510439999998,289.0510439999998,289.0510439999998,291.167602083,295.1944401669998,289.0510439999998,289.0510439999998,294.1881751669998,289.5273299170003,290.53924695800015,291.167602083,292.18487537500005,289.0510439999998,289.0510439999998,289.0333397083335,289.0510439999998,289.0510439999998,289.0510439999998,289.0333397083335,289.0510439999998,289.0510439999998,294.1881751669998,289.0510439999998,294.1881751669998,294.2716448330002,294.9062023329998,289.0510439999998,2,1,0.7661122089994024,reldom2_s017,001,2025-02-20_15h12.51.129,Where-B-Scan_AC,2022.2.5,None,
0,0.0,None,fixation,stimulus/audwhere_stim/blank_white.png,stimulus/audwhere_stim/blank_white.png,stimulus/viswhere_stim/blank_white.png,stimulus/viswhere_stim/blank_white.png,stimulus/audwhere_stim/blank_white.png,stimulus/audwhere_stim/blank_white.png,stimulus/audwhere_stim/blank_white.png,stimulus/audwhere_stim/blank_white.png,0.0,0.0,0.0,0.0,0,0.0,0,0.0,0,0.0,0,0.0,0,0.0,0.0,0,0.0,0,0.0,0,0.0,0,0.0,0,0.0,0,0.0,0,0.0,0,0.0,10,,,,,0,29,29,29,,,,,,,,,295.1944401669998,295.1944401669998,295.1944401669998,295.1944401669998,295.1944401669998,295.1944401669998,295.1944401669998,295.1944401669998,295.10083200033324,295.1944401669998,295.1944401669998,295.1944401669998,295.10083200033324,295.1944401669998,295.1944401669998,295.1944401669998,295.1944401669998,295.1944401669998,295.1944401669998,295.1944401669998,295.1944401669998,295.1944401669998,295.1944401669998,295.1944401669998,295.1944401669998,295.1944401669998,295.1944401669998,295.15083200033325,295.1944401669998,295.1944401669998,295.1944401669998,295.15083200033325,295.1944401669998,295.1944401669998,295.1944401669998,295.1944401669998,295.1944401669998,300.38777541699983,300.38777541699983,305.31521299999986,None,0,,reldom2_s017,001,2025-02-20_15h12.51.129,Where-B-Scan_AC,2022.2.5,None,
23,Second_Order,4.0,viswhere,stimulus/viswhere_stim/60-deg_dot-right_peru.png,stimulus/viswhere_stim/60-deg_dot-left_royalblue.png,stimulus/viswhere_stim/90-deg_dot-left_slateblue.png,stimulus/viswhere_stim/90-deg_dot-right_royalblue.png,stimulus/audwhere_stim/match_blank.png,stimulus/audwhere_stim/match_box.png,stimulus/audwhere_stim/match_yes.png,stimulus/audwhere_stim/match_no.png,1.0,Match,Line,Line,1,5.125,0,5.125,0,5.125,0,5.125,0,0.75,0.75,1,0.5,1,2.125,1,0.5,1,2.125,0,0.0,0,0.0,0,0.0,0,0.0,0,,,,,0,30,30,30,,,,,,,,,305.31521299999986,310.4281907499999,305.79836370799967,306.78716387500026,307.42112712499966,308.41924541699973,305.31521299999986,305.31521299999986,305.31539262466674,305.31521299999986,305.31521299999986,305.31521299999986,305.31539262466674,305.31521299999986,310.4281907499999,311.2217991669995,313.2962417919998,317.1906829999998,311.2217991669995,311.2217991669995,316.3534493750003,311.6807601669998,312.68813862499974,313.2962417919998,314.3133547079997,311.2217991669995,311.2217991669995,311.19520900033285,311.2217991669995,311.2217991669995,311.2217991669995,311.19520900033285,311.2217991669995,311.2217991669995,316.3534493750003,311.2217991669995,316.3534493750003,316.4224326249996,317.1906829999998,311.2217991669995,1,1,0.6836818749998201,reldom2_s017,001,2025-02-20_15h12.51.129,Where-B-Scan_AC,2022.2.5,None,
24,Second_Order,4.0,viswhere,stimulus/viswhere_stim/120-deg_dot-left_peru.png,stimulus/viswhere_stim/120-deg_dot-right_peru.png,stimulus/viswhere_stim/30-deg_dot-right_peru.png,stimulus/viswhere_stim/30-deg_dot-left_lightsseagreen.png,stimulus/audwhere_stim/match_blank.png,stimulus/audwhere_stim/match_box.png,stimulus/audwhere_stim/match_yes.png,stimulus/audwhere_stim/match_no.png,1.0,Match,Line,Line,1,5.125,0,5.125,0,5.125,0,5.125,0,0.625,0.625,1,0.5,1,2.125,1,0.5,1,2.125,0,0.0,0,0.0,0,0.0,0,0.0,0,,,,,0,31,31,31,,,,,,,,,317.1906829999998,322.30512779200035,317.67796120799994,318.6763698750001,319.29882412499956,320.29660608299946,317.1906829999998,317.1906829999998,317.205164625,317.1906829999998,317.1906829999998,317.1906829999998,317.205164625,317.1906829999998,322.30512779200035,322.9772470830003,325.05140862499957,329.0856435830001,322.9772470830003,322.9772470830003,328.099852542,323.4314979999999,324.4507549580003,325.05140862499957,326.05852983299974,322.9772470830003,322.9772470830003,322.95311279133284,322.9772470830003,322.9772470830003,322.9772470830003,322.95311279133284,322.9772470830003,322.9772470830003,328.099852542,322.9772470830003,328.099852542,328.1676397499996,328.78860799999984,322.9772470830003,1,1,0.6757550829997854,reldom2_s017,001,2025-02-20_15h12.51.129,Where-B-Scan_AC,2022.2.5,None,
0,0.0,None,fixation,stimulus/audwhere_stim/blank_white.png,stimulus/audwhere_stim/blank_white.png,stimulus/viswhere_stim/blank_white.png,stimulus/viswhere_stim/blank_white.png,stimulus/audwhere_stim/blank_white.png,stimulus/audwhere_stim/blank_white.png,stimulus/audwhere_stim/blank_white.png,stimulus/audwhere_stim/blank_white.png,0.0,0.0,0.0,0.0,0,0.0,0,0.0,0,0.0,0,0.0,0,0.0,0.0,0,0.0,0,0.0,0,0.0,0,0.0,0,0.0,0,0.0,0,0.0,0,0.0,9,,,,,0,32,32,32,,,,,,,,,329.0856435830001,329.0856435830001,329.0856435830001,329.0856435830001,329.0856435830001,329.0856435830001,329.0856435830001,329.0856435830001,328.99237912533346,329.0856435830001,329.0856435830001,329.0856435830001,328.99237912533346,329.0856435830001,329.0856435830001,329.0856435830001,329.0856435830001,329.0856435830001,329.0856435830001,329.0856435830001,329.0856435830001,329.0856435830001,329.0856435830001,329.0856435830001,329.0856435830001,329.0856435830001,329.0856435830001,329.04237912533347,329.0856435830001,329.0856435830001,329.0856435830001,329.04237912533347,329.0856435830001,329.0856435830001,329.0856435830001,329.0856435830001,329.0856435830001,334.3082112920001,334.3082112920001,338.32731670799967,None,0,,reldom2_s017,001,2025-02-20_15h12.51.129,Where-B-Scan_AC,2022.2.5,None,
25,First_Order,5.0,audwhere,stimulus/audwhere_stim/dummy.wav,stimulus/audwhere_stim/dummy.wav,stimulus/audwhere_stim/right_toward_280h.wav,stimulus/audwhere_stim/right_away_290h.wav,stimulus/audwhere_stim/blank_white.png,stimulus/audwhere_stim/side_box.png,stimulus/audwhere_stim/side_yes.png,stimulus/audwhere_stim/side_no.png,None,Side,None,Side,1,0.0,0,5.125,0,5.125,0,5.125,0,0.0,0.625,0,0.0,0,0.0,0,0.0,0,0.0,0,0.0,0,0.0,1,0.5,1,2.125,0,,,,,0,33,33,33,,,,,,,,,338.32731670799967,338.32731670799967,338.32731670799967,338.32731670799967,338.32731670799967,338.32731670799967,338.32731670799967,338.32731670799967,338.2615649166661,338.32731670799967,338.32731670799967,338.32731670799967,338.2615649166661,338.32731670799967,338.32731670799967,338.32731670799967,340.4142583749999,,338.32731670799967,338.32731670799967,343.50656145799985,338.32731670799967,338.32731670799967,338.32731670799967,338.32731670799967,338.7794576670003,339.82673262499975,338.75116633366656,,340.4142583749999,341.4616949169995,340.3857251246666,,338.32731670799967,343.50656145799985,338.32731670799967,343.50656145799985,343.5467474999996,344.2219527500001,338.32731670799967,1,1,0.7821814999997514,reldom2_s017,001,2025-02-20_15h12.51.129,Where-B-Scan_AC,2022.2.5,None,
26,First_Order,5.0,audwhere,stimulus/audwhere_stim/dummy.wav,stimulus/audwhere_stim/dummy.wav,stimulus/audwhere_stim/right_toward_300h.wav,stimulus/audwhere_stim/left_toward_270h.wav,stimulus/audwhere_stim/blank_white.png,stimulus/audwhere_stim/direction_box.png,stimulus/audwhere_stim/direction_yes.png,stimulus/audwhere_stim/direction_no.png,None,Direction,None,Direction,1,0.0,0,5.125,0,5.125,0,5.125,0,0.0,0.625,0,0.0,0,0.0,0,0.0,0,0.0,0,0.0,0,0.0,1,0.5,1,2.125,0,,,,,0,34,34,34,,,,,,,,,344.43051637499957,344.43051637499957,344.43051637499957,344.43051637499957,344.43051637499957,344.43051637499957,344.43051637499957,344.43051637499957,344.35528608333345,344.43051637499957,344.43051637499957,344.43051637499957,344.35528608333345,344.43051637499957,344.43051637499957,344.43051637499957,346.53346112500003,,344.43051637499957,344.43051637499957,349.5984804999998,344.43051637499957,344.43051637499957,344.43051637499957,344.43051637499957,344.8884393749995,345.93995887500023,344.85931270866627,,346.53346112500003,347.5867318749997,346.50404141666627,,344.43051637499957,349.5984804999998,344.43051637499957,349.5984804999998,349.63892858300005,350.32412258299973,344.43051637499957,1,1,1.6199686250001832,reldom2_s017,001,2025-02-20_15h12.51.129,Where-B-Scan_AC,2022.2.5,None,
27,First_Order,5.0,audwhere,stimulus/audwhere_stim/dummy.wav,stimulus/audwhere_stim/dummy.wav,stimulus/audwhere_stim/left_toward_290h.wav,stimulus/audwhere_stim/left_away_300h.wav,stimulus/audwhere_stim/blank_white.png,stimulus/audwhere_stim/direction_box.png,stimulus/audwhere_stim/direction_yes.png,stimulus/audwhere_stim/direction_no.png,None,Direction,None,Side,2,0.0,0,5.125,0,5.125,0,5.125,0,0.0,0.625,0,0.0,0,0.0,0,0.0,0,0.0,0,0.0,0,0.0,1,0.5,1,2.125,0,,,,,0,35,35,35,,,,,,,,,350.5331739579997,350.5331739579997,350.5331739579997,350.5331739579997,350.5331739579997,350.5331739579997,350.5331739579997,350.5331739579997,350.45745591633306,350.5331739579997,350.5331739579997,350.5331739579997,350.45745591633306,350.5331739579997,350.5331739579997,350.5331739579997,352.64361845799976,356.6512105419997,350.5331739579997,350.5331739579997,355.7179704170003,350.5331739579997,350.5331739579997,350.5331739579997,350.5331739579997,350.9913549169996,352.04855020800005,350.9622633336669,,352.64361845799976,353.6998879169996,352.6141150416663,,350.5331739579997,355.7179704170003,350.5331739579997,355.7179704170003,355.75974479199976,356.4421378750003,350.5331739579997,2,1,1.5328570829997261,reldom2_s017,001,2025-02-20_15h12.51.129,Where-B-Scan_AC,2022.2.5,None,
28,First_Order,5.0,audwhere,stimulus/audwhere_stim/dummy.wav,stimulus/audwhere_stim/dummy.wav,stimulus/audwhere_stim/right_away_300h.wav,stimulus/audwhere_stim/right_toward_290h.wav,stimulus/audwhere_stim/blank_white.png,stimulus/audwhere_stim/direction_box.png,stimulus/audwhere_stim/direction_yes.png,stimulus/audwhere_stim/direction_no.png,None,Direction,None,Side,2,0.0,0,5.125,0,5.125,0,5.125,0,0.0,0.625,0,0.0,0,0.0,0,0.0,0,0.0,0,0.0,0,0.0,1,0.5,1,2.125,0,,,,,0,36,36,36,,,,,,,,,356.6512105419997,356.6512105419997,356.6512105419997,356.6512105419997,356.6512105419997,356.6512105419997,356.6512105419997,356.6512105419997,356.5754712083336,356.6512105419997,356.6512105419997,356.6512105419997,356.5754712083336,356.6512105419997,356.6512105419997,356.6512105419997,358.7600110829999,362.78796908299955,356.6512105419997,356.6512105419997,361.83453550000013,356.6512105419997,356.6512105419997,356.6512105419997,356.6512105419997,357.1096699999998,358.16666199999963,357.08018191666656,,358.7600110829999,359.81895712499954,358.73133262466695,,356.6512105419997,361.83453550000013,356.6512105419997,361.83453550000013,361.8750595829997,362.55887758300014,356.6512105419997,2,1,1.4468834999997853,reldom2_s017,001,2025-02-20_15h12.51.129,Where-B-Scan_AC,2022.2.5,None,
0,0.0,None,fixation,stimulus/audwhere_stim/blank_white.png,stimulus/audwhere_stim/blank_white.png,stimulus/viswhere_stim/blank_white.png,stimulus/viswhere_stim/blank_white.png,stimulus/audwhere_stim/blank_white.png,stimulus/audwhere_stim/blank_white.png,stimulus/audwhere_stim/blank_white.png,stimulus/audwhere_stim/blank_white.png,0.0,0.0,0.0,0.0,0,0.0,0,0.0,0,0.0,0,0.0,0,0.0,0.0,0,0.0,0,0.0,0,0.0,0,0.0,0,0.0,0,0.0,0,0.0,0,0.0,10,,,,,0,37,37,37,,,,,,,,,362.78796908299955,362.78796908299955,362.78796908299955,362.78796908299955,362.78796908299955,362.78796908299955,362.78796908299955,362.78796908299955,362.69221091633347,362.78796908299955,362.78796908299955,362.78796908299955,362.69221091633347,362.78796908299955,362.78796908299955,362.78796908299955,362.78796908299955,362.78796908299955,362.78796908299955,362.78796908299955,362.78796908299955,362.78796908299955,362.78796908299955,362.78796908299955,362.78796908299955,362.78796908299955,362.78796908299955,362.7422109163335,362.78796908299955,362.78796908299955,362.78796908299955,362.7422109163335,362.78796908299955,362.78796908299955,362.78796908299955,362.78796908299955,362.78796908299955,367.9908386669995,367.9908386669995,372.91688070799955,None,0,,reldom2_s017,001,2025-02-20_15h12.51.129,Where-B-Scan_AC,2022.2.5,None,
29,Second_Order,5.0,audwhere,stimulus/audwhere_stim/right_toward_270h.wav,stimulus/audwhere_stim/right_away_280h.wav,stimulus/audwhere_stim/left_away_270h.wav,stimulus/audwhere_stim/right_away_300h.wav,stimulus/audwhere_stim/match_blank.png,stimulus/audwhere_stim/match_box.png,stimulus/audwhere_stim/match_yes.png,stimulus/audwhere_stim/match_no.png,2.0,Match,Side,Direction,2,5.125,0,5.125,0,5.125,0,5.125,0,0.75,0.75,0,0.0,0,0.0,0,0.0,0,0.0,1,0.5,1,2.125,1,0.5,1,2.125,0,,,,,0,38,38,38,,,,,,,,,372.91688070799955,378.03503337500024,372.91688070799955,372.91688070799955,372.91688070799955,372.91688070799955,373.3731520000001,374.371269792,373.3858489166662,,374.99463495799955,375.99205487499967,375.0066568746663,,378.03503337500024,378.88453112499974,380.960882333,384.87619687499955,378.88453112499974,378.88453112499974,384.0458189579995,378.88453112499974,378.88453112499974,378.88453112499974,378.88453112499974,379.3344822500003,380.3739890420002,379.3061684996667,,380.960882333,382.0062591249998,380.93236291666676,,378.88453112499974,384.0458189579995,378.88453112499974,384.0458189579995,384.0458189579995,,378.88453112499974,2,1,1.0251833749998696,reldom2_s017,001,2025-02-20_15h12.51.129,Where-B-Scan_AC,2022.2.5,None,
30,Second_Order,5.0,audwhere,stimulus/audwhere_stim/right_away_300h.wav,stimulus/audwhere_stim/right_toward_300h.wav,stimulus/audwhere_stim/left_toward_290h.wav,stimulus/audwhere_stim/left_away_270h.wav,stimulus/audwhere_stim/match_blank.png,stimulus/audwhere_stim/match_box.png,stimulus/audwhere_stim/match_yes.png,stimulus/audwhere_stim/match_no.png,1.0,Match,Side,Side,1,5.125,0,5.125,0,5.125,0,5.125,0,0.625,0.625,0,0.0,0,0.0,0,0.0,0,0.0,1,0.5,1,2.125,1,0.5,1,2.125,0,,,,,0,39,39,39,,,,,,,,,384.87619687499955,389.9955984999997,384.87619687499955,384.87619687499955,384.87619687499955,384.87619687499955,385.3337138750003,386.33249524999974,385.34650604166677,,386.95535312500033,387.9529299579999,386.96717895866664,,389.9955984999997,390.72483012500015,392.7871947499998,396.83439375000034,390.72483012500015,390.72483012500015,395.8947691249996,390.72483012500015,390.72483012500015,390.72483012500015,390.72483012500015,391.17154454199954,392.20367412500036,391.14337574966635,,392.7871947499998,393.8261014999998,392.758810833667,,390.72483012500015,395.8947691249996,390.72483012500015,395.8947691249996,395.8947691249996,396.56840504199954,390.72483012500015,1,1,1.1266721660003896,reldom2_s017,001,2025-02-20_15h12.51.129,Where-B-Scan_AC,2022.2.5,None,
0,0.0,None,fixation,stimulus/audwhere_stim/blank_white.png,stimulus/audwhere_stim/blank_white.png,stimulus/viswhere_stim/blank_white.png,stimulus/viswhere_stim/blank_white.png,stimulus/audwhere_stim/blank_white.png,stimulus/audwhere_stim/blank_white.png,stimulus/audwhere_stim/blank_white.png,stimulus/audwhere_stim/blank_white.png,0.0,0.0,0.0,0.0,0,0.0,0,0.0,0,0.0,0,0.0,0,0.0,0.0,0,0.0,0,0.0,0,0.0,0,0.0,0,0.0,0,0.0,0,0.0,0,0.0,8,,,,,0,40,40,40,,,,,,,,,396.83439375000034,396.83439375000034,396.83439375000034,396.83439375000034,396.83439375000034,396.83439375000034,396.83439375000034,396.83439375000034,396.74137400033317,396.83439375000034,396.83439375000034,396.83439375000034,396.74137400033317,396.83439375000034,396.83439375000034,396.83439375000034,396.83439375000034,396.83439375000034,396.83439375000034,396.83439375000034,396.83439375000034,396.83439375000034,396.83439375000034,396.83439375000034,396.83439375000034,396.83439375000034,396.83439375000034,396.7913740003332,396.83439375000034,396.83439375000034,396.83439375000034,396.7913740003332,396.83439375000034,396.83439375000034,396.83439375000034,396.83439375000034,396.83439375000034,402.06782099999964,402.06782099999964,405.05787375,None,0,,reldom2_s017,001,2025-02-20_15h12.51.129,Where-B-Scan_AC,2022.2.5,None,
31,First_Order,6.0,audwhere,stimulus/audwhere_stim/dummy.wav,stimulus/audwhere_stim/dummy.wav,stimulus/audwhere_stim/left_toward_270h.wav,stimulus/audwhere_stim/right_toward_280h.wav,stimulus/audwhere_stim/blank_white.png,stimulus/audwhere_stim/side_box.png,stimulus/audwhere_stim/side_yes.png,stimulus/audwhere_stim/side_no.png,None,Side,None,Direction,2,0.0,0,5.125,0,5.125,0,5.125,0,0.0,0.625,0,0.0,0,0.0,0,0.0,0,0.0,0,0.0,0,0.0,1,0.5,1,2.125,0,,,,,0,41,41,41,,,,,,,,,405.05787375,405.05787375,405.05787375,405.05787375,405.05787375,405.05787375,405.05787375,405.05787375,404.9919145416667,405.05787375,405.05787375,405.05787375,404.9919145416667,405.05787375,405.05787375,405.05787375,407.14799700000003,411.1688363329995,405.05787375,405.05787375,410.24279987499995,405.05787375,405.05787375,405.05787375,405.05787375,405.51359366700035,406.55980091699985,405.4846692916665,406.51425391700013,407.14799700000003,408.1977522919997,407.1192506246664,,405.05787375,410.24279987499995,405.05787375,410.24279987499995,410.28292458299984,410.9606437499997,405.05787375,2,1,1.1289485000006607,reldom2_s017,001,2025-02-20_15h12.51.129,Where-B-Scan_AC,2022.2.5,None,
32,First_Order,6.0,audwhere,stimulus/audwhere_stim/dummy.wav,stimulus/audwhere_stim/dummy.wav,stimulus/audwhere_stim/right_toward_280h.wav,stimulus/audwhere_stim/left_toward_290h.wav,stimulus/audwhere_stim/blank_white.png,stimulus/audwhere_stim/direction_box.png,stimulus/audwhere_stim/direction_yes.png,stimulus/audwhere_stim/direction_no.png,None,Direction,None,Direction,1,0.0,0,5.125,0,5.125,0,5.125,0,0.0,0.625,0,0.0,0,0.0,0,0.0,0,0.0,0,0.0,0,0.0,1,0.5,1,2.125,0,,,,,0,42,42,42,,,,,,,,,411.1688363329995,411.1688363329995,411.1688363329995,411.1688363329995,411.1688363329995,411.1688363329995,411.1688363329995,411.1688363329995,411.093977083333,411.1688363329995,411.1688363329995,411.1688363329995,411.093977083333,411.1688363329995,411.1688363329995,411.1688363329995,413.27426275000016,,411.1688363329995,411.1688363329995,416.346483542,411.1688363329995,411.1688363329995,411.1688363329995,411.1688363329995,411.6250547079999,412.6792741250001,411.5962474996661,,413.27426275000016,414.33198383299987,413.2447199586661,,411.1688363329995,416.346483542,411.1688363329995,416.346483542,416.38644162499986,417.0683707500002,411.1688363329995,1,1,1.8425834999998187,reldom2_s017,001,2025-02-20_15h12.51.129,Where-B-Scan_AC,2022.2.5,None,
33,First_Order,6.0,audwhere,stimulus/audwhere_stim/dummy.wav,stimulus/audwhere_stim/dummy.wav,stimulus/audwhere_stim/left_toward_270h.wav,stimulus/audwhere_stim/left_away_300h.wav,stimulus/audwhere_stim/blank_white.png,stimulus/audwhere_stim/side_box.png,stimulus/audwhere_stim/side_yes.png,stimulus/audwhere_stim/side_no.png,None,Side,None,Side,1,0.0,0,5.125,0,5.125,0,5.125,0,0.0,0.625,0,0.0,0,0.0,0,0.0,0,0.0,0,0.0,0,0.0,1,0.5,1,2.125,0,,,,,0,43,43,43,,,,,,,,,417.2767483329999,417.2767483329999,417.2767483329999,417.2767483329999,417.2767483329999,417.2767483329999,417.2767483329999,417.2767483329999,417.20170408333354,417.2767483329999,417.2767483329999,417.2767483329999,417.20170408333354,417.2767483329999,417.2767483329999,417.2767483329999,419.37509308300014,,417.2767483329999,417.2767483329999,422.4387224579996,417.2767483329999,417.2767483329999,417.2767483329999,417.2767483329999,417.7346010829997,418.7817739579996,417.7041629996668,,419.37509308300014,420.42720174999977,419.34576608366683,,417.2767483329999,422.4387224579996,417.2767483329999,422.4387224579996,422.4787999170003,423.15950449999946,417.2767483329999,1,1,1.208091333000084,reldom2_s017,001,2025-02-20_15h12.51.129,Where-B-Scan_AC,2022.2.5,None,
34,First_Order,6.0,audwhere,stimulus/audwhere_stim/dummy.wav,stimulus/audwhere_stim/dummy.wav,stimulus/audwhere_stim/right_toward_300h.wav,stimulus/audwhere_stim/left_toward_290h.wav,stimulus/audwhere_stim/blank_white.png,stimulus/audwhere_stim/side_box.png,stimulus/audwhere_stim/side_yes.png,stimulus/audwhere_stim/side_no.png,None,Side,None,Direction,2,0.0,0,5.125,0,5.125,0,5.125,0,0.0,0.625,0,0.0,0,0.0,0,0.0,0,0.0,0,0.0,0,0.0,1,0.5,1,2.125,0,,,,,0,44,44,44,,,,,,,,,423.36833899999965,423.36833899999965,423.36833899999965,423.36833899999965,423.36833899999965,423.36833899999965,423.36833899999965,423.36833899999965,423.2928378333328,423.36833899999965,423.36833899999965,423.36833899999965,423.2928378333328,423.36833899999965,423.36833899999965,423.36833899999965,425.4723054999995,,423.36833899999965,423.36833899999965,428.53537208299986,423.36833899999965,423.36833899999965,423.36833899999965,423.36833899999965,423.8261902920003,424.87724770800014,423.7965107916664,,425.4723054999995,426.526001792,425.44277099966644,,423.36833899999965,428.53537208299986,423.36833899999965,428.53537208299986,428.5755448330001,429.25852708299954,423.36833899999965,2,1,1.266701125000509,reldom2_s017,001,2025-02-20_15h12.51.129,Where-B-Scan_AC,2022.2.5,None,
0,0.0,None,fixation,stimulus/audwhere_stim/blank_white.png,stimulus/audwhere_stim/blank_white.png,stimulus/viswhere_stim/blank_white.png,stimulus/viswhere_stim/blank_white.png,stimulus/audwhere_stim/blank_white.png,stimulus/audwhere_stim/blank_white.png,stimulus/audwhere_stim/blank_white.png,stimulus/audwhere_stim/blank_white.png,0.0,0.0,0.0,0.0,0,0.0,0,0.0,0,0.0,0,0.0,0,0.0,0.0,0,0.0,0,0.0,0,0.0,0,0.0,0,0.0,0,0.0,0,0.0,0,0.0,8,,,,,0,45,45,45,,,,,,,,,429.4886408330003,429.4886408330003,429.4886408330003,429.4886408330003,429.4886408330003,429.4886408330003,429.4886408330003,429.4886408330003,429.39186041633286,429.4886408330003,429.4886408330003,429.4886408330003,429.39186041633286,429.4886408330003,429.4886408330003,429.4886408330003,429.4886408330003,429.4886408330003,429.4886408330003,429.4886408330003,429.4886408330003,429.4886408330003,429.4886408330003,429.4886408330003,429.4886408330003,429.4886408330003,429.4886408330003,429.4418604163329,429.4886408330003,429.4886408330003,429.4886408330003,429.4418604163329,429.4886408330003,429.4886408330003,429.4886408330003,429.4886408330003,429.4886408330003,434.69939541700023,434.69939541700023,437.62609933299973,None,0,,reldom2_s017,001,2025-02-20_15h12.51.129,Where-B-Scan_AC,2022.2.5,None,
35,Second_Order,6.0,audwhere,stimulus/audwhere_stim/left_toward_280h.wav,stimulus/audwhere_stim/right_toward_270h.wav,stimulus/audwhere_stim/left_away_300h.wav,stimulus/audwhere_stim/right_away_280h.wav,stimulus/audwhere_stim/match_blank.png,stimulus/audwhere_stim/match_box.png,stimulus/audwhere_stim/match_yes.png,stimulus/audwhere_stim/match_no.png,1.0,Match,Direction,Direction,1,5.125,0,5.125,0,5.125,0,5.125,0,0.75,0.75,0,0.0,0,0.0,0,0.0,0,0.0,1,0.5,1,2.125,1,0.5,1,2.125,0,,,,,0,46,46,46,,,,,,,,,437.62609933299973,442.75232654199954,437.62609933299973,437.62609933299973,437.62609933299973,437.62609933299973,438.09009120799965,439.08802370800004,438.10254074966656,,439.71054470800027,440.70816558299975,439.7225881666666,,442.75232654199954,443.5994811669998,445.6390375000001,,443.5994811669998,443.5994811669998,448.7785542499996,443.5994811669998,443.5994811669998,443.5994811669998,443.5994811669998,444.0515686250001,445.09446579199994,444.02297033366654,,445.6390375000001,446.6879985830001,445.6101337916664,,443.5994811669998,448.7785542499996,443.5994811669998,448.7785542499996,448.7785542499996,,443.5994811669998,1,1,1.771723374999965,reldom2_s017,001,2025-02-20_15h12.51.129,Where-B-Scan_AC,2022.2.5,None,
36,Second_Order,6.0,audwhere,stimulus/audwhere_stim/left_toward_300h.wav,stimulus/audwhere_stim/right_toward_280h.wav,stimulus/audwhere_stim/left_away_300h.wav,stimulus/audwhere_stim/right_away_300h.wav,stimulus/audwhere_stim/match_blank.png,stimulus/audwhere_stim/match_box.png,stimulus/audwhere_stim/match_yes.png,stimulus/audwhere_stim/match_no.png,1.0,Match,Direction,Direction,1,5.125,0,5.125,0,5.125,0,5.125,0,0.625,0.625,0,0.0,0,0.0,0,0.0,0,0.0,1,0.5,1,2.125,1,0.5,1,2.125,0,,,,,0,47,47,47,,,,,,,,,449.56915087499965,454.6907484579997,449.56915087499965,449.56915087499965,449.56915087499965,449.56915087499965,450.0295011669996,451.01926062500024,450.03263683366663,451.01926062500024,451.6547091249995,452.65257870799996,451.6668115416662,,454.6907484579997,455.4260841670002,457.4938608330003,,455.4260841670002,455.4260841670002,460.61430050000035,455.4260841670002,455.4260841670002,455.4260841670002,455.4260841670002,455.87486983300005,456.90852158300004,455.8462627086667,,457.4938608330003,458.5341570419996,457.46524820866694,,455.4260841670002,460.61430050000035,455.4260841670002,460.61430050000035,460.61430050000035,461.28893337499994,455.4260841670002,1,1,0.9427318749994811,reldom2_s017,001,2025-02-20_15h12.51.129,Where-B-Scan_AC,2022.2.5,None,
0,0.0,None,fixation,stimulus/audwhere_stim/blank_white.png,stimulus/audwhere_stim/blank_white.png,stimulus/viswhere_stim/blank_white.png,stimulus/viswhere_stim/blank_white.png,stimulus/audwhere_stim/blank_white.png,stimulus/audwhere_stim/blank_white.png,stimulus/audwhere_stim/blank_white.png,stimulus/audwhere_stim/blank_white.png,0.0,0.0,0.0,0.0,0,0.0,0,0.0,0,0.0,0,0.0,0,0.0,0.0,0,0.0,0,0.0,0,0.0,0,0.0,0,0.0,0,0.0,0,0.0,0,0.0,10,,,,,0,48,48,48,,,,,,,,,461.51596533300017,461.51596533300017,461.51596533300017,461.51596533300017,461.51596533300017,461.51596533300017,461.51596533300017,461.51596533300017,461.42226670833327,461.51596533300017,461.51596533300017,461.51596533300017,461.42226670833327,461.51596533300017,461.51596533300017,461.51596533300017,461.51596533300017,461.51596533300017,461.51596533300017,461.51596533300017,461.51596533300017,461.51596533300017,461.51596533300017,461.51596533300017,461.51596533300017,461.51596533300017,461.51596533300017,461.4722667083333,461.51596533300017,461.51596533300017,461.51596533300017,461.4722667083333,461.51596533300017,461.51596533300017,461.51596533300017,461.51596533300017,461.51596533300017,466.7093494999999,466.7093494999999,471.6910527079999,None,0,,reldom2_s017,001,2025-02-20_15h12.51.129,Where-B-Scan_AC,2022.2.5,None,
37,First_Order,7.0,viswhere,stimulus/viswhere_stim/blank_white.png,stimulus/viswhere_stim/blank_white.png,stimulus/viswhere_stim/150-deg_dot-left_turquoise.png,stimulus/viswhere_stim/120-deg_dot-left_mediumslateblue.png,stimulus/viswhere_stim/blank_white.png,stimulus/viswhere_stim/line_box.png,stimulus/viswhere_stim/line_yes.png,stimulus/viswhere_stim/line_no.png,None,Line,None,Dot,2,0.0,0,5.125,0,5.125,0,5.125,0,0.0,0.625,0,0.0,0,0.0,1,0.5,1,2.125,0,0.0,0,0.0,0,0.0,0,0.0,0,,,,,0,49,49,49,,,,,,,,,471.6910527079999,471.6910527079999,471.6910527079999,471.6910527079999,471.6910527079999,471.6910527079999,471.6910527079999,471.6910527079999,471.6749010836662,471.6910527079999,471.6910527079999,471.6910527079999,471.6749010836662,471.6910527079999,471.6910527079999,471.6910527079999,473.7947422919997,477.75596916700033,471.6910527079999,471.6910527079999,476.81579712500024,472.1707062919995,473.1831089999996,473.7947422919997,474.81166779199975,471.6910527079999,471.6910527079999,471.6749010836662,471.6910527079999,471.6910527079999,471.6910527079999,471.6749010836662,471.6910527079999,471.6910527079999,476.81579712500024,471.6910527079999,476.81579712500024,476.91195287499977,477.53918754200004,471.6910527079999,2,1,0.7176992080003401,reldom2_s017,001,2025-02-20_15h12.51.129,Where-B-Scan_AC,2022.2.5,None,
38,First_Order,7.0,viswhere,stimulus/viswhere_stim/blank_white.png,stimulus/viswhere_stim/blank_white.png,stimulus/viswhere_stim/120-deg_dot-left_mediumslateblue.png,stimulus/viswhere_stim/120-deg_dot-right_seagreen.png,stimulus/viswhere_stim/blank_white.png,stimulus/viswhere_stim/dot_box.png,stimulus/viswhere_stim/dot_yes.png,stimulus/viswhere_stim/dot_no.png,None,Dot,None,Line,2,0.0,0,5.125,0,5.125,0,5.125,0,0.0,0.625,0,0.0,0,0.0,1,0.5,1,2.125,0,0.0,0,0.0,0,0.0,0,0.0,0,,,,,0,50,50,50,,,,,,,,,477.75596916700033,477.75596916700033,477.75596916700033,477.75596916700033,477.75596916700033,477.75596916700033,477.75596916700033,477.75596916700033,477.7362697913334,477.75596916700033,477.75596916700033,477.75596916700033,477.7362697913334,477.75596916700033,477.75596916700033,477.75596916700033,479.85807770799966,483.81412033299966,477.75596916700033,477.75596916700033,482.89179066700035,478.229919292,479.23297383299996,479.85807770799966,480.86696691700035,477.75596916700033,477.75596916700033,477.7362697913334,477.75596916700033,477.75596916700033,477.75596916700033,477.7362697913334,477.75596916700033,477.75596916700033,482.89179066700035,477.75596916700033,482.89179066700035,482.9794074169995,483.609994292,477.75596916700033,2,1,0.822924791999867,reldom2_s017,001,2025-02-20_15h12.51.129,Where-B-Scan_AC,2022.2.5,None,
39,First_Order,7.0,viswhere,stimulus/viswhere_stim/blank_white.png,stimulus/viswhere_stim/blank_white.png,stimulus/viswhere_stim/60-deg_dot-right_salmon.png,stimulus/viswhere_stim/60-deg_dot-left_peru.png,stimulus/viswhere_stim/blank_white.png,stimulus/viswhere_stim/line_box.png,stimulus/viswhere_stim/line_yes.png,stimulus/viswhere_stim/line_no.png,None,Line,None,Line,1,0.0,0,5.125,0,5.125,0,5.125,0,0.0,0.625,0,0.0,0,0.0,1,0.5,1,2.125,0,0.0,0,0.0,0,0.0,0,0.0,0,,,,,0,51,51,51,,,,,,,,,483.81412033299966,483.81412033299966,483.81412033299966,483.81412033299966,483.81412033299966,483.81412033299966,483.81412033299966,483.81412033299966,483.79362954133313,483.81412033299966,483.81412033299966,483.81412033299966,483.79362954133313,483.81412033299966,483.81412033299966,483.81412033299966,485.92119300000013,489.881029958,483.81412033299966,483.81412033299966,488.94862204200035,484.2898008330003,485.294385917,485.92119300000013,486.934616042,483.81412033299966,483.81412033299966,483.79362954133313,483.81412033299966,483.81412033299966,483.81412033299966,483.79362954133313,483.81412033299966,483.81412033299966,488.94862204200035,483.81412033299966,488.94862204200035,489.042795417,489.6636611670001,483.81412033299966,1,1,0.8129447499995877,reldom2_s017,001,2025-02-20_15h12.51.129,Where-B-Scan_AC,2022.2.5,None,
40,First_Order,7.0,viswhere,stimulus/viswhere_stim/blank_white.png,stimulus/viswhere_stim/blank_white.png,stimulus/viswhere_stim/60-deg_dot-right_slateblue.png,stimulus/viswhere_stim/90-deg_dot-right_royalblue.png,stimulus/viswhere_stim/blank_white.png,stimulus/viswhere_stim/dot_box.png,stimulus/viswhere_stim/dot_yes.png,stimulus/viswhere_stim/dot_no.png,None,Dot,None,Dot,1,0.0,0,5.125,0,5.125,0,5.125,0,0.0,0.625,0,0.0,0,0.0,1,0.5,1,2.125,0,0.0,0,0.0,0,0.0,0,0.0,0,,,,,0,52,52,52,,,,,,,,,489.881029958,489.881029958,489.881029958,489.881029958,489.881029958,489.881029958,489.881029958,489.881029958,489.86144987533345,489.881029958,489.881029958,489.881029958,489.86144987533345,489.881029958,489.881029958,489.881029958,491.9897662499998,496.02994070800014,489.881029958,489.881029958,495.02011208299973,490.35648729199966,491.363198,491.9897662499998,493.00362829200003,489.881029958,489.881029958,489.86144987533345,489.881029958,489.881029958,489.881029958,489.86144987533345,489.881029958,489.881029958,495.02011208299973,489.881029958,495.02011208299973,495.1035285420003,495.73095374999957,489.881029958,1,1,0.7871002080000835,reldom2_s017,001,2025-02-20_15h12.51.129,Where-B-Scan_AC,2022.2.5,None,
0,0.0,None,fixation,stimulus/audwhere_stim/blank_white.png,stimulus/audwhere_stim/blank_white.png,stimulus/viswhere_stim/blank_white.png,stimulus/viswhere_stim/blank_white.png,stimulus/audwhere_stim/blank_white.png,stimulus/audwhere_stim/blank_white.png,stimulus/audwhere_stim/blank_white.png,stimulus/audwhere_stim/blank_white.png,0.0,0.0,0.0,0.0,0,0.0,0,0.0,0,0.0,0,0.0,0,0.0,0.0,0,0.0,0,0.0,0,0.0,0,0.0,0,0.0,0,0.0,0,0.0,0,0.0,8,,,,,0,53,53,53,,,,,,,,,496.02994070800014,496.02994070800014,496.02994070800014,496.02994070800014,496.02994070800014,496.02994070800014,496.02994070800014,496.02994070800014,495.93175320833353,496.02994070800014,496.02994070800014,496.02994070800014,495.93175320833353,496.02994070800014,496.02994070800014,496.02994070800014,496.02994070800014,496.02994070800014,496.02994070800014,496.02994070800014,496.02994070800014,496.02994070800014,496.02994070800014,496.02994070800014,496.02994070800014,496.02994070800014,496.02994070800014,495.98175320833354,496.02994070800014,496.02994070800014,496.02994070800014,495.98175320833354,496.02994070800014,496.02994070800014,496.02994070800014,496.02994070800014,496.02994070800014,501.2523344169995,501.2523344169995,504.1756292079999,None,0,,reldom2_s017,001,2025-02-20_15h12.51.129,Where-B-Scan_AC,2022.2.5,None,
41,Second_Order,7.0,viswhere,stimulus/viswhere_stim/60-deg_dot-right_seagreen.png,stimulus/viswhere_stim/30-deg_dot-right_mediumslateblue.png,stimulus/viswhere_stim/60-deg_dot-left_mediumslateblue.png,stimulus/viswhere_stim/150-deg_dot-left_salmon.png,stimulus/audwhere_stim/match_blank.png,stimulus/audwhere_stim/match_box.png,stimulus/audwhere_stim/match_yes.png,stimulus/audwhere_stim/match_no.png,1.0,Match,Dot,Dot,1,5.125,0,5.125,0,5.125,0,5.125,0,0.75,0.75,1,0.5,1,2.125,1,0.5,1,2.125,0,0.0,0,0.0,0,0.0,0,0.0,0,,,,,0,54,54,54,,,,,,,,,504.1756292079999,509.2879286669995,504.6601121670001,505.6579898330001,506.2810681250003,507.2783493329998,504.1756292079999,504.1756292079999,504.1752309166667,504.1756292079999,504.1756292079999,504.1756292079999,504.1752309166667,504.1756292079999,509.2879286669995,510.08170704199983,512.1544682499998,516.0503042499995,510.08170704199983,510.08170704199983,515.2152208329999,510.527893208,511.5412217080002,512.1544682499998,513.1609824999996,510.08170704199983,510.08170704199983,510.0553085413335,510.08170704199983,510.08170704199983,510.08170704199983,510.0553085413335,510.08170704199983,510.08170704199983,515.2152208329999,510.08170704199983,515.2152208329999,515.2702372920003,516.0503042499995,510.08170704199983,1,1,1.022079749999648,reldom2_s017,001,2025-02-20_15h12.51.129,Where-B-Scan_AC,2022.2.5,None,
42,Second_Order,7.0,viswhere,stimulus/viswhere_stim/90-deg_dot-right_goldenrod.png,stimulus/viswhere_stim/120-deg_dot-right_mediumslateblue.png,stimulus/viswhere_stim/60-deg_dot-right_peru.png,stimulus/viswhere_stim/60-deg_dot-left_mediumslateblue.png,stimulus/audwhere_stim/match_blank.png,stimulus/audwhere_stim/match_box.png,stimulus/audwhere_stim/match_yes.png,stimulus/audwhere_stim/match_no.png,2.0,Match,Dot,Line,2,5.125,0,5.125,0,5.125,0,5.125,0,0.625,0.625,1,0.5,1,2.125,1,0.5,1,2.125,0,0.0,0,0.0,0,0.0,0,0.0,0,,,,,0,55,55,55,,,,,,,,,516.0503042499995,521.165963333,516.5368424580001,517.535909958,518.1582321670003,519.156178708,516.0503042499995,516.0503042499995,516.0645212079996,516.0503042499995,516.0503042499995,516.0503042499995,516.0645212079996,516.0503042499995,521.165963333,521.8324058329999,523.9214729169998,527.947125875,521.8324058329999,521.8324058329999,526.9654385419999,522.2892257080002,523.2944780420003,523.9214729169998,524.9333479999996,521.8324058329999,521.8324058329999,521.8119633753336,521.8324058329999,521.8324058329999,521.8324058329999,521.8119633753336,521.8324058329999,521.8324058329999,526.9654385419999,521.8324058329999,526.9654385419999,527.0339085420001,527.6649867079996,521.8324058329999,2,1,0.8347547499997745,reldom2_s017,001,2025-02-20_15h12.51.129,Where-B-Scan_AC,2022.2.5,None,
0,0.0,None,fixation,stimulus/audwhere_stim/blank_white.png,stimulus/audwhere_stim/blank_white.png,stimulus/viswhere_stim/blank_white.png,stimulus/viswhere_stim/blank_white.png,stimulus/audwhere_stim/blank_white.png,stimulus/audwhere_stim/blank_white.png,stimulus/audwhere_stim/blank_white.png,stimulus/audwhere_stim/blank_white.png,0.0,0.0,0.0,0.0,0,0.0,0,0.0,0,0.0,0,0.0,0,0.0,0.0,0,0.0,0,0.0,0,0.0,0,0.0,0,0.0,0,0.0,0,0.0,0,0.0,8,,,,,0,56,56,56,,,,,,,,,527.947125875,527.947125875,527.947125875,527.947125875,527.947125875,527.947125875,527.947125875,527.947125875,527.850334041333,527.947125875,527.947125875,527.947125875,527.850334041333,527.947125875,527.947125875,527.947125875,527.947125875,527.947125875,527.947125875,527.947125875,527.947125875,527.947125875,527.947125875,527.947125875,527.947125875,527.947125875,527.947125875,527.9003340413329,527.947125875,527.947125875,527.947125875,527.9003340413329,527.947125875,527.947125875,527.947125875,527.947125875,527.947125875,533.1303677079995,533.1303677079995,536.1567223749998,None,0,,reldom2_s017,001,2025-02-20_15h12.51.129,Where-B-Scan_AC,2022.2.5,None,
43,First_Order,8.0,viswhere,stimulus/viswhere_stim/blank_white.png,stimulus/viswhere_stim/blank_white.png,stimulus/viswhere_stim/120-deg_dot-left_lightsseagreen.png,stimulus/viswhere_stim/120-deg_dot-right_royalblue.png,stimulus/viswhere_stim/blank_white.png,stimulus/viswhere_stim/line_box.png,stimulus/viswhere_stim/line_yes.png,stimulus/viswhere_stim/line_no.png,None,Line,None,Line,1,0.0,0,5.125,0,5.125,0,5.125,0,0.0,0.625,0,0.0,0,0.0,1,0.5,1,2.125,0,0.0,0,0.0,0,0.0,0,0.0,0,,,,,0,57,57,57,,,,,,,,,536.1567223749998,536.1567223749998,536.1567223749998,536.1567223749998,536.1567223749998,536.1567223749998,536.1567223749998,536.1567223749998,536.1394503336666,536.1567223749998,536.1567223749998,536.1567223749998,536.1394503336666,536.1567223749998,536.1567223749998,536.1567223749998,538.2623598749997,542.2147830000004,536.1567223749998,536.1567223749998,541.2897687499999,536.6319832919999,537.6371511669995,538.2623598749997,539.2748380829998,536.1567223749998,536.1567223749998,536.1394503336666,536.1567223749998,536.1567223749998,536.1567223749998,536.1394503336666,536.1567223749998,536.1567223749998,541.2897687499999,536.1567223749998,541.2897687499999,541.3899860000001,542.0178349999996,536.1567223749998,1,1,0.7060432910002419,reldom2_s017,001,2025-02-20_15h12.51.129,Where-B-Scan_AC,2022.2.5,None,
44,First_Order,8.0,viswhere,stimulus/viswhere_stim/blank_white.png,stimulus/viswhere_stim/blank_white.png,stimulus/viswhere_stim/60-deg_dot-right_peru.png,stimulus/viswhere_stim/90-deg_dot-right_turquoise.png,stimulus/viswhere_stim/blank_white.png,stimulus/viswhere_stim/dot_box.png,stimulus/viswhere_stim/dot_yes.png,stimulus/viswhere_stim/dot_no.png,None,Dot,None,Dot,1,0.0,0,5.125,0,5.125,0,5.125,0,0.0,0.625,0,0.0,0,0.0,1,0.5,1,2.125,0,0.0,0,0.0,0,0.0,0,0.0,0,,,,,0,58,58,58,,,,,,,,,542.2147830000004,542.2147830000004,542.2147830000004,542.2147830000004,542.2147830000004,542.2147830000004,542.2147830000004,542.2147830000004,542.194602541333,542.2147830000004,542.2147830000004,542.2147830000004,542.194602541333,542.2147830000004,542.2147830000004,542.2147830000004,544.3255406669996,548.2790886249995,542.2147830000004,542.2147830000004,547.3369014580003,542.6917582919996,543.6985593749996,544.3255406669996,545.33898125,542.2147830000004,542.2147830000004,542.2112692079996,542.2147830000004,542.2147830000004,542.2147830000004,542.2112692079996,542.2147830000004,542.2147830000004,547.3369014580003,542.2147830000004,547.3369014580003,547.4442428330003,548.0659112920002,542.2147830000004,1,1,0.7444647080001232,reldom2_s017,001,2025-02-20_15h12.51.129,Where-B-Scan_AC,2022.2.5,None,
45,First_Order,8.0,viswhere,stimulus/viswhere_stim/blank_white.png,stimulus/viswhere_stim/blank_white.png,stimulus/viswhere_stim/150-deg_dot-right_lightsseagreen.png,stimulus/viswhere_stim/150-deg_dot-left_royalblue.png,stimulus/viswhere_stim/blank_white.png,stimulus/viswhere_stim/dot_box.png,stimulus/viswhere_stim/dot_yes.png,stimulus/viswhere_stim/dot_no.png,None,Dot,None,Line,2,0.0,0,5.125,0,5.125,0,5.125,0,0.0,0.625,0,0.0,0,0.0,1,0.5,1,2.125,0,0.0,0,0.0,0,0.0,0,0.0,0,,,,,0,59,59,59,,,,,,,,,548.2790886249995,548.2790886249995,548.2790886249995,548.2790886249995,548.2790886249995,548.2790886249995,548.2790886249995,548.2790886249995,548.2588064163332,548.2790886249995,548.2790886249995,548.2790886249995,548.2588064163332,548.2790886249995,548.2790886249995,548.2790886249995,550.3926389999997,554.337131708,548.2790886249995,548.2790886249995,553.4344829169995,548.7591496670002,549.7785094999999,550.3926389999997,551.3973606250001,548.2790886249995,548.2790886249995,548.2754730829998,548.2790886249995,548.2790886249995,548.2790886249995,548.2754730829998,548.2790886249995,548.2790886249995,553.4344829169995,548.2790886249995,553.4344829169995,553.5061007920003,554.1358096249996,548.2790886249995,2,1,0.6648315840002397,reldom2_s017,001,2025-02-20_15h12.51.129,Where-B-Scan_AC,2022.2.5,None,
46,First_Order,8.0,viswhere,stimulus/viswhere_stim/blank_white.png,stimulus/viswhere_stim/blank_white.png,stimulus/viswhere_stim/30-deg_dot-left_salmon.png,stimulus/viswhere_stim/150-deg_dot-left_turquoise.png,stimulus/viswhere_stim/blank_white.png,stimulus/viswhere_stim/line_box.png,stimulus/viswhere_stim/line_yes.png,stimulus/viswhere_stim/line_no.png,None,Line,None,Dot,2,0.0,0,5.125,0,5.125,0,5.125,0,0.0,0.625,0,0.0,0,0.0,1,0.5,1,2.125,0,0.0,0,0.0,0,0.0,0,0.0,0,,,,,0,60,60,60,,,,,,,,,554.337131708,554.337131708,554.337131708,554.337131708,554.337131708,554.337131708,554.337131708,554.337131708,554.3166412913337,554.337131708,554.337131708,554.337131708,554.3166412913337,554.337131708,554.337131708,554.337131708,556.4478054579995,560.4866605830002,554.337131708,554.337131708,559.4817761670001,554.8159338750002,555.8350043330001,556.4478054579995,557.4518233749995,554.337131708,554.337131708,554.3333079580003,554.337131708,554.337131708,554.337131708,554.3333079580003,554.337131708,554.337131708,559.4817761670001,554.337131708,559.4817761670001,559.5676286669996,560.1937267499998,554.337131708,2,1,0.8159921670003314,reldom2_s017,001,2025-02-20_15h12.51.129,Where-B-Scan_AC,2022.2.5,None,
0,0.0,None,fixation,stimulus/audwhere_stim/blank_white.png,stimulus/audwhere_stim/blank_white.png,stimulus/viswhere_stim/blank_white.png,stimulus/viswhere_stim/blank_white.png,stimulus/audwhere_stim/blank_white.png,stimulus/audwhere_stim/blank_white.png,stimulus/audwhere_stim/blank_white.png,stimulus/audwhere_stim/blank_white.png,0.0,0.0,0.0,0.0,0,0.0,0,0.0,0,0.0,0,0.0,0,0.0,0.0,0,0.0,0,0.0,0,0.0,0,0.0,0,0.0,0,0.0,0,0.0,0,0.0,9,,,,,0,61,61,61,,,,,,,,,560.4866605830002,560.4866605830002,560.4866605830002,560.4866605830002,560.4866605830002,560.4866605830002,560.4866605830002,560.4866605830002,560.3876756253334,560.4866605830002,560.4866605830002,560.4866605830002,560.3876756253334,560.4866605830002,560.4866605830002,560.4866605830002,560.4866605830002,560.4866605830002,560.4866605830002,560.4866605830002,560.4866605830002,560.4866605830002,560.4866605830002,560.4866605830002,560.4866605830002,560.4866605830002,560.4866605830002,560.4376756253333,560.4866605830002,560.4866605830002,560.4866605830002,560.4376756253333,560.4866605830002,560.4866605830002,560.4866605830002,560.4866605830002,560.4866605830002,565.6952519999995,565.6952519999995,569.6341825829995,None,0,,reldom2_s017,001,2025-02-20_15h12.51.129,Where-B-Scan_AC,2022.2.5,None,
47,Second_Order,8.0,viswhere,stimulus/viswhere_stim/90-deg_dot-left_lightsseagreen.png,stimulus/viswhere_stim/120-deg_dot-left_royalblue.png,stimulus/viswhere_stim/30-deg_dot-right_mediumslateblue.png,stimulus/viswhere_stim/60-deg_dot-right_lightsseagreen.png,stimulus/audwhere_stim/match_blank.png,stimulus/audwhere_stim/match_box.png,stimulus/audwhere_stim/match_yes.png,stimulus/audwhere_stim/match_no.png,1.0,Match,Dot,Dot,1,5.125,0,5.125,0,5.125,0,5.125,0,0.75,0.75,1,0.5,1,2.125,1,0.5,1,2.125,0,0.0,0,0.0,0,0.0,0,0.0,0,,,,,0,62,62,62,,,,,,,,,569.6341825829995,574.7576024170003,570.1108757080001,571.1093776669995,571.7444011669995,572.7340549999999,569.6341825829995,569.6341825829995,569.6341819586668,569.6341825829995,569.6341825829995,569.6341825829995,569.6341819586668,569.6341825829995,574.7576024170003,575.5634000419996,577.6445673749995,581.5348608329996,575.5634000419996,575.5634000419996,580.6857769170001,576.0073527920003,577.0172584579996,577.6445673749995,578.6630555419997,575.5634000419996,575.5634000419996,575.5527566669996,575.5634000419996,575.5634000419996,575.5634000419996,575.5527566669996,575.5634000419996,575.5634000419996,580.6857769170001,575.5634000419996,580.6857769170001,580.7550080829997,581.5348608329996,575.5634000419996,1,1,0.9840464580001935,reldom2_s017,001,2025-02-20_15h12.51.129,Where-B-Scan_AC,2022.2.5,None,
48,Second_Order,8.0,viswhere,stimulus/viswhere_stim/60-deg_dot-left_seagreen.png,stimulus/viswhere_stim/90-deg_dot-left_peru.png,stimulus/viswhere_stim/30-deg_dot-right_turquoise.png,stimulus/viswhere_stim/30-deg_dot-left_lightsseagreen.png,stimulus/audwhere_stim/match_blank.png,stimulus/audwhere_stim/match_box.png,stimulus/audwhere_stim/match_yes.png,stimulus/audwhere_stim/match_no.png,2.0,Match,Dot,Line,2,5.125,0,5.125,0,5.125,0,5.125,0,0.625,0.625,1,0.5,1,2.125,1,0.5,1,2.125,0,0.0,0,0.0,0,0.0,0,0.0,0,,,,,0,63,63,63,,,,,,,,,581.5348608329996,586.6508140420001,582.0220114579997,583.0201036669996,583.6424977079996,584.6404294169997,581.5348608329996,581.5348608329996,581.5492282499997,581.5348608329996,581.5348608329996,581.5348608329996,581.5492282499997,581.5348608329996,586.6508140420001,587.318461375,589.3981993329999,593.4334933330001,587.318461375,587.318461375,592.4482089169996,587.7831127500003,588.8007627500001,589.3981993329999,590.4138015420003,587.318461375,587.318461375,587.2963816253337,587.318461375,587.318461375,587.318461375,587.2963816253337,587.318461375,587.318461375,592.4482089169996,587.318461375,592.4482089169996,592.5182459170001,593.1395740830003,587.318461375,2,1,0.7416507919997457,reldom2_s017,001,2025-02-20_15h12.51.129,Where-B-Scan_AC,2022.2.5,None,
0,0.0,None,fixation,stimulus/audwhere_stim/blank_white.png,stimulus/audwhere_stim/blank_white.png,stimulus/viswhere_stim/blank_white.png,stimulus/viswhere_stim/blank_white.png,stimulus/audwhere_stim/blank_white.png,stimulus/audwhere_stim/blank_white.png,stimulus/audwhere_stim/blank_white.png,stimulus/audwhere_stim/blank_white.png,0.0,0.0,0.0,0.0,0,0.0,0,0.0,0,0.0,0,0.0,0,0.0,0.0,0,0.0,0,0.0,0,0.0,0,0.0,0,0.0,0,0.0,0,0.0,0,0.0,16,,,,,0,64,64,64,,,,,,,,,593.4334933330001,593.4334933330001,593.4334933330001,593.4334933330001,593.4334933330001,593.4334933330001,593.4334933330001,593.4334933330001,593.3368092083332,593.4334933330001,593.4334933330001,593.4334933330001,593.3368092083332,593.4334933330001,593.4334933330001,593.4334933330001,593.4334933330001,593.4334933330001,593.4334933330001,593.4334933330001,593.4334933330001,593.4334933330001,593.4334933330001,593.4334933330001,593.4334933330001,593.4334933330001,593.4334933330001,593.3868092083331,593.4334933330001,593.4334933330001,593.4334933330001,593.3868092083331,593.4334933330001,593.4334933330001,593.4334933330001,593.4334933330001,593.4334933330001,598.6181735419996,598.6181735419996,609.5809137079996,None,0,,reldom2_s017,001,2025-02-20_15h12.51.129,Where-B-Scan_AC,2022.2.5,None,
