Trial,Order,Block,Type,Stimuli_File1,Stimuli_File2,Stimuli_File3,Stimuli_File4,Cue_File1,Cue_File2,Response_File_Yes,Response_File_No,Match,Cue_Dimension,Pair1_Dimension,Pair2_Dimension,Key,Cue1_Duration,Cue1_Onset,Cue2_Duration,Cue2_Onset,ResponseYes_Duration,ResponseYes_Onset,ResponseNo_Duration,ResponseNo_Onset,ITI_Within,ITI_Between,Image1_Duration,Image1_Onset,Image2_Duration,Image2_Onset,Image3_Duration,Image3_Onset,Image4_Duration,Image4_Onset,Sound1_Duration,Sound1_Onset,Sound2_Duration,Sound2_Onset,Sound3_Duration,Sound3_Onset,Sound4_Duration,Sound4_Onset,Fixation_Duration,trials_2.thisRepN,trials_2.thisTrialN,trials_2.thisN,trials_2.thisIndex,trials.thisRepN,trials.thisTrialN,trials.thisN,trials.thisIndex,text_start.started,key_resp_start.started,key_resp_start.keys,key_resp_start.rt,text2.started,key_resp_2.started,key_resp_2.keys,key_resp_2.rt,cue_file1.started,cue_file1.stopped,image_1.started,image_1.stopped,image_2.started,image_2.stopped,sound_icon1.started,sound_icon1.stopped,sound_1.started,sound_1.stopped,sound_icon2.started,sound_icon2.stopped,sound_2.started,sound_2.stopped,image_blank_1.started,image_blank_1.stopped,key_press.started,key_press.stopped,fixation_text.started,cue_file2.started,cue_file2.stopped,image_3.started,image_3.stopped,image_4.started,image_4.stopped,sound_icon3.started,sound_icon3.stopped,sound_3.started,sound_3.stopped,sound_icon4.started,sound_icon4.stopped,sound_4.started,sound_4.stopped,response_yes.started,response_yes.stopped,response_no.started,response_no.stopped,iti_blank.started,iti_blank.stopped,fixation_text.stopped,key_press.keys,key_press.corr,key_press.rt,participant,session,date,expName,psychopyVersion,frameRate,
,,,,,,,,,,,,,,,,,,,,,,,,,,,,,,,,,,,,,,,,,,,,,,,,,,,,7.318909249999706,7.318909249999706,2,1.1665973340004712,,,,,,,,,,,,,,,,,,,,,,,,,,,,,,,,,,,,,,,,,,,,,,,,reldom2_s017,001,2025-02-20_15h35.31.670,Vis-B-Scan_AC,2022.2.5,None,
,,,,,,,,,,,,,,,,,,,,,,,,,,,,,,,,,,,,,,,,,,,,0,0,0,0,,,,,,,,,8.518718499999522,8.518718499999522,5,17.393330333999984,,,,,,,,,,,,,,,,,,,,,,,,,,,,,,,,,,,,,,,,,,,,reldom2_s017,001,2025-02-20_15h35.31.670,Vis-B-Scan_AC,2022.2.5,None,
,,,,,,,,,,,,,,,,,,,,,,,,,,,,,,,,,,,,,,,,,,,,1,0,1,0,,,,,,,,,25.93241499999931,25.93241499999931,5,1.9813464590006333,,,,,,,,,,,,,,,,,,,,,,,,,,,,,,,,,,,,,,,,,,,,reldom2_s017,001,2025-02-20_15h35.31.670,Vis-B-Scan_AC,2022.2.5,None,
,,,,,,,,,,,,,,,,,,,,,,,,,,,,,,,,,,,,,,,,,,,,2,0,2,0,,,,,,,,,27.93097708299956,27.93097708299956,5,1.9815961260010226,,,,,,,,,,,,,,,,,,,,,,,,,,,,,,,,,,,,,,,,,,,,reldom2_s017,001,2025-02-20_15h35.31.670,Vis-B-Scan_AC,2022.2.5,None,
,,,,,,,,,,,,,,,,,,,,,,,,,,,,,,,,,,,,,,,,,,,,3,0,3,0,,,,,,,,,29.924960457999987,29.924960457999987,5,1.9875902920002773,,,,,,,,,,,,,,,,,,,,,,,,,,,,,,,,,,,,,,,,,,,,reldom2_s017,001,2025-02-20_15h35.31.670,Vis-B-Scan_AC,2022.2.5,None,
0,0.0,None,fixation,stimulus/viswhere_stim/blank_white.png,stimulus/viswhere_stim/blank_white.png,stimulus/viswhat_stim/blank_white.png,stimulus/viswhat_stim/blank_white.png,stimulus/viswhere_stim/blank_white.png,stimulus/viswhere_stim/blank_white.png,stimulus/viswhere_stim/blank_white.png,stimulus/viswhere_stim/blank_white.png,0.0,0.0,0.0,0.0,0,0.0,0,0.0,0,0.0,0,0.0,0,0.0,0.0,0,0.0,0,0.0,0,0.0,0,0.0,0,0,0,0,0,0,0,0,16,,,,,0,0,0,0,,,,,,,,,32.12778241599972,32.12778241599972,32.12778241599972,32.12778241599972,32.12778241599972,32.12778241599972,32.12778241599972,32.12778241599972,32.03724283266626,32.12778241599972,32.12778241599972,32.12778241599972,32.03724283266626,32.12778241599972,32.12778241599972,32.12778241599972,32.12778241599972,32.12778241599972,32.12778241599972,32.12778241599972,32.12778241599972,32.12778241599972,32.12778241599972,32.12778241599972,32.12778241599972,32.12778241599972,32.12778241599972,32.087242832666256,32.12778241599972,32.12778241599972,32.12778241599972,32.087242832666256,32.12778241599972,32.12778241599972,32.12778241599972,32.12778241599972,32.12778241599972,37.314262750000125,37.314262750000125,48.29170008299934,None,0,,reldom2_s017,001,2025-02-20_15h35.31.670,Vis-B-Scan_AC,2022.2.5,None,
1,First_Order,1.0,viswhere,stimulus/viswhere_stim/blank_white.png,stimulus/viswhere_stim/blank_white.png,stimulus/viswhere_stim/150-deg_dot-left_royalblue.png,stimulus/viswhere_stim/150-deg_dot-right_peru.png,stimulus/viswhere_stim/blank_white.png,stimulus/viswhere_stim/dot_box.png,stimulus/viswhere_stim/dot_yes.png,stimulus/viswhere_stim/dot_no.png,None,Dot,None,Line,2,0.0,0,5.125,0,5.125,0,5.125,0,0.0,0.625,0,0.0,0,0.0,1,0.5,1,2.125,0,0,0,0,0,0,0,0,0,,,,,0,1,1,1,,,,,,,,,48.29170008299934,48.29170008299934,48.29170008299934,48.29170008299934,48.29170008299934,48.29170008299934,48.29170008299934,48.29170008299934,48.27336941600006,48.29170008299934,48.29170008299934,48.29170008299934,48.27336941600006,48.29170008299934,48.29170008299934,48.29170008299934,50.3931764580002,54.34700900000007,48.29170008299934,48.29170008299934,53.430737916,48.78011562499978,49.7916890409997,50.3931764580002,51.41295699999955,48.29170008299934,48.29170008299934,48.290036082666724,48.29170008299934,48.29170008299934,48.29170008299934,48.290036082666724,48.29170008299934,48.29170008299934,53.430737916,48.29170008299934,53.430737916,53.51350370799992,54.1540930000001,48.29170008299934,2,1,1.0422617500007618,reldom2_s017,001,2025-02-20_15h35.31.670,Vis-B-Scan_AC,2022.2.5,None,
2,First_Order,1.0,viswhere,stimulus/viswhere_stim/blank_white.png,stimulus/viswhere_stim/blank_white.png,stimulus/viswhere_stim/30-deg_dot-left_salmon.png,stimulus/viswhere_stim/30-deg_dot-right_seagreen.png,stimulus/viswhere_stim/blank_white.png,stimulus/viswhere_stim/dot_box.png,stimulus/viswhere_stim/dot_yes.png,stimulus/viswhere_stim/dot_no.png,None,Dot,None,Line,2,0.0,0,5.125,0,5.125,0,5.125,0,0.0,0.625,0,0.0,0,0.0,1,0.5,1,2.125,0,0,0,0,0,0,0,0,0,,,,,0,2,2,2,,,,,,,,,54.34700900000007,54.34700900000007,54.34700900000007,54.34700900000007,54.34700900000007,54.34700900000007,54.34700900000007,54.34700900000007,54.330474666332826,54.34700900000007,54.34700900000007,54.34700900000007,54.330474666332826,54.34700900000007,54.34700900000007,54.34700900000007,56.45683666599962,60.4081422499994,54.34700900000007,54.34700900000007,59.483405291000054,54.83312433299943,55.84059979099948,56.45683666599962,57.47102679099953,54.34700900000007,54.34700900000007,54.330474666332826,54.34700900000007,54.34700900000007,54.34700900000007,54.330474666332826,54.34700900000007,54.34700900000007,59.483405291000054,54.34700900000007,59.483405291000054,59.57669983300002,60.20134099999996,54.34700900000007,2,1,0.75904970800093,reldom2_s017,001,2025-02-20_15h35.31.670,Vis-B-Scan_AC,2022.2.5,None,
3,First_Order,1.0,viswhere,stimulus/viswhere_stim/blank_white.png,stimulus/viswhere_stim/blank_white.png,stimulus/viswhere_stim/120-deg_dot-left_goldenrod.png,stimulus/viswhere_stim/30-deg_dot-left_slateblue.png,stimulus/viswhere_stim/blank_white.png,stimulus/viswhere_stim/dot_box.png,stimulus/viswhere_stim/dot_yes.png,stimulus/viswhere_stim/dot_no.png,None,Dot,None,Dot,1,0.0,0,5.125,0,5.125,0,5.125,0,0.0,0.625,0,0.0,0,0.0,1,0.5,1,2.125,0,0,0,0,0,0,0,0,0,,,,,0,3,3,3,,,,,,,,,60.4081422499994,60.4081422499994,60.4081422499994,60.4081422499994,60.4081422499994,60.4081422499994,60.4081422499994,60.4081422499994,60.39083199933278,60.4081422499994,60.4081422499994,60.4081422499994,60.39083199933278,60.4081422499994,60.4081422499994,60.4081422499994,62.50773137499982,66.46984824999981,60.4081422499994,60.4081422499994,65.53579466599967,60.896002874999795,61.90659287499966,62.50773137499982,63.52371720799965,60.4081422499994,60.4081422499994,60.39083199933278,60.4081422499994,60.4081422499994,60.4081422499994,60.39083199933278,60.4081422499994,60.4081422499994,65.53579466599967,60.4081422499994,65.53579466599967,65.6478125829999,66.27550162499938,60.4081422499994,1,1,1.4889937090001695,reldom2_s017,001,2025-02-20_15h35.31.670,Vis-B-Scan_AC,2022.2.5,None,
4,First_Order,1.0,viswhere,stimulus/viswhere_stim/blank_white.png,stimulus/viswhere_stim/blank_white.png,stimulus/viswhere_stim/150-deg_dot-right_royalblue.png,stimulus/viswhere_stim/30-deg_dot-right_salmon.png,stimulus/viswhere_stim/blank_white.png,stimulus/viswhere_stim/line_box.png,stimulus/viswhere_stim/line_yes.png,stimulus/viswhere_stim/line_no.png,None,Line,None,Dot,2,0.0,0,5.125,0,5.125,0,5.125,0,0.0,0.625,0,0.0,0,0.0,1,0.5,1,2.125,0,0,0,0,0,0,0,0,0,,,,,0,4,4,4,,,,,,,,,66.46984824999981,66.46984824999981,66.46984824999981,66.46984824999981,66.46984824999981,66.46984824999981,66.46984824999981,66.46984824999981,66.45145504133264,66.46984824999981,66.46984824999981,66.46984824999981,66.45145504133264,66.46984824999981,66.46984824999981,66.46984824999981,68.6184081249994,72.61124212499999,66.46984824999981,66.46984824999981,71.59469737499967,66.94611654099936,67.95429983299982,68.6184081249994,69.63043470799948,66.46984824999981,66.46984824999981,66.45145504133264,66.46984824999981,66.46984824999981,66.46984824999981,66.45145504133264,66.46984824999981,66.46984824999981,71.59469737499967,66.46984824999981,71.59469737499967,71.69504675000007,72.3195826659994,66.46984824999981,2,1,1.0586942510008157,reldom2_s017,001,2025-02-20_15h35.31.670,Vis-B-Scan_AC,2022.2.5,None,
0,0.0,None,fixation,stimulus/viswhere_stim/blank_white.png,stimulus/viswhere_stim/blank_white.png,stimulus/viswhat_stim/blank_white.png,stimulus/viswhat_stim/blank_white.png,stimulus/viswhere_stim/blank_white.png,stimulus/viswhere_stim/blank_white.png,stimulus/viswhere_stim/blank_white.png,stimulus/viswhere_stim/blank_white.png,0.0,0.0,0.0,0.0,0,0.0,0,0.0,0,0.0,0,0.0,0,0.0,0.0,0,0.0,0,0.0,0,0.0,0,0.0,0,0,0,0,0,0,0,0,9,,,,,0,5,5,5,,,,,,,,,72.61124212499999,72.61124212499999,72.61124212499999,72.61124212499999,72.61124212499999,72.61124212499999,72.61124212499999,72.61124212499999,72.51652391633282,72.61124212499999,72.61124212499999,72.61124212499999,72.51652391633282,72.61124212499999,72.61124212499999,72.61124212499999,72.61124212499999,72.61124212499999,72.61124212499999,72.61124212499999,72.61124212499999,72.61124212499999,72.61124212499999,72.61124212499999,72.61124212499999,72.61124212499999,72.61124212499999,72.56652391633281,72.61124212499999,72.61124212499999,72.61124212499999,72.56652391633281,72.61124212499999,72.61124212499999,72.61124212499999,72.61124212499999,72.61124212499999,77.82479599999988,77.82479599999988,81.75732170799984,None,0,,reldom2_s017,001,2025-02-20_15h35.31.670,Vis-B-Scan_AC,2022.2.5,None,
5,Second_Order,1.0,viswhere,stimulus/viswhere_stim/90-deg_dot-left_mediumslateblue.png,stimulus/viswhere_stim/30-deg_dot-left_slateblue.png,stimulus/viswhere_stim/90-deg_dot-left_royalblue.png,stimulus/viswhere_stim/90-deg_dot-right_goldenrod.png,stimulus/viswhere_stim/match_blank.png,stimulus/viswhere_stim/match_box.png,stimulus/viswhere_stim/match_yes.png,stimulus/viswhere_stim/match_no.png,2.0,Match,Dot,Line,2,5.125,0,5.125,0,5.125,0,5.125,0,0.75,0.75,1,0.5,1,2.125,1,0.5,1,2.125,0,0,0,0,0,0,0,0,0,,,,,0,6,6,6,,,,,,,,,81.75732170799984,86.88066454099953,82.2403875,83.23850116599988,83.86162879099993,84.8589788749996,81.75732170799984,81.75732170799984,81.75724683266604,81.75732170799984,81.75732170799984,81.75732170799984,81.75724683266604,81.75732170799984,86.88066454099953,87.67695158300012,89.74806683299994,93.614118083,87.67695158300012,87.67695158300012,92.79974995799967,88.13665895799932,89.14067108299969,89.74806683299994,90.76297512499968,87.67695158300012,87.67695158300012,87.66571533299957,87.67695158300012,87.67695158300012,87.67695158300012,87.66571533299957,87.67695158300012,87.67695158300012,92.79974995799967,87.67695158300012,92.79974995799967,92.8675795829995,93.6496145000001,87.67695158300012,2,1,0.9290297500001543,reldom2_s017,001,2025-02-20_15h35.31.670,Vis-B-Scan_AC,2022.2.5,None,
6,Second_Order,1.0,viswhere,stimulus/viswhere_stim/30-deg_dot-right_turquoise.png,stimulus/viswhere_stim/30-deg_dot-left_goldenrod.png,stimulus/viswhere_stim/60-deg_dot-left_salmon.png,stimulus/viswhere_stim/60-deg_dot-right_slateblue.png,stimulus/viswhere_stim/match_blank.png,stimulus/viswhere_stim/match_box.png,stimulus/viswhere_stim/match_yes.png,stimulus/viswhere_stim/match_no.png,1.0,Match,Line,Line,1,5.125,0,5.125,0,5.125,0,5.125,0,0.625,0.625,1,0.5,1,2.125,1,0.5,1,2.125,0,0,0,0,0,0,0,0,0,,,,,0,7,7,7,,,,,,,,,93.6496145000001,98.76281370800007,94.1348992080002,95.13301229099943,95.7544912909998,96.75371037500008,93.6496145000001,93.6496145000001,93.66411808299999,93.6496145000001,93.6496145000001,93.6496145000001,93.66411808299999,93.6496145000001,98.76281370800007,99.43354158300008,101.51059291599995,105.55060666600002,99.43354158300008,99.43354158300008,104.57066737500008,99.8899841249995,100.9077900000002,101.51059291599995,102.52305287499985,99.43354158300008,99.43354158300008,99.40949574933305,99.43354158300008,99.43354158300008,99.43354158300008,99.40949574933305,99.43354158300008,99.43354158300008,104.57066737500008,99.43354158300008,104.57066737500008,104.62413283299975,105.24554637499932,99.43354158300008,1,1,0.723377292000805,reldom2_s017,001,2025-02-20_15h35.31.670,Vis-B-Scan_AC,2022.2.5,None,
0,0.0,None,fixation,stimulus/viswhere_stim/blank_white.png,stimulus/viswhere_stim/blank_white.png,stimulus/viswhat_stim/blank_white.png,stimulus/viswhat_stim/blank_white.png,stimulus/viswhere_stim/blank_white.png,stimulus/viswhere_stim/blank_white.png,stimulus/viswhere_stim/blank_white.png,stimulus/viswhere_stim/blank_white.png,0.0,0.0,0.0,0.0,0,0.0,0,0.0,0,0.0,0,0.0,0,0.0,0.0,0,0.0,0,0.0,0,0.0,0,0.0,0,0,0,0,0,0,0,0,9,,,,,0,8,8,8,,,,,,,,,105.55060666600002,105.55060666600002,105.55060666600002,105.55060666600002,105.55060666600002,105.55060666600002,105.55060666600002,105.55060666600002,105.45594070833279,105.55060666600002,105.55060666600002,105.55060666600002,105.45594070833279,105.55060666600002,105.55060666600002,105.55060666600002,105.55060666600002,105.55060666600002,105.55060666600002,105.55060666600002,105.55060666600002,105.55060666600002,105.55060666600002,105.55060666600002,105.55060666600002,105.55060666600002,105.55060666600002,105.50594070833279,105.55060666600002,105.55060666600002,105.55060666600002,105.50594070833279,105.55060666600002,105.55060666600002,105.55060666600002,105.55060666600002,105.55060666600002,110.75937574999989,110.75937574999989,114.7602078330001,None,0,,reldom2_s017,001,2025-02-20_15h35.31.670,Vis-B-Scan_AC,2022.2.5,None,
7,First_Order,2.0,viswhere,stimulus/viswhere_stim/blank_white.png,stimulus/viswhere_stim/blank_white.png,stimulus/viswhere_stim/60-deg_dot-right_peru.png,stimulus/viswhere_stim/120-deg_dot-right_goldenrod.png,stimulus/viswhere_stim/blank_white.png,stimulus/viswhere_stim/line_box.png,stimulus/viswhere_stim/line_yes.png,stimulus/viswhere_stim/line_no.png,None,Line,None,Dot,2,0.0,0,5.125,0,5.125,0,5.125,0,0.0,0.625,0,0.0,0,0.0,1,0.5,1,2.125,0,0,0,0,0,0,0,0,0,,,,,0,9,9,9,,,,,,,,,114.7602078330001,114.7602078330001,114.7602078330001,114.7602078330001,114.7602078330001,114.7602078330001,114.7602078330001,114.7602078330001,114.74327570766643,114.7602078330001,114.7602078330001,114.7602078330001,114.74327570766643,114.7602078330001,114.7602078330001,114.7602078330001,116.862606916,120.82096162499965,114.7602078330001,114.7602078330001,119.89611104100004,115.23405974999969,116.23851729099988,116.862606916,117.87031324999953,114.7602078330001,114.7602078330001,114.74327570766643,114.7602078330001,114.7602078330001,114.7602078330001,114.74327570766643,114.7602078330001,114.7602078330001,119.89611104100004,114.7602078330001,119.89611104100004,119.98060804099987,120.61087533299997,114.7602078330001,2,1,0.903152584000054,reldom2_s017,001,2025-02-20_15h35.31.670,Vis-B-Scan_AC,2022.2.5,None,
8,First_Order,2.0,viswhere,stimulus/viswhere_stim/blank_white.png,stimulus/viswhere_stim/blank_white.png,stimulus/viswhere_stim/90-deg_dot-left_turquoise.png,stimulus/viswhere_stim/90-deg_dot-right_peru.png,stimulus/viswhere_stim/blank_white.png,stimulus/viswhere_stim/line_box.png,stimulus/viswhere_stim/line_yes.png,stimulus/viswhere_stim/line_no.png,None,Line,None,Line,1,0.0,0,5.125,0,5.125,0,5.125,0,0.0,0.625,0,0.0,0,0.0,1,0.5,1,2.125,0,0,0,0,0,0,0,0,0,,,,,0,10,10,10,,,,,,,,,120.82096162499965,120.82096162499965,120.82096162499965,120.82096162499965,120.82096162499965,120.82096162499965,120.82096162499965,120.82096162499965,120.8013638333335,120.82096162499965,120.82096162499965,120.82096162499965,120.8013638333335,120.82096162499965,120.82096162499965,120.82096162499965,122.93362849999994,126.87887308300014,120.82096162499965,120.82096162499965,125.94987733299968,121.29640449999988,122.30696570799955,122.93362849999994,123.94970383300006,120.82096162499965,120.82096162499965,120.8013638333335,120.82096162499965,120.82096162499965,120.82096162499965,120.8013638333335,120.82096162499965,120.82096162499965,125.94987733299968,120.82096162499965,125.94987733299968,126.05116058299973,126.67882887499945,120.82096162499965,1,1,0.9015977920007572,reldom2_s017,001,2025-02-20_15h35.31.670,Vis-B-Scan_AC,2022.2.5,None,
9,First_Order,2.0,viswhere,stimulus/viswhere_stim/blank_white.png,stimulus/viswhere_stim/blank_white.png,stimulus/viswhere_stim/60-deg_dot-right_seagreen.png,stimulus/viswhere_stim/120-deg_dot-right_salmon.png,stimulus/viswhere_stim/blank_white.png,stimulus/viswhere_stim/dot_box.png,stimulus/viswhere_stim/dot_yes.png,stimulus/viswhere_stim/dot_no.png,None,Dot,None,Dot,1,0.0,0,5.125,0,5.125,0,5.125,0,0.0,0.625,0,0.0,0,0.0,1,0.5,1,2.125,0,0,0,0,0,0,0,0,0,,,,,0,11,11,11,,,,,,,,,126.87887308300014,126.87887308300014,126.87887308300014,126.87887308300014,126.87887308300014,126.87887308300014,126.87887308300014,126.87887308300014,126.8591132913328,126.87887308300014,126.87887308300014,126.87887308300014,126.8591132913328,126.87887308300014,126.87887308300014,126.87887308300014,128.98338712499935,132.93868454099993,126.87887308300014,126.87887308300014,132.0042757909996,127.35208675000013,128.35906104100013,128.98338712499935,129.9923872499994,126.87887308300014,126.87887308300014,126.87577995799947,126.87887308300014,126.87887308300014,126.87887308300014,126.87577995799947,126.87887308300014,126.87887308300014,132.0042757909996,126.87887308300014,132.0042757909996,132.10456737499953,132.73812349999935,126.87887308300014,1,1,0.9612976670005082,reldom2_s017,001,2025-02-20_15h35.31.670,Vis-B-Scan_AC,2022.2.5,None,
10,First_Order,2.0,viswhere,stimulus/viswhere_stim/blank_white.png,stimulus/viswhere_stim/blank_white.png,stimulus/viswhere_stim/120-deg_dot-right_cyan.png,stimulus/viswhere_stim/120-deg_dot-left_turquoise.png,stimulus/viswhere_stim/blank_white.png,stimulus/viswhere_stim/line_box.png,stimulus/viswhere_stim/line_yes.png,stimulus/viswhere_stim/line_no.png,None,Line,None,Line,1,0.0,0,5.125,0,5.125,0,5.125,0,0.0,0.625,0,0.0,0,0.0,1,0.5,1,2.125,0,0,0,0,0,0,0,0,0,,,,,0,12,12,12,,,,,,,,,132.93868454099993,132.93868454099993,132.93868454099993,132.93868454099993,132.93868454099993,132.93868454099993,132.93868454099993,132.93868454099993,132.91925024933275,132.93868454099993,132.93868454099993,132.93868454099993,132.91925024933275,132.93868454099993,132.93868454099993,132.93868454099993,135.0498066659993,139.08307770800002,132.93868454099993,132.93868454099993,138.07759745800013,133.41475600000012,134.4245610829994,135.0498066659993,136.06430145800005,132.93868454099993,132.93868454099993,132.91925024933275,132.93868454099993,132.93868454099993,132.93868454099993,132.91925024933275,132.93868454099993,132.93868454099993,138.07759745800013,132.93868454099993,138.07759745800013,138.1586025409997,138.7897738749998,132.93868454099993,1,1,0.7810219170005439,reldom2_s017,001,2025-02-20_15h35.31.670,Vis-B-Scan_AC,2022.2.5,None,
0,0.0,None,fixation,stimulus/viswhere_stim/blank_white.png,stimulus/viswhere_stim/blank_white.png,stimulus/viswhat_stim/blank_white.png,stimulus/viswhat_stim/blank_white.png,stimulus/viswhere_stim/blank_white.png,stimulus/viswhere_stim/blank_white.png,stimulus/viswhere_stim/blank_white.png,stimulus/viswhere_stim/blank_white.png,0.0,0.0,0.0,0.0,0,0.0,0,0.0,0,0.0,0,0.0,0,0.0,0.0,0,0.0,0,0.0,0,0.0,0,0.0,0,0,0,0,0,0,0,0,8,,,,,0,13,13,13,,,,,,,,,139.08307770800002,139.08307770800002,139.08307770800002,139.08307770800002,139.08307770800002,139.08307770800002,139.08307770800002,139.08307770800002,138.98690204133285,139.08307770800002,139.08307770800002,139.08307770800002,138.98690204133285,139.08307770800002,139.08307770800002,139.08307770800002,139.08307770800002,139.08307770800002,139.08307770800002,139.08307770800002,139.08307770800002,139.08307770800002,139.08307770800002,139.08307770800002,139.08307770800002,139.08307770800002,139.08307770800002,139.03690204133287,139.08307770800002,139.08307770800002,139.08307770800002,139.03690204133287,139.08307770800002,139.08307770800002,139.08307770800002,139.08307770800002,139.08307770800002,144.2989324579994,144.2989324579994,147.234293083,None,0,,reldom2_s017,001,2025-02-20_15h35.31.670,Vis-B-Scan_AC,2022.2.5,None,
11,Second_Order,2.0,viswhere,stimulus/viswhere_stim/120-deg_dot-left_slateblue.png,stimulus/viswhere_stim/60-deg_dot-left_seagreen.png,stimulus/viswhere_stim/90-deg_dot-right_seagreen.png,stimulus/viswhere_stim/30-deg_dot-right_mediumslateblue.png,stimulus/viswhere_stim/match_blank.png,stimulus/viswhere_stim/match_box.png,stimulus/viswhere_stim/match_yes.png,stimulus/viswhere_stim/match_no.png,1.0,Match,Dot,Dot,1,5.125,0,5.125,0,5.125,0,5.125,0,0.75,0.75,1,0.5,1,2.125,1,0.5,1,2.125,0,0,0,0,0,0,0,0,0,,,,,0,14,14,14,,,,,,,,,147.234293083,152.35328629099968,147.70857208300004,148.70725316599965,149.34177066599932,150.3307617499995,147.234293083,147.234293083,147.23336887466655,147.234293083,147.234293083,147.234293083,147.23336887466655,147.234293083,152.35328629099968,153.14629608299947,155.2328064579997,159.112130083,153.14629608299947,153.14629608299947,158.28068079100012,153.60805641600018,154.62191495800016,155.2328064579997,156.23474683299992,153.14629608299947,153.14629608299947,153.12044908333297,153.14629608299947,153.14629608299947,153.14629608299947,153.12044908333297,153.14629608299947,153.14629608299947,158.28068079100012,153.14629608299947,158.28068079100012,158.3356610410001,159.112130083,153.14629608299947,1,1,0.7472386670006017,reldom2_s017,001,2025-02-20_15h35.31.670,Vis-B-Scan_AC,2022.2.5,None,
12,Second_Order,2.0,viswhere,stimulus/viswhere_stim/90-deg_dot-right_cyan.png,stimulus/viswhere_stim/90-deg_dot-left_salmon.png,stimulus/viswhere_stim/30-deg_dot-left_goldenrod.png,stimulus/viswhere_stim/60-deg_dot-left_turquoise.png,stimulus/viswhere_stim/match_blank.png,stimulus/viswhere_stim/match_box.png,stimulus/viswhere_stim/match_yes.png,stimulus/viswhere_stim/match_no.png,2.0,Match,Line,Dot,2,5.125,0,5.125,0,5.125,0,5.125,0,0.625,0.625,1,0.5,1,2.125,1,0.5,1,2.125,0,0,0,0,0,0,0,0,0,,,,,0,15,15,15,,,,,,,,,159.112130083,164.23127833299986,159.59852933299953,160.58810416599954,161.22421349999968,162.22126158299943,159.112130083,159.112130083,159.1266414159998,159.112130083,159.112130083,159.112130083,159.1266414159998,159.112130083,164.23127833299986,164.90210920800018,166.9751812079994,171.01613737499974,164.90210920800018,164.90210920800018,170.02638899999965,165.3609290409995,166.36781795800016,166.9751812079994,167.98777129100017,164.90210920800018,164.90210920800018,164.8775837493327,164.90210920800018,164.90210920800018,164.90210920800018,164.8775837493327,164.90210920800018,164.90210920800018,170.02638899999965,164.90210920800018,170.02638899999965,170.09568862499964,170.72007808299986,164.90210920800018,2,1,1.5358170420004171,reldom2_s017,001,2025-02-20_15h35.31.670,Vis-B-Scan_AC,2022.2.5,None,
0,0.0,None,fixation,stimulus/viswhere_stim/blank_white.png,stimulus/viswhere_stim/blank_white.png,stimulus/viswhat_stim/blank_white.png,stimulus/viswhat_stim/blank_white.png,stimulus/viswhere_stim/blank_white.png,stimulus/viswhere_stim/blank_white.png,stimulus/viswhere_stim/blank_white.png,stimulus/viswhere_stim/blank_white.png,0.0,0.0,0.0,0.0,0,0.0,0,0.0,0,0.0,0,0.0,0,0.0,0.0,0,0.0,0,0.0,0,0.0,0,0.0,0,0,0,0,0,0,0,0,10,,,,,0,16,16,16,,,,,,,,,171.01613737499974,171.01613737499974,171.01613737499974,171.01613737499974,171.01613737499974,171.01613737499974,171.01613737499974,171.01613737499974,170.91762033333302,171.01613737499974,171.01613737499974,171.01613737499974,170.91762033333302,171.01613737499974,171.01613737499974,171.01613737499974,171.01613737499974,171.01613737499974,171.01613737499974,171.01613737499974,171.01613737499974,171.01613737499974,171.01613737499974,171.01613737499974,171.01613737499974,171.01613737499974,171.01613737499974,170.96762033333303,171.01613737499974,171.01613737499974,171.01613737499974,170.96762033333303,171.01613737499974,171.01613737499974,171.01613737499974,171.01613737499974,171.01613737499974,176.2358842499998,176.2358842499998,181.2656071249994,None,0,,reldom2_s017,001,2025-02-20_15h35.31.670,Vis-B-Scan_AC,2022.2.5,None,
13,First_Order,3.0,viswhat,stimulus/viswhat_stim/blank_white.png,stimulus/viswhat_stim/blank_white.png,stimulus/viswhat_stim/land_animal-moose.png,stimulus/viswhat_stim/water_animal-whale (1).png,stimulus/viswhat_stim/blank_white.png,stimulus/viswhat_stim/type_box.png,stimulus/viswhat_stim/type_yes.png,stimulus/viswhat_stim/type_no.png,None,Type,None,Type,1,0.0,0,5.125,0,5.125,0,5.125,0,0.0,0.625,0,0.0,0,0.0,1,0.5,1,2.125,0,0,0,0,0,0,0,0,0,,,,,0,17,17,17,,,,,,,,,181.2656071249994,181.2656071249994,181.2656071249994,181.2656071249994,181.2656071249994,181.2656071249994,181.2656071249994,181.2656071249994,181.16550720766617,181.2656071249994,181.2656071249994,181.2656071249994,181.16550720766617,181.2656071249994,181.2656071249994,181.2656071249994,183.370114458,,181.2656071249994,181.2656071249994,186.47040029099935,181.73354529100015,182.78789854099978,183.370114458,184.42611304099955,181.2656071249994,181.2656071249994,181.21550720766615,181.2656071249994,181.2656071249994,181.2656071249994,181.21550720766615,181.2656071249994,181.2656071249994,186.47040029099935,181.2656071249994,186.47040029099935,186.47040029099935,187.2987251249997,181.2656071249994,1,1,1.9570355840005504,reldom2_s017,001,2025-02-20_15h35.31.670,Vis-B-Scan_AC,2022.2.5,None,
14,First_Order,3.0,viswhat,stimulus/viswhat_stim/blank_white.png,stimulus/viswhat_stim/blank_white.png,stimulus/viswhat_stim/land_vehicle-trolley.png,stimulus/viswhat_stim/water_vehicle-jetski.png,stimulus/viswhat_stim/blank_white.png,stimulus/viswhat_stim/location_box.png,stimulus/viswhat_stim/location_yes.png,stimulus/viswhat_stim/location_no.png,None,Location,None,Type,2,0.0,0,5.125,0,5.125,0,5.125,0,0.0,0.625,0,0.0,0,0.0,1,0.5,1,2.125,0,0,0,0,0,0,0,0,0,,,,,0,18,18,18,,,,,,,,,187.2987251249997,187.2987251249997,187.2987251249997,187.2987251249997,187.2987251249997,187.2987251249997,187.2987251249997,187.2987251249997,187.27038824966684,187.2987251249997,187.2987251249997,187.2987251249997,187.27038824966684,187.2987251249997,187.2987251249997,187.2987251249997,189.40329983299944,193.3710019579994,187.2987251249997,187.2987251249997,192.43773370799954,187.77554449999934,188.8030821249995,189.40329983299944,190.43479479100006,187.2987251249997,187.2987251249997,187.2870549163335,187.2987251249997,187.2987251249997,187.2987251249997,187.2870549163335,187.2987251249997,187.2987251249997,192.43773370799954,187.2987251249997,192.43773370799954,192.5145291660001,193.15243429099974,187.2987251249997,2,1,1.1645638340005462,reldom2_s017,001,2025-02-20_15h35.31.670,Vis-B-Scan_AC,2022.2.5,None,
15,First_Order,3.0,viswhat,stimulus/viswhat_stim/blank_white.png,stimulus/viswhat_stim/blank_white.png,stimulus/viswhat_stim/land_animal-ostrich.png,stimulus/viswhat_stim/land_vehicle-train.png,stimulus/viswhat_stim/blank_white.png,stimulus/viswhat_stim/location_box.png,stimulus/viswhat_stim/location_yes.png,stimulus/viswhat_stim/location_no.png,None,Location,None,Location,1,0.0,0,5.125,0,5.125,0,5.125,0,0.0,0.625,0,0.0,0,0.0,1,0.5,1,2.125,0,0,0,0,0,0,0,0,0,,,,,0,19,19,19,,,,,,,,,193.3710019579994,193.3710019579994,193.3710019579994,193.3710019579994,193.3710019579994,193.3710019579994,193.3710019579994,193.3710019579994,193.34776170799944,193.3710019579994,193.3710019579994,193.3710019579994,193.34776170799944,193.3710019579994,193.3710019579994,193.3710019579994,195.4851287499996,199.78004724999937,193.3710019579994,193.3710019579994,198.49859399999968,193.8535965000001,194.86569058299938,195.4851287499996,196.4979968329999,193.3710019579994,193.3710019579994,193.34776170799944,193.3710019579994,193.3710019579994,193.3710019579994,193.34776170799944,193.3710019579994,193.3710019579994,198.49859399999968,193.3710019579994,198.49859399999968,198.58461554099995,199.20984145799957,193.3710019579994,1,1,1.0514451260005444,reldom2_s017,001,2025-02-20_15h35.31.670,Vis-B-Scan_AC,2022.2.5,None,
16,First_Order,3.0,viswhat,stimulus/viswhat_stim/blank_white.png,stimulus/viswhat_stim/blank_white.png,stimulus/viswhat_stim/water_animal-lobster.png,stimulus/viswhat_stim/land_animal-moose.png,stimulus/viswhat_stim/blank_white.png,stimulus/viswhat_stim/location_box.png,stimulus/viswhat_stim/location_yes.png,stimulus/viswhat_stim/location_no.png,None,Location,None,Type,2,0.0,0,5.125,0,5.125,0,5.125,0,0.0,0.625,0,0.0,0,0.0,1,0.5,1,2.125,0,0,0,0,0,0,0,0,0,,,,,0,20,20,20,,,,,,,,,199.78004724999937,199.78004724999937,199.78004724999937,199.78004724999937,199.78004724999937,199.78004724999937,199.78004724999937,199.78004724999937,199.41350512433323,199.78004724999937,199.78004724999937,199.78004724999937,199.41350512433323,199.78004724999937,199.78004724999937,199.78004724999937,201.75366958299946,,199.78004724999937,199.78004724999937,205.1599281660001,200.14031195799998,201.395627375,201.75366958299946,203.01252824999938,199.78004724999937,199.78004724999937,199.61350512433324,199.78004724999937,199.78004724999937,199.78004724999937,199.61350512433324,199.78004724999937,199.78004724999937,205.1599281660001,199.78004724999937,205.1599281660001,204.98606679099976,,199.78004724999937,2,1,0.9949297510001998,reldom2_s017,001,2025-02-20_15h35.31.670,Vis-B-Scan_AC,2022.2.5,None,
0,0.0,None,fixation,stimulus/viswhere_stim/blank_white.png,stimulus/viswhere_stim/blank_white.png,stimulus/viswhat_stim/blank_white.png,stimulus/viswhat_stim/blank_white.png,stimulus/viswhere_stim/blank_white.png,stimulus/viswhere_stim/blank_white.png,stimulus/viswhere_stim/blank_white.png,stimulus/viswhere_stim/blank_white.png,0.0,0.0,0.0,0.0,0,0.0,0,0.0,0,0.0,0,0.0,0,0.0,0.0,0,0.0,0,0.0,0,0.0,0,0.0,0,0,0,0,0,0,0,0,8,,,,,0,21,21,21,,,,,,,,,205.83625983299953,205.83625983299953,205.83625983299953,205.83625983299953,205.83625983299953,205.83625983299953,205.83625983299953,205.83625983299953,205.7342242079998,205.83625983299953,205.83625983299953,205.83625983299953,205.7342242079998,205.83625983299953,205.83625983299953,205.83625983299953,205.83625983299953,205.83625983299953,205.83625983299953,205.83625983299953,205.83625983299953,205.83625983299953,205.83625983299953,205.83625983299953,205.83625983299953,205.83625983299953,205.83625983299953,205.7842242079998,205.83625983299953,205.83625983299953,205.83625983299953,205.7842242079998,205.83625983299953,205.83625983299953,205.83625983299953,205.83625983299953,205.83625983299953,211.06814162499995,211.06814162499995,213.9942997500002,None,0,,reldom2_s017,001,2025-02-20_15h35.31.670,Vis-B-Scan_AC,2022.2.5,None,
17,Second_Order,3.0,viswhat,stimulus/viswhat_stim/land_animal-giraffe.png,stimulus/viswhat_stim/water_animal-stingray.png,stimulus/viswhat_stim/water_animal-squid.png,stimulus/viswhat_stim/water_vehicle-yacht.png,stimulus/viswhere_stim/match_blank.png,stimulus/viswhere_stim/match_box.png,stimulus/viswhere_stim/match_yes.png,stimulus/viswhere_stim/match_no.png,2.0,Match,Type,Location,2,5.125,0,5.125,0,5.125,0,5.125,0,0.75,0.75,1,0.5,1,2.125,1,0.5,1,2.125,0,0,0,0,0,0,0,0,0,,,,,0,22,22,22,,,,,,,,,213.9942997500002,219.10778570799994,214.44538424999973,215.43176787499942,216.06623537499945,217.06461004099947,213.9942997500002,213.9942997500002,213.99705874999964,213.9942997500002,213.9942997500002,213.9942997500002,213.99705874999964,213.9942997500002,219.10778570799994,219.94009991599978,222.00751758299975,225.92446324999946,219.94009991599978,219.94009991599978,225.09292862499933,220.39089504099957,221.44377629100018,222.00751758299975,223.063471208,219.94009991599978,219.94009991599978,219.90786924966605,219.94009991599978,219.94009991599978,219.94009991599978,219.90786924966605,219.94009991599978,219.94009991599978,225.09292862499933,219.94009991599978,225.09292862499933,225.12552633299947,,219.94009991599978,2,1,0.903075625999918,reldom2_s017,001,2025-02-20_15h35.31.670,Vis-B-Scan_AC,2022.2.5,None,
18,Second_Order,3.0,viswhat,stimulus/viswhat_stim/water_animal-whale (1).png,stimulus/viswhat_stim/land_animal-tiger.png,stimulus/viswhat_stim/water_animal-orka.png,stimulus/viswhat_stim/water_vehicle-cargoboat.png,stimulus/viswhere_stim/match_blank.png,stimulus/viswhere_stim/match_box.png,stimulus/viswhere_stim/match_yes.png,stimulus/viswhere_stim/match_no.png,2.0,Match,Type,Location,2,5.125,0,5.125,0,5.125,0,5.125,0,0.625,0.625,1,0.5,1,2.125,1,0.5,1,2.125,0,0,0,0,0,0,0,0,0,,,,,0,23,23,23,,,,,,,,,225.92446324999946,231.0467107909999,226.39008399999966,227.3887246659997,228.0112581659996,229.00916041599976,225.92446324999946,225.92446324999946,225.9292446249998,225.92446324999946,225.92446324999946,225.92446324999946,225.9292446249998,225.92446324999946,231.0467107909999,231.820907583,233.8644255829995,,231.820907583,231.820907583,237.03738841599989,232.2151521249998,233.27106062499934,233.8644255829995,234.92591591600012,231.820907583,231.820907583,231.76555195799995,231.820907583,231.820907583,231.820907583,231.76555195799995,231.820907583,231.820907583,237.03738841599989,231.820907583,237.03738841599989,236.97671199999968,237.91991312499977,231.820907583,2,1,0.6830335840004409,reldom2_s017,001,2025-02-20_15h35.31.670,Vis-B-Scan_AC,2022.2.5,None,
0,0.0,None,fixation,stimulus/viswhere_stim/blank_white.png,stimulus/viswhere_stim/blank_white.png,stimulus/viswhat_stim/blank_white.png,stimulus/viswhat_stim/blank_white.png,stimulus/viswhere_stim/blank_white.png,stimulus/viswhere_stim/blank_white.png,stimulus/viswhere_stim/blank_white.png,stimulus/viswhere_stim/blank_white.png,0.0,0.0,0.0,0.0,0,0.0,0,0.0,0,0.0,0,0.0,0,0.0,0.0,0,0.0,0,0.0,0,0.0,0,0.0,0,0,0,0,0,0,0,0,9,,,,,0,24,24,24,,,,,,,,,237.91991312499977,237.91991312499977,237.91991312499977,237.91991312499977,237.91991312499977,237.91991312499977,237.91991312499977,237.91991312499977,237.82515220833278,237.91991312499977,237.91991312499977,237.91991312499977,237.82515220833278,237.91991312499977,237.91991312499977,237.91991312499977,237.91991312499977,237.91991312499977,237.91991312499977,237.91991312499977,237.91991312499977,237.91991312499977,237.91991312499977,237.91991312499977,237.91991312499977,237.91991312499977,237.91991312499977,237.8751522083328,237.91991312499977,237.91991312499977,237.91991312499977,237.8751522083328,237.91991312499977,237.91991312499977,237.91991312499977,237.91991312499977,237.91991312499977,243.10356195799977,243.10356195799977,247.12660429100015,None,0,,reldom2_s017,001,2025-02-20_15h35.31.670,Vis-B-Scan_AC,2022.2.5,None,
19,First_Order,4.0,viswhat,stimulus/viswhat_stim/blank_white.png,stimulus/viswhat_stim/blank_white.png,stimulus/viswhat_stim/water_animal-dolphin.png,stimulus/viswhat_stim/water_vehicle-canoe.png,stimulus/viswhat_stim/blank_white.png,stimulus/viswhat_stim/type_box.png,stimulus/viswhat_stim/type_yes.png,stimulus/viswhat_stim/type_no.png,None,Type,None,Location,2,0.0,0,5.125,0,5.125,0,5.125,0,0.0,0.625,0,0.0,0,0.0,1,0.5,1,2.125,0,0,0,0,0,0,0,0,0,,,,,0,25,25,25,,,,,,,,,247.12660429100015,247.12660429100015,247.12660429100015,247.12660429100015,247.12660429100015,247.12660429100015,247.12660429100015,247.12660429100015,247.08837054166605,247.12660429100015,247.12660429100015,247.12660429100015,247.08837054166605,247.12660429100015,247.12660429100015,247.12660429100015,249.23533441600011,,247.12660429100015,247.12660429100015,252.26505629099938,247.58846308299962,248.5998902909996,249.23533441600011,250.2492103329996,247.12660429100015,247.12660429100015,247.1050372083327,247.12660429100015,247.12660429100015,247.12660429100015,247.1050372083327,247.12660429100015,247.12660429100015,252.26505629099938,247.12660429100015,252.26505629099938,252.3350816659995,252.9867032080001,247.12660429100015,2,1,1.5759185830002025,reldom2_s017,001,2025-02-20_15h35.31.670,Vis-B-Scan_AC,2022.2.5,None,
20,First_Order,4.0,viswhat,stimulus/viswhat_stim/blank_white.png,stimulus/viswhat_stim/blank_white.png,stimulus/viswhat_stim/land_animal-elephant.png,stimulus/viswhat_stim/land_vehicle-pickuptruck.png,stimulus/viswhat_stim/blank_white.png,stimulus/viswhat_stim/type_box.png,stimulus/viswhat_stim/type_yes.png,stimulus/viswhat_stim/type_no.png,None,Type,None,Location,2,0.0,0,5.125,0,5.125,0,5.125,0,0.0,0.625,0,0.0,0,0.0,1,0.5,1,2.125,0,0,0,0,0,0,0,0,0,,,,,0,26,26,26,,,,,,,,,253.26212929099893,253.26212929099893,253.26212929099893,253.26212929099893,253.26212929099893,253.26212929099893,253.26212929099893,253.26212929099893,253.15669362499978,253.26212929099893,253.26212929099893,253.26212929099893,253.15669362499978,253.26212929099893,253.26212929099893,253.26212929099893,255.343675832999,259.5282137079994,253.26212929099893,253.26212929099893,258.43863891599904,253.7378699159999,254.80977583300046,255.343675832999,256.41994008300026,253.26212929099893,253.26212929099893,253.20669362499976,253.26212929099893,253.26212929099893,253.26212929099893,253.20669362499976,253.26212929099893,253.26212929099893,258.43863891599904,253.26212929099893,258.43863891599904,258.43863891599904,259.13814791599907,253.26212929099893,2,1,0.5349510009991718,reldom2_s017,001,2025-02-20_15h35.31.670,Vis-B-Scan_AC,2022.2.5,None,
21,First_Order,4.0,viswhat,stimulus/viswhat_stim/blank_white.png,stimulus/viswhat_stim/blank_white.png,stimulus/viswhat_stim/water_vehicle-cruiseship.png,stimulus/viswhat_stim/land_vehicle-oldcar.png,stimulus/viswhat_stim/blank_white.png,stimulus/viswhat_stim/type_box.png,stimulus/viswhat_stim/type_yes.png,stimulus/viswhat_stim/type_no.png,None,Type,None,Type,1,0.0,0,5.125,0,5.125,0,5.125,0,0.0,0.625,0,0.0,0,0.0,1,0.5,1,2.125,0,0,0,0,0,0,0,0,0,,,,,0,27,27,27,,,,,,,,,259.5282137079994,259.5282137079994,259.5282137079994,259.5282137079994,259.5282137079994,259.5282137079994,259.5282137079994,259.5282137079994,259.3048145826657,259.5282137079994,259.5282137079994,259.5282137079994,259.3048145826657,259.5282137079994,259.5282137079994,259.5282137079994,261.6056004580005,265.6728836660004,259.5282137079994,259.5282137079994,264.83815033300016,259.9914652080006,261.1446167079994,261.6056004580005,262.76436970800023,259.5282137079994,259.5282137079994,259.4214812493324,259.5282137079994,259.5282137079994,259.5282137079994,259.4214812493324,259.5282137079994,259.5282137079994,264.83815033300016,259.5282137079994,264.83815033300016,264.7282156250003,,259.5282137079994,1,1,0.8882769170004394,reldom2_s017,001,2025-02-20_15h35.31.670,Vis-B-Scan_AC,2022.2.5,None,
22,First_Order,4.0,viswhat,stimulus/viswhat_stim/blank_white.png,stimulus/viswhat_stim/blank_white.png,stimulus/viswhat_stim/water_vehicle-pirateship.png,stimulus/viswhat_stim/water_animal-orka.png,stimulus/viswhat_stim/blank_white.png,stimulus/viswhat_stim/location_box.png,stimulus/viswhat_stim/location_yes.png,stimulus/viswhat_stim/location_no.png,None,Location,None,Location,1,0.0,0,5.125,0,5.125,0,5.125,0,0.0,0.625,0,0.0,0,0.0,1,0.5,1,2.125,0,0,0,0,0,0,0,0,0,,,,,0,28,28,28,,,,,,,,,265.6728836660004,265.6728836660004,265.6728836660004,265.6728836660004,265.6728836660004,265.6728836660004,265.6728836660004,265.6728836660004,265.5433934996656,265.6728836660004,265.6728836660004,265.6728836660004,265.5433934996656,265.6728836660004,265.6728836660004,265.6728836660004,267.76572429099906,,265.6728836660004,265.6728836660004,270.8696182909989,266.147736375,267.22659858299994,267.76572429099906,268.8502896249993,265.6728836660004,265.6728836660004,265.6100601663323,265.6728836660004,265.6728836660004,265.6728836660004,265.6100601663323,265.6728836660004,265.6728836660004,270.8696182909989,265.6728836660004,270.8696182909989,270.8696182909989,271.76325566599917,265.6728836660004,1,1,1.1634300420000727,reldom2_s017,001,2025-02-20_15h35.31.670,Vis-B-Scan_AC,2022.2.5,None,
0,0.0,None,fixation,stimulus/viswhere_stim/blank_white.png,stimulus/viswhere_stim/blank_white.png,stimulus/viswhat_stim/blank_white.png,stimulus/viswhat_stim/blank_white.png,stimulus/viswhere_stim/blank_white.png,stimulus/viswhere_stim/blank_white.png,stimulus/viswhere_stim/blank_white.png,stimulus/viswhere_stim/blank_white.png,0.0,0.0,0.0,0.0,0,0.0,0,0.0,0,0.0,0,0.0,0,0.0,0.0,0,0.0,0,0.0,0,0.0,0,0.0,0,0,0,0,0,0,0,0,10,,,,,0,29,29,29,,,,,,,,,271.76325566599917,271.76325566599917,271.76325566599917,271.76325566599917,271.76325566599917,271.76325566599917,271.76325566599917,271.76325566599917,271.66938124933307,271.76325566599917,271.76325566599917,271.76325566599917,271.66938124933307,271.76325566599917,271.76325566599917,271.76325566599917,271.76325566599917,271.76325566599917,271.76325566599917,271.76325566599917,271.76325566599917,271.76325566599917,271.76325566599917,271.76325566599917,271.76325566599917,271.76325566599917,271.76325566599917,271.719381249333,271.76325566599917,271.76325566599917,271.76325566599917,271.719381249333,271.76325566599917,271.76325566599917,271.76325566599917,271.76325566599917,271.76325566599917,276.95208170799924,276.95208170799924,281.8976590000002,None,0,,reldom2_s017,001,2025-02-20_15h35.31.670,Vis-B-Scan_AC,2022.2.5,None,
23,Second_Order,4.0,viswhat,stimulus/viswhat_stim/land_vehicle-pickuptruck.png,stimulus/viswhat_stim/land_animal-lion.png,stimulus/viswhat_stim/water_animal-jellyfish.png,stimulus/viswhat_stim/water_vehicle-cabincruiser.png,stimulus/viswhere_stim/match_blank.png,stimulus/viswhere_stim/match_box.png,stimulus/viswhere_stim/match_yes.png,stimulus/viswhere_stim/match_no.png,1.0,Match,Location,Location,1,5.125,0,5.125,0,5.125,0,5.125,0,0.75,0.75,1,0.5,1,2.125,1,0.5,1,2.125,0,0,0,0,0,0,0,0,0,,,,,0,30,30,30,,,,,,,,,281.8976590000002,287.01415158300006,282.3704077910006,283.3675638749992,283.9907458329999,284.9881690410002,281.8976590000002,281.8976590000002,281.8968249163337,281.8976590000002,281.8976590000002,281.8976590000002,281.8968249163337,281.8976590000002,287.01415158300006,287.84943691599983,289.92277216599905,,287.84943691599983,287.84943691599983,292.99743329100056,288.28762054099934,289.3241947909992,289.92277216599905,290.9624526659991,287.84943691599983,287.84943691599983,287.8145167076664,287.84943691599983,287.84943691599983,287.84943691599983,287.8145167076664,287.84943691599983,287.84943691599983,292.99743329100056,287.84943691599983,292.99743329100056,293.03197316600017,,287.84943691599983,1,1,1.4747089170004983,reldom2_s017,001,2025-02-20_15h35.31.670,Vis-B-Scan_AC,2022.2.5,None,
24,Second_Order,4.0,viswhat,stimulus/viswhat_stim/water_vehicle-pirateship.png,stimulus/viswhat_stim/land_vehicle-oldcar.png,stimulus/viswhat_stim/land_animal-zebra.png,stimulus/viswhat_stim/water_animal-seahorse.png,stimulus/viswhere_stim/match_blank.png,stimulus/viswhere_stim/match_box.png,stimulus/viswhere_stim/match_yes.png,stimulus/viswhere_stim/match_no.png,1.0,Match,Type,Type,1,5.125,0,5.125,0,5.125,0,5.125,0,0.625,0.625,1,0.5,1,2.125,1,0.5,1,2.125,0,0,0,0,0,0,0,0,0,,,,,0,31,31,31,,,,,,,,,293.8209931250003,298.94164083299984,294.27986266600055,295.2788480830004,295.90159875000063,296.89896408300046,293.8209931250003,293.8209931250003,293.83548599966696,293.8209931250003,293.8209931250003,293.8209931250003,293.83548599966696,293.8209931250003,298.94164083299984,299.6253550000001,301.70323437499974,305.73309162499936,299.6253550000001,299.6253550000001,304.76149420799993,300.0629239159989,301.07674187500015,301.70323437499974,302.7265502499995,299.6253550000001,299.6253550000001,299.6049516249994,299.6253550000001,299.6253550000001,299.6253550000001,299.6049516249994,299.6253550000001,299.6253550000001,304.76149420799993,299.6253550000001,304.76149420799993,304.817655249999,305.4483118749995,299.6253550000001,1,1,0.944612792000953,reldom2_s017,001,2025-02-20_15h35.31.670,Vis-B-Scan_AC,2022.2.5,None,
0,0.0,None,fixation,stimulus/viswhere_stim/blank_white.png,stimulus/viswhere_stim/blank_white.png,stimulus/viswhat_stim/blank_white.png,stimulus/viswhat_stim/blank_white.png,stimulus/viswhere_stim/blank_white.png,stimulus/viswhere_stim/blank_white.png,stimulus/viswhere_stim/blank_white.png,stimulus/viswhere_stim/blank_white.png,0.0,0.0,0.0,0.0,0,0.0,0,0.0,0,0.0,0,0.0,0,0.0,0.0,0,0.0,0,0.0,0,0.0,0,0.0,0,0,0,0,0,0,0,0,9,,,,,0,32,32,32,,,,,,,,,305.73309162499936,305.73309162499936,305.73309162499936,305.73309162499936,305.73309162499936,305.73309162499936,305.73309162499936,305.73309162499936,305.6408771660004,305.73309162499936,305.73309162499936,305.73309162499936,305.6408771660004,305.73309162499936,305.73309162499936,305.73309162499936,305.73309162499936,305.73309162499936,305.73309162499936,305.73309162499936,305.73309162499936,305.73309162499936,305.73309162499936,305.73309162499936,305.73309162499936,305.73309162499936,305.73309162499936,305.6908771660004,305.73309162499936,305.73309162499936,305.73309162499936,305.6908771660004,305.73309162499936,305.73309162499936,305.73309162499936,305.73309162499936,305.73309162499936,310.93284850000055,310.93284850000055,314.9494770000001,None,0,,reldom2_s017,001,2025-02-20_15h35.31.670,Vis-B-Scan_AC,2022.2.5,None,
25,First_Order,5.0,viswhere,stimulus/viswhere_stim/blank_white.png,stimulus/viswhere_stim/blank_white.png,stimulus/viswhere_stim/90-deg_dot-right_seagreen.png,stimulus/viswhere_stim/150-deg_dot-right_turquoise.png,stimulus/viswhere_stim/blank_white.png,stimulus/viswhere_stim/line_box.png,stimulus/viswhere_stim/line_yes.png,stimulus/viswhere_stim/line_no.png,None,Line,None,Dot,2,0.0,0,5.125,0,5.125,0,5.125,0,0.0,0.625,0,0.0,0,0.0,1,0.5,1,2.125,0,0,0,0,0,0,0,0,0,,,,,0,33,33,33,,,,,,,,,314.9494770000001,314.9494770000001,314.9494770000001,314.9494770000001,314.9494770000001,314.9494770000001,314.9494770000001,314.9494770000001,314.93109383266585,314.9494770000001,314.9494770000001,314.9494770000001,314.93109383266585,314.9494770000001,314.9494770000001,314.9494770000001,317.0588021250005,321.01696533299946,314.9494770000001,314.9494770000001,320.0787905830002,315.4302612499996,316.44736216599995,317.0588021250005,318.0636909579989,314.9494770000001,314.9494770000001,314.93109383266585,314.9494770000001,314.9494770000001,314.9494770000001,314.93109383266585,314.9494770000001,314.9494770000001,320.0787905830002,314.9494770000001,320.0787905830002,320.1763791659996,320.8032685830003,314.9494770000001,2,1,0.7067088329995386,reldom2_s017,001,2025-02-20_15h35.31.670,Vis-B-Scan_AC,2022.2.5,None,
26,First_Order,5.0,viswhere,stimulus/viswhere_stim/blank_white.png,stimulus/viswhere_stim/blank_white.png,stimulus/viswhere_stim/150-deg_dot-left_seagreen.png,stimulus/viswhere_stim/150-deg_dot-right_seagreen.png,stimulus/viswhere_stim/blank_white.png,stimulus/viswhere_stim/dot_box.png,stimulus/viswhere_stim/dot_yes.png,stimulus/viswhere_stim/dot_no.png,None,Dot,None,Line,2,0.0,0,5.125,0,5.125,0,5.125,0,0.0,0.625,0,0.0,0,0.0,1,0.5,1,2.125,0,0,0,0,0,0,0,0,0,,,,,0,34,34,34,,,,,,,,,321.01696533299946,321.01696533299946,321.01696533299946,321.01696533299946,321.01696533299946,321.01696533299946,321.01696533299946,321.01696533299946,320.99712133333315,321.01696533299946,321.01696533299946,321.01696533299946,320.99712133333315,321.01696533299946,321.01696533299946,321.01696533299946,323.130907666,327.08139379100066,321.01696533299946,321.01696533299946,326.15630779099956,321.49723141600043,322.5179656250002,323.130907666,324.1374632909992,321.01696533299946,321.01696533299946,320.99712133333315,321.01696533299946,321.01696533299946,321.01696533299946,320.99712133333315,321.01696533299946,321.01696533299946,326.15630779099956,321.01696533299946,326.15630779099956,326.2406587080004,326.86742941599914,321.01696533299946,2,1,0.7435244590005823,reldom2_s017,001,2025-02-20_15h35.31.670,Vis-B-Scan_AC,2022.2.5,None,
27,First_Order,5.0,viswhere,stimulus/viswhere_stim/blank_white.png,stimulus/viswhere_stim/blank_white.png,stimulus/viswhere_stim/90-deg_dot-left_turquoise.png,stimulus/viswhere_stim/90-deg_dot-right_seagreen.png,stimulus/viswhere_stim/blank_white.png,stimulus/viswhere_stim/line_box.png,stimulus/viswhere_stim/line_yes.png,stimulus/viswhere_stim/line_no.png,None,Line,None,Line,1,0.0,0,5.125,0,5.125,0,5.125,0,0.0,0.625,0,0.0,0,0.0,1,0.5,1,2.125,0,0,0,0,0,0,0,0,0,,,,,0,35,35,35,,,,,,,,,327.08139379100066,327.08139379100066,327.08139379100066,327.08139379100066,327.08139379100066,327.08139379100066,327.08139379100066,327.08139379100066,327.06138458333345,327.08139379100066,327.08139379100066,327.08139379100066,327.06138458333345,327.08139379100066,327.08139379100066,327.08139379100066,329.186940874999,333.13913633300035,327.08139379100066,327.08139379100066,332.2156702079992,327.5608925409997,328.5766529579996,329.186940874999,330.2070482910003,327.08139379100066,327.08139379100066,327.0780512500001,327.08139379100066,327.08139379100066,327.08139379100066,327.0780512500001,327.08139379100066,327.08139379100066,332.2156702079992,327.08139379100066,332.2156702079992,332.3134411249994,332.938936999999,327.08139379100066,1,1,0.7092910420005865,reldom2_s017,001,2025-02-20_15h35.31.670,Vis-B-Scan_AC,2022.2.5,None,
28,First_Order,5.0,viswhere,stimulus/viswhere_stim/blank_white.png,stimulus/viswhere_stim/blank_white.png,stimulus/viswhere_stim/120-deg_dot-right_mediumslateblue.png,stimulus/viswhere_stim/90-deg_dot-right_lightsseagreen.png,stimulus/viswhere_stim/blank_white.png,stimulus/viswhere_stim/dot_box.png,stimulus/viswhere_stim/dot_yes.png,stimulus/viswhere_stim/dot_no.png,None,Dot,None,Dot,1,0.0,0,5.125,0,5.125,0,5.125,0,0.0,0.625,0,0.0,0,0.0,1,0.5,1,2.125,0,0,0,0,0,0,0,0,0,,,,,0,36,36,36,,,,,,,,,333.13913633300035,333.13913633300035,333.13913633300035,333.13913633300035,333.13913633300035,333.13913633300035,333.13913633300035,333.13913633300035,333.1190139993335,333.13913633300035,333.13913633300035,333.13913633300035,333.1190139993335,333.13913633300035,333.13913633300035,333.13913633300035,335.25384312499955,339.2928844580001,333.13913633300035,333.13913633300035,338.2695482500003,333.61473083300007,334.6270650000006,335.25384312499955,336.26955808300045,333.13913633300035,333.13913633300035,333.13568066600016,333.13913633300035,333.13913633300035,333.13913633300035,333.13568066600016,333.13913633300035,333.13913633300035,338.2695482500003,333.13913633300035,338.2695482500003,338.3645780829993,338.9858956249991,333.13913633300035,1,1,0.8161152510010652,reldom2_s017,001,2025-02-20_15h35.31.670,Vis-B-Scan_AC,2022.2.5,None,
0,0.0,None,fixation,stimulus/viswhere_stim/blank_white.png,stimulus/viswhere_stim/blank_white.png,stimulus/viswhat_stim/blank_white.png,stimulus/viswhat_stim/blank_white.png,stimulus/viswhere_stim/blank_white.png,stimulus/viswhere_stim/blank_white.png,stimulus/viswhere_stim/blank_white.png,stimulus/viswhere_stim/blank_white.png,0.0,0.0,0.0,0.0,0,0.0,0,0.0,0,0.0,0,0.0,0,0.0,0.0,0,0.0,0,0.0,0,0.0,0,0.0,0,0,0,0,0,0,0,0,10,,,,,0,37,37,37,,,,,,,,,339.2928844580001,339.2928844580001,339.2928844580001,339.2928844580001,339.2928844580001,339.2928844580001,339.2928844580001,339.2928844580001,339.19579049933355,339.2928844580001,339.2928844580001,339.2928844580001,339.19579049933355,339.2928844580001,339.2928844580001,339.2928844580001,339.2928844580001,339.2928844580001,339.2928844580001,339.2928844580001,339.2928844580001,339.2928844580001,339.2928844580001,339.2928844580001,339.2928844580001,339.2928844580001,339.2928844580001,339.24579049933357,339.2928844580001,339.2928844580001,339.2928844580001,339.24579049933357,339.2928844580001,339.2928844580001,339.2928844580001,339.2928844580001,339.2928844580001,344.48863212499964,344.48863212499964,349.4285490410002,None,0,,reldom2_s017,001,2025-02-20_15h35.31.670,Vis-B-Scan_AC,2022.2.5,None,
29,Second_Order,5.0,viswhere,stimulus/viswhere_stim/30-deg_dot-right_peru.png,stimulus/viswhere_stim/120-deg_dot-right_royalblue.png,stimulus/viswhere_stim/120-deg_dot-left_lightsseagreen.png,stimulus/viswhere_stim/90-deg_dot-left_seagreen.png,stimulus/viswhere_stim/match_blank.png,stimulus/viswhere_stim/match_box.png,stimulus/viswhere_stim/match_yes.png,stimulus/viswhere_stim/match_no.png,1.0,Match,Dot,Dot,1,5.125,0,5.125,0,5.125,0,5.125,0,0.75,0.75,1,0.5,1,2.125,1,0.5,1,2.125,0,0,0,0,0,0,0,0,0,,,,,0,38,38,38,,,,,,,,,349.4285490410002,354.55332783300037,349.9089180409992,350.90714891599964,351.53021254099986,352.52769462499964,349.4285490410002,349.4285490410002,349.4270977916657,349.4285490410002,349.4285490410002,349.4285490410002,349.4270977916657,349.4285490410002,354.55332783300037,355.34762866599885,357.4188589160003,361.28427399999964,355.34762866599885,355.34762866599885,360.4867234159992,355.79042387499976,356.8071107079995,357.4188589160003,358.4398527079993,355.34762866599885,355.34762866599885,355.32069570833346,355.34762866599885,355.34762866599885,355.34762866599885,355.32069570833346,355.34762866599885,355.34762866599885,360.4867234159992,355.34762866599885,360.4867234159992,360.5425433750006,361.3199471659991,355.34762866599885,1,1,0.8100975830011521,reldom2_s017,001,2025-02-20_15h35.31.670,Vis-B-Scan_AC,2022.2.5,None,
30,Second_Order,5.0,viswhere,stimulus/viswhere_stim/60-deg_dot-right_seagreen.png,stimulus/viswhere_stim/60-deg_dot-left_slateblue.png,stimulus/viswhere_stim/120-deg_dot-left_seagreen.png,stimulus/viswhere_stim/30-deg_dot-left_cyan.png,stimulus/viswhere_stim/match_blank.png,stimulus/viswhere_stim/match_box.png,stimulus/viswhere_stim/match_yes.png,stimulus/viswhere_stim/match_no.png,2.0,Match,Line,Dot,2,5.125,0,5.125,0,5.125,0,5.125,0,0.625,0.625,1,0.5,1,2.125,1,0.5,1,2.125,0,0,0,0,0,0,0,0,0,,,,,0,39,39,39,,,,,,,,,361.3199471659991,366.44321529099943,361.8036430409993,362.80148174999886,363.42347599999994,364.42175195799973,361.3199471659991,361.3199471659991,361.33427399999965,361.3199471659991,361.3199471659991,361.3199471659991,361.33427399999965,361.3199471659991,366.44321529099943,367.1158952499991,369.1983295829996,373.22649841599923,367.1158952499991,367.1158952499991,372.24112554100066,367.57715695799925,368.58978408300027,369.1983295829996,370.21803770800034,367.1158952499991,367.1158952499991,367.0943831243335,367.1158952499991,367.1158952499991,367.1158952499991,367.0943831243335,367.1158952499991,367.1158952499991,372.24112554100066,367.1158952499991,372.24112554100066,372.3100355000006,372.93089566600065,367.1158952499991,2,1,0.6946392920008293,reldom2_s017,001,2025-02-20_15h35.31.670,Vis-B-Scan_AC,2022.2.5,None,
0,0.0,None,fixation,stimulus/viswhere_stim/blank_white.png,stimulus/viswhere_stim/blank_white.png,stimulus/viswhat_stim/blank_white.png,stimulus/viswhat_stim/blank_white.png,stimulus/viswhere_stim/blank_white.png,stimulus/viswhere_stim/blank_white.png,stimulus/viswhere_stim/blank_white.png,stimulus/viswhere_stim/blank_white.png,0.0,0.0,0.0,0.0,0,0.0,0,0.0,0,0.0,0,0.0,0,0.0,0.0,0,0.0,0,0.0,0,0.0,0,0.0,0,0,0,0,0,0,0,0,9,,,,,0,40,40,40,,,,,,,,,373.22649841599923,373.22649841599923,373.22649841599923,373.22649841599923,373.22649841599923,373.22649841599923,373.22649841599923,373.22649841599923,373.127773333333,373.22649841599923,373.22649841599923,373.22649841599923,373.127773333333,373.22649841599923,373.22649841599923,373.22649841599923,373.22649841599923,373.22649841599923,373.22649841599923,373.22649841599923,373.22649841599923,373.22649841599923,373.22649841599923,373.22649841599923,373.22649841599923,373.22649841599923,373.22649841599923,373.177773333333,373.22649841599923,373.22649841599923,373.22649841599923,373.177773333333,373.22649841599923,373.22649841599923,373.22649841599923,373.22649841599923,373.22649841599923,378.44716791599967,378.44716791599967,382.41646854099963,None,0,,reldom2_s017,001,2025-02-20_15h35.31.670,Vis-B-Scan_AC,2022.2.5,None,
31,First_Order,6.0,viswhere,stimulus/viswhere_stim/blank_white.png,stimulus/viswhere_stim/blank_white.png,stimulus/viswhere_stim/120-deg_dot-left_royalblue.png,stimulus/viswhere_stim/30-deg_dot-left_goldenrod.png,stimulus/viswhere_stim/blank_white.png,stimulus/viswhere_stim/dot_box.png,stimulus/viswhere_stim/dot_yes.png,stimulus/viswhere_stim/dot_no.png,None,Dot,None,Dot,1,0.0,0,5.125,0,5.125,0,5.125,0,0.0,0.625,0,0.0,0,0.0,1,0.5,1,2.125,0,0,0,0,0,0,0,0,0,,,,,0,41,41,41,,,,,,,,,382.41646854099963,382.41646854099963,382.41646854099963,382.41646854099963,382.41646854099963,382.41646854099963,382.41646854099963,382.41646854099963,382.3979681666666,382.41646854099963,382.41646854099963,382.41646854099963,382.3979681666666,382.41646854099963,382.41646854099963,382.41646854099963,384.52547041599973,388.4733207499994,382.41646854099963,382.41646854099963,387.5535632079991,382.89170558300066,383.8989320410001,384.52547041599973,385.53755962499963,382.41646854099963,382.41646854099963,382.3979681666666,382.41646854099963,382.41646854099963,382.41646854099963,382.3979681666666,382.41646854099963,382.41646854099963,387.5535632079991,382.41646854099963,387.5535632079991,387.6349910829995,388.25568033299896,382.41646854099963,1,1,0.9840646260008725,reldom2_s017,001,2025-02-20_15h35.31.670,Vis-B-Scan_AC,2022.2.5,None,
32,First_Order,6.0,viswhere,stimulus/viswhere_stim/blank_white.png,stimulus/viswhere_stim/blank_white.png,stimulus/viswhere_stim/150-deg_dot-left_salmon.png,stimulus/viswhere_stim/150-deg_dot-right_salmon.png,stimulus/viswhere_stim/blank_white.png,stimulus/viswhere_stim/dot_box.png,stimulus/viswhere_stim/dot_yes.png,stimulus/viswhere_stim/dot_no.png,None,Dot,None,Line,2,0.0,0,5.125,0,5.125,0,5.125,0,0.0,0.625,0,0.0,0,0.0,1,0.5,1,2.125,0,0,0,0,0,0,0,0,0,,,,,0,42,42,42,,,,,,,,,388.4733207499994,388.4733207499994,388.4733207499994,388.4733207499994,388.4733207499994,388.4733207499994,388.4733207499994,388.4733207499994,388.4530889163337,388.4733207499994,388.4733207499994,388.4733207499994,388.4530889163337,388.4733207499994,388.4733207499994,388.4733207499994,390.58510541599935,394.53208091600027,388.4733207499994,388.4733207499994,393.6111430000001,388.9524916249993,389.9717289580003,390.58510541599935,391.59051725000063,388.4733207499994,388.4733207499994,388.46975558300034,388.4733207499994,388.4733207499994,388.4733207499994,388.46975558300034,388.4733207499994,388.4733207499994,393.6111430000001,388.4733207499994,393.6111430000001,393.6994091659999,394.33081262499945,388.4733207499994,2,1,0.7499497090002478,reldom2_s017,001,2025-02-20_15h35.31.670,Vis-B-Scan_AC,2022.2.5,None,
33,First_Order,6.0,viswhere,stimulus/viswhere_stim/blank_white.png,stimulus/viswhere_stim/blank_white.png,stimulus/viswhere_stim/150-deg_dot-left_cyan.png,stimulus/viswhere_stim/150-deg_dot-right_seagreen.png,stimulus/viswhere_stim/blank_white.png,stimulus/viswhere_stim/line_box.png,stimulus/viswhere_stim/line_yes.png,stimulus/viswhere_stim/line_no.png,None,Line,None,Line,1,0.0,0,5.125,0,5.125,0,5.125,0,0.0,0.625,0,0.0,0,0.0,1,0.5,1,2.125,0,0,0,0,0,0,0,0,0,,,,,0,43,43,43,,,,,,,,,394.53208091600027,394.53208091600027,394.53208091600027,394.53208091600027,394.53208091600027,394.53208091600027,394.53208091600027,394.53208091600027,394.51147383333347,394.53208091600027,394.53208091600027,394.53208091600027,394.51147383333347,394.53208091600027,394.53208091600027,394.53208091600027,396.6340196660003,400.60265224999966,394.53208091600027,394.53208091600027,399.6714309580002,395.0140709999996,396.01854145799916,396.6340196660003,397.64283358300054,394.53208091600027,394.53208091600027,394.5281405000001,394.53208091600027,394.53208091600027,394.53208091600027,394.5281405000001,394.53208091600027,394.53208091600027,399.6714309580002,394.53208091600027,399.6714309580002,399.75526641599936,400.3873429159994,394.53208091600027,1,1,0.6232315840015872,reldom2_s017,001,2025-02-20_15h35.31.670,Vis-B-Scan_AC,2022.2.5,None,
34,First_Order,6.0,viswhere,stimulus/viswhere_stim/blank_white.png,stimulus/viswhere_stim/blank_white.png,stimulus/viswhere_stim/150-deg_dot-right_cyan.png,stimulus/viswhere_stim/120-deg_dot-right_cyan.png,stimulus/viswhere_stim/blank_white.png,stimulus/viswhere_stim/line_box.png,stimulus/viswhere_stim/line_yes.png,stimulus/viswhere_stim/line_no.png,None,Line,None,Dot,2,0.0,0,5.125,0,5.125,0,5.125,0,0.0,0.625,0,0.0,0,0.0,1,0.5,1,2.125,0,0,0,0,0,0,0,0,0,,,,,0,44,44,44,,,,,,,,,400.60265224999966,400.60265224999966,400.60265224999966,400.60265224999966,400.60265224999966,400.60265224999966,400.60265224999966,400.60265224999966,400.58206554133295,400.60265224999966,400.60265224999966,400.60265224999966,400.58206554133295,400.60265224999966,400.60265224999966,400.60265224999966,402.7074405410003,406.7428327910002,400.60265224999966,400.60265224999966,405.7407213329989,401.07988795799974,402.0960526660001,402.7074405410003,403.7281086660005,400.60265224999966,400.60265224999966,400.5987322079996,400.60265224999966,400.60265224999966,400.60265224999966,400.5987322079996,400.60265224999966,400.60265224999966,405.7407213329989,400.60265224999966,405.7407213329989,405.82409783299954,406.4511733750005,400.60265224999966,2,1,0.8866265420010677,reldom2_s017,001,2025-02-20_15h35.31.670,Vis-B-Scan_AC,2022.2.5,None,
0,0.0,None,fixation,stimulus/viswhere_stim/blank_white.png,stimulus/viswhere_stim/blank_white.png,stimulus/viswhat_stim/blank_white.png,stimulus/viswhat_stim/blank_white.png,stimulus/viswhere_stim/blank_white.png,stimulus/viswhere_stim/blank_white.png,stimulus/viswhere_stim/blank_white.png,stimulus/viswhere_stim/blank_white.png,0.0,0.0,0.0,0.0,0,0.0,0,0.0,0,0.0,0,0.0,0,0.0,0.0,0,0.0,0,0.0,0,0.0,0,0.0,0,0,0,0,0,0,0,0,8,,,,,0,45,45,45,,,,,,,,,406.7428327910002,406.7428327910002,406.7428327910002,406.7428327910002,406.7428327910002,406.7428327910002,406.7428327910002,406.7428327910002,406.6452023333325,406.7428327910002,406.7428327910002,406.7428327910002,406.6452023333325,406.7428327910002,406.7428327910002,406.7428327910002,406.7428327910002,406.7428327910002,406.7428327910002,406.7428327910002,406.7428327910002,406.7428327910002,406.7428327910002,406.7428327910002,406.7428327910002,406.7428327910002,406.7428327910002,406.69520233333253,406.7428327910002,406.7428327910002,406.7428327910002,406.69520233333253,406.7428327910002,406.7428327910002,406.7428327910002,406.7428327910002,406.7428327910002,411.9375007079998,411.9375007079998,414.84429637500034,None,0,,reldom2_s017,001,2025-02-20_15h35.31.670,Vis-B-Scan_AC,2022.2.5,None,
35,Second_Order,6.0,viswhere,stimulus/viswhere_stim/60-deg_dot-right_cyan.png,stimulus/viswhere_stim/60-deg_dot-left_goldenrod.png,stimulus/viswhere_stim/150-deg_dot-left_salmon.png,stimulus/viswhere_stim/150-deg_dot-right_goldenrod.png,stimulus/viswhere_stim/match_blank.png,stimulus/viswhere_stim/match_box.png,stimulus/viswhere_stim/match_yes.png,stimulus/viswhere_stim/match_no.png,1.0,Match,Line,Line,1,5.125,0,5.125,0,5.125,0,5.125,0,0.75,0.75,1,0.5,1,2.125,1,0.5,1,2.125,0,0,0,0,0,0,0,0,0,,,,,0,46,46,46,,,,,,,,,414.84429637500034,419.9666532079991,415.32709354100007,416.3249643750005,416.94780491599886,417.94535970799916,414.84429637500034,414.84429637500034,414.8588060413332,414.84429637500034,414.84429637500034,414.84429637500034,414.8588060413332,414.84429637500034,419.9666532079991,420.760990666,422.83498566600065,426.7342079579994,420.760990666,420.760990666,425.8986738749991,421.20997312500003,422.21674512499885,422.83498566600065,423.84740820799925,420.760990666,420.760990666,420.73521908333396,420.760990666,420.760990666,420.760990666,420.73521908333396,420.760990666,420.760990666,425.8986738749991,420.760990666,425.8986738749991,425.95619504099886,426.7342079579994,420.760990666,1,1,0.5479994169991187,reldom2_s017,001,2025-02-20_15h35.31.670,Vis-B-Scan_AC,2022.2.5,None,
36,Second_Order,6.0,viswhere,stimulus/viswhere_stim/120-deg_dot-right_slateblue.png,stimulus/viswhere_stim/120-deg_dot-left_royalblue.png,stimulus/viswhere_stim/150-deg_dot-right_royalblue.png,stimulus/viswhere_stim/150-deg_dot-left_salmon.png,stimulus/viswhere_stim/match_blank.png,stimulus/viswhere_stim/match_box.png,stimulus/viswhere_stim/match_yes.png,stimulus/viswhere_stim/match_no.png,1.0,Match,Line,Line,1,5.125,0,5.125,0,5.125,0,5.125,0,0.625,0.625,1,0.5,1,2.125,1,0.5,1,2.125,0,0,0,0,0,0,0,0,0,,,,,0,47,47,47,,,,,,,,,426.7342079579994,431.8495532500001,427.2205588750003,428.219177125,428.84115983300035,429.8396399159992,426.7342079579994,426.7342079579994,426.74811262499935,426.7342079579994,426.7342079579994,426.7342079579994,426.74811262499935,426.7342079579994,431.8495532500001,432.5193092499994,434.60743837500013,438.6415425409996,432.5193092499994,432.5193092499994,437.64787958299894,432.96656979100044,433.9719320410004,434.60743837500013,435.6177141249991,432.5193092499994,432.5193092499994,432.49550495833364,432.5193092499994,432.5193092499994,432.5193092499994,432.49550495833364,432.5193092499994,432.5193092499994,437.64787958299894,432.5193092499994,437.64787958299894,437.7180073750005,438.3465586250004,432.5193092499994,1,1,0.5769641670003693,reldom2_s017,001,2025-02-20_15h35.31.670,Vis-B-Scan_AC,2022.2.5,None,
0,0.0,None,fixation,stimulus/viswhere_stim/blank_white.png,stimulus/viswhere_stim/blank_white.png,stimulus/viswhat_stim/blank_white.png,stimulus/viswhat_stim/blank_white.png,stimulus/viswhere_stim/blank_white.png,stimulus/viswhere_stim/blank_white.png,stimulus/viswhere_stim/blank_white.png,stimulus/viswhere_stim/blank_white.png,0.0,0.0,0.0,0.0,0,0.0,0,0.0,0,0.0,0,0.0,0,0.0,0.0,0,0.0,0,0.0,0,0.0,0,0.0,0,0,0,0,0,0,0,0,10,,,,,0,48,48,48,,,,,,,,,438.6415425409996,438.6415425409996,438.6415425409996,438.6415425409996,438.6415425409996,438.6415425409996,438.6415425409996,438.6415425409996,438.5420057083332,438.6415425409996,438.6415425409996,438.6415425409996,438.5420057083332,438.6415425409996,438.6415425409996,438.6415425409996,438.6415425409996,438.6415425409996,438.6415425409996,438.6415425409996,438.6415425409996,438.6415425409996,438.6415425409996,438.6415425409996,438.6415425409996,438.6415425409996,438.6415425409996,438.5920057083332,438.6415425409996,438.6415425409996,438.6415425409996,438.5920057083332,438.6415425409996,438.6415425409996,438.6415425409996,438.6415425409996,438.6415425409996,443.8746665409999,443.8746665409999,448.8822894999994,None,0,,reldom2_s017,001,2025-02-20_15h35.31.670,Vis-B-Scan_AC,2022.2.5,None,
37,First_Order,7.0,viswhat,stimulus/viswhat_stim/blank_white.png,stimulus/viswhat_stim/blank_white.png,stimulus/viswhat_stim/water_vehicle-sailboat.png,stimulus/viswhat_stim/land_vehicle-bus.png,stimulus/viswhat_stim/blank_white.png,stimulus/viswhat_stim/location_box.png,stimulus/viswhat_stim/location_yes.png,stimulus/viswhat_stim/location_no.png,None,Location,None,Type,2,0.0,0,5.125,0,5.125,0,5.125,0,0.0,0.625,0,0.0,0,0.0,1,0.5,1,2.125,0,0,0,0,0,0,0,0,0,,,,,0,49,49,49,,,,,,,,,448.8822894999994,448.8822894999994,448.8822894999994,448.8822894999994,448.8822894999994,448.8822894999994,448.8822894999994,448.8822894999994,448.79363037466703,448.8822894999994,448.8822894999994,448.8822894999994,448.79363037466703,448.8822894999994,448.8822894999994,448.8822894999994,450.9599197080006,,448.8822894999994,448.8822894999994,454.0482595829999,449.3629948329999,450.4290624999994,450.9599197080006,452.0286685409992,448.8822894999994,448.8822894999994,448.84363037466704,448.8822894999994,448.8822894999994,448.8822894999994,448.84363037466704,448.8822894999994,448.8822894999994,454.0482595829999,448.8822894999994,454.0482595829999,454.09592458299994,454.7603517080006,448.8822894999994,2,1,0.9212451260000307,reldom2_s017,001,2025-02-20_15h35.31.670,Vis-B-Scan_AC,2022.2.5,None,
38,First_Order,7.0,viswhat,stimulus/viswhat_stim/blank_white.png,stimulus/viswhat_stim/blank_white.png,stimulus/viswhat_stim/land_vehicle-tank.png,stimulus/viswhat_stim/land_animal-elephant.png,stimulus/viswhat_stim/blank_white.png,stimulus/viswhat_stim/type_box.png,stimulus/viswhat_stim/type_yes.png,stimulus/viswhat_stim/type_no.png,None,Type,None,Location,2,0.0,0,5.125,0,5.125,0,5.125,0,0.0,0.625,0,0.0,0,0.0,1,0.5,1,2.125,0,0,0,0,0,0,0,0,0,,,,,0,50,50,50,,,,,,,,,455.0113363750006,455.0113363750006,455.0113363750006,455.0113363750006,455.0113363750006,455.0113363750006,455.0113363750006,455.0113363750006,454.9103517080006,455.0113363750006,455.0113363750006,455.0113363750006,454.9103517080006,455.0113363750006,455.0113363750006,455.0113363750006,457.0947312499993,461.09659333299896,455.0113363750006,455.0113363750006,460.21890987500046,455.47432070799914,456.5163605830003,457.0947312499993,458.1433572499991,455.0113363750006,455.0113363750006,454.9603517080006,455.0113363750006,455.0113363750006,455.0113363750006,454.9603517080006,455.0113363750006,455.0113363750006,460.21890987500046,455.0113363750006,460.21890987500046,460.21890987500046,460.89719166599934,455.0113363750006,2,1,0.6388220010003351,reldom2_s017,001,2025-02-20_15h35.31.670,Vis-B-Scan_AC,2022.2.5,None,
39,First_Order,7.0,viswhat,stimulus/viswhat_stim/blank_white.png,stimulus/viswhat_stim/blank_white.png,stimulus/viswhat_stim/land_animal-ostrich.png,stimulus/viswhat_stim/water_animal-whale.png,stimulus/viswhat_stim/blank_white.png,stimulus/viswhat_stim/location_box.png,stimulus/viswhat_stim/location_yes.png,stimulus/viswhat_stim/location_no.png,None,Location,None,Type,2,0.0,0,5.125,0,5.125,0,5.125,0,0.0,0.625,0,0.0,0,0.0,1,0.5,1,2.125,0,0,0,0,0,0,0,0,0,,,,,0,51,51,51,,,,,,,,,461.09659333299896,461.09659333299896,461.09659333299896,461.09659333299896,461.09659333299896,461.09659333299896,461.09659333299896,461.09659333299896,461.063858332666,461.09659333299896,461.09659333299896,461.09659333299896,461.063858332666,461.09659333299896,461.09659333299896,461.09659333299896,463.18643795800017,,461.09659333299896,461.09659333299896,466.2450228329999,461.56355883300057,462.5825438749998,463.18643795800017,464.21095291599886,461.09659333299896,461.09659333299896,461.0805249993327,461.09659333299896,461.09659333299896,461.09659333299896,461.0805249993327,461.09659333299896,461.09659333299896,466.2450228329999,461.09659333299896,466.2450228329999,466.31075495799996,466.942447333,461.09659333299896,2,1,1.1805402920008419,reldom2_s017,001,2025-02-20_15h35.31.670,Vis-B-Scan_AC,2022.2.5,None,
40,First_Order,7.0,viswhat,stimulus/viswhat_stim/blank_white.png,stimulus/viswhat_stim/blank_white.png,stimulus/viswhat_stim/land_vehicle-truck.png,stimulus/viswhat_stim/land_animal-fox.png,stimulus/viswhat_stim/blank_white.png,stimulus/viswhat_stim/location_box.png,stimulus/viswhat_stim/location_yes.png,stimulus/viswhat_stim/location_no.png,None,Location,None,Location,1,0.0,0,5.125,0,5.125,0,5.125,0,0.0,0.625,0,0.0,0,0.0,1,0.5,1,2.125,0,0,0,0,0,0,0,0,0,,,,,0,52,52,52,,,,,,,,,467.1586938750006,467.1586938750006,467.1586938750006,467.1586938750006,467.1586938750006,467.1586938750006,467.1586938750006,467.1586938750006,467.12912037500024,467.1586938750006,467.1586938750006,467.1586938750006,467.12912037500024,467.1586938750006,467.1586938750006,467.1586938750006,469.2603261250006,473.30509600000005,467.1586938750006,467.1586938750006,472.30096120800044,467.6488752080004,468.6547397079994,469.2603261250006,470.2700101249993,467.1586938750006,467.1586938750006,467.14578704166695,467.1586938750006,467.1586938750006,467.1586938750006,467.14578704166695,467.1586938750006,467.1586938750006,472.30096120800044,467.1586938750006,472.30096120800044,472.37286366599983,473.010358083,467.1586938750006,1,1,0.9949709580005219,reldom2_s017,001,2025-02-20_15h35.31.670,Vis-B-Scan_AC,2022.2.5,None,
0,0.0,None,fixation,stimulus/viswhere_stim/blank_white.png,stimulus/viswhere_stim/blank_white.png,stimulus/viswhat_stim/blank_white.png,stimulus/viswhat_stim/blank_white.png,stimulus/viswhere_stim/blank_white.png,stimulus/viswhere_stim/blank_white.png,stimulus/viswhere_stim/blank_white.png,stimulus/viswhere_stim/blank_white.png,0.0,0.0,0.0,0.0,0,0.0,0,0.0,0,0.0,0,0.0,0,0.0,0.0,0,0.0,0,0.0,0,0.0,0,0.0,0,0,0,0,0,0,0,0,8,,,,,0,53,53,53,,,,,,,,,473.30509600000005,473.30509600000005,473.30509600000005,473.30509600000005,473.30509600000005,473.30509600000005,473.30509600000005,473.30509600000005,473.1991267493334,473.30509600000005,473.30509600000005,473.30509600000005,473.1991267493334,473.30509600000005,473.30509600000005,473.30509600000005,473.30509600000005,473.30509600000005,473.30509600000005,473.30509600000005,473.30509600000005,473.30509600000005,473.30509600000005,473.30509600000005,473.30509600000005,473.30509600000005,473.30509600000005,473.26579341600007,473.30509600000005,473.30509600000005,473.30509600000005,473.26579341600007,473.30509600000005,473.30509600000005,473.30509600000005,473.30509600000005,473.30509600000005,478.5166918750001,478.5166918750001,481.4356654580006,None,0,,reldom2_s017,001,2025-02-20_15h35.31.670,Vis-B-Scan_AC,2022.2.5,None,
41,Second_Order,7.0,viswhat,stimulus/viswhat_stim/water_animal-whale (1).png,stimulus/viswhat_stim/water_vehicle-canoe(1).png,stimulus/viswhat_stim/land_animal-tiger.png,stimulus/viswhat_stim/land_vehicle-train.png,stimulus/viswhere_stim/match_blank.png,stimulus/viswhere_stim/match_box.png,stimulus/viswhere_stim/match_yes.png,stimulus/viswhere_stim/match_no.png,1.0,Match,Location,Location,1,5.125,0,5.125,0,5.125,0,5.125,0,0.75,0.75,1,0.5,1,2.125,1,0.5,1,2.125,0,0,0,0,0,0,0,0,0,,,,,0,54,54,54,,,,,,,,,481.4356654580006,486.5587558749994,481.9141964999999,482.9119908749999,483.5359292909998,484.5324975000003,481.4356654580006,481.4356654580006,481.44431779133276,481.4356654580006,481.4356654580006,481.4356654580006,481.44431779133276,481.4356654580006,486.5587558749994,487.3829377910006,489.4609078329995,,487.3829377910006,487.3829377910006,492.5187861659997,487.8177919999998,488.8593552910006,489.4609078329995,490.50853137500053,487.3829377910006,487.3829377910006,487.3591308326659,487.3829377910006,487.3829377910006,487.3829377910006,487.3591308326659,487.3829377910006,487.3829377910006,492.5187861659997,487.3829377910006,492.5187861659997,492.5745303749991,,487.3829377910006,1,1,0.8580697509996753,reldom2_s017,001,2025-02-20_15h35.31.670,Vis-B-Scan_AC,2022.2.5,None,
42,Second_Order,7.0,viswhat,stimulus/viswhat_stim/land_vehicle-buldozer.png,stimulus/viswhat_stim/water_vehicle-jetski.png,stimulus/viswhat_stim/water_animal-whale.png,stimulus/viswhat_stim/land_animal-fox.png,stimulus/viswhere_stim/match_blank.png,stimulus/viswhere_stim/match_box.png,stimulus/viswhere_stim/match_yes.png,stimulus/viswhere_stim/match_no.png,1.0,Match,Type,Type,1,5.125,0,5.125,0,5.125,0,5.125,0,0.625,0.625,1,0.5,1,2.125,1,0.5,1,2.125,0,0,0,0,0,0,0,0,0,,,,,0,55,55,55,,,,,,,,,493.3549869159997,498.4689741660004,493.82442637500026,494.8230985409991,495.44526254099947,496.44382674999906,493.3549869159997,493.3549869159997,493.3562476663331,493.3549869159997,493.3549869159997,493.3549869159997,493.3562476663331,493.3549869159997,498.4689741660004,499.1581392909993,501.23143683299895,505.2655177079996,499.1581392909993,499.1581392909993,504.30583858299906,499.60436587500044,500.62865124999917,501.23143683299895,502.2625792079998,499.1581392909993,499.1581392909993,499.132889583,499.1581392909993,499.1581392909993,499.1581392909993,499.132889583,499.1581392909993,499.1581392909993,504.30583858299906,499.1581392909993,504.30583858299906,504.34735508300037,504.9857006250004,499.1581392909993,1,1,0.49900220899962733,reldom2_s017,001,2025-02-20_15h35.31.670,Vis-B-Scan_AC,2022.2.5,None,
0,0.0,None,fixation,stimulus/viswhere_stim/blank_white.png,stimulus/viswhere_stim/blank_white.png,stimulus/viswhat_stim/blank_white.png,stimulus/viswhat_stim/blank_white.png,stimulus/viswhere_stim/blank_white.png,stimulus/viswhere_stim/blank_white.png,stimulus/viswhere_stim/blank_white.png,stimulus/viswhere_stim/blank_white.png,0.0,0.0,0.0,0.0,0,0.0,0,0.0,0,0.0,0,0.0,0,0.0,0.0,0,0.0,0,0.0,0,0.0,0,0.0,0,0,0,0,0,0,0,0,9,,,,,0,56,56,56,,,,,,,,,505.2655177079996,505.2655177079996,505.2655177079996,505.2655177079996,505.2655177079996,505.2655177079996,505.2655177079996,505.2655177079996,505.16837549999906,505.2655177079996,505.2655177079996,505.2655177079996,505.16837549999906,505.2655177079996,505.2655177079996,505.2655177079996,505.2655177079996,505.2655177079996,505.2655177079996,505.2655177079996,505.2655177079996,505.2655177079996,505.2655177079996,505.2655177079996,505.2655177079996,505.2655177079996,505.2655177079996,505.21837549999907,505.2655177079996,505.2655177079996,505.2655177079996,505.21837549999907,505.2655177079996,505.2655177079996,505.2655177079996,505.2655177079996,505.2655177079996,510.4941066249994,510.4941066249994,514.4901914999991,None,0,,reldom2_s017,001,2025-02-20_15h35.31.670,Vis-B-Scan_AC,2022.2.5,None,
43,First_Order,8.0,viswhat,stimulus/viswhat_stim/blank_white.png,stimulus/viswhat_stim/blank_white.png,stimulus/viswhat_stim/land_animal-fox.png,stimulus/viswhat_stim/land_vehicle-motorcycle.png,stimulus/viswhat_stim/blank_white.png,stimulus/viswhat_stim/type_box.png,stimulus/viswhat_stim/type_yes.png,stimulus/viswhat_stim/type_no.png,None,Type,None,Location,2,0.0,0,5.125,0,5.125,0,5.125,0,0.0,0.625,0,0.0,0,0.0,1,0.5,1,2.125,0,0,0,0,0,0,0,0,0,,,,,0,57,57,57,,,,,,,,,514.4901914999991,514.4901914999991,514.4901914999991,514.4901914999991,514.4901914999991,514.4901914999991,514.4901914999991,514.4901914999991,514.4486920416663,514.4901914999991,514.4901914999991,514.4901914999991,514.4486920416663,514.4901914999991,514.4901914999991,514.4901914999991,516.6030435829998,520.5702385410004,514.4901914999991,514.4901914999991,519.6437632079997,514.9711240830002,515.9988117909998,516.6030435829998,517.6418755409995,514.4901914999991,514.4901914999991,514.4653587083329,514.4901914999991,514.4901914999991,514.4901914999991,514.4653587083329,514.4901914999991,514.4901914999991,519.6437632079997,514.4901914999991,519.6437632079997,519.7179799160003,520.3614848329998,514.4901914999991,2,1,1.0139545419997376,reldom2_s017,001,2025-02-20_15h35.31.670,Vis-B-Scan_AC,2022.2.5,None,
44,First_Order,8.0,viswhat,stimulus/viswhat_stim/blank_white.png,stimulus/viswhat_stim/blank_white.png,stimulus/viswhat_stim/land_animal-pig.png,stimulus/viswhat_stim/land_vehicle-firetruck.png,stimulus/viswhat_stim/blank_white.png,stimulus/viswhat_stim/location_box.png,stimulus/viswhat_stim/location_yes.png,stimulus/viswhat_stim/location_no.png,None,Location,None,Location,1,0.0,0,5.125,0,5.125,0,5.125,0,0.0,0.625,0,0.0,0,0.0,1,0.5,1,2.125,0,0,0,0,0,0,0,0,0,,,,,0,58,58,58,,,,,,,,,520.5702385410004,520.5702385410004,520.5702385410004,520.5702385410004,520.5702385410004,520.5702385410004,520.5702385410004,520.5702385410004,520.5353927079992,520.5702385410004,520.5702385410004,520.5702385410004,520.5353927079992,520.5702385410004,520.5702385410004,520.5702385410004,522.6766563749989,526.6898927500006,520.5702385410004,520.5702385410004,525.6998467079993,521.0384262499992,522.0465203330004,522.6766563749989,523.6887320000005,520.5702385410004,520.5702385410004,520.5520593746659,520.5702385410004,520.5702385410004,520.5702385410004,520.5520593746659,520.5702385410004,520.5702385410004,525.6998467079993,520.5702385410004,525.6998467079993,525.7883998750003,526.4270591660006,520.5702385410004,1,1,0.6734151669998028,reldom2_s017,001,2025-02-20_15h35.31.670,Vis-B-Scan_AC,2022.2.5,None,
45,First_Order,8.0,viswhat,stimulus/viswhat_stim/blank_white.png,stimulus/viswhat_stim/blank_white.png,stimulus/viswhat_stim/land_vehicle-trolley.png,stimulus/viswhat_stim/water_vehicle-sailboat.png,stimulus/viswhat_stim/blank_white.png,stimulus/viswhat_stim/type_box.png,stimulus/viswhat_stim/type_yes.png,stimulus/viswhat_stim/type_no.png,None,Type,None,Type,1,0.0,0,5.125,0,5.125,0,5.125,0,0.0,0.625,0,0.0,0,0.0,1,0.5,1,2.125,0,0,0,0,0,0,0,0,0,,,,,0,59,59,59,,,,,,,,,526.6898927500006,526.6898927500006,526.6898927500006,526.6898927500006,526.6898927500006,526.6898927500006,526.6898927500006,526.6898927500006,526.5997839993337,526.6898927500006,526.6898927500006,526.6898927500006,526.5997839993337,526.6898927500006,526.6898927500006,526.6898927500006,528.7858508749996,,526.6898927500006,526.6898927500006,531.8638331660004,527.1309354579989,528.2020339999999,528.7858508749996,529.8616051249992,526.6898927500006,526.6898927500006,526.6497839993336,526.6898927500006,526.6898927500006,526.6898927500006,526.6497839993336,526.6898927500006,526.6898927500006,531.8638331660004,526.6898927500006,531.8638331660004,531.9074591659992,532.558153291,526.6898927500006,1,1,1.9366030420014795,reldom2_s017,001,2025-02-20_15h35.31.670,Vis-B-Scan_AC,2022.2.5,None,
46,First_Order,8.0,viswhat,stimulus/viswhat_stim/blank_white.png,stimulus/viswhat_stim/blank_white.png,stimulus/viswhat_stim/water_vehicle-canoe(1).png,stimulus/viswhat_stim/land_vehicle-truck.png,stimulus/viswhat_stim/blank_white.png,stimulus/viswhat_stim/type_box.png,stimulus/viswhat_stim/type_yes.png,stimulus/viswhat_stim/type_no.png,None,Type,None,Type,1,0.0,0,5.125,0,5.125,0,5.125,0,0.0,0.625,0,0.0,0,0.0,1,0.5,1,2.125,0,0,0,0,0,0,0,0,0,,,,,0,60,60,60,,,,,,,,,532.7276222910004,532.7276222910004,532.7276222910004,532.7276222910004,532.7276222910004,532.7276222910004,532.7276222910004,532.7276222910004,532.708153291,532.7276222910004,532.7276222910004,532.7276222910004,532.708153291,532.7276222910004,532.7276222910004,532.7276222910004,534.8393707079995,538.8623789579997,532.7276222910004,532.7276222910004,537.853755958,533.2065099579995,534.2112816659992,534.8393707079995,535.8458452079994,532.7276222910004,532.7276222910004,532.708153291,532.7276222910004,532.7276222910004,532.7276222910004,532.708153291,532.7276222910004,532.7276222910004,537.853755958,532.7276222910004,537.853755958,537.9519700410001,538.5922582080002,532.7276222910004,1,1,0.5198747510012254,reldom2_s017,001,2025-02-20_15h35.31.670,Vis-B-Scan_AC,2022.2.5,None,
0,0.0,None,fixation,stimulus/viswhere_stim/blank_white.png,stimulus/viswhere_stim/blank_white.png,stimulus/viswhat_stim/blank_white.png,stimulus/viswhat_stim/blank_white.png,stimulus/viswhere_stim/blank_white.png,stimulus/viswhere_stim/blank_white.png,stimulus/viswhere_stim/blank_white.png,stimulus/viswhere_stim/blank_white.png,0.0,0.0,0.0,0.0,0,0.0,0,0.0,0,0.0,0,0.0,0,0.0,0.0,0,0.0,0,0.0,0,0.0,0,0.0,0,0,0,0,0,0,0,0,9,,,,,0,61,61,61,,,,,,,,,538.8623789579997,538.8623789579997,538.8623789579997,538.8623789579997,538.8623789579997,538.8623789579997,538.8623789579997,538.8623789579997,538.7591412493324,538.8623789579997,538.8623789579997,538.8623789579997,538.7591412493324,538.8623789579997,538.8623789579997,538.8623789579997,538.8623789579997,538.8623789579997,538.8623789579997,538.8623789579997,538.8623789579997,538.8623789579997,538.8623789579997,538.8623789579997,538.8623789579997,538.8623789579997,538.8623789579997,538.8091412493324,538.8623789579997,538.8623789579997,538.8623789579997,538.8091412493324,538.8623789579997,538.8623789579997,538.8623789579997,538.8623789579997,538.8623789579997,544.0665575829989,544.0665575829989,547.9997912500003,None,0,,reldom2_s017,001,2025-02-20_15h35.31.670,Vis-B-Scan_AC,2022.2.5,None,
47,Second_Order,8.0,viswhat,stimulus/viswhat_stim/water_animal-seaturtle.png,stimulus/viswhat_stim/water_vehicle-kayak.png,stimulus/viswhat_stim/water_vehicle-motorboatraft.png,stimulus/viswhat_stim/land_vehicle-tank.png,stimulus/viswhere_stim/match_blank.png,stimulus/viswhere_stim/match_box.png,stimulus/viswhere_stim/match_yes.png,stimulus/viswhere_stim/match_no.png,2.0,Match,Location,Type,2,5.125,0,5.125,0,5.125,0,5.125,0,0.75,0.75,1,0.5,1,2.125,1,0.5,1,2.125,0,0,0,0,0,0,0,0,0,,,,,0,62,62,62,,,,,,,,,547.9997912500003,553.1121247079991,548.4656044580006,549.4533793329992,550.0894741249995,551.0862898750001,547.9997912500003,547.9997912500003,548.0027163333326,547.9997912500003,547.9997912500003,547.9997912500003,548.0027163333326,547.9997912500003,553.1121247079991,553.907556832999,555.9807873329992,559.881662791,553.907556832999,553.907556832999,559.034570415999,554.3631591659996,555.3660841250003,555.9807873329992,556.9885207080006,553.907556832999,553.907556832999,553.8964549999989,553.907556832999,553.907556832999,553.907556832999,553.8964549999989,553.907556832999,553.907556832999,559.034570415999,553.907556832999,559.034570415999,559.1093540410002,,553.907556832999,2,1,0.9447901250014183,reldom2_s017,001,2025-02-20_15h35.31.670,Vis-B-Scan_AC,2022.2.5,None,
48,Second_Order,8.0,viswhat,stimulus/viswhat_stim/land_vehicle-rv.png,stimulus/viswhat_stim/water_vehicle-cargoboat.png,stimulus/viswhat_stim/water_animal-squid.png,stimulus/viswhat_stim/land_animal-dog.png,stimulus/viswhere_stim/match_blank.png,stimulus/viswhere_stim/match_box.png,stimulus/viswhere_stim/match_yes.png,stimulus/viswhere_stim/match_no.png,1.0,Match,Type,Type,1,5.125,0,5.125,0,5.125,0,5.125,0,0.625,0.625,1,0.5,1,2.125,1,0.5,1,2.125,0,0,0,0,0,0,0,0,0,,,,,0,63,63,63,,,,,,,,,559.881662791,565.0019736249997,560.3614771659995,561.3602571659994,561.9828594999999,562.980571,559.881662791,559.881662791,559.8873781249993,559.881662791,559.881662791,559.881662791,559.8873781249993,559.881662791,565.0019736249997,565.7041668330003,567.7875443749999,571.8109526659991,565.7041668330003,565.7041668330003,570.8673813330006,566.1411826250005,567.1660874579993,567.7875443749999,568.8186791659991,565.7041668330003,565.7041668330003,565.6697783329989,565.7041668330003,565.7041668330003,565.7041668330003,565.6697783329989,565.7041668330003,565.7041668330003,570.8673813330006,565.7041668330003,570.8673813330006,570.8932884999995,571.5273586660005,565.7041668330003,1,1,0.6832440419993873,reldom2_s017,001,2025-02-20_15h35.31.670,Vis-B-Scan_AC,2022.2.5,None,
0,0.0,None,fixation,stimulus/viswhere_stim/blank_white.png,stimulus/viswhere_stim/blank_white.png,stimulus/viswhat_stim/blank_white.png,stimulus/viswhat_stim/blank_white.png,stimulus/viswhere_stim/blank_white.png,stimulus/viswhere_stim/blank_white.png,stimulus/viswhere_stim/blank_white.png,stimulus/viswhere_stim/blank_white.png,0.0,0.0,0.0,0.0,0,0.0,0,0.0,0,0.0,0,0.0,0,0.0,0.0,0,0.0,0,0.0,0,0.0,0,0.0,0,0,0,0,0,0,0,0,16,,,,,0,64,64,64,,,,,,,,,571.8109526659991,571.8109526659991,571.8109526659991,571.8109526659991,571.8109526659991,571.8109526659991,571.8109526659991,571.8109526659991,571.7198914576655,571.8109526659991,571.8109526659991,571.8109526659991,571.7198914576655,571.8109526659991,571.8109526659991,571.8109526659991,571.8109526659991,571.8109526659991,571.8109526659991,571.8109526659991,571.8109526659991,571.8109526659991,571.8109526659991,571.8109526659991,571.8109526659991,571.8109526659991,571.8109526659991,571.7698914576655,571.8109526659991,571.8109526659991,571.8109526659991,571.7698914576655,571.8109526659991,571.8109526659991,571.8109526659991,571.8109526659991,571.8109526659991,577.0395576659994,577.0395576659994,587.9845459579992,None,0,,reldom2_s017,001,2025-02-20_15h35.31.670,Vis-B-Scan_AC,2022.2.5,None,
