Trial,Order,Block,Type,Stimuli_File1,Stimuli_File2,Stimuli_File3,Stimuli_File4,Cue_File1,Cue_File2,Response_File_Yes,Response_File_No,Match,Cue_Dimension,Pair1_Dimension,Pair2_Dimension,Key,Cue1_Duration,Cue1_Onset,Cue2_Duration,Cue2_Onset,ResponseYes_Duration,ResponseYes_Onset,ResponseNo_Duration,ResponseNo_Onset,ITI_Within,ITI_Between,Image1_Duration,Image1_Onset,Image2_Duration,Image2_Onset,Image3_Duration,Image3_Onset,Image4_Duration,Image4_Onset,Sound1_Duration,Sound1_Onset,Sound2_Duration,Sound2_Onset,Sound3_Duration,Sound3_Onset,Sound4_Duration,Sound4_Onset,Fixation_Duration,trials_2.thisRepN,trials_2.thisTrialN,trials_2.thisN,trials_2.thisIndex,trials.thisRepN,trials.thisTrialN,trials.thisN,trials.thisIndex,text_start.started,key_resp_start.started,key_resp_start.keys,key_resp_start.rt,text2.started,key_resp_2.started,key_resp_2.keys,key_resp_2.rt,cue_file1.started,cue_file1.stopped,image_1.started,image_1.stopped,image_2.started,image_2.stopped,sound_icon1.started,sound_icon1.stopped,sound_1.started,sound_1.stopped,sound_icon2.started,sound_icon2.stopped,sound_2.started,sound_2.stopped,image_blank_1.started,image_blank_1.stopped,key_press.started,key_press.stopped,fixation_text.started,cue_file2.started,cue_file2.stopped,image_3.started,image_3.stopped,image_4.started,image_4.stopped,sound_icon3.started,sound_icon3.stopped,sound_3.started,sound_3.stopped,sound_icon4.started,sound_icon4.stopped,sound_4.started,sound_4.stopped,response_yes.started,response_yes.stopped,response_no.started,response_no.stopped,iti_blank.started,iti_blank.stopped,fixation_text.stopped,key_press.keys,key_press.corr,key_press.rt,participant,session,date,expName,psychopyVersion,frameRate,
,,,,,,,,,,,,,,,,,,,,,,,,,,,,,,,,,,,,,,,,,,,,,,,,,,,,7.984258333000071,7.984258333000071,2,1.3081531670004551,,,,,,,,,,,,,,,,,,,,,,,,,,,,,,,,,,,,,,,,,,,,,,,,reldom2_s017,001,2025-02-20_15h24.26.837,Aud-B-Scan_AC,2022.2.5,None,
,,,,,,,,,,,,,,,,,,,,,,,,,,,,,,,,,,,,,,,,,,,,0,0,0,0,,,,,,,,,9.333500083000217,9.333500083000217,5,14.750636957999632,,,,,,,,,,,,,,,,,,,,,,,,,,,,,,,,,,,,,,,,,,,,reldom2_s017,001,2025-02-20_15h24.26.837,Aud-B-Scan_AC,2022.2.5,None,
,,,,,,,,,,,,,,,,,,,,,,,,,,,,,,,,,,,,,,,,,,,,1,0,1,0,,,,,,,,,24.098394499999813,24.098394499999813,5,1.9866321670006073,,,,,,,,,,,,,,,,,,,,,,,,,,,,,,,,,,,,,,,,,,,,reldom2_s017,001,2025-02-20_15h24.26.837,Aud-B-Scan_AC,2022.2.5,None,
,,,,,,,,,,,,,,,,,,,,,,,,,,,,,,,,,,,,,,,,,,,,2,0,2,0,,,,,,,,,26.09205291699982,26.09205291699982,5,1.9928586659998473,,,,,,,,,,,,,,,,,,,,,,,,,,,,,,,,,,,,,,,,,,,,reldom2_s017,001,2025-02-20_15h24.26.837,Aud-B-Scan_AC,2022.2.5,None,
,,,,,,,,,,,,,,,,,,,,,,,,,,,,,,,,,,,,,,,,,,,,3,0,3,0,,,,,,,,,28.100581249999777,28.100581249999777,5,1.9829725420004252,,,,,,,,,,,,,,,,,,,,,,,,,,,,,,,,,,,,,,,,,,,,reldom2_s017,001,2025-02-20_15h24.26.837,Aud-B-Scan_AC,2022.2.5,None,
0,0.0,None,fixation,stimulus/audwhat_stim/blank_white.png,stimulus/audwhat_stim/blank_white.png,stimulus/audwhere_stim/blank_white.png,stimulus/audwhere_stim/blank_white.png,stimulus/audwhat_stim/blank_white.png,stimulus/audwhat_stim/blank_white.png,stimulus/audwhat_stim/blank_white.png,stimulus/audwhat_stim/blank_white.png,0.0,0.0,0.0,0.0,0,0.0,0,0.0,0,0.0,0,0.0,0,0.0,0.0,0,0,0,0,0,0,0,0,0,0.0,0,0.0,0,0.0,0,0.0,16,,,,,0,0,0,0,,,,,,,,,30.295701666999776,30.295701666999776,30.295701666999776,30.295701666999776,30.295701666999776,30.295701666999776,30.295701666999776,30.295701666999776,30.199927916666518,30.295701666999776,30.295701666999776,30.295701666999776,30.199927916666518,30.295701666999776,30.295701666999776,30.295701666999776,30.295701666999776,30.295701666999776,30.295701666999776,30.295701666999776,30.295701666999776,30.295701666999776,30.295701666999776,30.295701666999776,30.295701666999776,30.295701666999776,30.295701666999776,30.249927916666515,30.295701666999776,30.295701666999776,30.295701666999776,30.249927916666515,30.295701666999776,30.295701666999776,30.295701666999776,30.295701666999776,30.295701666999776,35.49365333300011,35.49365333300011,46.51595520800038,None,0,,reldom2_s017,001,2025-02-20_15h24.26.837,Aud-B-Scan_AC,2022.2.5,None,
1,First_Order,1.0,audwhat,stimulus/audwhat_stim/dummy.wav,stimulus/audwhat_stim/dummy.wav,stimulus/audwhat_stim/string viola_low-pitch_F_loud.wav,stimulus/audwhat_stim/string cello_high-pitch_Dtri_loud.wav,stimulus/audwhat_stim/blank_white.png,stimulus/audwhat_stim/pitch_box.png,stimulus/audwhat_stim/pitch_yes.png,stimulus/audwhat_stim/pitch_no.png,None,Pitch,None,Category,2,0.0,0,5.125,0,5.125,0,5.125,0,0.0,0.625,0,0,0,0,0,0,0,0,0,0.0,0,0.0,1,0.5,1,2.125,0,,,,,0,1,1,1,,,,,,,,,46.51595520800038,46.51595520800038,46.51595520800038,46.51595520800038,46.51595520800038,46.51595520800038,46.51595520800038,46.51595520800038,46.44689895800038,46.51595520800038,46.51595520800038,46.51595520800038,46.44689895800038,46.51595520800038,46.51595520800038,46.51595520800038,48.591055083000356,,46.51595520800038,46.51595520800038,51.69787325000016,46.51595520800038,46.51595520800038,46.51595520800038,46.51595520800038,46.96805020800002,48.00528654200025,46.93940158366628,,48.591055083000356,49.629169875000116,48.56270374966631,,46.51595520800038,51.69787325000016,46.51595520800038,51.69787325000016,51.73815300000024,52.41326645800018,46.51595520800038,2,1,1.0861532919998353,reldom2_s017,001,2025-02-20_15h24.26.837,Aud-B-Scan_AC,2022.2.5,None,
2,First_Order,1.0,audwhat,stimulus/audwhat_stim/dummy.wav,stimulus/audwhat_stim/dummy.wav,stimulus/audwhat_stim/percussion xylophone_high-pitch_Ftri_loud.wav,stimulus/audwhat_stim/string viola_high-pitch_Ftri_loud.wav,stimulus/audwhat_stim/blank_white.png,stimulus/audwhat_stim/pitch_box.png,stimulus/audwhat_stim/pitch_yes.png,stimulus/audwhat_stim/pitch_no.png,None,Pitch,None,Pitch,1,0.0,0,5.125,0,5.125,0,5.125,0,0.0,0.625,0,0,0,0,0,0,0,0,0,0.0,0,0.0,1,0.5,1,2.125,0,,,,,0,2,2,2,,,,,,,,,52.61842833300034,52.61842833300034,52.61842833300034,52.61842833300034,52.61842833300034,52.61842833300034,52.61842833300034,52.61842833300034,52.54659979133351,52.61842833300034,52.61842833300034,52.61842833300034,52.54659979133351,52.61842833300034,52.61842833300034,52.61842833300034,54.70246691699958,,52.61842833300034,52.61842833300034,57.79042137499982,52.61842833300034,52.61842833300034,52.61842833300034,52.61842833300034,53.06988166700012,54.11312554199958,53.040721833667035,54.11312554199958,54.70246691699958,55.74729641700014,54.67407999966623,,52.61842833300034,57.79042137499982,52.61842833300034,57.79042137499982,57.83053091700003,58.510219083000266,52.61842833300034,1,1,1.0706905419992836,reldom2_s017,001,2025-02-20_15h24.26.837,Aud-B-Scan_AC,2022.2.5,None,
3,First_Order,1.0,audwhat,stimulus/audwhat_stim/dummy.wav,stimulus/audwhat_stim/dummy.wav,stimulus/audwhat_stim/string viola_low-pitch_Dtri_loud.wav,stimulus/audwhat_stim/percussion mallet_low-pitch_Dtri_loud.wav,stimulus/audwhat_stim/blank_white.png,stimulus/audwhat_stim/category_box.png,stimulus/audwhat_stim/category_yes.png,stimulus/audwhat_stim/category_no.png,None,Category,None,Pitch,2,0.0,0,5.125,0,5.125,0,5.125,0,0.0,0.625,0,0,0,0,0,0,0,0,0,0.0,0,0.0,1,0.5,1,2.125,0,,,,,0,3,3,3,,,,,,,,,58.72218887500003,58.72218887500003,58.72218887500003,58.72218887500003,58.72218887500003,58.72218887500003,58.72218887500003,58.72218887500003,58.6435524163336,58.72218887500003,58.72218887500003,58.72218887500003,58.6435524163336,58.72218887500003,58.72218887500003,58.72218887500003,60.82557141699999,,58.72218887500003,58.72218887500003,63.88943654200011,58.72218887500003,58.72218887500003,58.72218887500003,58.72218887500003,59.17822158299987,60.231294250000246,59.14921704166706,,60.82557141699999,61.881667417000244,60.79606220866687,,58.72218887500003,63.88943654200011,58.72218887500003,63.88943654200011,63.929362500000025,64.61231791699993,58.72218887500003,2,1,0.7236518330000763,reldom2_s017,001,2025-02-20_15h24.26.837,Aud-B-Scan_AC,2022.2.5,None,
4,First_Order,1.0,audwhat,stimulus/audwhat_stim/dummy.wav,stimulus/audwhat_stim/dummy.wav,stimulus/audwhat_stim/percussion mallet_low-pitch_D_loud.wav,stimulus/audwhat_stim/percussion xylophone_high-pitch_Dtri_loud.wav,stimulus/audwhat_stim/blank_white.png,stimulus/audwhat_stim/pitch_box.png,stimulus/audwhat_stim/pitch_yes.png,stimulus/audwhat_stim/pitch_no.png,None,Pitch,None,Category,2,0.0,0,5.125,0,5.125,0,5.125,0,0.0,0.625,0,0,0,0,0,0,0,0,0,0.0,0,0.0,1,0.5,1,2.125,0,,,,,0,4,4,4,,,,,,,,,64.82057137500033,64.82057137500033,64.82057137500033,64.82057137500033,64.82057137500033,64.82057137500033,64.82057137500033,64.82057137500033,64.74565125033325,64.82057137500033,64.82057137500033,64.82057137500033,64.74565125033325,64.82057137500033,64.82057137500033,64.82057137500033,66.91858970799967,,64.82057137500033,64.82057137500033,69.98031433300002,64.82057137500033,64.82057137500033,64.82057137500033,64.82057137500033,65.27610387499954,66.32624083300016,65.2474647916663,,66.91858970799967,67.97029945800023,66.88990858366675,67.92444595799952,64.82057137500033,69.98031433300002,64.82057137500033,69.98031433300002,70.02018683299957,70.70366658300009,64.82057137500033,1,0,1.2631414160005079,reldom2_s017,001,2025-02-20_15h24.26.837,Aud-B-Scan_AC,2022.2.5,None,
0,0.0,None,fixation,stimulus/audwhat_stim/blank_white.png,stimulus/audwhat_stim/blank_white.png,stimulus/audwhere_stim/blank_white.png,stimulus/audwhere_stim/blank_white.png,stimulus/audwhat_stim/blank_white.png,stimulus/audwhat_stim/blank_white.png,stimulus/audwhat_stim/blank_white.png,stimulus/audwhat_stim/blank_white.png,0.0,0.0,0.0,0.0,0,0.0,0,0.0,0,0.0,0,0.0,0,0.0,0.0,0,0,0,0,0,0,0,0,0,0.0,0,0.0,0,0.0,0,0.0,8,,,,,0,5,5,5,,,,,,,,,70.93094654200013,70.93094654200013,70.93094654200013,70.93094654200013,70.93094654200013,70.93094654200013,70.93094654200013,70.93094654200013,70.83699991633341,70.93094654200013,70.93094654200013,70.93094654200013,70.83699991633341,70.93094654200013,70.93094654200013,70.93094654200013,70.93094654200013,70.93094654200013,70.93094654200013,70.93094654200013,70.93094654200013,70.93094654200013,70.93094654200013,70.93094654200013,70.93094654200013,70.93094654200013,70.93094654200013,70.88699991633342,70.93094654200013,70.93094654200013,70.93094654200013,70.88699991633342,70.93094654200013,70.93094654200013,70.93094654200013,70.93094654200013,70.93094654200013,76.12989837500027,76.12989837500027,79.0599986670004,None,0,,reldom2_s017,001,2025-02-20_15h24.26.837,Aud-B-Scan_AC,2022.2.5,None,
5,Second_Order,1.0,audwhat,stimulus/audwhat_stim/percussion mallet_high-pitch_Dtri_loud.wav,stimulus/audwhat_stim/string cello_high-pitch_Dtri_loud.wav,stimulus/audwhat_stim/string viola_low-pitch_F_loud.wav,stimulus/audwhat_stim/percussion mallet_low-pitch_F_loud.wav,stimulus/audwhat_stim/match_blank.png,stimulus/audwhat_stim/match_box.png,stimulus/audwhat_stim/match_yes.png,stimulus/audwhat_stim/match_no.png,1.0,Match,Pitch,Pitch,1,5.125,0,5.125,0,5.125,0,5.125,0,0.75,0.75,0,0,0,0,0,0,0,0,1,0.5,1,2.125,1,0.5,1,2.125,0,,,,,0,6,6,6,,,,,,,,,79.0599986670004,84.17556337499991,79.0599986670004,79.0599986670004,79.0599986670004,79.0599986670004,79.5118002500003,80.49887787500029,79.52596516666678,,81.13506341700031,82.13241537500016,81.14698087466628,,84.17556337499991,85.0257549580001,87.06532820800021,,85.0257549580001,85.0257549580001,90.20204787500006,85.0257549580001,85.0257549580001,85.0257549580001,85.0257549580001,85.476859333,86.52230120799959,85.44802945866674,,87.06532820800021,88.1151034579998,87.03613849966702,,85.0257549580001,90.20204787500006,85.0257549580001,90.20204787500006,90.20204787500006,,85.0257549580001,1,1,1.1518374999996013,reldom2_s017,001,2025-02-20_15h24.26.837,Aud-B-Scan_AC,2022.2.5,None,
6,Second_Order,1.0,audwhat,stimulus/audwhat_stim/percussion mallet_low-pitch_F_loud.wav,stimulus/audwhat_stim/percussion mallet_high-pitch_Dtri_loud.wav,stimulus/audwhat_stim/string viola_low-pitch_Ftri_loud.wav,stimulus/audwhat_stim/percussion mallet_low-pitch_Ftri_loud.wav,stimulus/audwhat_stim/match_blank.png,stimulus/audwhat_stim/match_box.png,stimulus/audwhat_stim/match_yes.png,stimulus/audwhat_stim/match_no.png,2.0,Match,Category,Pitch,2,5.125,0,5.125,0,5.125,0,5.125,0,0.625,0.625,0,0,0,0,0,0,0,0,1,0.5,1,2.125,1,0.5,1,2.125,0,,,,,0,7,7,7,,,,,,,,,90.99974920800014,96.12045916700026,90.99974920800014,90.99974920800014,90.99974920800014,90.99974920800014,91.45846262499981,92.45661666700016,91.47066108366677,,93.07849095799975,94.0767639579999,93.09080108366676,,96.12045916700026,96.84949587499977,98.92793595799958,,96.84949587499977,96.84949587499977,102.01377950000006,96.84949587499977,96.84949587499977,96.84949587499977,96.84949587499977,97.29776225000023,98.33860095799992,97.26897545866656,,98.92793595799958,99.97323979199973,98.8991171666669,99.92786245800016,96.84949587499977,102.01377950000006,96.84949587499977,102.01377950000006,102.01377950000006,102.69466745800037,96.84949587499977,2,1,0.6625144170002386,reldom2_s017,001,2025-02-20_15h24.26.837,Aud-B-Scan_AC,2022.2.5,None,
0,0.0,None,fixation,stimulus/audwhat_stim/blank_white.png,stimulus/audwhat_stim/blank_white.png,stimulus/audwhere_stim/blank_white.png,stimulus/audwhere_stim/blank_white.png,stimulus/audwhat_stim/blank_white.png,stimulus/audwhat_stim/blank_white.png,stimulus/audwhat_stim/blank_white.png,stimulus/audwhat_stim/blank_white.png,0.0,0.0,0.0,0.0,0,0.0,0,0.0,0,0.0,0,0.0,0,0.0,0.0,0,0,0,0,0,0,0,0,0,0.0,0,0.0,0,0.0,0,0.0,10,,,,,0,8,8,8,,,,,,,,,102.92257687500023,102.92257687500023,102.92257687500023,102.92257687500023,102.92257687500023,102.92257687500023,102.92257687500023,102.92257687500023,102.8280007913337,102.92257687500023,102.92257687500023,102.92257687500023,102.8280007913337,102.92257687500023,102.92257687500023,102.92257687500023,102.92257687500023,102.92257687500023,102.92257687500023,102.92257687500023,102.92257687500023,102.92257687500023,102.92257687500023,102.92257687500023,102.92257687500023,102.92257687500023,102.92257687500023,102.8780007913337,102.92257687500023,102.92257687500023,102.92257687500023,102.8780007913337,102.92257687500023,102.92257687500023,102.92257687500023,102.92257687500023,102.92257687500023,108.13927737500035,108.13927737500035,113.14107308300026,None,0,,reldom2_s017,001,2025-02-20_15h24.26.837,Aud-B-Scan_AC,2022.2.5,None,
7,First_Order,2.0,audwhat,stimulus/audwhat_stim/dummy.wav,stimulus/audwhat_stim/dummy.wav,stimulus/audwhat_stim/percussion xylophone_high-pitch_F_loud.wav,stimulus/audwhat_stim/percussion mallet_low-pitch_D_loud.wav,stimulus/audwhat_stim/blank_white.png,stimulus/audwhat_stim/category_box.png,stimulus/audwhat_stim/category_yes.png,stimulus/audwhat_stim/category_no.png,None,Category,None,Category,1,0.0,0,5.125,0,5.125,0,5.125,0,0.0,0.625,0,0,0,0,0,0,0,0,0,0.0,0,0.0,1,0.5,1,2.125,0,,,,,0,9,9,9,,,,,,,,,113.14107308300026,113.14107308300026,113.14107308300026,113.14107308300026,113.14107308300026,113.14107308300026,113.14107308300026,113.14107308300026,113.07416708366661,113.14107308300026,113.14107308300026,113.14107308300026,113.07416708366661,113.14107308300026,113.14107308300026,113.14107308300026,115.21377424999991,,113.14107308300026,113.14107308300026,118.29501070799961,113.14107308300026,113.14107308300026,113.14107308300026,113.14107308300026,113.60313374999987,114.66171200000008,113.57282024966686,114.61564116699992,115.21377424999991,116.26895891700042,115.18411170866626,,113.14107308300026,118.29501070799961,113.14107308300026,118.29501070799961,118.33538095800031,119.02328383300028,113.14107308300026,1,1,1.1827589169997736,reldom2_s017,001,2025-02-20_15h24.26.837,Aud-B-Scan_AC,2022.2.5,None,
8,First_Order,2.0,audwhat,stimulus/audwhat_stim/dummy.wav,stimulus/audwhat_stim/dummy.wav,stimulus/audwhat_stim/percussion mallet_low-pitch_D_loud.wav,stimulus/audwhat_stim/string viola_low-pitch_D_loud.wav,stimulus/audwhat_stim/blank_white.png,stimulus/audwhat_stim/pitch_box.png,stimulus/audwhat_stim/pitch_yes.png,stimulus/audwhat_stim/pitch_no.png,None,Pitch,None,Pitch,1,0.0,0,5.125,0,5.125,0,5.125,0,0.0,0.625,0,0,0,0,0,0,0,0,0,0.0,0,0.0,1,0.5,1,2.125,0,,,,,0,10,10,10,,,,,,,,,119.23503524999978,119.23503524999978,119.23503524999978,119.23503524999978,119.23503524999978,119.23503524999978,119.23503524999978,119.23503524999978,119.1566171663336,119.23503524999978,119.23503524999978,119.23503524999978,119.1566171663336,119.23503524999978,119.23503524999978,119.23503524999978,121.34742579199974,125.36068270800024,119.23503524999978,119.23503524999978,124.42582324999967,119.23503524999978,119.23503524999978,119.23503524999978,119.23503524999978,119.69411745799971,120.75027500000033,119.66452945866628,,121.34742579199974,122.4089444580004,121.31812062466658,,119.23503524999978,124.42582324999967,119.23503524999978,124.42582324999967,124.42582324999967,125.11030658300024,119.23503524999978,1,1,0.7263640829996802,reldom2_s017,001,2025-02-20_15h24.26.837,Aud-B-Scan_AC,2022.2.5,None,
9,First_Order,2.0,audwhat,stimulus/audwhat_stim/dummy.wav,stimulus/audwhat_stim/dummy.wav,stimulus/audwhat_stim/percussion mallet_low-pitch_D_loud.wav,stimulus/audwhat_stim/percussion mallet_high-pitch_Ftri_loud.wav,stimulus/audwhat_stim/blank_white.png,stimulus/audwhat_stim/category_box.png,stimulus/audwhat_stim/category_yes.png,stimulus/audwhat_stim/category_no.png,None,Category,None,Category,1,0.0,0,5.125,0,5.125,0,5.125,0,0.0,0.625,0,0,0,0,0,0,0,0,0,0.0,0,0.0,1,0.5,1,2.125,0,,,,,0,11,11,11,,,,,,,,,125.36068270800024,125.36068270800024,125.36068270800024,125.36068270800024,125.36068270800024,125.36068270800024,125.36068270800024,125.36068270800024,125.28363420833296,125.36068270800024,125.36068270800024,125.36068270800024,125.28363420833296,125.36068270800024,125.36068270800024,125.36068270800024,127.44265537499996,131.48401195800034,125.36068270800024,125.36068270800024,130.54354862499986,125.36068270800024,125.36068270800024,125.36068270800024,125.36068270800024,125.82211974999973,126.88950483299959,125.79209054166701,,127.44265537499996,128.51007212500008,127.4127456246663,,125.36068270800024,130.54354862499986,125.36068270800024,130.54354862499986,130.58384766699965,131.2324563330003,125.36068270800024,1,1,0.6346912079998219,reldom2_s017,001,2025-02-20_15h24.26.837,Aud-B-Scan_AC,2022.2.5,None,
10,First_Order,2.0,audwhat,stimulus/audwhat_stim/dummy.wav,stimulus/audwhat_stim/dummy.wav,stimulus/audwhat_stim/string cello_high-pitch_F_loud.wav,stimulus/audwhat_stim/percussion mallet_high-pitch_F_loud.wav,stimulus/audwhat_stim/blank_white.png,stimulus/audwhat_stim/category_box.png,stimulus/audwhat_stim/category_yes.png,stimulus/audwhat_stim/category_no.png,None,Category,None,Pitch,2,0.0,0,5.125,0,5.125,0,5.125,0,0.0,0.625,0,0,0,0,0,0,0,0,0,0.0,0,0.0,1,0.5,1,2.125,0,,,,,0,12,12,12,,,,,,,,,131.48401195800034,131.48401195800034,131.48401195800034,131.48401195800034,131.48401195800034,131.48401195800034,131.48401195800034,131.48401195800034,131.406460833333,131.48401195800034,131.48401195800034,131.48401195800034,131.406460833333,131.48401195800034,131.48401195800034,131.48401195800034,133.56372679200012,137.63040724999973,131.48401195800034,131.48401195800034,136.66662025000005,131.48401195800034,131.48401195800034,131.48401195800034,131.48401195800034,131.9441155000004,133.00801129199954,131.91483479166644,,133.56372679200012,134.63321325000015,133.53378291666675,,131.48401195800034,136.66662025000005,131.48401195800034,136.66662025000005,136.70738075000008,137.35981987499963,131.48401195800034,2,1,0.6855539580001277,reldom2_s017,001,2025-02-20_15h24.26.837,Aud-B-Scan_AC,2022.2.5,None,
0,0.0,None,fixation,stimulus/audwhat_stim/blank_white.png,stimulus/audwhat_stim/blank_white.png,stimulus/audwhere_stim/blank_white.png,stimulus/audwhere_stim/blank_white.png,stimulus/audwhat_stim/blank_white.png,stimulus/audwhat_stim/blank_white.png,stimulus/audwhat_stim/blank_white.png,stimulus/audwhat_stim/blank_white.png,0.0,0.0,0.0,0.0,0,0.0,0,0.0,0,0.0,0,0.0,0,0.0,0.0,0,0,0,0,0,0,0,0,0,0.0,0,0.0,0,0.0,0,0.0,8,,,,,0,13,13,13,,,,,,,,,137.63040724999973,137.63040724999973,137.63040724999973,137.63040724999973,137.63040724999973,137.63040724999973,137.63040724999973,137.63040724999973,137.53378683333372,137.63040724999973,137.63040724999973,137.63040724999973,137.53378683333372,137.63040724999973,137.63040724999973,137.63040724999973,137.63040724999973,137.63040724999973,137.63040724999973,137.63040724999973,137.63040724999973,137.63040724999973,137.63040724999973,137.63040724999973,137.63040724999973,137.63040724999973,137.63040724999973,137.5837868333337,137.63040724999973,137.63040724999973,137.63040724999973,137.5837868333337,137.63040724999973,137.63040724999973,137.63040724999973,137.63040724999973,137.63040724999973,142.83655949999957,142.83655949999957,145.7997897920004,None,0,,reldom2_s017,001,2025-02-20_15h24.26.837,Aud-B-Scan_AC,2022.2.5,None,
11,Second_Order,2.0,audwhat,stimulus/audwhat_stim/string viola_high-pitch_Dtri_loud.wav,stimulus/audwhat_stim/string cello_low-pitch_D_loud.wav,stimulus/audwhat_stim/percussion mallet_high-pitch_Dtri_loud.wav,stimulus/audwhat_stim/percussion mallet_low-pitch_Ftri_loud.wav,stimulus/audwhat_stim/match_blank.png,stimulus/audwhat_stim/match_box.png,stimulus/audwhat_stim/match_yes.png,stimulus/audwhat_stim/match_no.png,1.0,Match,Category,Category,1,5.125,0,5.125,0,5.125,0,5.125,0,0.75,0.75,0,0,0,0,0,0,0,0,1,0.5,1,2.125,1,0.5,1,2.125,0,,,,,0,14,14,14,,,,,,,,,145.7997897920004,150.91220908299965,145.7997897920004,145.7997897920004,145.7997897920004,145.7997897920004,146.2504040419999,147.2366890000003,146.26359008366697,,147.8845875420002,148.87306308299958,147.88801504166648,,150.91220908299965,151.76081595800042,153.81384679199982,,151.76081595800042,151.76081595800042,156.9310490830003,151.76081595800042,151.76081595800042,151.76081595800042,151.76081595800042,152.21673966700018,153.26558612499957,152.18804295866656,,153.81384679199982,154.87311549999959,153.7844935416663,,151.76081595800042,156.9310490830003,151.76081595800042,156.9310490830003,156.9310490830003,,151.76081595800042,1,1,0.6400044160000107,reldom2_s017,001,2025-02-20_15h24.26.837,Aud-B-Scan_AC,2022.2.5,None,
12,Second_Order,2.0,audwhat,stimulus/audwhat_stim/string viola_low-pitch_F_loud.wav,stimulus/audwhat_stim/string viola_high-pitch_Ftri_loud.wav,stimulus/audwhat_stim/percussion mallet_low-pitch_Ftri_loud.wav,stimulus/audwhat_stim/percussion xylophone_high-pitch_Dtri_loud.wav,stimulus/audwhat_stim/match_blank.png,stimulus/audwhat_stim/match_box.png,stimulus/audwhat_stim/match_yes.png,stimulus/audwhat_stim/match_no.png,1.0,Match,Category,Category,1,5.125,0,5.125,0,5.125,0,5.125,0,0.625,0.625,0,0,0,0,0,0,0,0,1,0.5,1,2.125,1,0.5,1,2.125,0,,,,,0,15,15,15,,,,,,,,,157.72993012499956,162.85255837499972,157.72993012499956,157.72993012499956,157.72993012499956,157.72993012499956,158.17658533299982,159.16443487499964,158.19088104166647,,159.81182424999952,160.80106966699987,159.81650708366695,,162.85255837499972,163.5853328330004,165.62496170800023,,163.5853328330004,163.5853328330004,168.76948354199976,163.5853328330004,163.5853328330004,163.5853328330004,163.5853328330004,164.03676133299996,165.0797520420001,164.0077702086667,,165.62496170800023,166.67555020799955,165.59621999966683,166.62960654200015,163.5853328330004,168.76948354199976,163.5853328330004,168.76948354199976,168.76948354199976,169.45029820800028,163.5853328330004,1,1,0.6814170419993388,reldom2_s017,001,2025-02-20_15h24.26.837,Aud-B-Scan_AC,2022.2.5,None,
0,0.0,None,fixation,stimulus/audwhat_stim/blank_white.png,stimulus/audwhat_stim/blank_white.png,stimulus/audwhere_stim/blank_white.png,stimulus/audwhere_stim/blank_white.png,stimulus/audwhat_stim/blank_white.png,stimulus/audwhat_stim/blank_white.png,stimulus/audwhat_stim/blank_white.png,stimulus/audwhat_stim/blank_white.png,0.0,0.0,0.0,0.0,0,0.0,0,0.0,0,0.0,0,0.0,0,0.0,0.0,0,0,0,0,0,0,0,0,0,0.0,0,0.0,0,0.0,0,0.0,9,,,,,0,16,16,16,,,,,,,,,169.67756800000006,169.67756800000006,169.67756800000006,169.67756800000006,169.67756800000006,169.67756800000006,169.67756800000006,169.67756800000006,169.58363154133363,169.67756800000006,169.67756800000006,169.67756800000006,169.58363154133363,169.67756800000006,169.67756800000006,169.67756800000006,169.67756800000006,169.67756800000006,169.67756800000006,169.67756800000006,169.67756800000006,169.67756800000006,169.67756800000006,169.67756800000006,169.67756800000006,169.67756800000006,169.67756800000006,169.6336315413336,169.67756800000006,169.67756800000006,169.67756800000006,169.6336315413336,169.67756800000006,169.67756800000006,169.67756800000006,169.67756800000006,169.67756800000006,174.91397470799984,174.91397470799984,178.93722145799984,None,0,,reldom2_s017,001,2025-02-20_15h24.26.837,Aud-B-Scan_AC,2022.2.5,None,
13,First_Order,3.0,audwhere,stimulus/audwhere_stim/dummy.wav,stimulus/audwhere_stim/dummy.wav,stimulus/audwhere_stim/left_toward_290h.wav,stimulus/audwhere_stim/right_toward_280h.wav,stimulus/audwhere_stim/blank_white.png,stimulus/audwhere_stim/direction_box.png,stimulus/audwhere_stim/direction_yes.png,stimulus/audwhere_stim/direction_no.png,None,Direction,None,Direction,1,0.0,0,5.125,0,5.125,0,5.125,0,0.0,0.625,0,0,0,0,0,0,0,0,0,0.0,0,0.0,1,0.5,1,2.125,0,,,,,0,17,17,17,,,,,,,,,178.93722145799984,178.93722145799984,178.93722145799984,178.93722145799984,178.93722145799984,178.93722145799984,178.93722145799984,178.93722145799984,178.86836029166687,178.93722145799984,178.93722145799984,178.93722145799984,178.86836029166687,178.93722145799984,178.93722145799984,178.93722145799984,181.01407191700036,185.05627687499964,178.93722145799984,178.93722145799984,184.116732167,178.93722145799984,178.93722145799984,178.93722145799984,178.93722145799984,179.3991394169998,180.4622104580003,179.36959758366655,,181.01407191700036,182.07826662499974,180.98448499966642,,178.93722145799984,184.116732167,178.93722145799984,184.116732167,184.15810529200007,184.8067527080002,178.93722145799984,1,1,1.1349537500000224,reldom2_s017,001,2025-02-20_15h24.26.837,Aud-B-Scan_AC,2022.2.5,None,
14,First_Order,3.0,audwhere,stimulus/audwhere_stim/dummy.wav,stimulus/audwhere_stim/dummy.wav,stimulus/audwhere_stim/left_toward_270h.wav,stimulus/audwhere_stim/right_toward_290h.wav,stimulus/audwhere_stim/blank_white.png,stimulus/audwhere_stim/direction_box.png,stimulus/audwhere_stim/direction_yes.png,stimulus/audwhere_stim/direction_no.png,None,Direction,None,Direction,1,0.0,0,5.125,0,5.125,0,5.125,0,0.0,0.625,0,0,0,0,0,0,0,0,0,0.0,0,0.0,1,0.5,1,2.125,0,,,,,0,18,18,18,,,,,,,,,185.05627687499964,185.05627687499964,185.05627687499964,185.05627687499964,185.05627687499964,185.05627687499964,185.05627687499964,185.05627687499964,184.98016737533376,185.05627687499964,185.05627687499964,185.05627687499964,184.98016737533376,185.05627687499964,185.05627687499964,185.05627687499964,187.13893525000003,191.18192850000014,185.05627687499964,185.05627687499964,190.24011108299965,185.05627687499964,185.05627687499964,185.05627687499964,185.05627687499964,185.51882000000023,186.5850691249998,185.48921233366698,,187.13893525000003,188.20847683299962,187.10986620866632,,185.05627687499964,190.24011108299965,185.05627687499964,190.24011108299965,190.28119054200033,190.93067274999976,185.05627687499964,1,1,1.039824999999837,reldom2_s017,001,2025-02-20_15h24.26.837,Aud-B-Scan_AC,2022.2.5,None,
15,First_Order,3.0,audwhere,stimulus/audwhere_stim/dummy.wav,stimulus/audwhere_stim/dummy.wav,stimulus/audwhere_stim/left_away_290h.wav,stimulus/audwhere_stim/left_toward_280h.wav,stimulus/audwhere_stim/blank_white.png,stimulus/audwhere_stim/direction_box.png,stimulus/audwhere_stim/direction_yes.png,stimulus/audwhere_stim/direction_no.png,None,Direction,None,Side,2,0.0,0,5.125,0,5.125,0,5.125,0,0.0,0.625,0,0,0,0,0,0,0,0,0,0.0,0,0.0,1,0.5,1,2.125,0,,,,,0,19,19,19,,,,,,,,,191.18192850000014,191.18192850000014,191.18192850000014,191.18192850000014,191.18192850000014,191.18192850000014,191.18192850000014,191.18192850000014,191.10426404133355,191.18192850000014,191.18192850000014,191.18192850000014,191.10426404133355,191.18192850000014,191.18192850000014,191.18192850000014,193.27187620800032,,191.18192850000014,191.18192850000014,196.3343858750004,191.18192850000014,191.18192850000014,191.18192850000014,191.18192850000014,191.64577095799996,192.7154573329999,191.61567395866703,,193.27187620800032,194.337870458,193.24231495866687,,191.18192850000014,196.3343858750004,191.18192850000014,196.3343858750004,196.37506637499973,197.0249843749998,191.18192850000014,2,1,1.174358792000021,reldom2_s017,001,2025-02-20_15h24.26.837,Aud-B-Scan_AC,2022.2.5,None,
16,First_Order,3.0,audwhere,stimulus/audwhere_stim/dummy.wav,stimulus/audwhere_stim/dummy.wav,stimulus/audwhere_stim/left_toward_300h.wav,stimulus/audwhere_stim/left_away_290h.wav,stimulus/audwhere_stim/blank_white.png,stimulus/audwhere_stim/direction_box.png,stimulus/audwhere_stim/direction_yes.png,stimulus/audwhere_stim/direction_no.png,None,Direction,None,Side,2,0.0,0,5.125,0,5.125,0,5.125,0,0.0,0.625,0,0,0,0,0,0,0,0,0,0.0,0,0.0,1,0.5,1,2.125,0,,,,,0,20,20,20,,,,,,,,,197.27784145799978,197.27784145799978,197.27784145799978,197.27784145799978,197.27784145799978,197.27784145799978,197.27784145799978,197.27784145799978,197.19886929133295,197.27784145799978,197.27784145799978,197.27784145799978,197.19886929133295,197.27784145799978,197.27784145799978,197.27784145799978,199.36989845799962,,197.27784145799978,197.27784145799978,202.4380354169998,197.27784145799978,197.27784145799978,197.27784145799978,197.27784145799978,197.7425956670004,198.8119283750002,197.7124937086667,,199.36989845799962,200.44070366699998,199.33976962466684,,197.27784145799978,202.4380354169998,197.27784145799978,202.4380354169998,202.4792484999998,203.12806249999994,197.27784145799978,1,0,1.4671165839999958,reldom2_s017,001,2025-02-20_15h24.26.837,Aud-B-Scan_AC,2022.2.5,None,
0,0.0,None,fixation,stimulus/audwhat_stim/blank_white.png,stimulus/audwhat_stim/blank_white.png,stimulus/audwhere_stim/blank_white.png,stimulus/audwhere_stim/blank_white.png,stimulus/audwhat_stim/blank_white.png,stimulus/audwhat_stim/blank_white.png,stimulus/audwhat_stim/blank_white.png,stimulus/audwhat_stim/blank_white.png,0.0,0.0,0.0,0.0,0,0.0,0,0.0,0,0.0,0,0.0,0,0.0,0.0,0,0,0,0,0,0,0,0,0,0.0,0,0.0,0,0.0,0,0.0,10,,,,,0,21,21,21,,,,,,,,,203.399634333,203.399634333,203.399634333,203.399634333,203.399634333,203.399634333,203.399634333,203.399634333,203.30221758333315,203.399634333,203.399634333,203.399634333,203.30221758333315,203.399634333,203.399634333,203.399634333,203.399634333,203.399634333,203.399634333,203.399634333,203.399634333,203.399634333,203.399634333,203.399634333,203.399634333,203.399634333,203.399634333,203.35221758333313,203.399634333,203.399634333,203.399634333,203.35221758333313,203.399634333,203.399634333,203.399634333,203.399634333,203.399634333,208.62496141700012,208.62496141700012,213.56817212500027,None,0,,reldom2_s017,001,2025-02-20_15h24.26.837,Aud-B-Scan_AC,2022.2.5,None,
17,Second_Order,3.0,audwhere,stimulus/audwhere_stim/right_toward_290h.wav,stimulus/audwhere_stim/right_away_290h.wav,stimulus/audwhere_stim/right_away_280h.wav,stimulus/audwhere_stim/left_away_300h.wav,stimulus/audwhat_stim/match_blank.png,stimulus/audwhat_stim/match_box.png,stimulus/audwhat_stim/match_yes.png,stimulus/audwhat_stim/match_no.png,2.0,Match,Side,Direction,2,5.125,0,5.125,0,5.125,0,5.125,0,0.75,0.75,0,0,0,0,0,0,0,0,1,0.5,1,2.125,1,0.5,1,2.125,0,,,,,0,22,22,22,,,,,,,,,213.56817212500027,218.68627816699973,213.56817212500027,213.56817212500027,213.56817212500027,213.56817212500027,214.02420562499992,215.0229990830003,214.03686820866668,,215.64529674999994,216.64339995800037,215.65712133366677,,218.68627816699973,219.53484812500028,221.59748262500034,225.52205429199967,219.53484812500028,219.53484812500028,224.72420508300002,219.53484812500028,219.53484812500028,219.53484812500028,219.53484812500028,219.99060137499964,221.04785629199978,219.96141754166663,,221.59748262500034,222.65521216700017,221.56790408366695,,219.53484812500028,224.72420508300002,219.53484812500028,224.72420508300002,224.72420508300002,,219.53484812500028,2,1,1.113024833000054,reldom2_s017,001,2025-02-20_15h24.26.837,Aud-B-Scan_AC,2022.2.5,None,
18,Second_Order,3.0,audwhere,stimulus/audwhere_stim/right_toward_270h.wav,stimulus/audwhere_stim/left_toward_270h.wav,stimulus/audwhere_stim/right_away_300h.wav,stimulus/audwhere_stim/left_away_280h.wav,stimulus/audwhat_stim/match_blank.png,stimulus/audwhat_stim/match_box.png,stimulus/audwhat_stim/match_yes.png,stimulus/audwhat_stim/match_no.png,1.0,Match,Direction,Direction,1,5.125,0,5.125,0,5.125,0,5.125,0,0.625,0.625,0,0,0,0,0,0,0,0,1,0.5,1,2.125,1,0.5,1,2.125,0,,,,,0,23,23,23,,,,,,,,,225.52205429199967,230.64700258300036,225.52205429199967,225.52205429199967,225.52205429199967,225.52205429199967,225.98159187500005,226.97074354199958,225.98495470866627,,227.60629254200012,228.60408179200022,227.61871849966636,,230.64700258300036,231.37573262499973,233.42057658300018,237.48078350000014,231.37573262499973,231.37573262499973,236.5300615420001,231.37573262499973,231.37573262499973,231.37573262499973,231.37573262499973,231.8273208749997,232.87503275000017,231.79822337466638,,233.42057658300018,234.4748338749996,233.39146937466674,,231.37573262499973,236.5300615420001,231.37573262499973,236.5300615420001,236.569698583,237.25182962500003,231.37573262499973,1,1,0.7250934170006076,reldom2_s017,001,2025-02-20_15h24.26.837,Aud-B-Scan_AC,2022.2.5,None,
0,0.0,None,fixation,stimulus/audwhat_stim/blank_white.png,stimulus/audwhat_stim/blank_white.png,stimulus/audwhere_stim/blank_white.png,stimulus/audwhere_stim/blank_white.png,stimulus/audwhat_stim/blank_white.png,stimulus/audwhat_stim/blank_white.png,stimulus/audwhat_stim/blank_white.png,stimulus/audwhat_stim/blank_white.png,0.0,0.0,0.0,0.0,0,0.0,0,0.0,0,0.0,0,0.0,0,0.0,0.0,0,0,0,0,0,0,0,0,0,0.0,0,0.0,0,0.0,0,0.0,8,,,,,0,24,24,24,,,,,,,,,237.48078350000014,237.48078350000014,237.48078350000014,237.48078350000014,237.48078350000014,237.48078350000014,237.48078350000014,237.48078350000014,237.38516295833338,237.48078350000014,237.48078350000014,237.48078350000014,237.38516295833338,237.48078350000014,237.48078350000014,237.48078350000014,237.48078350000014,237.48078350000014,237.48078350000014,237.48078350000014,237.48078350000014,237.48078350000014,237.48078350000014,237.48078350000014,237.48078350000014,237.48078350000014,237.48078350000014,237.43516295833336,237.48078350000014,237.48078350000014,237.48078350000014,237.43516295833336,237.48078350000014,237.48078350000014,237.48078350000014,237.48078350000014,237.48078350000014,242.68180037500042,242.68180037500042,245.70695970799989,None,0,,reldom2_s017,001,2025-02-20_15h24.26.837,Aud-B-Scan_AC,2022.2.5,None,
19,First_Order,4.0,audwhere,stimulus/audwhere_stim/dummy.wav,stimulus/audwhere_stim/dummy.wav,stimulus/audwhere_stim/right_toward_280h.wav,stimulus/audwhere_stim/left_toward_280h.wav,stimulus/audwhere_stim/blank_white.png,stimulus/audwhere_stim/side_box.png,stimulus/audwhere_stim/side_yes.png,stimulus/audwhere_stim/side_no.png,None,Side,None,Direction,2,0.0,0,5.125,0,5.125,0,5.125,0,0.0,0.625,0,0,0,0,0,0,0,0,0,0.0,0,0.0,1,0.5,1,2.125,0,,,,,0,25,25,25,,,,,,,,,245.70695970799989,245.70695970799989,245.70695970799989,245.70695970799989,245.70695970799989,245.70695970799989,245.70695970799989,245.70695970799989,245.63779541666707,245.70695970799989,245.70695970799989,245.70695970799989,245.63779541666707,245.70695970799989,245.70695970799989,245.70695970799989,247.82141370800036,,245.70695970799989,245.70695970799989,250.8611485829997,245.70695970799989,245.70695970799989,245.70695970799989,245.70695970799989,246.16779312499966,247.22543029200006,246.13859808366695,,247.82141370800036,248.8834162080002,247.79227029166694,,245.70695970799989,250.8611485829997,245.70695970799989,250.8611485829997,250.90166816700003,251.58906812500027,245.70695970799989,2,1,1.0679403750000347,reldom2_s017,001,2025-02-20_15h24.26.837,Aud-B-Scan_AC,2022.2.5,None,
20,First_Order,4.0,audwhere,stimulus/audwhere_stim/dummy.wav,stimulus/audwhere_stim/dummy.wav,stimulus/audwhere_stim/left_toward_290h.wav,stimulus/audwhere_stim/right_toward_270h.wav,stimulus/audwhere_stim/blank_white.png,stimulus/audwhere_stim/side_box.png,stimulus/audwhere_stim/side_yes.png,stimulus/audwhere_stim/side_no.png,None,Side,None,Direction,2,0.0,0,5.125,0,5.125,0,5.125,0,0.0,0.625,0,0,0,0,0,0,0,0,0,0.0,0,0.0,1,0.5,1,2.125,0,,,,,0,26,26,26,,,,,,,,,251.79981683299957,251.79981683299957,251.79981683299957,251.79981683299957,251.79981683299957,251.79981683299957,251.79981683299957,251.79981683299957,251.72240145833362,251.79981683299957,251.79981683299957,251.79981683299957,251.72240145833362,251.79981683299957,251.79981683299957,251.79981683299957,253.91610933300035,,251.79981683299957,251.79981683299957,256.9588899170003,251.79981683299957,251.79981683299957,251.79981683299957,251.79981683299957,252.26190000000042,253.319169417,252.23207454166666,,253.91610933300035,254.9823459170002,253.8858173336669,,251.79981683299957,256.9588899170003,251.79981683299957,256.9588899170003,256.9990862499999,257.6474110420004,251.79981683299957,2,1,0.9682644579997941,reldom2_s017,001,2025-02-20_15h24.26.837,Aud-B-Scan_AC,2022.2.5,None,
21,First_Order,4.0,audwhere,stimulus/audwhere_stim/dummy.wav,stimulus/audwhere_stim/dummy.wav,stimulus/audwhere_stim/left_toward_270h.wav,stimulus/audwhere_stim/left_away_300h.wav,stimulus/audwhere_stim/blank_white.png,stimulus/audwhere_stim/side_box.png,stimulus/audwhere_stim/side_yes.png,stimulus/audwhere_stim/side_no.png,None,Side,None,Side,1,0.0,0,5.125,0,5.125,0,5.125,0,0.0,0.625,0,0,0,0,0,0,0,0,0,0.0,0,0.0,1,0.5,1,2.125,0,,,,,0,27,27,27,,,,,,,,,257.89932037499966,257.89932037499966,257.89932037499966,257.89932037499966,257.89932037499966,257.89932037499966,257.89932037499966,257.89932037499966,257.8215192913332,257.89932037499966,257.89932037499966,257.89932037499966,257.8215192913332,257.89932037499966,257.89932037499966,257.89932037499966,259.98084608299996,264.0176092499996,257.89932037499966,257.89932037499966,263.0775880000001,257.89932037499966,257.89932037499966,257.89932037499966,257.89932037499966,258.3608192920001,259.4244130420002,258.33106174966656,,259.98084608299996,261.04763229200034,259.95079312466646,,257.89932037499966,263.0775880000001,257.89932037499966,263.0775880000001,263.11789574999966,263.8063296250002,257.89932037499966,1,1,0.9686229170001752,reldom2_s017,001,2025-02-20_15h24.26.837,Aud-B-Scan_AC,2022.2.5,None,
22,First_Order,4.0,audwhere,stimulus/audwhere_stim/dummy.wav,stimulus/audwhere_stim/dummy.wav,stimulus/audwhere_stim/left_away_290h.wav,stimulus/audwhere_stim/left_toward_270h.wav,stimulus/audwhere_stim/blank_white.png,stimulus/audwhere_stim/side_box.png,stimulus/audwhere_stim/side_yes.png,stimulus/audwhere_stim/side_no.png,None,Side,None,Side,1,0.0,0,5.125,0,5.125,0,5.125,0,0.0,0.625,0,0,0,0,0,0,0,0,0,0.0,0,0.0,1,0.5,1,2.125,0,,,,,0,28,28,28,,,,,,,,,264.0176092499996,264.0176092499996,264.0176092499996,264.0176092499996,264.0176092499996,264.0176092499996,264.0176092499996,264.0176092499996,263.93966295833354,264.0176092499996,264.0176092499996,264.0176092499996,263.93966295833354,264.0176092499996,264.0176092499996,264.0176092499996,266.10281329200006,270.1692404579999,264.0176092499996,264.0176092499996,269.20394512500025,264.0176092499996,264.0176092499996,264.0176092499996,264.0176092499996,264.4821780000002,265.5462358329996,264.4524827496664,,266.10281329200006,267.1690928329999,266.07206016666646,,264.0176092499996,269.20394512500025,264.0176092499996,269.20394512500025,269.2447287499999,269.89442150000013,264.0176092499996,1,1,0.9385877499998969,reldom2_s017,001,2025-02-20_15h24.26.837,Aud-B-Scan_AC,2022.2.5,None,
0,0.0,None,fixation,stimulus/audwhat_stim/blank_white.png,stimulus/audwhat_stim/blank_white.png,stimulus/audwhere_stim/blank_white.png,stimulus/audwhere_stim/blank_white.png,stimulus/audwhat_stim/blank_white.png,stimulus/audwhat_stim/blank_white.png,stimulus/audwhat_stim/blank_white.png,stimulus/audwhat_stim/blank_white.png,0.0,0.0,0.0,0.0,0,0.0,0,0.0,0,0.0,0,0.0,0,0.0,0.0,0,0,0,0,0,0,0,0,0,0.0,0,0.0,0,0.0,0,0.0,10,,,,,0,29,29,29,,,,,,,,,270.1692404579999,270.1692404579999,270.1692404579999,270.1692404579999,270.1692404579999,270.1692404579999,270.1692404579999,270.1692404579999,270.0684898753335,270.1692404579999,270.1692404579999,270.1692404579999,270.0684898753335,270.1692404579999,270.1692404579999,270.1692404579999,270.1692404579999,270.1692404579999,270.1692404579999,270.1692404579999,270.1692404579999,270.1692404579999,270.1692404579999,270.1692404579999,270.1692404579999,270.1692404579999,270.1692404579999,270.1184898753335,270.1692404579999,270.1692404579999,270.1692404579999,270.1184898753335,270.1692404579999,270.1692404579999,270.1692404579999,270.1692404579999,270.1692404579999,275.38667758300016,275.38667758300016,280.3270277499996,None,0,,reldom2_s017,001,2025-02-20_15h24.26.837,Aud-B-Scan_AC,2022.2.5,None,
23,Second_Order,4.0,audwhere,stimulus/audwhere_stim/right_toward_300h.wav,stimulus/audwhere_stim/left_toward_270h.wav,stimulus/audwhere_stim/left_away_300h.wav,stimulus/audwhere_stim/right_away_300h.wav,stimulus/audwhat_stim/match_blank.png,stimulus/audwhat_stim/match_box.png,stimulus/audwhat_stim/match_yes.png,stimulus/audwhat_stim/match_no.png,1.0,Match,Direction,Direction,1,5.125,0,5.125,0,5.125,0,5.125,0,0.75,0.75,0,0,0,0,0,0,0,0,1,0.5,1,2.125,1,0.5,1,2.125,0,,,,,0,30,30,30,,,,,,,,,280.3270277499996,285.43962479200036,280.3270277499996,280.3270277499996,280.3270277499996,280.3270277499996,280.77831479199995,281.77709137500005,280.7910042916667,,282.40037295799993,283.39759024999967,282.4118143336666,,285.43962479200036,286.290033708,288.35023533299955,292.2791329170004,286.290033708,286.290033708,291.4761315830001,286.290033708,286.290033708,286.290033708,286.290033708,286.74549679200027,287.79724341699966,286.71626349966687,,288.35023533299955,289.4090124579998,288.3206312916666,,286.290033708,291.4761315830001,286.290033708,291.4761315830001,291.4761315830001,,286.290033708,1,1,0.9789466669999456,reldom2_s017,001,2025-02-20_15h24.26.837,Aud-B-Scan_AC,2022.2.5,None,
24,Second_Order,4.0,audwhere,stimulus/audwhere_stim/right_toward_300h.wav,stimulus/audwhere_stim/left_toward_300h.wav,stimulus/audwhere_stim/left_away_290h.wav,stimulus/audwhere_stim/right_away_280h.wav,stimulus/audwhat_stim/match_blank.png,stimulus/audwhat_stim/match_box.png,stimulus/audwhat_stim/match_yes.png,stimulus/audwhat_stim/match_no.png,1.0,Match,Direction,Direction,1,5.125,0,5.125,0,5.125,0,5.125,0,0.625,0.625,0,0,0,0,0,0,0,0,1,0.5,1,2.125,1,0.5,1,2.125,0,,,,,0,31,31,31,,,,,,,,,292.2791329170004,297.40068862499993,292.2791329170004,292.2791329170004,292.2791329170004,292.2791329170004,292.7391688329999,293.7380738749998,292.7524109586668,,294.3605856670001,295.35881849999987,294.37285820866623,,297.40068862499993,298.133407542,300.18093124999996,304.2415923749995,298.133407542,298.133407542,303.28845208300027,298.133407542,298.133407542,298.133407542,298.133407542,298.5866174169996,299.63251987500007,298.55742449966624,,300.18093124999996,301.235426792,300.1516769166667,,298.133407542,303.28845208300027,298.133407542,303.28845208300027,303.28845208300027,303.97067224999955,298.133407542,1,1,0.6429456250007206,reldom2_s017,001,2025-02-20_15h24.26.837,Aud-B-Scan_AC,2022.2.5,None,
0,0.0,None,fixation,stimulus/audwhat_stim/blank_white.png,stimulus/audwhat_stim/blank_white.png,stimulus/audwhere_stim/blank_white.png,stimulus/audwhere_stim/blank_white.png,stimulus/audwhat_stim/blank_white.png,stimulus/audwhat_stim/blank_white.png,stimulus/audwhat_stim/blank_white.png,stimulus/audwhat_stim/blank_white.png,0.0,0.0,0.0,0.0,0,0.0,0,0.0,0,0.0,0,0.0,0,0.0,0.0,0,0,0,0,0,0,0,0,0,0.0,0,0.0,0,0.0,0,0.0,9,,,,,0,32,32,32,,,,,,,,,304.2415923749995,304.2415923749995,304.2415923749995,304.2415923749995,304.2415923749995,304.2415923749995,304.2415923749995,304.2415923749995,304.1443179583331,304.2415923749995,304.2415923749995,304.2415923749995,304.1443179583331,304.2415923749995,304.2415923749995,304.2415923749995,304.2415923749995,304.2415923749995,304.2415923749995,304.2415923749995,304.2415923749995,304.2415923749995,304.2415923749995,304.2415923749995,304.2415923749995,304.2415923749995,304.2415923749995,304.1943179583331,304.2415923749995,304.2415923749995,304.2415923749995,304.1943179583331,304.2415923749995,304.2415923749995,304.2415923749995,304.2415923749995,304.2415923749995,309.44522795800003,309.44522795800003,313.4817049579997,None,0,,reldom2_s017,001,2025-02-20_15h24.26.837,Aud-B-Scan_AC,2022.2.5,None,
25,First_Order,5.0,audwhat,stimulus/audwhat_stim/dummy.wav,stimulus/audwhat_stim/dummy.wav,stimulus/audwhat_stim/percussion xylophone_high-pitch_Ftri_loud.wav,stimulus/audwhat_stim/percussion mallet_low-pitch_F_loud.wav,stimulus/audwhat_stim/blank_white.png,stimulus/audwhat_stim/pitch_box.png,stimulus/audwhat_stim/pitch_yes.png,stimulus/audwhat_stim/pitch_no.png,None,Pitch,None,Category,2,0.0,0,5.125,0,5.125,0,5.125,0,0.0,0.625,0,0,0,0,0,0,0,0,0,0.0,0,0.0,1,0.5,1,2.125,0,,,,,0,33,33,33,,,,,,,,,313.4817049579997,313.4817049579997,313.4817049579997,313.4817049579997,313.4817049579997,313.4817049579997,313.4817049579997,313.4817049579997,313.4116269996663,313.4817049579997,313.4817049579997,313.4817049579997,313.4116269996663,313.4817049579997,313.4817049579997,313.4817049579997,315.55460566700003,319.59473224999965,313.4817049579997,313.4817049579997,318.6527087499999,313.4817049579997,313.4817049579997,313.4817049579997,313.4817049579997,313.94251133299986,315.00440962500033,313.9128541666662,314.95830970800034,315.55460566700003,316.6221637919998,315.525425791667,,313.4817049579997,318.6527087499999,313.4817049579997,318.6527087499999,318.69371775000036,319.34276195799976,313.4817049579997,1,0,1.8313359169997057,reldom2_s017,001,2025-02-20_15h24.26.837,Aud-B-Scan_AC,2022.2.5,None,
26,First_Order,5.0,audwhat,stimulus/audwhat_stim/dummy.wav,stimulus/audwhat_stim/dummy.wav,stimulus/audwhat_stim/percussion mallet_low-pitch_Dtri_loud.wav,stimulus/audwhat_stim/percussion xylophone_high-pitch_Ftri_loud.wav,stimulus/audwhat_stim/blank_white.png,stimulus/audwhat_stim/category_box.png,stimulus/audwhat_stim/category_yes.png,stimulus/audwhat_stim/category_no.png,None,Category,None,Category,1,0.0,0,5.125,0,5.125,0,5.125,0,0.0,0.625,0,0,0,0,0,0,0,0,0,0.0,0,0.0,1,0.5,1,2.125,0,,,,,0,34,34,34,,,,,,,,,319.59473224999965,319.59473224999965,319.59473224999965,319.59473224999965,319.59473224999965,319.59473224999965,319.59473224999965,319.59473224999965,319.51654812533354,319.59473224999965,319.59473224999965,319.59473224999965,319.51654812533354,319.59473224999965,319.59473224999965,319.59473224999965,321.68843474999994,,319.59473224999965,319.59473224999965,324.7557502919999,319.59473224999965,319.59473224999965,319.59473224999965,319.59473224999965,320.06110974999956,321.1312816669997,320.0313755836662,,321.68843474999994,322.7609283749998,321.65850049966707,322.7143355830003,319.59473224999965,324.7557502919999,319.59473224999965,324.7557502919999,324.797243,325.44959949999975,319.59473224999965,1,1,1.3297904999999446,reldom2_s017,001,2025-02-20_15h24.26.837,Aud-B-Scan_AC,2022.2.5,None,
27,First_Order,5.0,audwhat,stimulus/audwhat_stim/dummy.wav,stimulus/audwhat_stim/dummy.wav,stimulus/audwhat_stim/string cello_low-pitch_Dtri_loud.wav,stimulus/audwhat_stim/percussion mallet_low-pitch_Dtri_loud.wav,stimulus/audwhat_stim/blank_white.png,stimulus/audwhat_stim/pitch_box.png,stimulus/audwhat_stim/pitch_yes.png,stimulus/audwhat_stim/pitch_no.png,None,Pitch,None,Pitch,1,0.0,0,5.125,0,5.125,0,5.125,0,0.0,0.625,0,0,0,0,0,0,0,0,0,0.0,0,0.0,1,0.5,1,2.125,0,,,,,0,35,35,35,,,,,,,,,325.70294812500015,325.70294812500015,325.70294812500015,325.70294812500015,325.70294812500015,325.70294812500015,325.70294812500015,325.70294812500015,325.62328508333314,325.70294812500015,325.70294812500015,325.70294812500015,325.62328508333314,325.70294812500015,325.70294812500015,325.70294812500015,327.7860174999996,,325.70294812500015,325.70294812500015,330.8930387500004,325.70294812500015,325.70294812500015,325.70294812500015,325.70294812500015,326.1651507079996,327.2289181670003,326.13596270866697,,327.7860174999996,328.85750841699974,327.75594712466705,,325.70294812500015,330.8930387500004,325.70294812500015,330.8930387500004,330.8930387500004,331.5449464579997,325.70294812500015,1,1,0.5571591249999983,reldom2_s017,001,2025-02-20_15h24.26.837,Aud-B-Scan_AC,2022.2.5,None,
28,First_Order,5.0,audwhat,stimulus/audwhat_stim/dummy.wav,stimulus/audwhat_stim/dummy.wav,stimulus/audwhat_stim/percussion xylophone_high-pitch_Ftri_loud.wav,stimulus/audwhat_stim/percussion mallet_low-pitch_F_loud.wav,stimulus/audwhat_stim/blank_white.png,stimulus/audwhat_stim/category_box.png,stimulus/audwhat_stim/category_yes.png,stimulus/audwhat_stim/category_no.png,None,Category,None,Category,1,0.0,0,5.125,0,5.125,0,5.125,0,0.0,0.625,0,0,0,0,0,0,0,0,0,0.0,0,0.0,1,0.5,1,2.125,0,,,,,0,36,36,36,,,,,,,,,331.79860262500006,331.79860262500006,331.79860262500006,331.79860262500006,331.79860262500006,331.79860262500006,331.79860262500006,331.79860262500006,331.7185195413332,331.79860262500006,331.79860262500006,331.79860262500006,331.7185195413332,331.79860262500006,331.79860262500006,331.79860262500006,333.89248037499965,337.9403740830003,331.79860262500006,331.79860262500006,336.96901354199963,331.79860262500006,331.79860262500006,331.79860262500006,331.79860262500006,332.26499262499965,333.3342379579999,332.234842791667,333.2875906250001,333.89248037499965,334.9217675,333.86317991666624,,331.79860262500006,336.96901354199963,331.79860262500006,336.96901354199963,337.01001695800005,337.6661140420001,331.79860262500006,1,1,0.8270251250005458,reldom2_s017,001,2025-02-20_15h24.26.837,Aud-B-Scan_AC,2022.2.5,None,
0,0.0,None,fixation,stimulus/audwhat_stim/blank_white.png,stimulus/audwhat_stim/blank_white.png,stimulus/audwhere_stim/blank_white.png,stimulus/audwhere_stim/blank_white.png,stimulus/audwhat_stim/blank_white.png,stimulus/audwhat_stim/blank_white.png,stimulus/audwhat_stim/blank_white.png,stimulus/audwhat_stim/blank_white.png,0.0,0.0,0.0,0.0,0,0.0,0,0.0,0,0.0,0,0.0,0,0.0,0.0,0,0,0,0,0,0,0,0,0,0.0,0,0.0,0,0.0,0,0.0,8,,,,,0,37,37,37,,,,,,,,,337.9403740830003,337.9403740830003,337.9403740830003,337.9403740830003,337.9403740830003,337.9403740830003,337.9403740830003,337.9403740830003,337.84024987533314,337.9403740830003,337.9403740830003,337.9403740830003,337.84024987533314,337.9403740830003,337.9403740830003,337.9403740830003,337.9403740830003,337.9403740830003,337.9403740830003,337.9403740830003,337.9403740830003,337.9403740830003,337.9403740830003,337.9403740830003,337.9403740830003,337.9403740830003,337.9403740830003,337.89024987533315,337.9403740830003,337.9403740830003,337.9403740830003,337.89024987533315,337.9403740830003,337.9403740830003,337.9403740830003,337.9403740830003,337.9403740830003,343.1686294580004,343.1686294580004,346.091428875,None,0,,reldom2_s017,001,2025-02-20_15h24.26.837,Aud-B-Scan_AC,2022.2.5,None,
29,Second_Order,5.0,audwhat,stimulus/audwhat_stim/string viola_low-pitch_Dtri_loud.wav,stimulus/audwhat_stim/percussion mallet_low-pitch_Dtri_loud.wav,stimulus/audwhat_stim/string viola_low-pitch_Dtri_loud.wav,stimulus/audwhat_stim/string cello_high-pitch_Ftri_loud.wav,stimulus/audwhat_stim/match_blank.png,stimulus/audwhat_stim/match_box.png,stimulus/audwhat_stim/match_yes.png,stimulus/audwhat_stim/match_no.png,2.0,Match,Pitch,Category,2,5.125,0,5.125,0,5.125,0,5.125,0,0.75,0.75,0,0,0,0,0,0,0,0,1,0.5,1,2.125,1,0.5,1,2.125,0,,,,,0,38,38,38,,,,,,,,,346.091428875,351.2087508329996,346.091428875,346.091428875,346.091428875,346.091428875,346.54648154200004,347.545506167,346.55984812466636,,348.1682572919999,349.1657736670004,348.18049770866696,,351.2087508329996,352.0564873330004,354.1273625829999,358.0585607080002,352.0564873330004,352.0564873330004,357.214438125,352.0564873330004,352.0564873330004,352.0564873330004,352.0564873330004,352.5159430419999,353.57432504200005,352.4863516246662,,354.1273625829999,355.1912511669998,354.09612524966656,,352.0564873330004,357.214438125,352.0564873330004,357.214438125,357.25463816699994,,352.0564873330004,2,1,0.8030998340000224,reldom2_s017,001,2025-02-20_15h24.26.837,Aud-B-Scan_AC,2022.2.5,None,
30,Second_Order,5.0,audwhat,stimulus/audwhat_stim/string viola_high-pitch_Ftri_loud.wav,stimulus/audwhat_stim/percussion xylophone_high-pitch_Ftri_loud.wav,stimulus/audwhat_stim/string viola_low-pitch_D_loud.wav,stimulus/audwhat_stim/percussion mallet_low-pitch_D_loud.wav,stimulus/audwhat_stim/match_blank.png,stimulus/audwhat_stim/match_box.png,stimulus/audwhat_stim/match_yes.png,stimulus/audwhat_stim/match_no.png,1.0,Match,Pitch,Pitch,1,5.125,0,5.125,0,5.125,0,5.125,0,0.625,0.625,0,0,0,0,0,0,0,0,1,0.5,1,2.125,1,0.5,1,2.125,0,,,,,0,39,39,39,,,,,,,,,358.0585607080002,363.18148058299994,358.0585607080002,358.0585607080002,358.0585607080002,358.0585607080002,358.5062786669996,359.4930165830001,358.52054145866646,,360.1410502919998,361.1299667080002,360.14541970866617,361.14348441699985,363.18148058299994,363.91430670800037,365.9633315829997,,363.91430670800037,363.91430670800037,369.08493275,363.91430670800037,363.91430670800037,363.91430670800037,363.91430670800037,364.37021583299975,365.41508966699985,364.34095616666696,,365.9633315829997,367.0219404170002,365.93388941666694,,363.91430670800037,369.08493275,363.91430670800037,369.08493275,369.08493275,369.76986258299985,363.91430670800037,1,1,0.9676070830000754,reldom2_s017,001,2025-02-20_15h24.26.837,Aud-B-Scan_AC,2022.2.5,None,
0,0.0,None,fixation,stimulus/audwhat_stim/blank_white.png,stimulus/audwhat_stim/blank_white.png,stimulus/audwhere_stim/blank_white.png,stimulus/audwhere_stim/blank_white.png,stimulus/audwhat_stim/blank_white.png,stimulus/audwhat_stim/blank_white.png,stimulus/audwhat_stim/blank_white.png,stimulus/audwhat_stim/blank_white.png,0.0,0.0,0.0,0.0,0,0.0,0,0.0,0,0.0,0,0.0,0,0.0,0.0,0,0,0,0,0,0,0,0,0,0.0,0,0.0,0,0.0,0,0.0,9,,,,,0,40,40,40,,,,,,,,,370.0000239580004,370.0000239580004,370.0000239580004,370.0000239580004,370.0000239580004,370.0000239580004,370.0000239580004,370.0000239580004,369.9031959163332,370.0000239580004,370.0000239580004,370.0000239580004,369.9031959163332,370.0000239580004,370.0000239580004,370.0000239580004,370.0000239580004,370.0000239580004,370.0000239580004,370.0000239580004,370.0000239580004,370.0000239580004,370.0000239580004,370.0000239580004,370.0000239580004,370.0000239580004,370.0000239580004,369.9531959163332,370.0000239580004,370.0000239580004,370.0000239580004,369.9531959163332,370.0000239580004,370.0000239580004,370.0000239580004,370.0000239580004,370.0000239580004,375.2243799580001,375.2243799580001,379.2235908749999,None,0,,reldom2_s017,001,2025-02-20_15h24.26.837,Aud-B-Scan_AC,2022.2.5,None,
31,First_Order,6.0,audwhat,stimulus/audwhat_stim/dummy.wav,stimulus/audwhat_stim/dummy.wav,stimulus/audwhat_stim/string viola_low-pitch_D_loud.wav,stimulus/audwhat_stim/percussion mallet_low-pitch_D_loud.wav,stimulus/audwhat_stim/blank_white.png,stimulus/audwhat_stim/category_box.png,stimulus/audwhat_stim/category_yes.png,stimulus/audwhat_stim/category_no.png,None,Category,None,Pitch,2,0.0,0,5.125,0,5.125,0,5.125,0,0.0,0.625,0,0,0,0,0,0,0,0,0,0.0,0,0.0,1,0.5,1,2.125,0,,,,,0,41,41,41,,,,,,,,,379.2235908749999,379.2235908749999,379.2235908749999,379.2235908749999,379.2235908749999,379.2235908749999,379.2235908749999,379.2235908749999,379.153294041667,379.2235908749999,379.2235908749999,379.2235908749999,379.153294041667,379.2235908749999,379.2235908749999,379.2235908749999,381.31413799999973,,379.2235908749999,379.2235908749999,384.38577870799963,379.2235908749999,379.2235908749999,379.2235908749999,379.2235908749999,379.68772199999967,380.75805933300035,379.6581522496665,,381.31413799999973,382.388275542,381.28384045866665,,379.2235908749999,384.38577870799963,379.2235908749999,384.38577870799963,384.42621170799976,385.0773804999999,379.2235908749999,2,1,1.1746549170002254,reldom2_s017,001,2025-02-20_15h24.26.837,Aud-B-Scan_AC,2022.2.5,None,
32,First_Order,6.0,audwhat,stimulus/audwhat_stim/dummy.wav,stimulus/audwhat_stim/dummy.wav,stimulus/audwhat_stim/percussion mallet_high-pitch_Dtri_loud.wav,stimulus/audwhat_stim/string viola_high-pitch_Dtri_loud.wav,stimulus/audwhat_stim/blank_white.png,stimulus/audwhat_stim/pitch_box.png,stimulus/audwhat_stim/pitch_yes.png,stimulus/audwhat_stim/pitch_no.png,None,Pitch,None,Pitch,1,0.0,0,5.125,0,5.125,0,5.125,0,0.0,0.625,0,0,0,0,0,0,0,0,0,0.0,0,0.0,1,0.5,1,2.125,0,,,,,0,42,42,42,,,,,,,,,385.3308059580004,385.3308059580004,385.3308059580004,385.3308059580004,385.3308059580004,385.3308059580004,385.3308059580004,385.3308059580004,385.25133950033353,385.3308059580004,385.3308059580004,385.3308059580004,385.25133950033353,385.3308059580004,385.3308059580004,385.3308059580004,387.4145898329998,,385.3308059580004,385.3308059580004,390.5199929999999,385.3308059580004,385.3308059580004,385.3308059580004,385.3308059580004,385.79427550000037,386.86040333300025,385.7645472496663,,387.4145898329998,388.48567195800024,387.3851650416666,,385.3308059580004,390.5199929999999,385.3308059580004,390.5199929999999,390.5612111669998,391.2117244580004,385.3308059580004,1,1,1.0453282500002388,reldom2_s017,001,2025-02-20_15h24.26.837,Aud-B-Scan_AC,2022.2.5,None,
33,First_Order,6.0,audwhat,stimulus/audwhat_stim/dummy.wav,stimulus/audwhat_stim/dummy.wav,stimulus/audwhat_stim/string cello_high-pitch_D_loud.wav,stimulus/audwhat_stim/string viola_low-pitch_F_loud.wav,stimulus/audwhat_stim/blank_white.png,stimulus/audwhat_stim/pitch_box.png,stimulus/audwhat_stim/pitch_yes.png,stimulus/audwhat_stim/pitch_no.png,None,Pitch,None,Category,2,0.0,0,5.125,0,5.125,0,5.125,0,0.0,0.625,0,0,0,0,0,0,0,0,0,0.0,0,0.0,1,0.5,1,2.125,0,,,,,0,43,43,43,,,,,,,,,391.42421433300024,391.42421433300024,391.42421433300024,391.42421433300024,391.42421433300024,391.42421433300024,391.42421433300024,391.42421433300024,391.3450577913337,391.42421433300024,391.42421433300024,391.42421433300024,391.3450577913337,391.42421433300024,391.42421433300024,391.42421433300024,393.5102225419996,,391.42421433300024,391.42421433300024,396.6162836249996,391.42421433300024,391.42421433300024,391.42421433300024,391.42421433300024,391.88644999999997,392.9563839579996,391.8566120416665,,393.5102225419996,394.58046379200005,393.48010374966657,,391.42421433300024,396.6162836249996,391.42421433300024,396.6162836249996,396.6162836249996,397.26857762500003,391.42421433300024,2,1,1.4632025420005448,reldom2_s017,001,2025-02-20_15h24.26.837,Aud-B-Scan_AC,2022.2.5,None,
34,First_Order,6.0,audwhat,stimulus/audwhat_stim/dummy.wav,stimulus/audwhat_stim/dummy.wav,stimulus/audwhat_stim/percussion mallet_low-pitch_F_loud.wav,stimulus/audwhat_stim/string viola_low-pitch_F_loud.wav,stimulus/audwhat_stim/blank_white.png,stimulus/audwhat_stim/category_box.png,stimulus/audwhat_stim/category_yes.png,stimulus/audwhat_stim/category_no.png,None,Category,None,Pitch,2,0.0,0,5.125,0,5.125,0,5.125,0,0.0,0.625,0,0,0,0,0,0,0,0,0,0.0,0,0.0,1,0.5,1,2.125,0,,,,,0,44,44,44,,,,,,,,,397.5231573330002,397.5231573330002,397.5231573330002,397.5231573330002,397.5231573330002,397.5231573330002,397.5231573330002,397.5231573330002,397.44267087533365,397.5231573330002,397.5231573330002,397.5231573330002,397.44267087533365,397.5231573330002,397.5231573330002,397.5231573330002,399.61895616699985,403.66808754199974,397.5231573330002,397.5231573330002,402.6973254169998,397.5231573330002,397.5231573330002,397.5231573330002,397.5231573330002,397.9876091670003,399.06020804200034,397.958276833667,,399.61895616699985,400.6930130419996,399.5889926666662,,397.5231573330002,402.6973254169998,397.5231573330002,402.6973254169998,402.7381405420001,403.3941670000004,397.5231573330002,2,1,1.6602603749997797,reldom2_s017,001,2025-02-20_15h24.26.837,Aud-B-Scan_AC,2022.2.5,None,
0,0.0,None,fixation,stimulus/audwhat_stim/blank_white.png,stimulus/audwhat_stim/blank_white.png,stimulus/audwhere_stim/blank_white.png,stimulus/audwhere_stim/blank_white.png,stimulus/audwhat_stim/blank_white.png,stimulus/audwhat_stim/blank_white.png,stimulus/audwhat_stim/blank_white.png,stimulus/audwhat_stim/blank_white.png,0.0,0.0,0.0,0.0,0,0.0,0,0.0,0,0.0,0,0.0,0,0.0,0.0,0,0,0,0,0,0,0,0,0,0.0,0,0.0,0,0.0,0,0.0,9,,,,,0,45,45,45,,,,,,,,,403.66808754199974,403.66808754199974,403.66808754199974,403.66808754199974,403.66808754199974,403.66808754199974,403.66808754199974,403.66808754199974,403.5682486663337,403.66808754199974,403.66808754199974,403.66808754199974,403.5682486663337,403.66808754199974,403.66808754199974,403.66808754199974,403.66808754199974,403.66808754199974,403.66808754199974,403.66808754199974,403.66808754199974,403.66808754199974,403.66808754199974,403.66808754199974,403.66808754199974,403.66808754199974,403.66808754199974,403.6182486663337,403.66808754199974,403.66808754199974,403.66808754199974,403.6182486663337,403.66808754199974,403.66808754199974,403.66808754199974,403.66808754199974,403.66808754199974,408.85378216699974,408.85378216699974,412.8481069170002,None,0,,reldom2_s017,001,2025-02-20_15h24.26.837,Aud-B-Scan_AC,2022.2.5,None,
35,Second_Order,6.0,audwhat,stimulus/audwhat_stim/string cello_low-pitch_D_loud.wav,stimulus/audwhat_stim/percussion mallet_low-pitch_D_loud.wav,stimulus/audwhat_stim/percussion mallet_low-pitch_D_loud.wav,stimulus/audwhat_stim/percussion xylophone_high-pitch_Ftri_loud.wav,stimulus/audwhat_stim/match_blank.png,stimulus/audwhat_stim/match_box.png,stimulus/audwhat_stim/match_yes.png,stimulus/audwhat_stim/match_no.png,2.0,Match,Pitch,Category,2,5.125,0,5.125,0,5.125,0,5.125,0,0.75,0.75,0,0,0,0,0,0,0,0,1,0.5,1,2.125,1,0.5,1,2.125,0,,,,,0,46,46,46,,,,,,,,,412.8481069170002,417.96413525000025,412.8481069170002,412.8481069170002,412.8481069170002,412.8481069170002,413.30097054199996,414.2998167079995,413.31446899966636,,414.92217937500027,415.9199081249999,414.93458362466686,,417.96413525000025,418.8133955000003,420.8820769169997,,418.8133955000003,418.8133955000003,423.97080191700024,418.8133955000003,418.8133955000003,418.8133955000003,418.8133955000003,419.271084,420.3311806669999,419.2417881666663,,420.8820769169997,421.9405522500001,420.8526511666662,421.89443374999973,418.8133955000003,423.97080191700024,418.8133955000003,423.97080191700024,423.97080191700024,,418.8133955000003,2,1,1.1483145000001969,reldom2_s017,001,2025-02-20_15h24.26.837,Aud-B-Scan_AC,2022.2.5,None,
36,Second_Order,6.0,audwhat,stimulus/audwhat_stim/string cello_low-pitch_Dtri_loud.wav,stimulus/audwhat_stim/percussion mallet_low-pitch_Dtri_loud.wav,stimulus/audwhat_stim/string viola_high-pitch_F_loud.wav,stimulus/audwhat_stim/percussion xylophone_high-pitch_F_loud.wav,stimulus/audwhat_stim/match_blank.png,stimulus/audwhat_stim/match_box.png,stimulus/audwhat_stim/match_yes.png,stimulus/audwhat_stim/match_no.png,1.0,Match,Pitch,Pitch,1,5.125,0,5.125,0,5.125,0,5.125,0,0.625,0.625,0,0,0,0,0,0,0,0,1,0.5,1,2.125,1,0.5,1,2.125,0,,,,,0,47,47,47,,,,,,,,,424.7784088750004,429.8909734580002,424.7784088750004,424.7784088750004,424.7784088750004,424.7784088750004,425.2289504580003,426.22771629199997,425.24178570866684,,426.86269079199974,427.8508328329999,426.865450958667,,429.8909734580002,430.6203027499996,432.67478008299986,,430.6203027499996,430.6203027499996,435.7927319999999,430.6203027499996,430.6203027499996,430.6203027499996,430.6203027499996,431.0750791669998,432.1259714170001,431.0458857086662,,432.67478008299986,433.7322223330002,432.64560841666685,433.68635558299957,430.6203027499996,435.7927319999999,430.6203027499996,435.7927319999999,435.7927319999999,436.4778313750003,430.6203027499996,1,1,1.1220745000000534,reldom2_s017,001,2025-02-20_15h24.26.837,Aud-B-Scan_AC,2022.2.5,None,
0,0.0,None,fixation,stimulus/audwhat_stim/blank_white.png,stimulus/audwhat_stim/blank_white.png,stimulus/audwhere_stim/blank_white.png,stimulus/audwhere_stim/blank_white.png,stimulus/audwhat_stim/blank_white.png,stimulus/audwhat_stim/blank_white.png,stimulus/audwhat_stim/blank_white.png,stimulus/audwhat_stim/blank_white.png,0.0,0.0,0.0,0.0,0,0.0,0,0.0,0,0.0,0,0.0,0,0.0,0.0,0,0,0,0,0,0,0,0,0,0.0,0,0.0,0,0.0,0,0.0,10,,,,,0,48,48,48,,,,,,,,,436.708867583,436.708867583,436.708867583,436.708867583,436.708867583,436.708867583,436.708867583,436.708867583,436.6111647083336,436.708867583,436.708867583,436.708867583,436.6111647083336,436.708867583,436.708867583,436.708867583,436.708867583,436.708867583,436.708867583,436.708867583,436.708867583,436.708867583,436.708867583,436.708867583,436.708867583,436.708867583,436.708867583,436.6611647083336,436.708867583,436.708867583,436.708867583,436.6611647083336,436.708867583,436.708867583,436.708867583,436.708867583,436.708867583,441.93444658299995,441.93444658299995,446.93640249999953,None,0,,reldom2_s017,001,2025-02-20_15h24.26.837,Aud-B-Scan_AC,2022.2.5,None,
37,First_Order,7.0,audwhere,stimulus/audwhere_stim/dummy.wav,stimulus/audwhere_stim/dummy.wav,stimulus/audwhere_stim/right_toward_300h.wav,stimulus/audwhere_stim/left_toward_290h.wav,stimulus/audwhere_stim/blank_white.png,stimulus/audwhere_stim/direction_box.png,stimulus/audwhere_stim/direction_yes.png,stimulus/audwhere_stim/direction_no.png,None,Direction,None,Direction,1,0.0,0,5.125,0,5.125,0,5.125,0,0.0,0.625,0,0,0,0,0,0,0,0,0,0.0,0,0.0,1,0.5,1,2.125,0,,,,,0,49,49,49,,,,,,,,,446.93640249999953,446.93640249999953,446.93640249999953,446.93640249999953,446.93640249999953,446.93640249999953,446.93640249999953,446.93640249999953,446.8668069586662,446.93640249999953,446.93640249999953,446.93640249999953,446.8668069586662,446.93640249999953,446.93640249999953,446.93640249999953,449.0261451670003,,446.93640249999953,446.93640249999953,452.0957336669999,446.93640249999953,446.93640249999953,446.93640249999953,446.93640249999953,447.3983422499996,448.4699471670001,447.3686109586663,,449.0261451670003,450.0982403329999,448.9963861246663,,446.93640249999953,452.0957336669999,446.93640249999953,452.0957336669999,452.1381255420001,452.7905083750002,446.93640249999953,1,1,1.2328319170001123,reldom2_s017,001,2025-02-20_15h24.26.837,Aud-B-Scan_AC,2022.2.5,None,
38,First_Order,7.0,audwhere,stimulus/audwhere_stim/dummy.wav,stimulus/audwhere_stim/dummy.wav,stimulus/audwhere_stim/right_toward_290h.wav,stimulus/audwhere_stim/right_away_270h.wav,stimulus/audwhere_stim/blank_white.png,stimulus/audwhere_stim/side_box.png,stimulus/audwhere_stim/side_yes.png,stimulus/audwhere_stim/side_no.png,None,Side,None,Side,1,0.0,0,5.125,0,5.125,0,5.125,0,0.0,0.625,0,0,0,0,0,0,0,0,0,0.0,0,0.0,1,0.5,1,2.125,0,,,,,0,50,50,50,,,,,,,,,453.04365229199993,453.04365229199993,453.04365229199993,453.04365229199993,453.04365229199993,453.04365229199993,453.04365229199993,453.04365229199993,452.9649893333336,453.04365229199993,453.04365229199993,453.04365229199993,452.9649893333336,453.04365229199993,453.04365229199993,453.04365229199993,455.12865774999955,,453.04365229199993,453.04365229199993,458.2352954580001,453.04365229199993,453.04365229199993,453.04365229199993,453.04365229199993,453.5069697500003,454.57428425000035,453.47730679166693,,455.12865774999955,456.1969416669999,455.09876974966687,,453.04365229199993,458.2352954580001,453.04365229199993,458.2352954580001,458.2352954580001,458.88723545799985,453.04365229199993,1,1,0.7253821250005785,reldom2_s017,001,2025-02-20_15h24.26.837,Aud-B-Scan_AC,2022.2.5,None,
39,First_Order,7.0,audwhere,stimulus/audwhere_stim/dummy.wav,stimulus/audwhere_stim/dummy.wav,stimulus/audwhere_stim/left_away_290h.wav,stimulus/audwhere_stim/left_toward_290h.wav,stimulus/audwhere_stim/blank_white.png,stimulus/audwhere_stim/direction_box.png,stimulus/audwhere_stim/direction_yes.png,stimulus/audwhere_stim/direction_no.png,None,Direction,None,Side,2,0.0,0,5.125,0,5.125,0,5.125,0,0.0,0.625,0,0,0,0,0,0,0,0,0,0.0,0,0.0,1,0.5,1,2.125,0,,,,,0,51,51,51,,,,,,,,,459.14110466700004,459.14110466700004,459.14110466700004,459.14110466700004,459.14110466700004,459.14110466700004,459.14110466700004,459.14110466700004,459.06130008333287,459.14110466700004,459.14110466700004,459.14110466700004,459.06130008333287,459.14110466700004,459.14110466700004,459.14110466700004,461.2462236250003,,459.14110466700004,459.14110466700004,464.3333721250001,459.14110466700004,459.14110466700004,459.14110466700004,459.14110466700004,459.60754754200025,460.6395049169996,459.57762295866655,,461.2462236250003,462.27563674999965,461.2159680836669,,459.14110466700004,464.3333721250001,459.14110466700004,464.3333721250001,464.3333721250001,464.98794658299994,459.14110466700004,2,1,1.1652826250001453,reldom2_s017,001,2025-02-20_15h24.26.837,Aud-B-Scan_AC,2022.2.5,None,
40,First_Order,7.0,audwhere,stimulus/audwhere_stim/dummy.wav,stimulus/audwhere_stim/dummy.wav,stimulus/audwhere_stim/right_away_280h.wav,stimulus/audwhere_stim/right_toward_290h.wav,stimulus/audwhere_stim/blank_white.png,stimulus/audwhere_stim/direction_box.png,stimulus/audwhere_stim/direction_yes.png,stimulus/audwhere_stim/direction_no.png,None,Direction,None,Side,2,0.0,0,5.125,0,5.125,0,5.125,0,0.0,0.625,0,0,0,0,0,0,0,0,0,0.0,0,0.0,1,0.5,1,2.125,0,,,,,0,52,52,52,,,,,,,,,465.24268841699995,465.24268841699995,465.24268841699995,465.24268841699995,465.24268841699995,465.24268841699995,465.24268841699995,465.24268841699995,465.16205012533294,465.24268841699995,465.24268841699995,465.24268841699995,465.16205012533294,465.24268841699995,465.24268841699995,465.24268841699995,467.34763437499987,,465.24268841699995,465.24268841699995,470.43421662499986,465.24268841699995,465.24268841699995,465.24268841699995,465.24268841699995,465.7112009579996,466.74108329199953,465.6808723746665,,467.34763437499987,468.37917370800005,467.3177152916662,,465.24268841699995,470.43421662499986,465.24268841699995,470.43421662499986,470.43421662499986,471.09023629199964,465.24268841699995,2,1,1.3420125840002584,reldom2_s017,001,2025-02-20_15h24.26.837,Aud-B-Scan_AC,2022.2.5,None,
0,0.0,None,fixation,stimulus/audwhat_stim/blank_white.png,stimulus/audwhat_stim/blank_white.png,stimulus/audwhere_stim/blank_white.png,stimulus/audwhere_stim/blank_white.png,stimulus/audwhat_stim/blank_white.png,stimulus/audwhat_stim/blank_white.png,stimulus/audwhat_stim/blank_white.png,stimulus/audwhat_stim/blank_white.png,0.0,0.0,0.0,0.0,0,0.0,0,0.0,0,0.0,0,0.0,0,0.0,0.0,0,0,0,0,0,0,0,0,0,0.0,0,0.0,0,0.0,0,0.0,8,,,,,0,53,53,53,,,,,,,,,471.36479708299976,471.36479708299976,471.36479708299976,471.36479708299976,471.36479708299976,471.36479708299976,471.36479708299976,471.36479708299976,471.2645910003331,471.36479708299976,471.36479708299976,471.36479708299976,471.2645910003331,471.36479708299976,471.36479708299976,471.36479708299976,471.36479708299976,471.36479708299976,471.36479708299976,471.36479708299976,471.36479708299976,471.36479708299976,471.36479708299976,471.36479708299976,471.36479708299976,471.36479708299976,471.36479708299976,471.3145910003331,471.36479708299976,471.36479708299976,471.36479708299976,471.3145910003331,471.36479708299976,471.36479708299976,471.36479708299976,471.36479708299976,471.36479708299976,476.5542502500002,476.5542502500002,479.53184950000013,None,0,,reldom2_s017,001,2025-02-20_15h24.26.837,Aud-B-Scan_AC,2022.2.5,None,
41,Second_Order,7.0,audwhere,stimulus/audwhere_stim/left_toward_300h.wav,stimulus/audwhere_stim/right_toward_280h.wav,stimulus/audwhere_stim/right_toward_270h.wav,stimulus/audwhere_stim/right_away_290h.wav,stimulus/audwhat_stim/match_blank.png,stimulus/audwhat_stim/match_box.png,stimulus/audwhat_stim/match_yes.png,stimulus/audwhat_stim/match_no.png,2.0,Match,Direction,Side,2,5.125,0,5.125,0,5.125,0,5.125,0,0.75,0.75,0,0,0,0,0,0,0,0,1,0.5,1,2.125,1,0.5,1,2.125,0,,,,,0,54,54,54,,,,,,,,,479.53184950000013,484.65015691699955,479.53184950000013,479.53184950000013,479.53184950000013,479.53184950000013,479.98844825000015,480.98728808299984,480.00140379166646,,481.6096029580003,482.60737829200025,481.62220445866683,,484.65015691699955,485.49820437499966,487.56345679199967,,485.49820437499966,485.49820437499966,490.66414608299965,485.49820437499966,485.49820437499966,485.49820437499966,485.49820437499966,485.9568480830003,487.0108725,485.9275322496662,,487.56345679199967,488.62976441699993,487.53372249966674,,485.49820437499966,490.66414608299965,485.49820437499966,490.66414608299965,490.66414608299965,,485.49820437499966,2,1,1.0025832080000328,reldom2_s017,001,2025-02-20_15h24.26.837,Aud-B-Scan_AC,2022.2.5,None,
42,Second_Order,7.0,audwhere,stimulus/audwhere_stim/right_toward_290h.wav,stimulus/audwhere_stim/left_toward_270h.wav,stimulus/audwhere_stim/left_toward_290h.wav,stimulus/audwhere_stim/left_away_280h.wav,stimulus/audwhat_stim/match_blank.png,stimulus/audwhat_stim/match_box.png,stimulus/audwhat_stim/match_yes.png,stimulus/audwhat_stim/match_no.png,2.0,Match,Direction,Side,2,5.125,0,5.125,0,5.125,0,5.125,0,0.625,0.625,0,0,0,0,0,0,0,0,1,0.5,1,2.125,1,0.5,1,2.125,0,,,,,0,55,55,55,,,,,,,,,491.47464800000034,496.59415983300005,491.47464800000034,491.47464800000034,491.47464800000034,491.47464800000034,491.9313967500002,492.91808545799995,491.9455150836668,,493.553858792,494.55206391699994,493.5666234586663,,496.59415983300005,497.3230762920002,499.3773460829998,,497.3230762920002,497.3230762920002,502.5023182920004,497.3230762920002,497.3230762920002,497.3230762920002,497.3230762920002,497.77745754199987,498.82939474999966,497.748357499667,,499.3773460829998,500.4363075000001,499.3476450836663,,497.3230762920002,502.5023182920004,497.3230762920002,502.5023182920004,502.5023182920004,503.18804383299994,497.3230762920002,2,1,1.064571208000416,reldom2_s017,001,2025-02-20_15h24.26.837,Aud-B-Scan_AC,2022.2.5,None,
0,0.0,None,fixation,stimulus/audwhat_stim/blank_white.png,stimulus/audwhat_stim/blank_white.png,stimulus/audwhere_stim/blank_white.png,stimulus/audwhere_stim/blank_white.png,stimulus/audwhat_stim/blank_white.png,stimulus/audwhat_stim/blank_white.png,stimulus/audwhat_stim/blank_white.png,stimulus/audwhat_stim/blank_white.png,0.0,0.0,0.0,0.0,0,0.0,0,0.0,0,0.0,0,0.0,0,0.0,0.0,0,0,0,0,0,0,0,0,0,0.0,0,0.0,0,0.0,0,0.0,10,,,,,0,56,56,56,,,,,,,,,503.41964174999976,503.41964174999976,503.41964174999976,503.41964174999976,503.41964174999976,503.41964174999976,503.41964174999976,503.41964174999976,503.32137716633326,503.41964174999976,503.41964174999976,503.41964174999976,503.32137716633326,503.41964174999976,503.41964174999976,503.41964174999976,503.41964174999976,503.41964174999976,503.41964174999976,503.41964174999976,503.41964174999976,503.41964174999976,503.41964174999976,503.41964174999976,503.41964174999976,503.41964174999976,503.41964174999976,503.3713771663333,503.41964174999976,503.41964174999976,503.41964174999976,503.3713771663333,503.41964174999976,503.41964174999976,503.41964174999976,503.41964174999976,503.41964174999976,508.64927675000035,508.64927675000035,513.6500037079995,None,0,,reldom2_s017,001,2025-02-20_15h24.26.837,Aud-B-Scan_AC,2022.2.5,None,
43,First_Order,8.0,audwhere,stimulus/audwhere_stim/dummy.wav,stimulus/audwhere_stim/dummy.wav,stimulus/audwhere_stim/right_toward_270h.wav,stimulus/audwhere_stim/left_toward_300h.wav,stimulus/audwhere_stim/blank_white.png,stimulus/audwhere_stim/side_box.png,stimulus/audwhere_stim/side_yes.png,stimulus/audwhere_stim/side_no.png,None,Side,None,Direction,2,0.0,0,5.125,0,5.125,0,5.125,0,0.0,0.625,0,0,0,0,0,0,0,0,0,0.0,0,0.0,1,0.5,1,2.125,0,,,,,0,57,57,57,,,,,,,,,513.6500037079995,513.6500037079995,513.6500037079995,513.6500037079995,513.6500037079995,513.6500037079995,513.6500037079995,513.6500037079995,513.5799150836662,513.6500037079995,513.6500037079995,513.6500037079995,513.5799150836662,513.6500037079995,513.6500037079995,513.6500037079995,515.7289585420003,519.7764684579997,513.6500037079995,513.6500037079995,518.8310753750002,513.6500037079995,513.6500037079995,513.6500037079995,513.6500037079995,514.113086583,515.1748483749998,514.0818736666663,,515.7289585420003,516.7992192499996,515.6992084586666,,513.6500037079995,518.8310753750002,513.6500037079995,518.8310753750002,518.8719060000003,519.5242022080001,513.6500037079995,2,1,1.1202732920000926,reldom2_s017,001,2025-02-20_15h24.26.837,Aud-B-Scan_AC,2022.2.5,None,
44,First_Order,8.0,audwhere,stimulus/audwhere_stim/dummy.wav,stimulus/audwhere_stim/dummy.wav,stimulus/audwhere_stim/right_toward_270h.wav,stimulus/audwhere_stim/left_toward_280h.wav,stimulus/audwhere_stim/blank_white.png,stimulus/audwhere_stim/side_box.png,stimulus/audwhere_stim/side_yes.png,stimulus/audwhere_stim/side_no.png,None,Side,None,Direction,2,0.0,0,5.125,0,5.125,0,5.125,0,0.0,0.625,0,0,0,0,0,0,0,0,0,0.0,0,0.0,1,0.5,1,2.125,0,,,,,0,58,58,58,,,,,,,,,519.7764684579997,519.7764684579997,519.7764684579997,519.7764684579997,519.7764684579997,519.7764684579997,519.7764684579997,519.7764684579997,519.6981378753336,519.7764684579997,519.7764684579997,519.7764684579997,519.6981378753336,519.7764684579997,519.7764684579997,519.7764684579997,521.8653604170004,,519.7764684579997,519.7764684579997,524.9669029999995,519.7764684579997,519.7764684579997,519.7764684579997,519.7764684579997,520.2423113329996,521.3099676669999,520.2121038336666,,521.8653604170004,522.9356682500002,521.835189458667,,519.7764684579997,524.9669029999995,519.7764684579997,524.9669029999995,525.0076517919997,525.6585077500004,519.7764684579997,2,1,1.2394927919995098,reldom2_s017,001,2025-02-20_15h24.26.837,Aud-B-Scan_AC,2022.2.5,None,
45,First_Order,8.0,audwhere,stimulus/audwhere_stim/dummy.wav,stimulus/audwhere_stim/dummy.wav,stimulus/audwhere_stim/right_toward_270h.wav,stimulus/audwhere_stim/left_toward_290h.wav,stimulus/audwhere_stim/blank_white.png,stimulus/audwhere_stim/direction_box.png,stimulus/audwhere_stim/direction_yes.png,stimulus/audwhere_stim/direction_no.png,None,Direction,None,Direction,1,0.0,0,5.125,0,5.125,0,5.125,0,0.0,0.625,0,0,0,0,0,0,0,0,0,0.0,0,0.0,1,0.5,1,2.125,0,,,,,0,59,59,59,,,,,,,,,525.8710652500004,525.8710652500004,525.8710652500004,525.8710652500004,525.8710652500004,525.8710652500004,525.8710652500004,525.8710652500004,525.7918410833337,525.8710652500004,525.8710652500004,525.8710652500004,525.7918410833337,525.8710652500004,525.8710652500004,525.8710652500004,527.9722393330003,531.9989059999998,525.8710652500004,525.8710652500004,531.0493877919998,525.8710652500004,525.8710652500004,525.8710652500004,525.8710652500004,526.3405389170002,527.4120860419998,526.310244999667,,527.9722393330003,529.0462737500002,527.9420535836664,,525.8710652500004,531.0493877919998,525.8710652500004,531.0493877919998,531.0906184579999,531.7447911669997,525.8710652500004,1,1,1.1233448329994644,reldom2_s017,001,2025-02-20_15h24.26.837,Aud-B-Scan_AC,2022.2.5,None,
46,First_Order,8.0,audwhere,stimulus/audwhere_stim/dummy.wav,stimulus/audwhere_stim/dummy.wav,stimulus/audwhere_stim/left_away_300h.wav,stimulus/audwhere_stim/left_toward_300h.wav,stimulus/audwhere_stim/blank_white.png,stimulus/audwhere_stim/side_box.png,stimulus/audwhere_stim/side_yes.png,stimulus/audwhere_stim/side_no.png,None,Side,None,Side,1,0.0,0,5.125,0,5.125,0,5.125,0,0.0,0.625,0,0,0,0,0,0,0,0,0,0.0,0,0.0,1,0.5,1,2.125,0,,,,,0,60,60,60,,,,,,,,,531.9989059999998,531.9989059999998,531.9989059999998,531.9989059999998,531.9989059999998,531.9989059999998,531.9989059999998,531.9989059999998,531.9193852913332,531.9989059999998,531.9989059999998,531.9989059999998,531.9193852913332,531.9989059999998,531.9989059999998,531.9989059999998,534.0933048750003,,531.9989059999998,531.9989059999998,537.1591343330001,531.9989059999998,531.9989059999998,531.9989059999998,531.9989059999998,532.4664273750004,533.5348563750003,532.4365664166664,,534.0933048750003,535.1630208329998,534.0620441246667,,531.9989059999998,537.1591343330001,531.9989059999998,537.1591343330001,537.200507042,537.8521388749996,531.9989059999998,1,1,1.1535294169998451,reldom2_s017,001,2025-02-20_15h24.26.837,Aud-B-Scan_AC,2022.2.5,None,
0,0.0,None,fixation,stimulus/audwhat_stim/blank_white.png,stimulus/audwhat_stim/blank_white.png,stimulus/audwhere_stim/blank_white.png,stimulus/audwhere_stim/blank_white.png,stimulus/audwhat_stim/blank_white.png,stimulus/audwhat_stim/blank_white.png,stimulus/audwhat_stim/blank_white.png,stimulus/audwhat_stim/blank_white.png,0.0,0.0,0.0,0.0,0,0.0,0,0.0,0,0.0,0,0.0,0,0.0,0.0,0,0,0,0,0,0,0,0,0,0.0,0,0.0,0,0.0,0,0.0,9,,,,,0,61,61,61,,,,,,,,,538.1270016669996,538.1270016669996,538.1270016669996,538.1270016669996,538.1270016669996,538.1270016669996,538.1270016669996,538.1270016669996,538.0258911253333,538.1270016669996,538.1270016669996,538.1270016669996,538.0258911253333,538.1270016669996,538.1270016669996,538.1270016669996,538.1270016669996,538.1270016669996,538.1270016669996,538.1270016669996,538.1270016669996,538.1270016669996,538.1270016669996,538.1270016669996,538.1270016669996,538.1270016669996,538.1270016669996,538.0758911253332,538.1270016669996,538.1270016669996,538.1270016669996,538.0758911253332,538.1270016669996,538.1270016669996,538.1270016669996,538.1270016669996,538.1270016669996,543.3230717079996,543.3230717079996,547.2667567919998,None,0,,reldom2_s017,001,2025-02-20_15h24.26.837,Aud-B-Scan_AC,2022.2.5,None,
47,Second_Order,8.0,audwhere,stimulus/audwhere_stim/right_away_300h.wav,stimulus/audwhere_stim/right_toward_270h.wav,stimulus/audwhere_stim/left_away_280h.wav,stimulus/audwhere_stim/left_toward_270h.wav,stimulus/audwhat_stim/match_blank.png,stimulus/audwhat_stim/match_box.png,stimulus/audwhat_stim/match_yes.png,stimulus/audwhat_stim/match_no.png,1.0,Match,Side,Side,1,5.125,0,5.125,0,5.125,0,5.125,0,0.75,0.75,0,0,0,0,0,0,0,0,1,0.5,1,2.125,1,0.5,1,2.125,0,,,,,0,62,62,62,,,,,,,,,547.2667567919998,552.3897084999999,547.2667567919998,547.2667567919998,547.2667567919998,547.2667567919998,547.724476292,548.7146382499996,547.7266588746663,,549.350005792,550.3473752079999,549.3622802086668,,552.3897084999999,553.2393511250002,555.3161018330002,559.2277544999997,553.2393511250002,553.2393511250002,558.419224708,553.2393511250002,553.2393511250002,553.2393511250002,553.2393511250002,553.654378667,554.7158070830001,553.6244955416662,,555.3161018330002,556.3835805420003,555.2857415836663,,553.2393511250002,558.419224708,553.2393511250002,558.419224708,558.419224708,,553.2393511250002,1,1,1.0209235839993198,reldom2_s017,001,2025-02-20_15h24.26.837,Aud-B-Scan_AC,2022.2.5,None,
48,Second_Order,8.0,audwhere,stimulus/audwhere_stim/right_toward_270h.wav,stimulus/audwhere_stim/right_away_270h.wav,stimulus/audwhere_stim/left_away_280h.wav,stimulus/audwhere_stim/left_toward_290h.wav,stimulus/audwhat_stim/match_blank.png,stimulus/audwhat_stim/match_box.png,stimulus/audwhat_stim/match_yes.png,stimulus/audwhat_stim/match_no.png,1.0,Match,Side,Side,1,5.125,0,5.125,0,5.125,0,5.125,0,0.625,0.625,0,0,0,0,0,0,0,0,1,0.5,1,2.125,1,0.5,1,2.125,0,,,,,0,63,63,63,,,,,,,,,559.2277544999997,564.351665833,559.2277544999997,559.2277544999997,559.2277544999997,559.2277544999997,559.6896392079998,560.6879181249997,559.7023390836669,,561.3102671249999,562.3086013749999,561.3225042916667,,564.351665833,565.0827342920002,567.1440656670002,571.1896127919999,565.0827342920002,565.0827342920002,570.2733698749998,565.0827342920002,565.0827342920002,565.0827342920002,565.0827342920002,565.4944365419997,566.5502911249996,565.4651949166666,,567.1440656670002,568.2038169999996,567.1145713746666,,565.0827342920002,570.2733698749998,565.0827342920002,570.2733698749998,570.2733698749998,570.9584339169996,565.0827342920002,1,1,1.126256167000065,reldom2_s017,001,2025-02-20_15h24.26.837,Aud-B-Scan_AC,2022.2.5,None,
0,0.0,None,fixation,stimulus/audwhat_stim/blank_white.png,stimulus/audwhat_stim/blank_white.png,stimulus/audwhere_stim/blank_white.png,stimulus/audwhere_stim/blank_white.png,stimulus/audwhat_stim/blank_white.png,stimulus/audwhat_stim/blank_white.png,stimulus/audwhat_stim/blank_white.png,stimulus/audwhat_stim/blank_white.png,0.0,0.0,0.0,0.0,0,0.0,0,0.0,0,0.0,0,0.0,0,0.0,0.0,0,0,0,0,0,0,0,0,0,0.0,0,0.0,0,0.0,0,0.0,16,,,,,0,64,64,64,,,,,,,,,571.1896127919999,571.1896127919999,571.1896127919999,571.1896127919999,571.1896127919999,571.1896127919999,571.1896127919999,571.1896127919999,571.091767250333,571.1896127919999,571.1896127919999,571.1896127919999,571.091767250333,571.1896127919999,571.1896127919999,571.1896127919999,571.1896127919999,571.1896127919999,571.1896127919999,571.1896127919999,571.1896127919999,571.1896127919999,571.1896127919999,571.1896127919999,571.1896127919999,571.1896127919999,571.1896127919999,571.1417672503329,571.1896127919999,571.1896127919999,571.1896127919999,571.1417672503329,571.1896127919999,571.1896127919999,571.1896127919999,571.1896127919999,571.1896127919999,576.3847558750003,576.3847558750003,587.33178125,None,0,,reldom2_s017,001,2025-02-20_15h24.26.837,Aud-B-Scan_AC,2022.2.5,None,
