Trial,Order,Block,Type,Stimuli_File1,Stimuli_File2,Stimuli_File3,Stimuli_File4,Cue_File1,Cue_File2,Response_File_Yes,Response_File_No,Match,Cue_Dimension,Pair1_Dimension,Pair2_Dimension,Key,Cue1_Duration,Cue1_Onset,Cue2_Duration,Cue2_Onset,ResponseYes_Duration,ResponseYes_Onset,ResponseNo_Duration,ResponseNo_Onset,ITI_Within,ITI_Between,Image1_Duration,Image1_Onset,Image2_Duration,Image2_Onset,Image3_Duration,Image3_Onset,Image4_Duration,Image4_Onset,Sound1_Duration,Sound1_Onset,Sound2_Duration,Sound2_Onset,Sound3_Duration,Sound3_Onset,Sound4_Duration,Sound4_Onset,Fixation_Duration,trials_2.thisRepN,trials_2.thisTrialN,trials_2.thisN,trials_2.thisIndex,trials.thisRepN,trials.thisTrialN,trials.thisN,trials.thisIndex,text_start.started,key_resp_start.started,key_resp_start.keys,key_resp_start.rt,text2.started,key_resp_2.started,key_resp_2.keys,key_resp_2.rt,cue_file1.started,cue_file1.stopped,image_1.started,image_1.stopped,image_2.started,image_2.stopped,sound_icon1.started,sound_icon1.stopped,sound_1.started,sound_1.stopped,sound_icon2.started,sound_icon2.stopped,sound_2.started,sound_2.stopped,image_blank_1.started,image_blank_1.stopped,key_press.started,key_press.stopped,fixation_text.started,cue_file2.started,cue_file2.stopped,image_3.started,image_3.stopped,image_4.started,image_4.stopped,sound_icon3.started,sound_icon3.stopped,sound_3.started,sound_3.stopped,sound_icon4.started,sound_icon4.stopped,sound_4.started,sound_4.stopped,response_yes.started,response_yes.stopped,response_no.started,response_no.stopped,iti_blank.started,iti_blank.stopped,fixation_text.stopped,key_press.keys,key_press.corr,key_press.rt,participant,session,date,expName,psychopyVersion,frameRate,
,,,,,,,,,,,,,,,,,,,,,,,,,,,,,,,,,,,,,,,,,,,,,,,,,,,,7.18481391700152,7.18481391700152,2,1.1378292909976153,,,,,,,,,,,,,,,,,,,,,,,,,,,,,,,,,,,,,,,,,,,,,,,,reldom2_s017,001,2025-02-20_15h46.36.517,What-B-Scan_AC,2022.2.5,None,
,,,,,,,,,,,,,,,,,,,,,,,,,,,,,,,,,,,,,,,,,,,,0,0,0,0,,,,,,,,,8.35503137500018,8.35503137500018,5,14.76653079099924,,,,,,,,,,,,,,,,,,,,,,,,,,,,,,,,,,,,,,,,,,,,reldom2_s017,001,2025-02-20_15h46.36.517,What-B-Scan_AC,2022.2.5,None,
,,,,,,,,,,,,,,,,,,,,,,,,,,,,,,,,,,,,,,,,,,,,1,0,1,0,,,,,,,,,23.14018316700094,23.14018316700094,5,1.9812473329984641,,,,,,,,,,,,,,,,,,,,,,,,,,,,,,,,,,,,,,,,,,,,reldom2_s017,001,2025-02-20_15h46.36.517,What-B-Scan_AC,2022.2.5,None,
,,,,,,,,,,,,,,,,,,,,,,,,,,,,,,,,,,,,,,,,,,,,2,0,2,0,,,,,,,,,25.139375667000422,25.139375667000422,5,1.983712374998504,,,,,,,,,,,,,,,,,,,,,,,,,,,,,,,,,,,,,,,,,,,,reldom2_s017,001,2025-02-20_15h46.36.517,What-B-Scan_AC,2022.2.5,None,
,,,,,,,,,,,,,,,,,,,,,,,,,,,,,,,,,,,,,,,,,,,,3,0,3,0,,,,,,,,,27.129409500001202,27.129409500001202,5,1.9914456249971408,,,,,,,,,,,,,,,,,,,,,,,,,,,,,,,,,,,,,,,,,,,,reldom2_s017,001,2025-02-20_15h46.36.517,What-B-Scan_AC,2022.2.5,None,
0,0.0,None,fixation,stimulus/viswhat_stim/blank_white.png,stimulus/viswhat_stim/blank_white.png,stimulus/audwhat_stim/blank_white.png,stimulus/audwhat_stim/blank_white.png,stimulus/viswhat_stim/blank_white.png,stimulus/viswhat_stim/blank_white.png,stimulus/viswhat_stim/blank_white.png,stimulus/viswhat_stim/blank_white.png,0.0,0.0,0.0,0.0,0,0.0,0,0.0,0,0.0,0,0.0,0,0.0,0.0,0,0.0,0,0.0,0,0.0,0,0.0,0,0.0,0,0.0,0,0.0,0,0.0,16,,,,,0,0,0,0,,,,,,,,,29.343699500001094,29.343699500001094,29.343699500001094,29.343699500001094,29.343699500001094,29.343699500001094,29.343699500001094,29.343699500001094,29.244999916667318,29.343699500001094,29.343699500001094,29.343699500001094,29.244999916667318,29.343699500001094,29.343699500001094,29.343699500001094,29.343699500001094,29.343699500001094,29.343699500001094,29.343699500001094,29.343699500001094,29.343699500001094,29.343699500001094,29.343699500001094,29.343699500001094,29.343699500001094,29.343699500001094,29.294999916667315,29.343699500001094,29.343699500001094,29.343699500001094,29.294999916667315,29.343699500001094,29.343699500001094,29.343699500001094,29.343699500001094,29.343699500001094,34.52886162499999,34.52886162499999,45.808968667000954,None,0,,reldom2_s017,001,2025-02-20_15h46.36.517,What-B-Scan_AC,2022.2.5,None,
1,First_Order,1.0,viswhat,stimulus/viswhat_stim/blank_white.png,stimulus/viswhat_stim/blank_white.png,stimulus/viswhat_stim/water_vehicle-pirateship.png,stimulus/viswhat_stim/water_animal-lobster.png,stimulus/viswhat_stim/blank_white.png,stimulus/viswhat_stim/location_box.png,stimulus/viswhat_stim/location_yes.png,stimulus/viswhat_stim/location_no.png,None,Location,None,Location,1,0.0,0,5.125,0,5.125,0,5.125,0,0.0,0.625,0,0.0,0,0.0,1,0.5,1,2.125,0,0.0,0,0.0,0,0.0,0,0.0,0,,,,,0,1,1,1,,,,,,,,,45.808968667000954,45.808968667000954,45.808968667000954,45.808968667000954,45.808968667000954,45.808968667000954,45.808968667000954,45.808968667000954,45.51726604200157,45.808968667000954,45.808968667000954,45.808968667000954,45.51726604200157,45.808968667000954,45.808968667000954,45.808968667000954,47.88138700000127,,45.808968667000954,45.808968667000954,51.13583770900004,46.2551922090006,47.43793129200094,47.88138700000127,49.066007084000375,45.808968667000954,45.808968667000954,45.66726604200157,45.808968667000954,45.808968667000954,45.808968667000954,45.66726604200157,45.808968667000954,45.808968667000954,51.13583770900004,45.808968667000954,51.13583770900004,50.99241658400024,,45.808968667000954,1,1,1.4805976249990636,reldom2_s017,001,2025-02-20_15h46.36.517,What-B-Scan_AC,2022.2.5,None,
2,First_Order,1.0,viswhat,stimulus/viswhat_stim/blank_white.png,stimulus/viswhat_stim/blank_white.png,stimulus/viswhat_stim/land_vehicle-firetruck.png,stimulus/viswhat_stim/water_vehicle-jetski.png,stimulus/viswhat_stim/blank_white.png,stimulus/viswhat_stim/location_box.png,stimulus/viswhat_stim/location_yes.png,stimulus/viswhat_stim/location_no.png,None,Location,None,Type,2,0.0,0,5.125,0,5.125,0,5.125,0,0.0,0.625,0,0.0,0,0.0,1,0.5,1,2.125,0,0.0,0,0.0,0,0.0,0,0.0,0,,,,,0,2,2,2,,,,,,,,,51.79541800000152,51.79541800000152,51.79541800000152,51.79541800000152,51.79541800000152,51.79541800000152,51.79541800000152,51.79541800000152,51.75430566733424,51.79541800000152,51.79541800000152,51.79541800000152,51.75430566733424,51.79541800000152,51.79541800000152,51.79541800000152,53.89630170900091,57.94939283400163,51.79541800000152,51.79541800000152,56.943343209000886,52.26485050000156,53.282007125000746,53.89630170900091,54.90440929200122,51.79541800000152,51.79541800000152,51.77097233400091,51.79541800000152,51.79541800000152,51.79541800000152,51.77097233400091,51.79541800000152,51.79541800000152,56.943343209000886,51.79541800000152,56.943343209000886,57.01994474999992,57.65593075000106,51.79541800000152,2,1,0.6770646659988415,reldom2_s017,001,2025-02-20_15h46.36.517,What-B-Scan_AC,2022.2.5,None,
3,First_Order,1.0,viswhat,stimulus/viswhat_stim/blank_white.png,stimulus/viswhat_stim/blank_white.png,stimulus/viswhat_stim/land_animal-moose.png,stimulus/viswhat_stim/water_animal-jellyfish.png,stimulus/viswhat_stim/blank_white.png,stimulus/viswhat_stim/type_box.png,stimulus/viswhat_stim/type_yes.png,stimulus/viswhat_stim/type_no.png,None,Type,None,Type,1,0.0,0,5.125,0,5.125,0,5.125,0,0.0,0.625,0,0.0,0,0.0,1,0.5,1,2.125,0,0.0,0,0.0,0,0.0,0,0.0,0,,,,,0,3,3,3,,,,,,,,,57.94939283400163,57.94939283400163,57.94939283400163,57.94939283400163,57.94939283400163,57.94939283400163,57.94939283400163,57.94939283400163,57.84997645900112,57.94939283400163,57.94939283400163,57.94939283400163,57.84997645900112,57.94939283400163,57.94939283400163,57.94939283400163,60.049620499999946,64.03898941700027,57.94939283400163,57.94939283400163,63.16855391700119,58.43023650000032,59.511158541999976,60.049620499999946,61.13364050000018,57.94939283400163,57.94939283400163,57.89997645900112,57.94939283400163,57.94939283400163,57.94939283400163,57.89997645900112,57.94939283400163,57.94939283400163,63.16855391700119,57.94939283400163,63.16855391700119,63.16855391700119,64.03898941700027,57.94939283400163,1,1,0.4892237079984625,reldom2_s017,001,2025-02-20_15h46.36.517,What-B-Scan_AC,2022.2.5,None,
4,First_Order,1.0,viswhat,stimulus/viswhat_stim/blank_white.png,stimulus/viswhat_stim/blank_white.png,stimulus/viswhat_stim/land_animal-tiger.png,stimulus/viswhat_stim/land_vehicle-rv.png,stimulus/viswhat_stim/blank_white.png,stimulus/viswhat_stim/type_box.png,stimulus/viswhat_stim/type_yes.png,stimulus/viswhat_stim/type_no.png,None,Type,None,Location,2,0.0,0,5.125,0,5.125,0,5.125,0,0.0,0.625,0,0.0,0,0.0,1,0.5,1,2.125,0,0.0,0,0.0,0,0.0,0,0.0,0,,,,,0,4,4,4,,,,,,,,,64.03898941700027,64.03898941700027,64.03898941700027,64.03898941700027,64.03898941700027,64.03898941700027,64.03898941700027,64.03898941700027,63.98904141666814,64.03898941700027,64.03898941700027,64.03898941700027,63.98904141666814,64.03898941700027,64.03898941700027,64.03898941700027,66.12192175000018,70.17489433400078,64.03898941700027,64.03898941700027,69.20046175000061,64.52460870899995,65.56670083400059,66.12192175000018,67.17620837499999,64.03898941700027,64.03898941700027,64.00570808333481,64.03898941700027,64.03898941700027,64.03898941700027,64.00570808333481,64.03898941700027,64.03898941700027,69.20046175000061,64.03898941700027,69.20046175000061,69.25952245900044,69.90414545900057,64.03898941700027,2,1,0.47614483299912536,reldom2_s017,001,2025-02-20_15h46.36.517,What-B-Scan_AC,2022.2.5,None,
0,0.0,None,fixation,stimulus/viswhat_stim/blank_white.png,stimulus/viswhat_stim/blank_white.png,stimulus/audwhat_stim/blank_white.png,stimulus/audwhat_stim/blank_white.png,stimulus/viswhat_stim/blank_white.png,stimulus/viswhat_stim/blank_white.png,stimulus/viswhat_stim/blank_white.png,stimulus/viswhat_stim/blank_white.png,0.0,0.0,0.0,0.0,0,0.0,0,0.0,0,0.0,0,0.0,0,0.0,0.0,0,0.0,0,0.0,0,0.0,0,0.0,0,0.0,0,0.0,0,0.0,0,0.0,9,,,,,0,5,5,5,,,,,,,,,70.17489433400078,70.17489433400078,70.17489433400078,70.17489433400078,70.17489433400078,70.17489433400078,70.17489433400078,70.17489433400078,70.07919233366725,70.17489433400078,70.17489433400078,70.17489433400078,70.07919233366725,70.17489433400078,70.17489433400078,70.17489433400078,70.17489433400078,70.17489433400078,70.17489433400078,70.17489433400078,70.17489433400078,70.17489433400078,70.17489433400078,70.17489433400078,70.17489433400078,70.17489433400078,70.17489433400078,70.12919233366726,70.17489433400078,70.17489433400078,70.17489433400078,70.12919233366726,70.17489433400078,70.17489433400078,70.17489433400078,70.17489433400078,70.17489433400078,75.39078108400099,75.39078108400099,79.33036529200035,None,0,,reldom2_s017,001,2025-02-20_15h46.36.517,What-B-Scan_AC,2022.2.5,None,
5,Second_Order,1.0,viswhat,stimulus/viswhat_stim/land_animal-bunny.png,stimulus/viswhat_stim/land_vehicle-motorcycle.png,stimulus/viswhat_stim/water_animal-octopus.png,stimulus/viswhat_stim/land_animal-fox.png,stimulus/viswhat_stim/match_blank.png,stimulus/viswhat_stim/match_box.png,stimulus/viswhat_stim/match_yes.png,stimulus/viswhat_stim/match_no.png,2.0,Match,Location,Type,2,5.125,0,5.125,0,5.125,0,5.125,0,0.75,0.75,1,0.5,1,2.125,1,0.5,1,2.125,0,0.0,0,0.0,0,0.0,0,0.0,0,,,,,0,6,6,6,,,,,,,,,79.33036529200035,84.44341475000147,79.77844795900091,80.7671587090008,81.40390058400044,82.40119712500018,79.33036529200035,79.33036529200035,79.34209654166686,79.33036529200035,79.33036529200035,79.33036529200035,79.34209654166686,79.33036529200035,84.44341475000147,85.26090729200041,87.32056945900149,,85.26090729200041,85.26090729200041,90.41639775000112,85.697169209001,86.72689420900133,87.32056945900149,88.35599175000061,85.26090729200041,85.26090729200041,85.22799070900037,85.26090729200041,85.26090729200041,85.26090729200041,85.22799070900037,85.26090729200041,85.26090729200041,90.41639775000112,85.26090729200041,90.41639775000112,90.44198137500098,,85.26090729200041,2,1,0.7284968749991094,reldom2_s017,001,2025-02-20_15h46.36.517,What-B-Scan_AC,2022.2.5,None,
6,Second_Order,1.0,viswhat,stimulus/viswhat_stim/land_vehicle-tank.png,stimulus/viswhat_stim/land_animal-wolf.png,stimulus/viswhat_stim/water_vehicle-motorboatraft.png,stimulus/viswhat_stim/water_animal-squid.png,stimulus/viswhat_stim/match_blank.png,stimulus/viswhat_stim/match_box.png,stimulus/viswhat_stim/match_yes.png,stimulus/viswhat_stim/match_no.png,1.0,Match,Location,Location,1,5.125,0,5.125,0,5.125,0,5.125,0,0.625,0.625,1,0.5,1,2.125,1,0.5,1,2.125,0,0.0,0,0.0,0,0.0,0,0.0,0,,,,,0,7,7,7,,,,,,,,,91.22261987500133,96.33745483400162,91.70567612500054,92.6953969590013,93.33068529200136,94.32876208400012,91.22261987500133,91.22261987500133,91.2260621256674,91.22261987500133,91.22261987500133,91.22261987500133,91.2260621256674,91.22261987500133,96.33745483400162,97.03506366700094,99.09805154200149,103.14963337500012,97.03506366700094,97.03506366700094,102.17769495900029,97.47632558400073,98.50856508400102,99.09805154200149,100.13881504200072,97.03506366700094,97.03506366700094,97.00105358399996,97.03506366700094,97.03506366700094,97.03506366700094,97.00105358399996,97.03506366700094,97.03506366700094,102.17769495900029,97.03506366700094,102.17769495900029,102.22584929200093,102.87325520900049,97.03506366700094,1,1,0.6542298329986806,reldom2_s017,001,2025-02-20_15h46.36.517,What-B-Scan_AC,2022.2.5,None,
0,0.0,None,fixation,stimulus/viswhat_stim/blank_white.png,stimulus/viswhat_stim/blank_white.png,stimulus/audwhat_stim/blank_white.png,stimulus/audwhat_stim/blank_white.png,stimulus/viswhat_stim/blank_white.png,stimulus/viswhat_stim/blank_white.png,stimulus/viswhat_stim/blank_white.png,stimulus/viswhat_stim/blank_white.png,0.0,0.0,0.0,0.0,0,0.0,0,0.0,0,0.0,0,0.0,0,0.0,0.0,0,0.0,0,0.0,0,0.0,0,0.0,0,0.0,0,0.0,0,0.0,0,0.0,9,,,,,0,8,8,8,,,,,,,,,103.14963337500012,103.14963337500012,103.14963337500012,103.14963337500012,103.14963337500012,103.14963337500012,103.14963337500012,103.14963337500012,103.04493425000109,103.14963337500012,103.14963337500012,103.14963337500012,103.04493425000109,103.14963337500012,103.14963337500012,103.14963337500012,103.14963337500012,103.14963337500012,103.14963337500012,103.14963337500012,103.14963337500012,103.14963337500012,103.14963337500012,103.14963337500012,103.14963337500012,103.14963337500012,103.14963337500012,103.0949342500011,103.14963337500012,103.14963337500012,103.14963337500012,103.0949342500011,103.14963337500012,103.14963337500012,103.14963337500012,103.14963337500012,103.14963337500012,108.34850191700025,108.34850191700025,112.62447554200116,None,0,,reldom2_s017,001,2025-02-20_15h46.36.517,What-B-Scan_AC,2022.2.5,None,
7,First_Order,2.0,viswhat,stimulus/viswhat_stim/blank_white.png,stimulus/viswhat_stim/blank_white.png,stimulus/viswhat_stim/water_animal-lobster.png,stimulus/viswhat_stim/water_vehicle-canoe.png,stimulus/viswhat_stim/blank_white.png,stimulus/viswhat_stim/location_box.png,stimulus/viswhat_stim/location_yes.png,stimulus/viswhat_stim/location_no.png,None,Location,None,Location,1,0.0,0,5.125,0,5.125,0,5.125,0,0.0,0.625,0,0.0,0,0.0,1,0.5,1,2.125,0,0.0,0,0.0,0,0.0,0,0.0,0,,,,,0,9,9,9,,,,,,,,,112.62447554200116,112.62447554200116,112.62447554200116,112.62447554200116,112.62447554200116,112.62447554200116,112.62447554200116,112.62447554200116,112.33989741666726,112.62447554200116,112.62447554200116,112.62447554200116,112.33989741666726,112.62447554200116,112.62447554200116,112.62447554200116,114.72098962500058,,112.62447554200116,112.62447554200116,118.01725758400062,113.07356987500134,114.27196754200122,114.72098962500058,115.92128212500029,112.62447554200116,112.62447554200116,112.47323075000058,112.62447554200116,112.62447554200116,112.62447554200116,112.47323075000058,112.62447554200116,112.62447554200116,118.01725758400062,112.62447554200116,118.01725758400062,117.72280158400099,,112.62447554200116,1,1,1.4648349999970378,reldom2_s017,001,2025-02-20_15h46.36.517,What-B-Scan_AC,2022.2.5,None,
8,First_Order,2.0,viswhat,stimulus/viswhat_stim/blank_white.png,stimulus/viswhat_stim/blank_white.png,stimulus/viswhat_stim/water_animal-jellyfish.png,stimulus/viswhat_stim/land_animal-bunny.png,stimulus/viswhat_stim/blank_white.png,stimulus/viswhat_stim/type_box.png,stimulus/viswhat_stim/type_yes.png,stimulus/viswhat_stim/type_no.png,None,Type,None,Type,1,0.0,0,5.125,0,5.125,0,5.125,0,0.0,0.625,0,0.0,0,0.0,1,0.5,1,2.125,0,0.0,0,0.0,0,0.0,0,0.0,0,,,,,0,10,10,10,,,,,,,,,118.73962745900099,118.73962745900099,118.73962745900099,118.73962745900099,118.73962745900099,118.73962745900099,118.73962745900099,118.73962745900099,118.65538258400156,118.73962745900099,118.73962745900099,118.73962745900099,118.65538258400156,118.73962745900099,118.73962745900099,118.73962745900099,120.82814179200068,,118.73962745900099,118.73962745900099,123.9140347090015,119.2105915000011,120.25462708400119,120.82814179200068,121.87872987500123,118.73962745900099,118.73962745900099,118.68871591733489,118.73962745900099,118.73962745900099,118.73962745900099,118.68871591733489,118.73962745900099,118.73962745900099,123.9140347090015,118.73962745900099,123.9140347090015,123.96040791700034,124.80695895900135,118.73962745900099,1,1,0.8033195409989276,reldom2_s017,001,2025-02-20_15h46.36.517,What-B-Scan_AC,2022.2.5,None,
9,First_Order,2.0,viswhat,stimulus/viswhat_stim/blank_white.png,stimulus/viswhat_stim/blank_white.png,stimulus/viswhat_stim/land_animal-cat.png,stimulus/viswhat_stim/water_animal-whale (1).png,stimulus/viswhat_stim/blank_white.png,stimulus/viswhat_stim/location_box.png,stimulus/viswhat_stim/location_yes.png,stimulus/viswhat_stim/location_no.png,None,Location,None,Type,2,0.0,0,5.125,0,5.125,0,5.125,0,0.0,0.625,0,0.0,0,0.0,1,0.5,1,2.125,0,0.0,0,0.0,0,0.0,0,0.0,0,,,,,0,11,11,11,,,,,,,,,124.80695895900135,124.80695895900135,124.80695895900135,124.80695895900135,124.80695895900135,124.80695895900135,124.80695895900135,124.80695895900135,124.75922308400041,124.80695895900135,124.80695895900135,124.80695895900135,124.75922308400041,124.80695895900135,124.80695895900135,124.80695895900135,126.89203400000042,130.91227120900112,124.80695895900135,124.80695895900135,129.94318870900133,125.28996666700004,126.31663708400083,126.89203400000042,127.92476508400068,124.80695895900135,124.80695895900135,124.77588975066708,124.80695895900135,124.80695895900135,124.80695895900135,124.77588975066708,124.80695895900135,124.80695895900135,129.94318870900133,124.80695895900135,129.94318870900133,130.02244270900155,130.68123766700046,124.80695895900135,2,1,1.0660520829987945,reldom2_s017,001,2025-02-20_15h46.36.517,What-B-Scan_AC,2022.2.5,None,
10,First_Order,2.0,viswhat,stimulus/viswhat_stim/blank_white.png,stimulus/viswhat_stim/blank_white.png,stimulus/viswhat_stim/water_animal-shark.png,stimulus/viswhat_stim/water_vehicle-yacht.png,stimulus/viswhat_stim/blank_white.png,stimulus/viswhat_stim/type_box.png,stimulus/viswhat_stim/type_yes.png,stimulus/viswhat_stim/type_no.png,None,Type,None,Location,2,0.0,0,5.125,0,5.125,0,5.125,0,0.0,0.625,0,0.0,0,0.0,1,0.5,1,2.125,0,0.0,0,0.0,0,0.0,0,0.0,0,,,,,0,12,12,12,,,,,,,,,130.91227120900112,130.91227120900112,130.91227120900112,130.91227120900112,130.91227120900112,130.91227120900112,130.91227120900112,130.91227120900112,130.83346558400046,130.91227120900112,130.91227120900112,130.91227120900112,130.83346558400046,130.91227120900112,130.91227120900112,130.91227120900112,133.0127366250017,,130.91227120900112,130.91227120900112,136.06028795900056,131.38461350000034,132.41328633400008,133.0127366250017,134.0472054590009,130.91227120900112,130.91227120900112,130.88346558400045,130.91227120900112,130.91227120900112,130.91227120900112,130.88346558400045,130.91227120900112,130.91227120900112,136.06028795900056,130.91227120900112,136.06028795900056,136.13514275000125,136.8037562920017,130.91227120900112,2,1,0.6333746659984172,reldom2_s017,001,2025-02-20_15h46.36.517,What-B-Scan_AC,2022.2.5,None,
0,0.0,None,fixation,stimulus/viswhat_stim/blank_white.png,stimulus/viswhat_stim/blank_white.png,stimulus/audwhat_stim/blank_white.png,stimulus/audwhat_stim/blank_white.png,stimulus/viswhat_stim/blank_white.png,stimulus/viswhat_stim/blank_white.png,stimulus/viswhat_stim/blank_white.png,stimulus/viswhat_stim/blank_white.png,0.0,0.0,0.0,0.0,0,0.0,0,0.0,0,0.0,0,0.0,0,0.0,0.0,0,0.0,0,0.0,0,0.0,0,0.0,0,0.0,0,0.0,0,0.0,0,0.0,10,,,,,0,13,13,13,,,,,,,,,137.03285379200133,137.03285379200133,137.03285379200133,137.03285379200133,137.03285379200133,137.03285379200133,137.03285379200133,137.03285379200133,136.93708962533506,137.03285379200133,137.03285379200133,137.03285379200133,136.93708962533506,137.03285379200133,137.03285379200133,137.03285379200133,137.03285379200133,137.03285379200133,137.03285379200133,137.03285379200133,137.03285379200133,137.03285379200133,137.03285379200133,137.03285379200133,137.03285379200133,137.03285379200133,137.03285379200133,136.98708962533505,137.03285379200133,137.03285379200133,137.03285379200133,136.98708962533505,137.03285379200133,137.03285379200133,137.03285379200133,137.03285379200133,137.03285379200133,142.2179580000011,142.2179580000011,147.1568832920002,None,0,,reldom2_s017,001,2025-02-20_15h46.36.517,What-B-Scan_AC,2022.2.5,None,
11,Second_Order,2.0,viswhat,stimulus/viswhat_stim/land_animal-ostrich.png,stimulus/viswhat_stim/water_animal-stingray.png,stimulus/viswhat_stim/water_vehicle-cruiseship.png,stimulus/viswhat_stim/water_animal-seaturtle.png,stimulus/viswhat_stim/match_blank.png,stimulus/viswhat_stim/match_box.png,stimulus/viswhat_stim/match_yes.png,stimulus/viswhat_stim/match_no.png,2.0,Match,Type,Location,2,5.125,0,5.125,0,5.125,0,5.125,0,0.75,0.75,1,0.5,1,2.125,1,0.5,1,2.125,0,0.0,0,0.0,0,0.0,0,0.0,0,,,,,0,14,14,14,,,,,,,,,147.1568832920002,152.27920529200128,147.63486662500145,148.62387887500154,149.2602305420005,150.25808250000046,147.1568832920002,147.1568832920002,147.16726258333452,147.1568832920002,147.1568832920002,147.1568832920002,147.16726258333452,147.1568832920002,152.27920529200128,153.25683475000005,155.28240079200077,,153.25683475000005,153.25683475000005,158.51214925000022,153.66214379200028,154.77463145900037,155.28240079200077,156.3955787499999,153.25683475000005,153.25683475000005,153.16403908400062,153.25683475000005,153.25683475000005,153.25683475000005,153.16403908400062,153.25683475000005,153.25683475000005,158.51214925000022,153.25683475000005,158.51214925000022,158.41663925000103,,153.25683475000005,2,1,1.0247453329993732,reldom2_s017,001,2025-02-20_15h46.36.517,What-B-Scan_AC,2022.2.5,None,
12,Second_Order,2.0,viswhat,stimulus/viswhat_stim/land_animal-ostrich.png,stimulus/viswhat_stim/land_vehicle-oldcar.png,stimulus/viswhat_stim/water_vehicle-ship.png,stimulus/viswhat_stim/land_vehicle-vespa.png,stimulus/viswhat_stim/match_blank.png,stimulus/viswhat_stim/match_box.png,stimulus/viswhat_stim/match_yes.png,stimulus/viswhat_stim/match_no.png,2.0,Match,Location,Type,2,5.125,0,5.125,0,5.125,0,5.125,0,0.625,0.625,1,0.5,1,2.125,1,0.5,1,2.125,0,0.0,0,0.0,0,0.0,0,0.0,0,,,,,0,15,15,15,,,,,,,,,159.21514379200016,164.32830833400112,159.6668018750006,160.66580800000156,161.30029570900115,162.28903241700027,159.21514379200016,159.21514379200016,159.22354958333358,159.21514379200016,159.21514379200016,159.21514379200016,159.22354958333358,159.21514379200016,164.32830833400112,165.10583354200025,167.17031891700026,,165.10583354200025,165.10583354200025,170.32595533400126,165.51731729200037,166.61869941700024,167.17031891700026,168.2727691250002,165.10583354200025,165.10583354200025,165.04191912499994,165.10583354200025,165.10583354200025,165.10583354200025,165.04191912499994,165.10583354200025,165.10583354200025,170.32595533400126,165.10583354200025,170.32595533400126,170.26349625000148,171.17895400000089,165.10583354200025,2,1,0.7534280410000065,reldom2_s017,001,2025-02-20_15h46.36.517,What-B-Scan_AC,2022.2.5,None,
0,0.0,None,fixation,stimulus/viswhat_stim/blank_white.png,stimulus/viswhat_stim/blank_white.png,stimulus/audwhat_stim/blank_white.png,stimulus/audwhat_stim/blank_white.png,stimulus/viswhat_stim/blank_white.png,stimulus/viswhat_stim/blank_white.png,stimulus/viswhat_stim/blank_white.png,stimulus/viswhat_stim/blank_white.png,0.0,0.0,0.0,0.0,0,0.0,0,0.0,0,0.0,0,0.0,0,0.0,0.0,0,0.0,0,0.0,0,0.0,0,0.0,0,0.0,0,0.0,0,0.0,0,0.0,9,,,,,0,16,16,16,,,,,,,,,171.17895400000089,171.17895400000089,171.17895400000089,171.17895400000089,171.17895400000089,171.17895400000089,171.17895400000089,171.17895400000089,171.077350958335,171.17895400000089,171.17895400000089,171.17895400000089,171.077350958335,171.17895400000089,171.17895400000089,171.17895400000089,171.17895400000089,171.17895400000089,171.17895400000089,171.17895400000089,171.17895400000089,171.17895400000089,171.17895400000089,171.17895400000089,171.17895400000089,171.17895400000089,171.17895400000089,171.127350958335,171.17895400000089,171.17895400000089,171.17895400000089,171.127350958335,171.17895400000089,171.17895400000089,171.17895400000089,171.17895400000089,171.17895400000089,176.3987985420008,176.3987985420008,180.4153353340007,None,0,,reldom2_s017,001,2025-02-20_15h46.36.517,What-B-Scan_AC,2022.2.5,None,
13,First_Order,3.0,audwhat,stimulus/audwhat_stim/dummy.wav,stimulus/audwhat_stim/dummy.wav,stimulus/audwhat_stim/percussion mallet_low-pitch_Ftri_loud.wav,stimulus/audwhat_stim/percussion xylophone_high-pitch_Dtri_loud.wav,stimulus/audwhat_stim/blank_white.png,stimulus/audwhat_stim/pitch_box.png,stimulus/audwhat_stim/pitch_yes.png,stimulus/audwhat_stim/pitch_no.png,None,Pitch,None,Category,2,0.0,0,5.125,0,5.125,0,5.125,0,0.0,0.625,0,0.0,0,0.0,0,0.0,0,0.0,0,0.0,0,0.0,1,0.5,1,2.125,0,,,,,0,17,17,17,,,,,,,,,180.4153353340007,180.4153353340007,180.4153353340007,180.4153353340007,180.4153353340007,180.4153353340007,180.4153353340007,180.4153353340007,180.3439035006674,180.4153353340007,180.4153353340007,180.4153353340007,180.3439035006674,180.4153353340007,180.4153353340007,180.4153353340007,182.49996454200118,,180.4153353340007,180.4153353340007,185.60561045900067,180.4153353340007,180.4153353340007,180.4153353340007,180.4153353340007,180.87813658400046,181.94587762500123,180.84834191666803,,182.49996454200118,183.56919416700111,182.47025225066707,183.5228210840014,180.4153353340007,185.60561045900067,180.4153353340007,185.60561045900067,185.60561045900067,186.25806854200164,180.4153353340007,2,1,1.5389978329985752,reldom2_s017,001,2025-02-20_15h46.36.517,What-B-Scan_AC,2022.2.5,None,
14,First_Order,3.0,audwhat,stimulus/audwhat_stim/dummy.wav,stimulus/audwhat_stim/dummy.wav,stimulus/audwhat_stim/string cello_low-pitch_D_loud.wav,stimulus/audwhat_stim/percussion mallet_low-pitch_D_loud.wav,stimulus/audwhat_stim/blank_white.png,stimulus/audwhat_stim/pitch_box.png,stimulus/audwhat_stim/pitch_yes.png,stimulus/audwhat_stim/pitch_no.png,None,Pitch,None,Pitch,1,0.0,0,5.125,0,5.125,0,5.125,0,0.0,0.625,0,0.0,0,0.0,0,0.0,0,0.0,0,0.0,0,0.0,1,0.5,1,2.125,0,,,,,0,18,18,18,,,,,,,,,186.5124437500017,186.5124437500017,186.5124437500017,186.5124437500017,186.5124437500017,186.5124437500017,186.5124437500017,186.5124437500017,186.43197000033447,186.5124437500017,186.5124437500017,186.5124437500017,186.43197000033447,186.5124437500017,186.5124437500017,186.5124437500017,188.5959565840003,,186.5124437500017,186.5124437500017,191.70327524999993,186.5124437500017,186.5124437500017,186.5124437500017,186.5124437500017,186.97553266700015,188.04119062500104,186.94594833366708,,188.5959565840003,189.66433195900026,188.56625658366673,,186.5124437500017,191.70327524999993,186.5124437500017,191.70327524999993,191.70327524999993,192.35590754200166,186.5124437500017,1,1,1.7818730409981072,reldom2_s017,001,2025-02-20_15h46.36.517,What-B-Scan_AC,2022.2.5,None,
15,First_Order,3.0,audwhat,stimulus/audwhat_stim/dummy.wav,stimulus/audwhat_stim/dummy.wav,stimulus/audwhat_stim/string cello_high-pitch_D_loud.wav,stimulus/audwhat_stim/string cello_low-pitch_Ftri_loud.wav,stimulus/audwhat_stim/blank_white.png,stimulus/audwhat_stim/category_box.png,stimulus/audwhat_stim/category_yes.png,stimulus/audwhat_stim/category_no.png,None,Category,None,Category,1,0.0,0,5.125,0,5.125,0,5.125,0,0.0,0.625,0,0.0,0,0.0,0,0.0,0,0.0,0,0.0,0,0.0,1,0.5,1,2.125,0,,,,,0,19,19,19,,,,,,,,,192.6093947090012,192.6093947090012,192.6093947090012,192.6093947090012,192.6093947090012,192.6093947090012,192.6093947090012,192.6093947090012,192.52944745833352,192.6093947090012,192.6093947090012,192.6093947090012,192.52944745833352,192.6093947090012,192.6093947090012,192.6093947090012,194.70912204200067,,192.6093947090012,192.6093947090012,197.78853954200167,192.6093947090012,192.6093947090012,192.6093947090012,192.6093947090012,193.0773617090017,194.1519587090006,193.04672175066688,,194.70912204200067,195.74028912500034,194.67898587566768,,192.6093947090012,197.78853954200167,192.6093947090012,197.78853954200167,197.82983404200058,198.48563575000117,192.6093947090012,1,1,0.6164860829976533,reldom2_s017,001,2025-02-20_15h46.36.517,What-B-Scan_AC,2022.2.5,None,
16,First_Order,3.0,audwhat,stimulus/audwhat_stim/dummy.wav,stimulus/audwhat_stim/dummy.wav,stimulus/audwhat_stim/string viola_low-pitch_F_loud.wav,stimulus/audwhat_stim/percussion mallet_low-pitch_F_loud.wav,stimulus/audwhat_stim/blank_white.png,stimulus/audwhat_stim/category_box.png,stimulus/audwhat_stim/category_yes.png,stimulus/audwhat_stim/category_no.png,None,Category,None,Pitch,2,0.0,0,5.125,0,5.125,0,5.125,0,0.0,0.625,0,0.0,0,0.0,0,0.0,0,0.0,0,0.0,0,0.0,1,0.5,1,2.125,0,,,,,0,20,20,20,,,,,,,,,198.69934529200145,198.69934529200145,198.69934529200145,198.69934529200145,198.69934529200145,198.69934529200145,198.69934529200145,198.69934529200145,198.61896908333452,198.69934529200145,198.69934529200145,198.69934529200145,198.61896908333452,198.69934529200145,198.69934529200145,198.69934529200145,200.79377449999993,204.84017100000165,198.69934529200145,198.69934529200145,203.8693171670002,198.69934529200145,198.69934529200145,198.69934529200145,198.69934529200145,199.1673127920003,200.23837837500105,199.1361837916668,,200.79377449999993,201.82425074999992,200.76380300066765,,198.69934529200145,203.8693171670002,198.69934529200145,203.8693171670002,203.91058362500007,204.56606316700163,198.69934529200145,2,1,0.6753128749987809,reldom2_s017,001,2025-02-20_15h46.36.517,What-B-Scan_AC,2022.2.5,None,
0,0.0,None,fixation,stimulus/viswhat_stim/blank_white.png,stimulus/viswhat_stim/blank_white.png,stimulus/audwhat_stim/blank_white.png,stimulus/audwhat_stim/blank_white.png,stimulus/viswhat_stim/blank_white.png,stimulus/viswhat_stim/blank_white.png,stimulus/viswhat_stim/blank_white.png,stimulus/viswhat_stim/blank_white.png,0.0,0.0,0.0,0.0,0,0.0,0,0.0,0,0.0,0,0.0,0,0.0,0.0,0,0.0,0,0.0,0,0.0,0,0.0,0,0.0,0,0.0,0,0.0,0,0.0,9,,,,,0,21,21,21,,,,,,,,,204.84017100000165,204.84017100000165,204.84017100000165,204.84017100000165,204.84017100000165,204.84017100000165,204.84017100000165,204.84017100000165,204.7404174583336,204.84017100000165,204.84017100000165,204.84017100000165,204.7404174583336,204.84017100000165,204.84017100000165,204.84017100000165,204.84017100000165,204.84017100000165,204.84017100000165,204.84017100000165,204.84017100000165,204.84017100000165,204.84017100000165,204.84017100000165,204.84017100000165,204.84017100000165,204.84017100000165,204.7904174583336,204.84017100000165,204.84017100000165,204.84017100000165,204.7904174583336,204.84017100000165,204.84017100000165,204.84017100000165,204.84017100000165,204.84017100000165,210.03987583400158,210.03987583400158,213.99013862500033,None,0,,reldom2_s017,001,2025-02-20_15h46.36.517,What-B-Scan_AC,2022.2.5,None,
17,Second_Order,3.0,audwhat,stimulus/audwhat_stim/percussion mallet_high-pitch_Ftri_loud.wav,stimulus/audwhat_stim/string cello_high-pitch_Ftri_loud.wav,stimulus/audwhat_stim/percussion mallet_low-pitch_D_loud.wav,stimulus/audwhat_stim/string viola_low-pitch_D_loud.wav,stimulus/viswhat_stim/match_blank.png,stimulus/viswhat_stim/match_box.png,stimulus/viswhat_stim/match_yes.png,stimulus/viswhat_stim/match_no.png,1.0,Match,Pitch,Pitch,1,5.125,0,5.125,0,5.125,0,5.125,0,0.75,0.75,0,0.0,0,0.0,0,0.0,0,0.0,1,0.5,1,2.125,1,0.5,1,2.125,0,,,,,0,22,22,22,,,,,,,,,213.99013862500033,219.10532341700127,213.99013862500033,213.99013862500033,213.99013862500033,213.99013862500033,214.44311991700124,215.44162545900144,214.45593400066744,,216.06428929200047,217.0621982090015,216.07676362566806,,219.10532341700127,219.9560220000003,222.03552437500002,225.95114570900114,219.9560220000003,219.9560220000003,225.14008220899996,219.9560220000003,219.9560220000003,219.9560220000003,219.9560220000003,220.37067904200012,221.4338857090006,220.34062141666826,,222.03552437500002,223.10491045900017,222.00591041666692,,219.9560220000003,225.14008220899996,219.9560220000003,225.14008220899996,225.14008220899996,,219.9560220000003,1,1,0.7655697079990205,reldom2_s017,001,2025-02-20_15h46.36.517,What-B-Scan_AC,2022.2.5,None,
18,Second_Order,3.0,audwhat,stimulus/audwhat_stim/percussion mallet_high-pitch_Dtri_loud.wav,stimulus/audwhat_stim/string cello_high-pitch_Dtri_loud.wav,stimulus/audwhat_stim/string viola_low-pitch_Ftri_loud.wav,stimulus/audwhat_stim/percussion mallet_low-pitch_Ftri_loud.wav,stimulus/viswhat_stim/match_blank.png,stimulus/viswhat_stim/match_box.png,stimulus/viswhat_stim/match_yes.png,stimulus/viswhat_stim/match_no.png,1.0,Match,Pitch,Pitch,1,5.125,0,5.125,0,5.125,0,5.125,0,0.625,0.625,0,0.0,0,0.0,0,0.0,0,0.0,1,0.5,1,2.125,1,0.5,1,2.125,0,,,,,0,23,23,23,,,,,,,,,225.95114570900114,231.06602495900006,225.95114570900114,225.95114570900114,225.95114570900114,225.95114570900114,226.40453283400166,227.40310425000098,226.41727495866715,,228.02505208399998,229.02321137500076,228.03734775066758,,231.06602495900006,231.79704587500055,233.8642687090014,,231.79704587500055,231.79704587500055,236.95523612500074,231.79704587500055,231.79704587500055,231.79704587500055,231.79704587500055,232.20963266700164,233.2676294590001,232.17998516666765,,233.8642687090014,234.92646225000135,233.83427733366833,,231.79704587500055,236.95523612500074,231.79704587500055,236.95523612500074,236.95523612500074,237.60526470900004,231.79704587500055,1,1,0.5743694579978182,reldom2_s017,001,2025-02-20_15h46.36.517,What-B-Scan_AC,2022.2.5,None,
0,0.0,None,fixation,stimulus/viswhat_stim/blank_white.png,stimulus/viswhat_stim/blank_white.png,stimulus/audwhat_stim/blank_white.png,stimulus/audwhat_stim/blank_white.png,stimulus/viswhat_stim/blank_white.png,stimulus/viswhat_stim/blank_white.png,stimulus/viswhat_stim/blank_white.png,stimulus/viswhat_stim/blank_white.png,0.0,0.0,0.0,0.0,0,0.0,0,0.0,0,0.0,0,0.0,0,0.0,0.0,0,0.0,0,0.0,0,0.0,0,0.0,0,0.0,0,0.0,0,0.0,0,0.0,8,,,,,0,24,24,24,,,,,,,,,237.87790487500024,237.87790487500024,237.87790487500024,237.87790487500024,237.87790487500024,237.87790487500024,237.87790487500024,237.87790487500024,237.77829770833355,237.87790487500024,237.87790487500024,237.87790487500024,237.77829770833355,237.87790487500024,237.87790487500024,237.87790487500024,237.87790487500024,237.87790487500024,237.87790487500024,237.87790487500024,237.87790487500024,237.87790487500024,237.87790487500024,237.87790487500024,237.87790487500024,237.87790487500024,237.87790487500024,237.82829770833354,237.87790487500024,237.87790487500024,237.87790487500024,237.82829770833354,237.87790487500024,237.87790487500024,237.87790487500024,237.87790487500024,237.87790487500024,243.08560566699998,243.08560566699998,246.1472686670004,None,0,,reldom2_s017,001,2025-02-20_15h46.36.517,What-B-Scan_AC,2022.2.5,None,
19,First_Order,4.0,audwhat,stimulus/audwhat_stim/dummy.wav,stimulus/audwhat_stim/dummy.wav,stimulus/audwhat_stim/percussion mallet_low-pitch_Ftri_loud.wav,stimulus/audwhat_stim/string viola_low-pitch_Ftri_loud.wav,stimulus/audwhat_stim/blank_white.png,stimulus/audwhat_stim/pitch_box.png,stimulus/audwhat_stim/pitch_yes.png,stimulus/audwhat_stim/pitch_no.png,None,Pitch,None,Pitch,1,0.0,0,5.125,0,5.125,0,5.125,0,0.0,0.625,0,0.0,0,0.0,0,0.0,0,0.0,0,0.0,0,0.0,1,0.5,1,2.125,0,,,,,0,25,25,25,,,,,,,,,246.1472686670004,246.1472686670004,246.1472686670004,246.1472686670004,246.1472686670004,246.1472686670004,246.1472686670004,246.1472686670004,246.07435820866766,246.1472686670004,246.1472686670004,246.1472686670004,246.07435820866766,246.1472686670004,246.1472686670004,246.1472686670004,248.23214216700035,,246.1472686670004,246.1472686670004,251.3321184590004,246.1472686670004,246.1472686670004,246.1472686670004,246.1472686670004,246.61222858400106,247.6775087090009,246.58254545866683,,248.23214216700035,249.29877870900054,248.20234450066735,,246.1472686670004,251.3321184590004,246.1472686670004,251.3321184590004,251.3732978750013,252.02414666700133,246.1472686670004,1,1,1.747317124998517,reldom2_s017,001,2025-02-20_15h46.36.517,What-B-Scan_AC,2022.2.5,None,
20,First_Order,4.0,audwhat,stimulus/audwhat_stim/dummy.wav,stimulus/audwhat_stim/dummy.wav,stimulus/audwhat_stim/string viola_low-pitch_F_loud.wav,stimulus/audwhat_stim/string cello_high-pitch_Ftri_loud.wav,stimulus/audwhat_stim/blank_white.png,stimulus/audwhat_stim/category_box.png,stimulus/audwhat_stim/category_yes.png,stimulus/audwhat_stim/category_no.png,None,Category,None,Category,1,0.0,0,5.125,0,5.125,0,5.125,0,0.0,0.625,0,0.0,0,0.0,0,0.0,0,0.0,0,0.0,0,0.0,1,0.5,1,2.125,0,,,,,0,26,26,26,,,,,,,,,252.2359633340002,252.2359633340002,252.2359633340002,252.2359633340002,252.2359633340002,252.2359633340002,252.2359633340002,252.2359633340002,252.1574800003347,252.2359633340002,252.2359633340002,252.2359633340002,252.1574800003347,252.2359633340002,252.2359633340002,252.2359633340002,254.33192604200121,258.3590997090014,252.2359633340002,252.2359633340002,257.4078259170001,252.2359633340002,252.2359633340002,252.2359633340002,252.2359633340002,252.7029820000007,253.7738738750013,252.67273629166837,,254.33192604200121,255.40596445900155,254.3021462506679,,252.2359633340002,257.4078259170001,252.2359633340002,257.4078259170001,257.44918016700103,258.10324304200003,252.2359633340002,1,1,0.6441380409978592,reldom2_s017,001,2025-02-20_15h46.36.517,What-B-Scan_AC,2022.2.5,None,
21,First_Order,4.0,audwhat,stimulus/audwhat_stim/dummy.wav,stimulus/audwhat_stim/dummy.wav,stimulus/audwhat_stim/string viola_high-pitch_F_loud.wav,stimulus/audwhat_stim/percussion mallet_high-pitch_F_loud.wav,stimulus/audwhat_stim/blank_white.png,stimulus/audwhat_stim/category_box.png,stimulus/audwhat_stim/category_yes.png,stimulus/audwhat_stim/category_no.png,None,Category,None,Pitch,2,0.0,0,5.125,0,5.125,0,5.125,0,0.0,0.625,0,0.0,0,0.0,0,0.0,0,0.0,0,0.0,0,0.0,1,0.5,1,2.125,0,,,,,0,27,27,27,,,,,,,,,258.3590997090014,258.3590997090014,258.3590997090014,258.3590997090014,258.3590997090014,258.3590997090014,258.3590997090014,258.3590997090014,258.27755841733426,258.3590997090014,258.3590997090014,258.3590997090014,258.27755841733426,258.3590997090014,258.3590997090014,258.3590997090014,260.45403195900144,264.48219520900057,258.3590997090014,258.3590997090014,263.5314863340009,258.3590997090014,258.3590997090014,258.3590997090014,258.3590997090014,258.8247088750013,259.8948105420004,258.79487487566826,,260.45403195900144,261.48275870900034,260.42370712566685,,258.3590997090014,263.5314863340009,258.3590997090014,263.5314863340009,263.57288908400005,264.22821308400125,258.3590997090014,2,1,0.6657518329975574,reldom2_s017,001,2025-02-20_15h46.36.517,What-B-Scan_AC,2022.2.5,None,
22,First_Order,4.0,audwhat,stimulus/audwhat_stim/dummy.wav,stimulus/audwhat_stim/dummy.wav,stimulus/audwhat_stim/percussion xylophone_high-pitch_D_loud.wav,stimulus/audwhat_stim/percussion mallet_low-pitch_F_loud.wav,stimulus/audwhat_stim/blank_white.png,stimulus/audwhat_stim/pitch_box.png,stimulus/audwhat_stim/pitch_yes.png,stimulus/audwhat_stim/pitch_no.png,None,Pitch,None,Category,2,0.0,0,5.125,0,5.125,0,5.125,0,0.0,0.625,0,0.0,0,0.0,0,0.0,0,0.0,0,0.0,0,0.0,1,0.5,1,2.125,0,,,,,0,28,28,28,,,,,,,,,264.48219520900057,264.48219520900057,264.48219520900057,264.48219520900057,264.48219520900057,264.48219520900057,264.48219520900057,264.48219520900057,264.40232562533504,264.48219520900057,264.48219520900057,264.48219520900057,264.40232562533504,264.48219520900057,264.48219520900057,264.48219520900057,266.57487991700145,,264.48219520900057,264.48219520900057,269.64473708400146,264.48219520900057,264.48219520900057,264.48219520900057,264.48219520900057,264.94780954199996,266.0173719170016,264.91774479166656,265.9708876250006,266.57487991700145,267.64784508400044,266.5450064586678,,264.48219520900057,269.64473708400146,264.48219520900057,269.64473708400146,269.68571808400156,270.33935108400146,264.48219520900057,2,1,1.6457183330003318,reldom2_s017,001,2025-02-20_15h46.36.517,What-B-Scan_AC,2022.2.5,None,
0,0.0,None,fixation,stimulus/viswhat_stim/blank_white.png,stimulus/viswhat_stim/blank_white.png,stimulus/audwhat_stim/blank_white.png,stimulus/audwhat_stim/blank_white.png,stimulus/viswhat_stim/blank_white.png,stimulus/viswhat_stim/blank_white.png,stimulus/viswhat_stim/blank_white.png,stimulus/viswhat_stim/blank_white.png,0.0,0.0,0.0,0.0,0,0.0,0,0.0,0,0.0,0,0.0,0,0.0,0.0,0,0.0,0,0.0,0,0.0,0,0.0,0,0.0,0,0.0,0,0.0,0,0.0,10,,,,,0,29,29,29,,,,,,,,,270.613112250001,270.613112250001,270.613112250001,270.613112250001,270.613112250001,270.613112250001,270.613112250001,270.613112250001,270.5132727503334,270.613112250001,270.613112250001,270.613112250001,270.5132727503334,270.613112250001,270.613112250001,270.613112250001,270.613112250001,270.613112250001,270.613112250001,270.613112250001,270.613112250001,270.613112250001,270.613112250001,270.613112250001,270.613112250001,270.613112250001,270.613112250001,270.5632727503334,270.613112250001,270.613112250001,270.613112250001,270.5632727503334,270.613112250001,270.613112250001,270.613112250001,270.613112250001,270.613112250001,275.80369387500104,275.80369387500104,280.7648659590013,None,0,,reldom2_s017,001,2025-02-20_15h46.36.517,What-B-Scan_AC,2022.2.5,None,
23,Second_Order,4.0,audwhat,stimulus/audwhat_stim/percussion mallet_high-pitch_Ftri_loud.wav,stimulus/audwhat_stim/percussion mallet_low-pitch_Dtri_loud.wav,stimulus/audwhat_stim/percussion mallet_high-pitch_D_loud.wav,stimulus/audwhat_stim/string viola_high-pitch_D_loud.wav,stimulus/viswhat_stim/match_blank.png,stimulus/viswhat_stim/match_box.png,stimulus/viswhat_stim/match_yes.png,stimulus/viswhat_stim/match_no.png,2.0,Match,Category,Pitch,2,5.125,0,5.125,0,5.125,0,5.125,0,0.75,0.75,0,0.0,0,0.0,0,0.0,0,0.0,1,0.5,1,2.125,1,0.5,1,2.125,0,,,,,0,30,30,30,,,,,,,,,280.7648659590013,285.88778758400076,280.7648659590013,280.7648659590013,280.7648659590013,280.7648659590013,281.21254508400125,282.20006845900025,281.22679725066723,,282.8474767500011,283.83702208400064,282.85103850066685,,285.88778758400076,286.7401790420008,288.8227915000007,292.7418695840006,286.7401790420008,286.7401790420008,291.93229404200065,286.7401790420008,286.7401790420008,286.7401790420008,286.7401790420008,287.15499204200023,288.22125458400114,287.12442100066824,,288.8227915000007,289.89218962500127,288.79283216666795,,286.7401790420008,291.93229404200065,286.7401790420008,291.93229404200065,291.93229404200065,,286.7401790420008,2,1,1.090179665998221,reldom2_s017,001,2025-02-20_15h46.36.517,What-B-Scan_AC,2022.2.5,None,
24,Second_Order,4.0,audwhat,stimulus/audwhat_stim/string viola_high-pitch_Dtri_loud.wav,stimulus/audwhat_stim/percussion mallet_high-pitch_Dtri_loud.wav,stimulus/audwhat_stim/string cello_low-pitch_Dtri_loud.wav,stimulus/audwhat_stim/string viola_high-pitch_Ftri_loud.wav,stimulus/viswhat_stim/match_blank.png,stimulus/viswhat_stim/match_box.png,stimulus/viswhat_stim/match_yes.png,stimulus/viswhat_stim/match_no.png,2.0,Match,Pitch,Category,2,5.125,0,5.125,0,5.125,0,5.125,0,0.625,0.625,0,0.0,0,0.0,0,0.0,0,0.0,1,0.5,1,2.125,1,0.5,1,2.125,0,,,,,0,31,31,31,,,,,,,,,292.7418695840006,297.8657283750017,292.7418695840006,292.7418695840006,292.7418695840006,292.7418695840006,293.1900144170013,294.1774156670017,293.20414454166735,,294.8254383750009,295.81445966700085,294.8284250006675,,297.8657283750017,298.6012267090009,300.66773187500075,,298.6012267090009,298.6012267090009,303.7622026670015,298.6012267090009,298.6012267090009,298.6012267090009,298.6012267090009,299.0568682920002,300.1158657920005,299.02759879166683,,300.66773187500075,301.73200904200166,300.6380130416676,,298.6012267090009,303.7622026670015,298.6012267090009,303.7622026670015,303.7622026670015,304.41267116700146,298.6012267090009,2,1,1.4672053750000487,reldom2_s017,001,2025-02-20_15h46.36.517,What-B-Scan_AC,2022.2.5,None,
0,0.0,None,fixation,stimulus/viswhat_stim/blank_white.png,stimulus/viswhat_stim/blank_white.png,stimulus/audwhat_stim/blank_white.png,stimulus/audwhat_stim/blank_white.png,stimulus/viswhat_stim/blank_white.png,stimulus/viswhat_stim/blank_white.png,stimulus/viswhat_stim/blank_white.png,stimulus/viswhat_stim/blank_white.png,0.0,0.0,0.0,0.0,0,0.0,0,0.0,0,0.0,0,0.0,0,0.0,0.0,0,0.0,0,0.0,0,0.0,0,0.0,0,0.0,0,0.0,0,0.0,0,0.0,9,,,,,0,32,32,32,,,,,,,,,304.68486504200155,304.68486504200155,304.68486504200155,304.68486504200155,304.68486504200155,304.68486504200155,304.68486504200155,304.68486504200155,304.58637950033346,304.68486504200155,304.68486504200155,304.68486504200155,304.58637950033346,304.68486504200155,304.68486504200155,304.68486504200155,304.68486504200155,304.68486504200155,304.68486504200155,304.68486504200155,304.68486504200155,304.68486504200155,304.68486504200155,304.68486504200155,304.68486504200155,304.68486504200155,304.68486504200155,304.6363795003335,304.68486504200155,304.68486504200155,304.68486504200155,304.6363795003335,304.68486504200155,304.68486504200155,304.68486504200155,304.68486504200155,304.68486504200155,309.9010708750011,309.9010708750011,313.94837329200163,None,0,,reldom2_s017,001,2025-02-20_15h46.36.517,What-B-Scan_AC,2022.2.5,None,
25,First_Order,5.0,viswhat,stimulus/viswhat_stim/blank_white.png,stimulus/viswhat_stim/blank_white.png,stimulus/viswhat_stim/land_animal-elephant.png,stimulus/viswhat_stim/land_vehicle-firetruck.png,stimulus/viswhat_stim/blank_white.png,stimulus/viswhat_stim/location_box.png,stimulus/viswhat_stim/location_yes.png,stimulus/viswhat_stim/location_no.png,None,Location,None,Location,1,0.0,0,5.125,0,5.125,0,5.125,0,0.0,0.625,0,0.0,0,0.0,1,0.5,1,2.125,0,0.0,0,0.0,0,0.0,0,0.0,0,,,,,0,33,33,33,,,,,,,,,313.94837329200163,313.94837329200163,313.94837329200163,313.94837329200163,313.94837329200163,313.94837329200163,313.94837329200163,313.94837329200163,313.84858500066787,313.94837329200163,313.94837329200163,313.94837329200163,313.84858500066787,313.94837329200163,313.94837329200163,313.94837329200163,316.02128545900086,,313.94837329200163,313.94837329200163,319.15988862500126,314.4206720000002,315.4886347090014,316.02128545900086,317.08772854200106,313.94837329200163,313.94837329200163,313.8985850006679,313.94837329200163,313.94837329200163,313.94837329200163,313.8985850006679,313.94837329200163,313.94837329200163,319.15988862500126,313.94837329200163,319.15988862500126,319.15988862500126,319.99327237500074,313.94837329200163,1,1,1.3752323329990759,reldom2_s017,001,2025-02-20_15h46.36.517,What-B-Scan_AC,2022.2.5,None,
26,First_Order,5.0,viswhat,stimulus/viswhat_stim/blank_white.png,stimulus/viswhat_stim/blank_white.png,stimulus/viswhat_stim/land_vehicle-tank.png,stimulus/viswhat_stim/land_animal-pig.png,stimulus/viswhat_stim/blank_white.png,stimulus/viswhat_stim/type_box.png,stimulus/viswhat_stim/type_yes.png,stimulus/viswhat_stim/type_no.png,None,Type,None,Location,2,0.0,0,5.125,0,5.125,0,5.125,0,0.0,0.625,0,0.0,0,0.0,1,0.5,1,2.125,0,0.0,0,0.0,0,0.0,0,0.0,0,,,,,0,34,34,34,,,,,,,,,319.99327237500074,319.99327237500074,319.99327237500074,319.99327237500074,319.99327237500074,319.99327237500074,319.99327237500074,319.99327237500074,319.9690221666666,319.99327237500074,319.99327237500074,319.99327237500074,319.9690221666666,319.99327237500074,319.99327237500074,319.99327237500074,322.0881922920016,326.1551448340015,319.99327237500074,319.99327237500074,325.14424220900037,320.4726115000012,321.47736383400115,322.0881922920016,323.09806025000034,319.99327237500074,319.99327237500074,319.9856888333333,319.99327237500074,319.99327237500074,319.99327237500074,319.9856888333333,319.99327237500074,319.99327237500074,325.14424220900037,319.99327237500074,325.14424220900037,325.21112695900047,325.84839337500125,319.99327237500074,2,1,0.7135915409980953,reldom2_s017,001,2025-02-20_15h46.36.517,What-B-Scan_AC,2022.2.5,None,
27,First_Order,5.0,viswhat,stimulus/viswhat_stim/blank_white.png,stimulus/viswhat_stim/blank_white.png,stimulus/viswhat_stim/land_animal-moose.png,stimulus/viswhat_stim/land_vehicle-vespa.png,stimulus/viswhat_stim/blank_white.png,stimulus/viswhat_stim/location_box.png,stimulus/viswhat_stim/location_yes.png,stimulus/viswhat_stim/location_no.png,None,Location,None,Location,1,0.0,0,5.125,0,5.125,0,5.125,0,0.0,0.625,0,0.0,0,0.0,1,0.5,1,2.125,0,0.0,0,0.0,0,0.0,0,0.0,0,,,,,0,35,35,35,,,,,,,,,326.1551448340015,326.1551448340015,326.1551448340015,326.1551448340015,326.1551448340015,326.1551448340015,326.1551448340015,326.1551448340015,326.03203333333414,326.1551448340015,326.1551448340015,326.1551448340015,326.03203333333414,326.1551448340015,326.1551448340015,326.1551448340015,328.2291253750009,,326.1551448340015,326.1551448340015,331.3674599590013,326.6245724170003,327.69525658400016,328.2291253750009,329.302143334,326.1551448340015,326.1551448340015,326.0987000000008,326.1551448340015,326.1551448340015,326.1551448340015,326.0987000000008,326.1551448340015,326.1551448340015,331.3674599590013,326.1551448340015,331.3674599590013,331.3674599590013,332.25100441700124,326.1551448340015,1,1,1.010946624997814,reldom2_s017,001,2025-02-20_15h46.36.517,What-B-Scan_AC,2022.2.5,None,
28,First_Order,5.0,viswhat,stimulus/viswhat_stim/blank_white.png,stimulus/viswhat_stim/blank_white.png,stimulus/viswhat_stim/land_animal-giraffe.png,stimulus/viswhat_stim/water_animal-squid.png,stimulus/viswhat_stim/blank_white.png,stimulus/viswhat_stim/location_box.png,stimulus/viswhat_stim/location_yes.png,stimulus/viswhat_stim/location_no.png,None,Location,None,Type,2,0.0,0,5.125,0,5.125,0,5.125,0,0.0,0.625,0,0.0,0,0.0,1,0.5,1,2.125,0,0.0,0,0.0,0,0.0,0,0.0,0,,,,,0,36,36,36,,,,,,,,,332.25100441700124,332.25100441700124,332.25100441700124,332.25100441700124,332.25100441700124,332.25100441700124,332.25100441700124,332.25100441700124,332.1615008333346,332.25100441700124,332.25100441700124,332.25100441700124,332.1615008333346,332.25100441700124,332.25100441700124,332.25100441700124,334.3537377920002,338.3964478750004,332.25100441700124,332.25100441700124,337.4490193750007,332.6942551250013,333.7460547090013,334.3537377920002,335.40675566700156,332.25100441700124,332.25100441700124,332.2115008333346,332.25100441700124,332.25100441700124,332.25100441700124,332.2115008333346,332.25100441700124,332.25100441700124,337.4490193750007,332.25100441700124,337.4490193750007,337.4490193750007,338.14273412500006,332.25100441700124,2,1,2.5906532909975795,reldom2_s017,001,2025-02-20_15h46.36.517,What-B-Scan_AC,2022.2.5,None,
0,0.0,None,fixation,stimulus/viswhat_stim/blank_white.png,stimulus/viswhat_stim/blank_white.png,stimulus/audwhat_stim/blank_white.png,stimulus/audwhat_stim/blank_white.png,stimulus/viswhat_stim/blank_white.png,stimulus/viswhat_stim/blank_white.png,stimulus/viswhat_stim/blank_white.png,stimulus/viswhat_stim/blank_white.png,0.0,0.0,0.0,0.0,0,0.0,0,0.0,0,0.0,0,0.0,0,0.0,0.0,0,0.0,0,0.0,0,0.0,0,0.0,0,0.0,0,0.0,0,0.0,0,0.0,9,,,,,0,37,37,37,,,,,,,,,338.3964478750004,338.3964478750004,338.3964478750004,338.3964478750004,338.3964478750004,338.3964478750004,338.3964478750004,338.3964478750004,338.29273412500004,338.3964478750004,338.3964478750004,338.3964478750004,338.29273412500004,338.3964478750004,338.3964478750004,338.3964478750004,338.3964478750004,338.3964478750004,338.3964478750004,338.3964478750004,338.3964478750004,338.3964478750004,338.3964478750004,338.3964478750004,338.3964478750004,338.3964478750004,338.3964478750004,338.34273412500005,338.3964478750004,338.3964478750004,338.3964478750004,338.34273412500005,338.3964478750004,338.3964478750004,338.3964478750004,338.3964478750004,338.3964478750004,343.5969335000009,343.5969335000009,347.52974058400105,None,0,,reldom2_s017,001,2025-02-20_15h46.36.517,What-B-Scan_AC,2022.2.5,None,
29,Second_Order,5.0,viswhat,stimulus/viswhat_stim/water_vehicle-pirateship.png,stimulus/viswhat_stim/land_vehicle-schoolbus.png,stimulus/viswhat_stim/water_animal-dolphin.png,stimulus/viswhat_stim/land_animal-cat.png,stimulus/viswhat_stim/match_blank.png,stimulus/viswhat_stim/match_box.png,stimulus/viswhat_stim/match_yes.png,stimulus/viswhat_stim/match_no.png,1.0,Match,Type,Type,1,5.125,0,5.125,0,5.125,0,5.125,0,0.75,0.75,1,0.5,1,2.125,1,0.5,1,2.125,0,0.0,0,0.0,0,0.0,0,0.0,0,,,,,0,38,38,38,,,,,,,,,347.52974058400105,352.6464772500003,348.0020872920013,349.00025050000113,349.6241937090017,350.6208315840013,347.52974058400105,347.52974058400105,347.5363003333333,347.52974058400105,347.52974058400105,347.52974058400105,347.5363003333333,347.52974058400105,352.6464772500003,353.4682096250017,355.5367045840012,359.49887500000114,353.4682096250017,353.4682096250017,358.630300625,353.91395070900035,354.93154320900067,355.5367045840012,356.56146291700134,353.4682096250017,353.4682096250017,353.4309775000009,353.4682096250017,353.4682096250017,353.4682096250017,353.4309775000009,353.4682096250017,353.4682096250017,358.630300625,353.4682096250017,358.630300625,358.65666558400153,,353.4682096250017,1,1,0.8991735829986283,reldom2_s017,001,2025-02-20_15h46.36.517,What-B-Scan_AC,2022.2.5,None,
30,Second_Order,5.0,viswhat,stimulus/viswhat_stim/water_animal-orka.png,stimulus/viswhat_stim/land_animal-bunny.png,stimulus/viswhat_stim/land_vehicle-motorcycle.png,stimulus/viswhat_stim/water_vehicle-motorboatraft.png,stimulus/viswhat_stim/match_blank.png,stimulus/viswhat_stim/match_box.png,stimulus/viswhat_stim/match_yes.png,stimulus/viswhat_stim/match_no.png,1.0,Match,Type,Type,1,5.125,0,5.125,0,5.125,0,5.125,0,0.625,0.625,1,0.5,1,2.125,1,0.5,1,2.125,0,0.0,0,0.0,0,0.0,0,0.0,0,,,,,0,39,39,39,,,,,,,,,359.49887500000114,364.6198266670017,359.9108085420012,360.89800412500153,361.5343514590004,362.53184387500005,359.49887500000114,359.49887500000114,359.49759695833393,359.49887500000114,359.49887500000114,359.49887500000114,359.49759695833393,359.49887500000114,364.6198266670017,365.3194975000006,367.40329233400007,,365.3194975000006,365.3194975000006,370.4692746670007,365.76559666700086,366.80645537500095,367.40329233400007,368.41813766700034,365.3194975000006,365.3194975000006,365.2875247500004,365.3194975000006,365.3194975000006,365.3194975000006,365.2875247500004,365.3194975000006,365.3194975000006,370.4692746670007,365.3194975000006,370.4692746670007,370.5175695000016,371.16979316700053,365.3194975000006,1,1,0.6635305419986253,reldom2_s017,001,2025-02-20_15h46.36.517,What-B-Scan_AC,2022.2.5,None,
0,0.0,None,fixation,stimulus/viswhat_stim/blank_white.png,stimulus/viswhat_stim/blank_white.png,stimulus/audwhat_stim/blank_white.png,stimulus/audwhat_stim/blank_white.png,stimulus/viswhat_stim/blank_white.png,stimulus/viswhat_stim/blank_white.png,stimulus/viswhat_stim/blank_white.png,stimulus/viswhat_stim/blank_white.png,0.0,0.0,0.0,0.0,0,0.0,0,0.0,0,0.0,0,0.0,0,0.0,0.0,0,0.0,0,0.0,0,0.0,0,0.0,0,0.0,0,0.0,0,0.0,0,0.0,9,,,,,0,40,40,40,,,,,,,,,371.4239362090011,371.4239362090011,371.4239362090011,371.4239362090011,371.4239362090011,371.4239362090011,371.4239362090011,371.4239362090011,371.3348871256675,371.4239362090011,371.4239362090011,371.4239362090011,371.3348871256675,371.4239362090011,371.4239362090011,371.4239362090011,371.4239362090011,371.4239362090011,371.4239362090011,371.4239362090011,371.4239362090011,371.4239362090011,371.4239362090011,371.4239362090011,371.4239362090011,371.4239362090011,371.4239362090011,371.38488712566743,371.4239362090011,371.4239362090011,371.4239362090011,371.38488712566743,371.4239362090011,371.4239362090011,371.4239362090011,371.4239362090011,371.4239362090011,376.65021787500154,376.65021787500154,380.70941416700043,None,0,,reldom2_s017,001,2025-02-20_15h46.36.517,What-B-Scan_AC,2022.2.5,None,
31,First_Order,6.0,viswhat,stimulus/viswhat_stim/blank_white.png,stimulus/viswhat_stim/blank_white.png,stimulus/viswhat_stim/water_vehicle-ship.png,stimulus/viswhat_stim/land_vehicle-schoolbus.png,stimulus/viswhat_stim/blank_white.png,stimulus/viswhat_stim/location_box.png,stimulus/viswhat_stim/location_yes.png,stimulus/viswhat_stim/location_no.png,None,Location,None,Type,2,0.0,0,5.125,0,5.125,0,5.125,0,0.0,0.625,0,0.0,0,0.0,1,0.5,1,2.125,0,0.0,0,0.0,0,0.0,0,0.0,0,,,,,0,41,41,41,,,,,,,,,380.70941416700043,380.70941416700043,380.70941416700043,380.70941416700043,380.70941416700043,380.70941416700043,380.70941416700043,380.70941416700043,380.60815237566806,380.70941416700043,380.70941416700043,380.70941416700043,380.60815237566806,380.70941416700043,380.70941416700043,380.70941416700043,382.81503925000106,386.79441775000123,380.70941416700043,380.70941416700043,385.8818386670009,381.19110695900054,382.2748618750011,382.81503925000106,383.8992542920005,380.70941416700043,380.70941416700043,380.65815237566807,380.70941416700043,380.70941416700043,380.70941416700043,380.65815237566807,380.70941416700043,380.70941416700043,385.8818386670009,380.70941416700043,385.8818386670009,385.9363999590005,386.79441775000123,380.70941416700043,2,1,1.6163379159970646,reldom2_s017,001,2025-02-20_15h46.36.517,What-B-Scan_AC,2022.2.5,None,
32,First_Order,6.0,viswhat,stimulus/viswhat_stim/blank_white.png,stimulus/viswhat_stim/blank_white.png,stimulus/viswhat_stim/land_vehicle-bus.png,stimulus/viswhat_stim/water_vehicle-jetski.png,stimulus/viswhat_stim/blank_white.png,stimulus/viswhat_stim/type_box.png,stimulus/viswhat_stim/type_yes.png,stimulus/viswhat_stim/type_no.png,None,Type,None,Type,1,0.0,0,5.125,0,5.125,0,5.125,0,0.0,0.625,0,0.0,0,0.0,1,0.5,1,2.125,0,0.0,0,0.0,0,0.0,0,0.0,0,,,,,0,42,42,42,,,,,,,,,386.79441775000123,386.79441775000123,386.79441775000123,386.79441775000123,386.79441775000123,386.79441775000123,386.79441775000123,386.79441775000123,386.75478820866795,386.79441775000123,386.79441775000123,386.79441775000123,386.75478820866795,386.79441775000123,386.79441775000123,386.79441775000123,388.88814308400106,392.88381579199995,386.79441775000123,386.79441775000123,391.95341800000097,387.26071675000094,388.2781450000002,388.88814308400106,389.91510825000114,386.79441775000123,386.79441775000123,386.77145487533465,386.79441775000123,386.79441775000123,386.79441775000123,386.77145487533465,386.79441775000123,386.79441775000123,391.95341800000097,386.79441775000123,391.95341800000097,392.00034266700095,392.635492292,386.79441775000123,1,1,0.9143792499999108,reldom2_s017,001,2025-02-20_15h46.36.517,What-B-Scan_AC,2022.2.5,None,
33,First_Order,6.0,viswhat,stimulus/viswhat_stim/blank_white.png,stimulus/viswhat_stim/blank_white.png,stimulus/viswhat_stim/water_animal-seahorse.png,stimulus/viswhat_stim/water_vehicle-cabincruiser.png,stimulus/viswhat_stim/blank_white.png,stimulus/viswhat_stim/type_box.png,stimulus/viswhat_stim/type_yes.png,stimulus/viswhat_stim/type_no.png,None,Type,None,Location,2,0.0,0,5.125,0,5.125,0,5.125,0,0.0,0.625,0,0.0,0,0.0,1,0.5,1,2.125,0,0.0,0,0.0,0,0.0,0,0.0,0,,,,,0,43,43,43,,,,,,,,,392.88381579199995,392.88381579199995,392.88381579199995,392.88381579199995,392.88381579199995,392.88381579199995,392.88381579199995,392.88381579199995,392.82853883400054,392.88381579199995,392.88381579199995,392.88381579199995,392.82853883400054,392.88381579199995,392.88381579199995,392.88381579199995,394.99093008400087,399.0030559170009,392.88381579199995,392.88381579199995,398.0392004590012,393.3697954170002,394.40443550000055,394.99093008400087,396.0344246250006,392.88381579199995,392.88381579199995,392.8618721673339,392.88381579199995,392.88381579199995,392.88381579199995,392.8618721673339,392.88381579199995,392.88381579199995,398.0392004590012,392.88381579199995,398.0392004590012,398.0972969170016,398.76221841700135,392.88381579199995,2,1,1.8337729169979866,reldom2_s017,001,2025-02-20_15h46.36.517,What-B-Scan_AC,2022.2.5,None,
34,First_Order,6.0,viswhat,stimulus/viswhat_stim/blank_white.png,stimulus/viswhat_stim/blank_white.png,stimulus/viswhat_stim/land_animal-tiger.png,stimulus/viswhat_stim/water_animal-octopus.png,stimulus/viswhat_stim/blank_white.png,stimulus/viswhat_stim/type_box.png,stimulus/viswhat_stim/type_yes.png,stimulus/viswhat_stim/type_no.png,None,Type,None,Type,1,0.0,0,5.125,0,5.125,0,5.125,0,0.0,0.625,0,0.0,0,0.0,1,0.5,1,2.125,0,0.0,0,0.0,0,0.0,0,0.0,0,,,,,0,44,44,44,,,,,,,,,399.0030559170009,399.0030559170009,399.0030559170009,399.0030559170009,399.0030559170009,399.0030559170009,399.0030559170009,399.0030559170009,398.9362850836677,399.0030559170009,399.0030559170009,399.0030559170009,398.9362850836677,399.0030559170009,399.0030559170009,399.0030559170009,401.1121857920007,405.1504387090008,399.0030559170009,399.0030559170009,404.17048304200034,399.4782284590001,400.5114995420008,401.1121857920007,402.15087608400063,399.0030559170009,399.0030559170009,398.969618417001,399.0030559170009,399.0030559170009,399.0030559170009,398.969618417001,399.0030559170009,399.0030559170009,404.17048304200034,399.0030559170009,404.17048304200034,404.2082607500015,404.8819147920003,399.0030559170009,1,1,0.8135125829994649,reldom2_s017,001,2025-02-20_15h46.36.517,What-B-Scan_AC,2022.2.5,None,
0,0.0,None,fixation,stimulus/viswhat_stim/blank_white.png,stimulus/viswhat_stim/blank_white.png,stimulus/audwhat_stim/blank_white.png,stimulus/audwhat_stim/blank_white.png,stimulus/viswhat_stim/blank_white.png,stimulus/viswhat_stim/blank_white.png,stimulus/viswhat_stim/blank_white.png,stimulus/viswhat_stim/blank_white.png,0.0,0.0,0.0,0.0,0,0.0,0,0.0,0,0.0,0,0.0,0,0.0,0.0,0,0.0,0,0.0,0,0.0,0,0.0,0,0.0,0,0.0,0,0.0,0,0.0,8,,,,,0,45,45,45,,,,,,,,,405.1504387090008,405.1504387090008,405.1504387090008,405.1504387090008,405.1504387090008,405.1504387090008,405.1504387090008,405.1504387090008,405.052540167335,405.1504387090008,405.1504387090008,405.1504387090008,405.052540167335,405.1504387090008,405.1504387090008,405.1504387090008,405.1504387090008,405.1504387090008,405.1504387090008,405.1504387090008,405.1504387090008,405.1504387090008,405.1504387090008,405.1504387090008,405.1504387090008,405.1504387090008,405.1504387090008,405.102540167335,405.1504387090008,405.1504387090008,405.1504387090008,405.102540167335,405.1504387090008,405.1504387090008,405.1504387090008,405.1504387090008,405.1504387090008,410.3477214170016,410.3477214170016,413.2588522920014,None,0,,reldom2_s017,001,2025-02-20_15h46.36.517,What-B-Scan_AC,2022.2.5,None,
35,Second_Order,6.0,viswhat,stimulus/viswhat_stim/land_animal-wolf.png,stimulus/viswhat_stim/land_vehicle-schoolbus.png,stimulus/viswhat_stim/water_animal-shark.png,stimulus/viswhat_stim/water_vehicle-ship.png,stimulus/viswhat_stim/match_blank.png,stimulus/viswhat_stim/match_box.png,stimulus/viswhat_stim/match_yes.png,stimulus/viswhat_stim/match_no.png,1.0,Match,Location,Location,1,5.125,0,5.125,0,5.125,0,5.125,0,0.75,0.75,1,0.5,1,2.125,1,0.5,1,2.125,0,0.0,0,0.0,0,0.0,0,0.0,0,,,,,0,46,46,46,,,,,,,,,413.2588522920014,418.38201174999995,413.73785316700014,414.73612587500065,415.3586021250012,416.35648145900086,413.2588522920014,413.2588522920014,413.2667850003346,413.2588522920014,413.2588522920014,413.2588522920014,413.2667850003346,413.2588522920014,418.38201174999995,419.28452650000145,421.3033410420012,,419.28452650000145,419.28452650000145,424.5091031250013,419.7010759170007,420.8146784590008,421.3033410420012,422.4199898750012,419.28452650000145,419.28452650000145,419.2157804590002,419.28452650000145,419.28452650000145,419.28452650000145,419.2157804590002,419.28452650000145,419.28452650000145,424.5091031250013,419.28452650000145,424.5091031250013,424.445246917001,,419.28452650000145,1,1,1.6258982079980342,reldom2_s017,001,2025-02-20_15h46.36.517,What-B-Scan_AC,2022.2.5,None,
36,Second_Order,6.0,viswhat,stimulus/viswhat_stim/land_vehicle-oldcar.png,stimulus/viswhat_stim/land_animal-cat.png,stimulus/viswhat_stim/water_vehicle-cargoboat.png,stimulus/viswhat_stim/water_animal-orka.png,stimulus/viswhat_stim/match_blank.png,stimulus/viswhat_stim/match_box.png,stimulus/viswhat_stim/match_yes.png,stimulus/viswhat_stim/match_no.png,1.0,Match,Location,Location,1,5.125,0,5.125,0,5.125,0,5.125,0,0.625,0.625,1,0.5,1,2.125,1,0.5,1,2.125,0,0.0,0,0.0,0,0.0,0,0.0,0,,,,,0,47,47,47,,,,,,,,,425.25278125000114,430.376636125,425.6981910840004,426.696419625001,427.33145074999993,428.3201136250009,425.25278125000114,425.25278125000114,425.25201737566806,425.25278125000114,425.25278125000114,425.25278125000114,425.25201737566806,425.25278125000114,430.376636125,431.1530496250016,433.20554745900154,437.26983216700137,431.1530496250016,431.1530496250016,436.322174334,431.54909570900054,432.6086930420006,433.20554745900154,434.26832420900064,431.1530496250016,431.1530496250016,431.0903747500011,431.1530496250016,431.1530496250016,431.1530496250016,431.0903747500011,431.1530496250016,431.1530496250016,436.322174334,431.1530496250016,436.322174334,436.322174334,437.26983216700137,431.1530496250016,1,1,0.5939977499983797,reldom2_s017,001,2025-02-20_15h46.36.517,What-B-Scan_AC,2022.2.5,None,
0,0.0,None,fixation,stimulus/viswhat_stim/blank_white.png,stimulus/viswhat_stim/blank_white.png,stimulus/audwhat_stim/blank_white.png,stimulus/audwhat_stim/blank_white.png,stimulus/viswhat_stim/blank_white.png,stimulus/viswhat_stim/blank_white.png,stimulus/viswhat_stim/blank_white.png,stimulus/viswhat_stim/blank_white.png,0.0,0.0,0.0,0.0,0,0.0,0,0.0,0,0.0,0,0.0,0,0.0,0.0,0,0.0,0,0.0,0,0.0,0,0.0,0,0.0,0,0.0,0,0.0,0,0.0,10,,,,,0,48,48,48,,,,,,,,,437.26983216700137,437.26983216700137,437.26983216700137,437.26983216700137,437.26983216700137,437.26983216700137,437.26983216700137,437.26983216700137,437.173389917335,437.26983216700137,437.26983216700137,437.26983216700137,437.173389917335,437.26983216700137,437.26983216700137,437.26983216700137,437.26983216700137,437.26983216700137,437.26983216700137,437.26983216700137,437.26983216700137,437.26983216700137,437.26983216700137,437.26983216700137,437.26983216700137,437.26983216700137,437.26983216700137,437.22338991733494,437.26983216700137,437.26983216700137,437.26983216700137,437.22338991733494,437.26983216700137,437.26983216700137,437.26983216700137,437.26983216700137,437.26983216700137,442.48266825000064,442.48266825000064,447.5221517500013,None,0,,reldom2_s017,001,2025-02-20_15h46.36.517,What-B-Scan_AC,2022.2.5,None,
37,First_Order,7.0,audwhat,stimulus/audwhat_stim/dummy.wav,stimulus/audwhat_stim/dummy.wav,stimulus/audwhat_stim/string viola_low-pitch_Ftri_loud.wav,stimulus/audwhat_stim/string viola_high-pitch_Dtri_loud.wav,stimulus/audwhat_stim/blank_white.png,stimulus/audwhat_stim/category_box.png,stimulus/audwhat_stim/category_yes.png,stimulus/audwhat_stim/category_no.png,None,Category,None,Category,1,0.0,0,5.125,0,5.125,0,5.125,0,0.0,0.625,0,0.0,0,0.0,0,0.0,0,0.0,0,0.0,0,0.0,1,0.5,1,2.125,0,,,,,0,49,49,49,,,,,,,,,447.5221517500013,447.5221517500013,447.5221517500013,447.5221517500013,447.5221517500013,447.5221517500013,447.5221517500013,447.5221517500013,447.4499195416671,447.5221517500013,447.5221517500013,447.5221517500013,447.4499195416671,447.5221517500013,447.5221517500013,447.5221517500013,449.6189548750008,453.64191862500047,447.5221517500013,447.5221517500013,452.6909892920012,447.5221517500013,447.5221517500013,447.5221517500013,447.5221517500013,447.9880462500005,449.0590696670006,447.957950416667,,449.6189548750008,450.69011641700126,449.58886920866667,,447.5221517500013,452.6909892920012,447.5221517500013,452.6909892920012,452.73232329200073,453.38858095900105,447.5221517500013,1,1,1.208983624997927,reldom2_s017,001,2025-02-20_15h46.36.517,What-B-Scan_AC,2022.2.5,None,
38,First_Order,7.0,audwhat,stimulus/audwhat_stim/dummy.wav,stimulus/audwhat_stim/dummy.wav,stimulus/audwhat_stim/percussion mallet_high-pitch_D_loud.wav,stimulus/audwhat_stim/string viola_high-pitch_D_loud.wav,stimulus/audwhat_stim/blank_white.png,stimulus/audwhat_stim/pitch_box.png,stimulus/audwhat_stim/pitch_yes.png,stimulus/audwhat_stim/pitch_no.png,None,Pitch,None,Pitch,1,0.0,0,5.125,0,5.125,0,5.125,0,0.0,0.625,0,0.0,0,0.0,0,0.0,0,0.0,0,0.0,0,0.0,1,0.5,1,2.125,0,,,,,0,50,50,50,,,,,,,,,453.64191862500047,453.64191862500047,453.64191862500047,453.64191862500047,453.64191862500047,453.64191862500047,453.64191862500047,453.64191862500047,453.56265041733434,453.64191862500047,453.64191862500047,453.64191862500047,453.56265041733434,453.64191862500047,453.64191862500047,453.64191862500047,455.7342375840017,,453.64191862500047,453.64191862500047,458.8003345420002,453.64191862500047,453.64191862500047,453.64191862500047,453.64191862500047,454.10667933400146,455.17588058399997,454.0765592916671,,455.7342375840017,456.8023465840015,455.70329783366674,,453.64191862500047,458.8003345420002,453.64191862500047,458.8003345420002,458.841477209,459.49660012500135,453.64191862500047,1,1,1.2677305409979454,reldom2_s017,001,2025-02-20_15h46.36.517,What-B-Scan_AC,2022.2.5,None,
39,First_Order,7.0,audwhat,stimulus/audwhat_stim/dummy.wav,stimulus/audwhat_stim/dummy.wav,stimulus/audwhat_stim/string viola_low-pitch_Dtri_loud.wav,stimulus/audwhat_stim/percussion mallet_low-pitch_Dtri_loud.wav,stimulus/audwhat_stim/blank_white.png,stimulus/audwhat_stim/category_box.png,stimulus/audwhat_stim/category_yes.png,stimulus/audwhat_stim/category_no.png,None,Category,None,Pitch,2,0.0,0,5.125,0,5.125,0,5.125,0,0.0,0.625,0,0.0,0,0.0,0,0.0,0,0.0,0,0.0,0,0.0,1,0.5,1,2.125,0,,,,,0,51,51,51,,,,,,,,,459.7513761250011,459.7513761250011,459.7513761250011,459.7513761250011,459.7513761250011,459.7513761250011,459.7513761250011,459.7513761250011,459.6707199173344,459.7513761250011,459.7513761250011,459.7513761250011,459.6707199173344,459.7513761250011,459.7513761250011,459.7513761250011,461.8511171670016,,459.7513761250011,459.7513761250011,464.9312476670002,459.7513761250011,459.7513761250011,459.7513761250011,459.7513761250011,460.2171390420008,461.29163016700113,460.18718454166833,,461.8511171670016,462.9258662500015,461.821003250667,,459.7513761250011,464.9312476670002,459.7513761250011,464.9312476670002,464.97191525000017,465.6300472090006,459.7513761250011,2,1,1.40846637499817,reldom2_s017,001,2025-02-20_15h46.36.517,What-B-Scan_AC,2022.2.5,None,
40,First_Order,7.0,audwhat,stimulus/audwhat_stim/dummy.wav,stimulus/audwhat_stim/dummy.wav,stimulus/audwhat_stim/string viola_high-pitch_F_loud.wav,stimulus/audwhat_stim/string viola_low-pitch_Ftri_loud.wav,stimulus/audwhat_stim/blank_white.png,stimulus/audwhat_stim/pitch_box.png,stimulus/audwhat_stim/pitch_yes.png,stimulus/audwhat_stim/pitch_no.png,None,Pitch,None,Category,2,0.0,0,5.125,0,5.125,0,5.125,0,0.0,0.625,0,0.0,0,0.0,0,0.0,0,0.0,0,0.0,0,0.0,1,0.5,1,2.125,0,,,,,0,52,52,52,,,,,,,,,465.84345012500125,465.84345012500125,465.84345012500125,465.84345012500125,465.84345012500125,465.84345012500125,465.84345012500125,465.84345012500125,465.76338054233395,465.84345012500125,465.84345012500125,465.84345012500125,465.76338054233395,465.84345012500125,465.84345012500125,465.84345012500125,467.9351011250001,,465.84345012500125,465.84345012500125,471.0046881670005,465.84345012500125,465.84345012500125,465.84345012500125,465.84345012500125,466.3073229590009,467.3781026250017,466.27763095866817,,467.9351011250001,469.00529941700006,467.9049872916678,,465.84345012500125,471.0046881670005,465.84345012500125,471.0046881670005,471.04571291700086,471.70135533400025,465.84345012500125,1,0,1.7141566249993048,reldom2_s017,001,2025-02-20_15h46.36.517,What-B-Scan_AC,2022.2.5,None,
0,0.0,None,fixation,stimulus/viswhat_stim/blank_white.png,stimulus/viswhat_stim/blank_white.png,stimulus/audwhat_stim/blank_white.png,stimulus/audwhat_stim/blank_white.png,stimulus/viswhat_stim/blank_white.png,stimulus/viswhat_stim/blank_white.png,stimulus/viswhat_stim/blank_white.png,stimulus/viswhat_stim/blank_white.png,0.0,0.0,0.0,0.0,0,0.0,0,0.0,0,0.0,0,0.0,0,0.0,0.0,0,0.0,0,0.0,0,0.0,0,0.0,0,0.0,0,0.0,0,0.0,0,0.0,9,,,,,0,53,53,53,,,,,,,,,471.9743862920004,471.9743862920004,471.9743862920004,471.9743862920004,471.9743862920004,471.9743862920004,471.9743862920004,471.9743862920004,471.87496745833425,471.9743862920004,471.9743862920004,471.9743862920004,471.87496745833425,471.9743862920004,471.9743862920004,471.9743862920004,471.9743862920004,471.9743862920004,471.9743862920004,471.9743862920004,471.9743862920004,471.9743862920004,471.9743862920004,471.9743862920004,471.9743862920004,471.9743862920004,471.9743862920004,471.92496745833427,471.9743862920004,471.9743862920004,471.9743862920004,471.92496745833427,471.9743862920004,471.9743862920004,471.9743862920004,471.9743862920004,471.9743862920004,477.1687358340005,477.1687358340005,481.1096475840004,None,0,,reldom2_s017,001,2025-02-20_15h46.36.517,What-B-Scan_AC,2022.2.5,None,
41,Second_Order,7.0,audwhat,stimulus/audwhat_stim/percussion mallet_low-pitch_F_loud.wav,stimulus/audwhat_stim/percussion mallet_high-pitch_D_loud.wav,stimulus/audwhat_stim/string cello_low-pitch_Dtri_loud.wav,stimulus/audwhat_stim/string viola_high-pitch_F_loud.wav,stimulus/viswhat_stim/match_blank.png,stimulus/viswhat_stim/match_box.png,stimulus/viswhat_stim/match_yes.png,stimulus/viswhat_stim/match_no.png,1.0,Match,Category,Category,1,5.125,0,5.125,0,5.125,0,5.125,0,0.75,0.75,0,0.0,0,0.0,0,0.0,0,0.0,1,0.5,1,2.125,1,0.5,1,2.125,0,,,,,0,54,54,54,,,,,,,,,481.1096475840004,486.22267133400055,481.1096475840004,481.1096475840004,481.1096475840004,481.1096475840004,481.5607961250007,482.55864937500155,481.57340225066787,,483.1939621670008,484.1830898340013,483.19705395866754,,486.22267133400055,487.0730075420015,489.15787354200074,,487.0730075420015,487.0730075420015,492.26486891700006,487.0730075420015,487.0730075420015,487.0730075420015,487.0730075420015,487.48911450000014,488.553846625,487.46034450066713,,489.15787354200074,490.2277843340016,489.1266295416683,,487.0730075420015,492.26486891700006,487.0730075420015,492.26486891700006,492.26486891700006,,487.0730075420015,1,1,0.6644048749985814,reldom2_s017,001,2025-02-20_15h46.36.517,What-B-Scan_AC,2022.2.5,None,
42,Second_Order,7.0,audwhat,stimulus/audwhat_stim/percussion mallet_high-pitch_Ftri_loud.wav,stimulus/audwhat_stim/percussion mallet_low-pitch_F_loud.wav,stimulus/audwhat_stim/percussion mallet_low-pitch_Dtri_loud.wav,stimulus/audwhat_stim/string viola_low-pitch_Dtri_loud.wav,stimulus/viswhat_stim/match_blank.png,stimulus/viswhat_stim/match_box.png,stimulus/viswhat_stim/match_yes.png,stimulus/viswhat_stim/match_no.png,2.0,Match,Category,Pitch,2,5.125,0,5.125,0,5.125,0,5.125,0,0.625,0.625,0,0.0,0,0.0,0,0.0,0,0.0,1,0.5,1,2.125,1,0.5,1,2.125,0,,,,,0,55,55,55,,,,,,,,,493.0371719170016,498.1504736670013,493.0371719170016,493.0371719170016,493.0371719170016,493.0371719170016,493.487547834,494.48640737500136,493.500387125667,,495.1210416670001,496.11064462500144,495.12461141666813,496.11064462500144,498.1504736670013,498.8772032090001,500.9543572920011,504.9841586670009,498.8772032090001,498.8772032090001,504.058411334001,498.8772032090001,498.8772032090001,498.8772032090001,498.8772032090001,499.33739054200123,500.3995557090002,499.30792570866674,,500.9543572920011,502.0242860420003,500.92450870866764,,498.8772032090001,504.058411334001,498.8772032090001,504.058411334001,504.058411334001,504.71099179200064,498.8772032090001,2,1,0.6511568329988222,reldom2_s017,001,2025-02-20_15h46.36.517,What-B-Scan_AC,2022.2.5,None,
0,0.0,None,fixation,stimulus/viswhat_stim/blank_white.png,stimulus/viswhat_stim/blank_white.png,stimulus/audwhat_stim/blank_white.png,stimulus/audwhat_stim/blank_white.png,stimulus/viswhat_stim/blank_white.png,stimulus/viswhat_stim/blank_white.png,stimulus/viswhat_stim/blank_white.png,stimulus/viswhat_stim/blank_white.png,0.0,0.0,0.0,0.0,0,0.0,0,0.0,0,0.0,0,0.0,0,0.0,0.0,0,0.0,0,0.0,0,0.0,0,0.0,0,0.0,0,0.0,0,0.0,0,0.0,9,,,,,0,56,56,56,,,,,,,,,504.9841586670009,504.9841586670009,504.9841586670009,504.9841586670009,504.9841586670009,504.9841586670009,504.9841586670009,504.9841586670009,504.8845803333335,504.9841586670009,504.9841586670009,504.9841586670009,504.8845803333335,504.9841586670009,504.9841586670009,504.9841586670009,504.9841586670009,504.9841586670009,504.9841586670009,504.9841586670009,504.9841586670009,504.9841586670009,504.9841586670009,504.9841586670009,504.9841586670009,504.9841586670009,504.9841586670009,504.9345803333335,504.9841586670009,504.9841586670009,504.9841586670009,504.9345803333335,504.9841586670009,504.9841586670009,504.9841586670009,504.9841586670009,504.9841586670009,510.2010077090017,510.2010077090017,514.2252968340017,None,0,,reldom2_s017,001,2025-02-20_15h46.36.517,What-B-Scan_AC,2022.2.5,None,
43,First_Order,8.0,audwhat,stimulus/audwhat_stim/dummy.wav,stimulus/audwhat_stim/dummy.wav,stimulus/audwhat_stim/string cello_high-pitch_D_loud.wav,stimulus/audwhat_stim/string cello_low-pitch_F_loud.wav,stimulus/audwhat_stim/blank_white.png,stimulus/audwhat_stim/pitch_box.png,stimulus/audwhat_stim/pitch_yes.png,stimulus/audwhat_stim/pitch_no.png,None,Pitch,None,Category,2,0.0,0,5.125,0,5.125,0,5.125,0,0.0,0.625,0,0.0,0,0.0,0,0.0,0,0.0,0,0.0,0,0.0,1,0.5,1,2.125,0,,,,,0,57,57,57,,,,,,,,,514.2252968340017,514.2252968340017,514.2252968340017,514.2252968340017,514.2252968340017,514.2252968340017,514.2252968340017,514.2252968340017,514.1528401666679,514.2252968340017,514.2252968340017,514.2252968340017,514.1528401666679,514.2252968340017,514.2252968340017,514.2252968340017,516.3132071670007,,514.2252968340017,514.2252968340017,519.380910459,514.2252968340017,514.2252968340017,514.2252968340017,514.2252968340017,514.6897088750011,515.7593541250008,514.6598577506668,,516.3132071670007,517.3864967500012,516.2835285836666,,514.2252968340017,519.380910459,514.2252968340017,519.380910459,519.4221531250005,520.0734937500001,514.2252968340017,2,1,1.1234061249979277,reldom2_s017,001,2025-02-20_15h46.36.517,What-B-Scan_AC,2022.2.5,None,
44,First_Order,8.0,audwhat,stimulus/audwhat_stim/dummy.wav,stimulus/audwhat_stim/dummy.wav,stimulus/audwhat_stim/percussion mallet_low-pitch_F_loud.wav,stimulus/audwhat_stim/string cello_low-pitch_F_loud.wav,stimulus/audwhat_stim/blank_white.png,stimulus/audwhat_stim/pitch_box.png,stimulus/audwhat_stim/pitch_yes.png,stimulus/audwhat_stim/pitch_no.png,None,Pitch,None,Pitch,1,0.0,0,5.125,0,5.125,0,5.125,0,0.0,0.625,0,0.0,0,0.0,0,0.0,0,0.0,0,0.0,0,0.0,1,0.5,1,2.125,0,,,,,0,58,58,58,,,,,,,,,520.3270435840004,520.3270435840004,520.3270435840004,520.3270435840004,520.3270435840004,520.3270435840004,520.3270435840004,520.3270435840004,520.247720917334,520.3270435840004,520.3270435840004,520.3270435840004,520.247720917334,520.3270435840004,520.3270435840004,520.3270435840004,522.4138042500017,,520.3270435840004,520.3270435840004,525.4817767920013,520.3270435840004,520.3270435840004,520.3270435840004,520.3270435840004,520.7901871670001,521.8564245420002,520.7595927506666,,522.4138042500017,523.4853281250016,522.383578875668,,520.3270435840004,525.4817767920013,520.3270435840004,525.4817767920013,525.5225931670011,526.1761154590004,520.3270435840004,1,1,1.6221565409978211,reldom2_s017,001,2025-02-20_15h46.36.517,What-B-Scan_AC,2022.2.5,None,
45,First_Order,8.0,audwhat,stimulus/audwhat_stim/dummy.wav,stimulus/audwhat_stim/dummy.wav,stimulus/audwhat_stim/string viola_low-pitch_Dtri_loud.wav,stimulus/audwhat_stim/string cello_high-pitch_Ftri_loud.wav,stimulus/audwhat_stim/blank_white.png,stimulus/audwhat_stim/category_box.png,stimulus/audwhat_stim/category_yes.png,stimulus/audwhat_stim/category_no.png,None,Category,None,Category,1,0.0,0,5.125,0,5.125,0,5.125,0,0.0,0.625,0,0.0,0,0.0,0,0.0,0,0.0,0,0.0,0,0.0,1,0.5,1,2.125,0,,,,,0,59,59,59,,,,,,,,,526.4305735420003,526.4305735420003,526.4305735420003,526.4305735420003,526.4305735420003,526.4305735420003,526.4305735420003,526.4305735420003,526.3502695833341,526.4305735420003,526.4305735420003,526.4305735420003,526.3502695833341,526.4305735420003,526.4305735420003,526.4305735420003,528.5279323750001,,526.4305735420003,526.4305735420003,531.6095743340011,526.4305735420003,526.4305735420003,526.4305735420003,526.4305735420003,526.8962596670008,527.9692377920001,526.8660031256679,,528.5279323750001,529.5580032090002,528.497669833667,,526.4305735420003,531.6095743340011,526.4305735420003,531.6095743340011,531.6509557500012,532.3071149590014,526.4305735420003,1,1,1.63439945799837,reldom2_s017,001,2025-02-20_15h46.36.517,What-B-Scan_AC,2022.2.5,None,
46,First_Order,8.0,audwhat,stimulus/audwhat_stim/dummy.wav,stimulus/audwhat_stim/dummy.wav,stimulus/audwhat_stim/string viola_high-pitch_Ftri_loud.wav,stimulus/audwhat_stim/percussion xylophone_high-pitch_Ftri_loud.wav,stimulus/audwhat_stim/blank_white.png,stimulus/audwhat_stim/category_box.png,stimulus/audwhat_stim/category_yes.png,stimulus/audwhat_stim/category_no.png,None,Category,None,Pitch,2,0.0,0,5.125,0,5.125,0,5.125,0,0.0,0.625,0,0.0,0,0.0,0,0.0,0,0.0,0,0.0,0,0.0,1,0.5,1,2.125,0,,,,,0,60,60,60,,,,,,,,,532.5205145,532.5205145,532.5205145,532.5205145,532.5205145,532.5205145,532.5205145,532.5205145,532.4404482923347,532.5205145,532.5205145,532.5205145,532.4404482923347,532.5205145,532.5205145,532.5205145,534.623167875001,,532.5205145,532.5205145,537.7113725840009,532.5205145,532.5205145,532.5205145,532.5205145,532.9878662500014,534.0628428340005,532.9578653336669,,534.623167875001,535.6553591250013,534.5930649586683,535.6553591250013,532.5205145,537.7113725840009,532.5205145,537.7113725840009,537.7113725840009,538.3663620840016,532.5205145,2,1,1.2359749999995984,reldom2_s017,001,2025-02-20_15h46.36.517,What-B-Scan_AC,2022.2.5,None,
0,0.0,None,fixation,stimulus/viswhat_stim/blank_white.png,stimulus/viswhat_stim/blank_white.png,stimulus/audwhat_stim/blank_white.png,stimulus/audwhat_stim/blank_white.png,stimulus/viswhat_stim/blank_white.png,stimulus/viswhat_stim/blank_white.png,stimulus/viswhat_stim/blank_white.png,stimulus/viswhat_stim/blank_white.png,0.0,0.0,0.0,0.0,0,0.0,0,0.0,0,0.0,0,0.0,0,0.0,0.0,0,0.0,0,0.0,0,0.0,0,0.0,0,0.0,0,0.0,0,0.0,0,0.0,8,,,,,0,61,61,61,,,,,,,,,538.6408249590004,538.6408249590004,538.6408249590004,538.6408249590004,538.6408249590004,538.6408249590004,538.6408249590004,538.6408249590004,538.540710917334,538.6408249590004,538.6408249590004,538.6408249590004,538.540710917334,538.6408249590004,538.6408249590004,538.6408249590004,538.6408249590004,538.6408249590004,538.6408249590004,538.6408249590004,538.6408249590004,538.6408249590004,538.6408249590004,538.6408249590004,538.6408249590004,538.6408249590004,538.6408249590004,538.5907109173339,538.6408249590004,538.6408249590004,538.6408249590004,538.5907109173339,538.6408249590004,538.6408249590004,538.6408249590004,538.6408249590004,538.6408249590004,543.839865209,543.839865209,546.7686668340011,None,0,,reldom2_s017,001,2025-02-20_15h46.36.517,What-B-Scan_AC,2022.2.5,None,
47,Second_Order,8.0,audwhat,stimulus/audwhat_stim/string cello_low-pitch_Dtri_loud.wav,stimulus/audwhat_stim/string viola_high-pitch_D_loud.wav,stimulus/audwhat_stim/percussion xylophone_high-pitch_F_loud.wav,stimulus/audwhat_stim/percussion mallet_low-pitch_D_loud.wav,stimulus/viswhat_stim/match_blank.png,stimulus/viswhat_stim/match_box.png,stimulus/viswhat_stim/match_yes.png,stimulus/viswhat_stim/match_no.png,1.0,Match,Category,Category,1,5.125,0,5.125,0,5.125,0,5.125,0,0.75,0.75,0,0.0,0,0.0,0,0.0,0,0.0,1,0.5,1,2.125,1,0.5,1,2.125,0,,,,,0,62,62,62,,,,,,,,,546.7686668340011,551.8905295000004,546.7686668340011,546.7686668340011,546.7686668340011,546.7686668340011,547.224823292001,548.214193709,547.227962916668,,548.850200584,549.8479802090005,548.8619751256667,,551.8905295000004,552.7384349170006,554.8200563340015,558.7415355420017,552.7384349170006,552.7384349170006,557.9285339170001,552.7384349170006,552.7384349170006,552.7384349170006,552.7384349170006,553.155692792001,554.2200801670006,553.1243718756671,554.1738237500012,554.8200563340015,555.8905977920003,554.7905811666681,,552.7384349170006,557.9285339170001,552.7384349170006,557.9285339170001,557.9285339170001,,552.7384349170006,1,1,0.666742040999452,reldom2_s017,001,2025-02-20_15h46.36.517,What-B-Scan_AC,2022.2.5,None,
48,Second_Order,8.0,audwhat,stimulus/audwhat_stim/percussion mallet_high-pitch_D_loud.wav,stimulus/audwhat_stim/percussion mallet_low-pitch_Dtri_loud.wav,stimulus/audwhat_stim/string viola_high-pitch_F_loud.wav,stimulus/audwhat_stim/string viola_low-pitch_Dtri_loud.wav,stimulus/viswhat_stim/match_blank.png,stimulus/viswhat_stim/match_box.png,stimulus/viswhat_stim/match_yes.png,stimulus/viswhat_stim/match_no.png,1.0,Match,Category,Category,1,5.125,0,5.125,0,5.125,0,5.125,0,0.625,0.625,0,0.0,0,0.0,0,0.0,0,0.0,1,0.5,1,2.125,1,0.5,1,2.125,0,,,,,0,63,63,63,,,,,,,,,558.7415355420017,563.8630079590002,558.7415355420017,558.7415355420017,558.7415355420017,558.7415355420017,559.1908325840013,560.1880126670003,559.2026040416679,,560.8290817920006,561.8253962500003,560.8402578336666,,563.8630079590002,564.5982687920005,566.6728445000008,,564.5982687920005,564.5982687920005,569.771976125001,564.5982687920005,564.5982687920005,564.5982687920005,564.5982687920005,565.0109280000015,566.0726980420004,564.9815433336682,,566.6728445000008,567.7395789170005,566.6424040836666,,564.5982687920005,569.771976125001,564.5982687920005,569.771976125001,569.771976125001,570.4226794590013,564.5982687920005,1,1,1.050408666000294,reldom2_s017,001,2025-02-20_15h46.36.517,What-B-Scan_AC,2022.2.5,None,
0,0.0,None,fixation,stimulus/viswhat_stim/blank_white.png,stimulus/viswhat_stim/blank_white.png,stimulus/audwhat_stim/blank_white.png,stimulus/audwhat_stim/blank_white.png,stimulus/viswhat_stim/blank_white.png,stimulus/viswhat_stim/blank_white.png,stimulus/viswhat_stim/blank_white.png,stimulus/viswhat_stim/blank_white.png,0.0,0.0,0.0,0.0,0,0.0,0,0.0,0,0.0,0,0.0,0,0.0,0.0,0,0.0,0,0.0,0,0.0,0,0.0,0,0.0,0,0.0,0,0.0,0,0.0,16,,,,,0,64,64,64,,,,,,,,,570.6949721670007,570.6949721670007,570.6949721670007,570.6949721670007,570.6949721670007,570.6949721670007,570.6949721670007,570.6949721670007,570.596636833334,570.6949721670007,570.6949721670007,570.6949721670007,570.596636833334,570.6949721670007,570.6949721670007,570.6949721670007,570.6949721670007,570.6949721670007,570.6949721670007,570.6949721670007,570.6949721670007,570.6949721670007,570.6949721670007,570.6949721670007,570.6949721670007,570.6949721670007,570.6949721670007,570.6466368333339,570.6949721670007,570.6949721670007,570.6949721670007,570.6466368333339,570.6949721670007,570.6949721670007,570.6949721670007,570.6949721670007,570.6949721670007,575.9135031670012,575.9135031670012,586.8358239590016,None,0,,reldom2_s017,001,2025-02-20_15h46.36.517,What-B-Scan_AC,2022.2.5,None,
