Trial,Order,Block,Type,Stimuli_File1,Stimuli_File2,Stimuli_File3,Stimuli_File4,Cue_File1,Cue_File2,Response_File_Yes,Response_File_No,Match,Cue_Dimension,Pair1_Dimension,Pair2_Dimension,Key,Cue1_Duration,Cue1_Onset,Cue2_Duration,Cue2_Onset,ResponseYes_Duration,ResponseYes_Onset,ResponseNo_Duration,ResponseNo_Onset,ITI_Within,ITI_Between,Image1_Duration,Image1_Onset,Image2_Duration,Image2_Onset,Image3_Duration,Image3_Onset,Image4_Duration,Image4_Onset,Sound1_Duration,Sound1_Onset,Sound2_Duration,Sound2_Onset,Sound3_Duration,Sound3_Onset,Sound4_Duration,Sound4_Onset,Fixation_Duration,trials_2.thisRepN,trials_2.thisTrialN,trials_2.thisN,trials_2.thisIndex,trials.thisRepN,trials.thisTrialN,trials.thisN,trials.thisIndex,text_start.started,key_resp_start.started,key_resp_start.keys,key_resp_start.rt,cue_file1.started,cue_file1.stopped,image_1.started,image_1.stopped,image_2.started,image_2.stopped,sound_icon1.started,sound_icon1.stopped,sound_1.started,sound_1.stopped,sound_icon2.started,sound_icon2.stopped,sound_2.started,sound_2.stopped,image_blank_1.started,image_blank_1.stopped,key_press.started,key_press.stopped,fixation_text.started,cue_file2.started,cue_file2.stopped,image_3.started,image_3.stopped,image_4.started,image_4.stopped,sound_icon3.started,sound_icon3.stopped,sound_3.started,sound_3.stopped,sound_icon4.started,sound_icon4.stopped,sound_4.started,sound_4.stopped,response_yes.started,response_yes.stopped,response_no.started,response_no.stopped,iti_blank.started,iti_blank.stopped,fixation_text.stopped,key_press.keys,key_press.corr,key_press.rt,text_score.started,participant,session,date,expName,psychopyVersion,frameRate,
,,,,,,,,,,,,,,,,,,,,,,,,,,,,,,,,,,,,,,,,,,,,,,,,,,,,18.75941852699907,18.75941852699907,2,1.0984855130009237,,,,,,,,,,,,,,,,,,,,,,,,,,,,,,,,,,,,,,,,,,,,,reldom2_s041,001,2025-03-20_14h09.36.968,practice_test2_AC,2022.2.5,None,
,,,,,,,,,,,,,,,,,,,,,,,,,,,,,,,,,,,,,,,,,,,,0,0,0,0,,,,,,,,,,,,,,,,,,,,,,,,,,,,,,,,,,,,,,,,,,,,,,,,,,,,,reldom2_s041,001,2025-03-20_14h09.36.968,practice_test2_AC,2022.2.5,None,
,,,,,,,,,,,,,,,,,,,,,,,,,,,,,,,,,,,,,,,,,,,,1,0,1,0,,,,,,,,,,,,,,,,,,,,,,,,,,,,,,,,,,,,,,,,,,,,,,,,,,,,,reldom2_s041,001,2025-03-20_14h09.36.968,practice_test2_AC,2022.2.5,None,
,,,,,,,,,,,,,,,,,,,,,,,,,,,,,,,,,,,,,,,,,,,,2,0,2,0,,,,,,,,,,,,,,,,,,,,,,,,,,,,,,,,,,,,,,,,,,,,,,,,,,,,,reldom2_s041,001,2025-03-20_14h09.36.968,practice_test2_AC,2022.2.5,None,
,,,,,,,,,,,,,,,,,,,,,,,,,,,,,,,,,,,,,,,,,,,,3,0,3,0,,,,,,,,,,,,,,,,,,,,,,,,,,,,,,,,,,,,,,,,,,,,,,,,,,,,,reldom2_s041,001,2025-03-20_14h09.36.968,practice_test2_AC,2022.2.5,None,
0,0.0,None,fixation,stimulus/viswhat_stim/blank_white.png,stimulus/viswhat_stim/blank_white.png,stimulus/audwhat_stim/blank_white.png,stimulus/audwhat_stim/blank_white.png,stimulus/viswhat_stim/blank_white.png,stimulus/viswhat_stim/blank_white.png,stimulus/viswhat_stim/blank_white.png,stimulus/viswhat_stim/blank_white.png,0.0,0.0,0.0,0.0,0,0.0,0,0.0,0,0.0,0,0.0,0,0.0,0.0,0,0.0,0,0.0,0,0.0,0,0.0,0,0.0,0,0.0,0,0.0,0,0.0,6,,,,,0,0,0,0,,,,,20.427212653994502,20.427212653994502,20.427212653994502,20.427212653994502,20.427212653994502,20.427212653994502,20.427212653994502,20.427212653994502,20.107392284000525,20.427212653994502,20.427212653994502,20.427212653994502,20.107392284000525,20.427212653994502,20.427212653994502,20.427212653994502,20.427212653994502,20.427212653994502,20.427212653994502,20.427212653994502,20.427212653994502,20.427212653994502,20.427212653994502,20.427212653994502,20.427212653994502,20.427212653994502,20.427212653994502,20.27405895066719,20.427212653994502,20.427212653994502,20.427212653994502,20.27405895066719,20.427212653994502,20.427212653994502,20.427212653994502,20.427212653994502,20.427212653994502,25.527367555994715,25.527367555994715,27.230340149995754,None,0,,,reldom2_s041,001,2025-03-20_14h09.36.968,practice_test2_AC,2022.2.5,None,
1,First_Order,1.0,viswhat,stimulus/viswhat_stim/blank_white.png,stimulus/viswhat_stim/blank_white.png,stimulus/viswhat_stim/land_vehicle-vespa.png,stimulus/viswhat_stim/water_vehicle-yacht.png,stimulus/viswhat_stim/blank_white.png,stimulus/viswhat_stim/type_box.png,stimulus/viswhat_stim/type_yes.png,stimulus/viswhat_stim/type_no.png,None,Type,None,Type,1,0.0,0,5.25,0,5.25,0,5.25,0,0.0,0.75,0,0.0,0,0.0,1,0.5,1,2.125,0,0.0,0,0.0,0,0.0,0,0.0,0,,,,,0,1,1,1,,,,,27.230340149995754,27.230340149995754,27.230340149995754,27.230340149995754,27.230340149995754,27.230340149995754,27.230340149995754,27.230340149995754,26.958714111994777,27.230340149995754,27.230340149995754,27.230340149995754,26.958714111994777,27.230340149995754,27.230340149995754,27.230340149995754,29.2340748899951,33.156754942996486,27.230340149995754,27.230340149995754,32.61726969299343,27.761103803997685,28.90712199999689,29.2340748899951,30.544024107999576,27.230340149995754,27.230340149995754,27.075380778661444,27.230340149995754,27.230340149995754,27.230340149995754,27.075380778661444,27.230340149995754,27.230340149995754,32.61726969299343,27.230340149995754,32.61726969299343,32.48342515999684,34.017460292998294,27.230340149995754,1,1,1.0728071790072136,,reldom2_s041,001,2025-03-20_14h09.36.968,practice_test2_AC,2022.2.5,None,
2,First_Order,1.0,viswhat,stimulus/viswhat_stim/blank_white.png,stimulus/viswhat_stim/blank_white.png,stimulus/viswhat_stim/water_vehicle-cargoboat.png,stimulus/viswhat_stim/land_vehicle-oldcar.png,stimulus/viswhat_stim/blank_white.png,stimulus/viswhat_stim/location_box.png,stimulus/viswhat_stim/location_yes.png,stimulus/viswhat_stim/location_no.png,None,Location,None,Type,2,0.0,0,5.25,0,5.25,0,5.25,0,0.0,0.75,0,0.0,0,0.0,1,0.5,1,2.125,0,0.0,0,0.0,0,0.0,0,0.0,0,,,,,0,2,2,2,,,,,34.017460292998294,34.017460292998294,34.017460292998294,34.017460292998294,34.017460292998294,34.017460292998294,34.017460292998294,34.017460292998294,33.708006585997644,34.017460292998294,34.017460292998294,34.017460292998294,33.708006585997644,34.017460292998294,34.017460292998294,34.017460292998294,36.12701172800007,41.299305645996355,34.017460292998294,34.017460292998294,39.41190483999526,34.38106672599679,35.624662855996576,36.12701172800007,37.377950741996756,34.017460292998294,34.017460292998294,33.84133991933098,34.017460292998294,34.017460292998294,34.017460292998294,33.84133991933098,34.017460292998294,34.017460292998294,39.41190483999526,34.017460292998294,39.41190483999526,39.10901696899964,41.299305645996355,34.017460292998294,2,1,1.2278235870035132,,reldom2_s041,001,2025-03-20_14h09.36.968,practice_test2_AC,2022.2.5,None,
3,First_Order,1.0,viswhat,stimulus/viswhat_stim/blank_white.png,stimulus/viswhat_stim/blank_white.png,stimulus/viswhat_stim/land_vehicle-vespa.png,stimulus/viswhat_stim/water_vehicle-sailboat.png,stimulus/viswhat_stim/blank_white.png,stimulus/viswhat_stim/type_box.png,stimulus/viswhat_stim/type_yes.png,stimulus/viswhat_stim/type_no.png,None,Type,None,Type,1,0.0,0,5.25,0,5.25,0,5.25,0,0.0,0.75,0,0.0,0,0.0,1,0.5,1,2.125,0,0.0,0,0.0,0,0.0,0,0.0,0,,,,,0,3,3,3,,,,,41.299305645996355,41.299305645996355,41.299305645996355,41.299305645996355,41.299305645996355,41.299305645996355,41.299305645996355,41.299305645996355,40.63161374932873,41.299305645996355,41.299305645996355,41.299305645996355,40.63161374932873,41.299305645996355,41.299305645996355,41.299305645996355,43.07595367599424,47.085601839993615,41.299305645996355,41.299305645996355,47.085601839993615,41.54688059399632,43.07595367599424,43.07595367599424,44.305307032998826,41.299305645996355,41.299305645996355,41.04828041599539,41.299305645996355,41.299305645996355,41.299305645996355,41.04828041599539,41.299305645996355,41.299305645996355,47.085601839993615,41.299305645996355,47.085601839993615,46.25180576599814,48.77205367499846,41.299305645996355,1,1,1.2133339490028447,,reldom2_s041,001,2025-03-20_14h09.36.968,practice_test2_AC,2022.2.5,None,
4,First_Order,1.0,viswhat,stimulus/viswhat_stim/blank_white.png,stimulus/viswhat_stim/blank_white.png,stimulus/viswhat_stim/land_animal-elephant.png,stimulus/viswhat_stim/water_animal-lobster.png,stimulus/viswhat_stim/blank_white.png,stimulus/viswhat_stim/location_box.png,stimulus/viswhat_stim/location_yes.png,stimulus/viswhat_stim/location_no.png,None,Location,None,Type,2,0.0,0,5.25,0,5.25,0,5.25,0,0.0,0.75,0,0.0,0,0.0,1,0.5,1,2.125,0,0.0,0,0.0,0,0.0,0,0.0,0,,,,,0,4,4,4,,,,,48.77205367499846,48.77205367499846,48.77205367499846,48.77205367499846,48.77205367499846,48.77205367499846,48.77205367499846,48.77205367499846,47.66893517332695,48.77205367499846,48.77205367499846,48.77205367499846,47.66893517332695,48.77205367499846,48.77205367499846,48.77205367499846,50.4186402339983,54.27256468300038,48.77205367499846,48.77205367499846,54.78626413299935,48.77205367499846,50.4186402339983,50.4186402339983,52.08270870099659,48.77205367499846,48.77205367499846,48.21893517332695,48.77205367499846,48.77205367499846,48.77205367499846,48.21893517332695,48.77205367499846,48.77205367499846,54.78626413299935,48.77205367499846,54.78626413299935,53.724896637999336,56.26611662099458,48.77205367499846,2,1,0.8876691420082352,,reldom2_s041,001,2025-03-20_14h09.36.968,practice_test2_AC,2022.2.5,None,
0,0.0,None,fixation,stimulus/viswhat_stim/blank_white.png,stimulus/viswhat_stim/blank_white.png,stimulus/audwhat_stim/blank_white.png,stimulus/audwhat_stim/blank_white.png,stimulus/viswhat_stim/blank_white.png,stimulus/viswhat_stim/blank_white.png,stimulus/viswhat_stim/blank_white.png,stimulus/viswhat_stim/blank_white.png,0.0,0.0,0.0,0.0,0,0.0,0,0.0,0,0.0,0,0.0,0,0.0,0.0,0,0.0,0,0.0,0,0.0,0,0.0,0,0.0,0,0.0,0,0.0,0,0.0,6,,,,,0,5,5,5,,,,,56.26611662099458,56.26611662099458,56.26611662099458,56.26611662099458,56.26611662099458,56.26611662099458,56.26611662099458,56.26611662099458,55.91959746633268,56.26611662099458,56.26611662099458,56.26611662099458,55.91959746633268,56.26611662099458,56.26611662099458,56.26611662099458,56.26611662099458,56.26611662099458,56.26611662099458,56.26611662099458,56.26611662099458,56.26611662099458,56.26611662099458,56.26611662099458,56.26611662099458,56.26611662099458,56.26611662099458,56.10293079966601,56.26611662099458,56.26611662099458,56.26611662099458,56.10293079966601,56.26611662099458,56.26611662099458,56.26611662099458,56.26611662099458,56.26611662099458,61.45858306999435,61.45858306999435,62.8507111039944,None,0,,,reldom2_s041,001,2025-03-20_14h09.36.968,practice_test2_AC,2022.2.5,None,
5,Second_Order,1.0,viswhat,stimulus/viswhat_stim/land_animal-giraffe.png,stimulus/viswhat_stim/water_animal-stingray.png,stimulus/viswhat_stim/land_vehicle-trolley.png,stimulus/viswhat_stim/land_animal-elephant.png,stimulus/viswhat_stim/match_blank.png,stimulus/viswhat_stim/match_box.png,stimulus/viswhat_stim/match_yes.png,stimulus/viswhat_stim/match_no.png,2.0,Match,Type,Location,2,5.25,0,5.25,0,5.25,0,5.25,0,0.75,0.75,1,0.5,1,2.125,1,0.5,1,2.125,0,0.0,0,0.0,0,0.0,0,0.0,0,,,,,0,6,6,6,,,,,62.8507111039944,68.10981418399751,63.187848188994394,64.20304217299417,64.80027291099395,65.81589117099793,62.8507111039944,62.8507111039944,62.82393573666147,62.8507111039944,62.8507111039944,62.8507111039944,62.82393573666147,62.8507111039944,68.10981418399751,69.24453624499438,71.27412185299909,75.1530140169998,69.24453624499438,69.24453624499438,74.77927911299776,69.64898802399694,70.85999845100014,71.27412185299909,72.50333839299856,69.24453624499438,69.24453624499438,69.03165158833048,69.24453624499438,69.24453624499438,69.24453624499438,69.03165158833048,69.24453624499438,69.24453624499438,74.77927911299776,69.24453624499438,74.77927911299776,74.38432386499335,75.64910436699574,69.24453624499438,2,1,1.2266855240086443,,reldom2_s041,001,2025-03-20_14h09.36.968,practice_test2_AC,2022.2.5,None,
6,Second_Order,1.0,viswhat,stimulus/viswhat_stim/land_vehicle-scooter.png,stimulus/viswhat_stim/land_animal-moose.png,stimulus/viswhat_stim/water_vehicle-powercruiser.png,stimulus/viswhat_stim/land_vehicle-truck.png,stimulus/viswhat_stim/match_blank.png,stimulus/viswhat_stim/match_box.png,stimulus/viswhat_stim/match_yes.png,stimulus/viswhat_stim/match_no.png,2.0,Match,Location,Type,2,5.25,0,5.25,0,5.25,0,5.25,0,0.75,0.75,1,0.5,1,2.125,1,0.5,1,2.125,0,0.0,0,0.0,0,0.0,0,0.0,0,,,,,0,7,7,7,,,,,75.64910436699574,80.9028795589984,76.00041068800056,77.01818510099838,77.61422387099446,78.6209011999963,75.64910436699574,75.64910436699574,75.63634735033314,75.64910436699574,75.64910436699574,75.64910436699574,75.63634735033314,75.64910436699574,80.9028795589984,81.8333284399996,83.89632459799759,87.75832388199342,81.8333284399996,81.8333284399996,87.20226085999457,82.2424826360002,83.44546271199943,83.89632459799759,85.04856877799466,81.8333284399996,81.8333284399996,81.7327659923297,81.8333284399996,81.8333284399996,81.8333284399996,81.7327659923297,81.8333284399996,81.8333284399996,87.20226085999457,81.8333284399996,87.20226085999457,87.00642590899952,88.35967279099714,81.8333284399996,2,1,1.964485507000063,,reldom2_s041,001,2025-03-20_14h09.36.968,practice_test2_AC,2022.2.5,None,
0,0.0,None,fixation,stimulus/viswhat_stim/blank_white.png,stimulus/viswhat_stim/blank_white.png,stimulus/audwhat_stim/blank_white.png,stimulus/audwhat_stim/blank_white.png,stimulus/viswhat_stim/blank_white.png,stimulus/viswhat_stim/blank_white.png,stimulus/viswhat_stim/blank_white.png,stimulus/viswhat_stim/blank_white.png,0.0,0.0,0.0,0.0,0,0.0,0,0.0,0,0.0,0,0.0,0,0.0,0.0,0,0.0,0,0.0,0,0.0,0,0.0,0,0.0,0,0.0,0,0.0,0,0.0,7,,,,,0,8,8,8,,,,,88.35967279099714,88.35967279099714,88.35967279099714,88.35967279099714,88.35967279099714,88.35967279099714,88.35967279099714,88.35967279099714,88.02499054866009,88.35967279099714,88.35967279099714,88.35967279099714,88.02499054866009,88.35967279099714,88.35967279099714,88.35967279099714,88.35967279099714,88.35967279099714,88.35967279099714,88.35967279099714,88.35967279099714,88.35967279099714,88.35967279099714,88.35967279099714,88.35967279099714,88.35967279099714,88.35967279099714,88.17499054866009,88.35967279099714,88.35967279099714,88.35967279099714,88.17499054866009,88.35967279099714,88.35967279099714,88.35967279099714,88.35967279099714,88.35967279099714,93.50029422299849,93.50029422299849,96.29650263899384,None,0,,,reldom2_s041,001,2025-03-20_14h09.36.968,practice_test2_AC,2022.2.5,None,
7,First_Order,2.0,audwhat,stimulus/audwhat_stim/dummy.wav,stimulus/audwhat_stim/dummy.wav,stimulus/audwhat_stim/percussion xylophone_high-pitch_Ftri_loud.wav,stimulus/audwhat_stim/percussion mallet_low-pitch_F_loud.wav,stimulus/audwhat_stim/blank_white.png,stimulus/audwhat_stim/category_box.png,stimulus/audwhat_stim/category_yes.png,stimulus/audwhat_stim/category_no.png,None,Category,None,Category,1,0.0,0,5.25,0,5.25,0,5.25,0,0.0,0.75,0,0.0,0,0.0,0,0.0,0,0.0,0,0.0,0,0.0,1,0.5,1,2.125,0,,,,,0,9,9,9,,,,,96.29650263899384,96.29650263899384,96.29650263899384,96.29650263899384,96.29650263899384,96.29650263899384,96.29650263899384,96.29650263899384,95.99581545433078,96.29650263899384,96.29650263899384,96.29650263899384,95.99581545433078,96.29650263899384,96.29650263899384,96.29650263899384,98.324528541998,102.11229885099601,96.29650263899384,96.29650263899384,101.81481874000019,96.29650263899384,96.29650263899384,96.29650263899384,96.29650263899384,96.66105218899611,97.94810121699993,96.49540546666346,97.76716750999913,98.324528541998,99.64781784499792,98.15203953666447,,96.29650263899384,101.81481874000019,96.29650263899384,101.81481874000019,101.48213366699929,102.96715668699471,96.29650263899384,1,1,2.1634006700041937,,reldom2_s041,001,2025-03-20_14h09.36.968,practice_test2_AC,2022.2.5,None,
8,First_Order,2.0,audwhat,stimulus/audwhat_stim/dummy.wav,stimulus/audwhat_stim/dummy.wav,stimulus/audwhat_stim/percussion xylophone_high-pitch_F_loud.wav,stimulus/audwhat_stim/percussion mallet_low-pitch_D_loud.wav,stimulus/audwhat_stim/blank_white.png,stimulus/audwhat_stim/pitch_box.png,stimulus/audwhat_stim/pitch_yes.png,stimulus/audwhat_stim/pitch_no.png,None,Pitch,None,Category,2,0.0,0,5.25,0,5.25,0,5.25,0,0.0,0.75,0,0.0,0,0.0,0,0.0,0,0.0,0,0.0,0,0.0,1,0.5,1,2.125,0,,,,,0,10,10,10,,,,,102.96715668699471,102.96715668699471,102.96715668699471,102.96715668699471,102.96715668699471,102.96715668699471,102.96715668699471,102.96715668699471,102.66012863399956,102.96715668699471,102.96715668699471,102.96715668699471,102.66012863399956,102.96715668699471,102.96715668699471,102.96715668699471,104.96059439899545,108.85582306599827,102.96715668699471,102.96715668699471,108.39337599099963,102.96715668699471,102.96715668699471,102.96715668699471,102.96715668699471,103.33478666500014,104.60108240899717,103.17349442866204,104.42142481499468,104.96059439899545,106.23732785500033,104.79715693866116,,102.96715668699471,108.39337599099963,102.96715668699471,108.39337599099963,108.24594769099349,109.72499685699586,102.96715668699471,2,1,1.4805399629985914,,reldom2_s041,001,2025-03-20_14h09.36.968,practice_test2_AC,2022.2.5,None,
9,First_Order,2.0,audwhat,stimulus/audwhat_stim/dummy.wav,stimulus/audwhat_stim/dummy.wav,stimulus/audwhat_stim/percussion mallet_low-pitch_Dtri_loud.wav,stimulus/audwhat_stim/string viola_low-pitch_Dtri_loud.wav,stimulus/audwhat_stim/blank_white.png,stimulus/audwhat_stim/category_box.png,stimulus/audwhat_stim/category_yes.png,stimulus/audwhat_stim/category_no.png,None,Category,None,Pitch,2,0.0,0,5.25,0,5.25,0,5.25,0,0.0,0.75,0,0.0,0,0.0,0,0.0,0,0.0,0,0.0,0,0.0,1,0.5,1,2.125,0,,,,,0,11,11,11,,,,,109.72499685699586,109.72499685699586,109.72499685699586,109.72499685699586,109.72499685699586,109.72499685699586,109.72499685699586,109.72499685699586,109.42231461466388,109.72499685699586,109.72499685699586,109.72499685699586,109.42231461466388,109.72499685699586,109.72499685699586,109.72499685699586,111.74929803399573,115.69463080199785,109.72499685699586,109.72499685699586,115.23401693999767,109.72499685699586,109.72499685699586,109.72499685699586,109.72499685699586,110.12108567399991,111.39168227099435,109.9581366636669,,111.74929803399573,113.03042810899933,111.58619510966334,,109.72499685699586,115.23401693999767,109.72499685699586,115.23401693999767,114.89415862899477,116.43280641599995,109.72499685699586,2,1,1.5017505249998067,,reldom2_s041,001,2025-03-20_14h09.36.968,practice_test2_AC,2022.2.5,None,
10,First_Order,2.0,audwhat,stimulus/audwhat_stim/dummy.wav,stimulus/audwhat_stim/dummy.wav,stimulus/audwhat_stim/percussion mallet_low-pitch_F_loud.wav,stimulus/audwhat_stim/percussion mallet_high-pitch_Ftri_loud.wav,stimulus/audwhat_stim/blank_white.png,stimulus/audwhat_stim/category_box.png,stimulus/audwhat_stim/category_yes.png,stimulus/audwhat_stim/category_no.png,None,Category,None,Category,1,0.0,0,5.25,0,5.25,0,5.25,0,0.0,0.75,0,0.0,0,0.0,0,0.0,0,0.0,0,0.0,0,0.0,1,0.5,1,2.125,0,,,,,0,12,12,12,,,,,116.43280641599995,116.43280641599995,116.43280641599995,116.43280641599995,116.43280641599995,116.43280641599995,116.43280641599995,116.43280641599995,116.12796413533118,116.43280641599995,116.43280641599995,116.43280641599995,116.12796413533118,116.43280641599995,116.43280641599995,116.43280641599995,118.41526872099348,122.33481510599813,116.43280641599995,116.43280641599995,121.888280440995,116.43280641599995,116.43280641599995,116.43280641599995,116.43280641599995,116.79821523399733,118.05948721099412,116.62895623066676,,118.41526872099348,119.72385840700008,118.25359710666477,,116.43280641599995,121.888280440995,116.43280641599995,121.888280440995,121.7328949129951,123.21308651799336,116.43280641599995,1,1,1.4282087870014948,,reldom2_s041,001,2025-03-20_14h09.36.968,practice_test2_AC,2022.2.5,None,
0,0.0,None,fixation,stimulus/viswhat_stim/blank_white.png,stimulus/viswhat_stim/blank_white.png,stimulus/audwhat_stim/blank_white.png,stimulus/audwhat_stim/blank_white.png,stimulus/viswhat_stim/blank_white.png,stimulus/viswhat_stim/blank_white.png,stimulus/viswhat_stim/blank_white.png,stimulus/viswhat_stim/blank_white.png,0.0,0.0,0.0,0.0,0,0.0,0,0.0,0,0.0,0,0.0,0,0.0,0.0,0,0.0,0,0.0,0,0.0,0,0.0,0,0.0,0,0.0,0,0.0,0,0.0,6,,,,,0,13,13,13,,,,,123.21308651799336,123.21308651799336,123.21308651799336,123.21308651799336,123.21308651799336,123.21308651799336,123.21308651799336,123.21308651799336,122.90142119966428,123.21308651799336,123.21308651799336,123.21308651799336,122.90142119966428,123.21308651799336,123.21308651799336,123.21308651799336,123.21308651799336,123.21308651799336,123.21308651799336,123.21308651799336,123.21308651799336,123.21308651799336,123.21308651799336,123.21308651799336,123.21308651799336,123.21308651799336,123.21308651799336,123.03475453299761,123.21308651799336,123.21308651799336,123.21308651799336,123.03475453299761,123.21308651799336,123.21308651799336,123.21308651799336,123.21308651799336,123.21308651799336,128.35698924799362,128.35698924799362,129.9528577319943,None,0,,,reldom2_s041,001,2025-03-20_14h09.36.968,practice_test2_AC,2022.2.5,None,
11,Second_Order,2.0,audwhat,stimulus/audwhat_stim/string cello_low-pitch_D_loud.wav,stimulus/audwhat_stim/string viola_high-pitch_Dtri_loud.wav,stimulus/audwhat_stim/percussion mallet_high-pitch_F_loud.wav,stimulus/audwhat_stim/percussion mallet_low-pitch_Dtri_loud.wav,stimulus/viswhat_stim/match_blank.png,stimulus/viswhat_stim/match_box.png,stimulus/viswhat_stim/match_yes.png,stimulus/viswhat_stim/match_no.png,1.0,Match,Category,Category,1,5.25,0,5.25,0,5.25,0,5.25,0,0.75,0.75,0,0.0,0,0.0,0,0.0,0,0.0,1,0.5,1,2.125,1,0.5,1,2.125,0,,,,,0,14,14,14,,,,,129.9528577319943,135.2111934459972,129.9528577319943,129.9528577319943,129.9528577319943,129.9528577319943,130.30237521799427,131.30314912500035,130.29483218766498,,131.9268799719939,132.93286150799395,131.92243173266277,,135.2111934459972,136.263430428,138.27864201500051,142.22546942799818,136.263430428,136.263430428,141.7742376469978,136.263430428,136.263430428,136.263430428,136.263430428,136.61400536299334,137.91025371699652,136.45749915466538,,138.27864201500051,139.58957912500045,138.10913572766393,,136.263430428,141.7742376469978,136.263430428,141.7742376469978,141.44236053299392,142.62888136499532,136.263430428,1,1,2.1247164809974493,,reldom2_s041,001,2025-03-20_14h09.36.968,practice_test2_AC,2022.2.5,None,
12,Second_Order,2.0,audwhat,stimulus/audwhat_stim/string viola_high-pitch_Dtri_loud.wav,stimulus/audwhat_stim/percussion xylophone_high-pitch_Dtri_loud.wav,stimulus/audwhat_stim/string viola_low-pitch_Ftri_loud.wav,stimulus/audwhat_stim/percussion mallet_low-pitch_Ftri_loud.wav,stimulus/viswhat_stim/match_blank.png,stimulus/viswhat_stim/match_box.png,stimulus/viswhat_stim/match_yes.png,stimulus/viswhat_stim/match_no.png,1.0,Match,Pitch,Pitch,1,5.25,0,5.25,0,5.25,0,5.25,0,0.75,0.75,0,0.0,0,0.0,0,0.0,0,0.0,1,0.5,1,2.125,1,0.5,1,2.125,0,,,,,0,15,15,15,,,,,142.62888136499532,147.8917332669953,142.62888136499532,142.62888136499532,142.62888136499532,142.62888136499532,142.989515741996,144.00337114499416,142.98703994966152,,144.60796746399865,145.61988453499362,144.60720947866164,145.61988453499362,147.8917332669953,148.93499259799864,150.93571622899617,154.8148564389994,148.93499259799864,148.93499259799864,154.36921402099688,148.93499259799864,148.93499259799864,148.93499259799864,148.93499259799864,149.45783278099407,150.753331574997,149.2976132046645,,150.93571622899617,152.21611241799837,150.76999824166367,,148.93499259799864,154.36921402099688,148.93499259799864,154.36921402099688,154.22049191599945,155.6903397049973,148.93499259799864,1,1,1.708230469004775,,reldom2_s041,001,2025-03-20_14h09.36.968,practice_test2_AC,2022.2.5,None,
0,0.0,None,fixation,stimulus/viswhat_stim/blank_white.png,stimulus/viswhat_stim/blank_white.png,stimulus/audwhat_stim/blank_white.png,stimulus/audwhat_stim/blank_white.png,stimulus/viswhat_stim/blank_white.png,stimulus/viswhat_stim/blank_white.png,stimulus/viswhat_stim/blank_white.png,stimulus/viswhat_stim/blank_white.png,0.0,0.0,0.0,0.0,0,0.0,0,0.0,0,0.0,0,0.0,0,0.0,0.0,0,0.0,0,0.0,0,0.0,0,0.0,0,0.0,0,0.0,0,0.0,0,0.0,6,,,,,0,16,16,16,,,,,155.6903397049973,155.6903397049973,155.6903397049973,155.6903397049973,155.6903397049973,155.6903397049973,155.6903397049973,155.6903397049973,155.37862822866254,155.6903397049973,155.6903397049973,155.6903397049973,155.37862822866254,155.6903397049973,155.6903397049973,155.6903397049973,155.6903397049973,155.6903397049973,155.6903397049973,155.6903397049973,155.6903397049973,155.6903397049973,155.6903397049973,155.6903397049973,155.6903397049973,155.6903397049973,155.6903397049973,155.52862822866254,155.6903397049973,155.6903397049973,155.6903397049973,155.52862822866254,155.6903397049973,155.6903397049973,155.6903397049973,155.6903397049973,155.6903397049973,160.83754371399846,160.83754371399846,162.5329216569953,None,0,,,reldom2_s041,001,2025-03-20_14h09.36.968,practice_test2_AC,2022.2.5,None,
13,First_Order,3.0,audwhere,stimulus/audwhere_stim/dummy.wav,stimulus/audwhere_stim/dummy.wav,stimulus/audwhere_stim/left_toward_270h.wav,stimulus/audwhere_stim/right_toward_270h.wav,stimulus/audwhere_stim/blank_white.png,stimulus/audwhere_stim/direction_box.png,stimulus/audwhere_stim/direction_yes.png,stimulus/audwhere_stim/direction_no.png,None,Direction,None,Direction,1,0.0,0,5.25,0,5.25,0,5.25,0,0.0,0.75,0,0.0,0,0.0,0,0.0,0,0.0,0,0.0,0,0.0,1,0.5,1,2.125,0,,,,,0,17,17,17,,,,,162.5329216569953,162.5329216569953,162.5329216569953,162.5329216569953,162.5329216569953,162.5329216569953,162.5329216569953,162.5329216569953,162.23254182133292,162.5329216569953,162.5329216569953,162.5329216569953,162.23254182133292,162.5329216569953,162.5329216569953,162.5329216569953,164.6696772199939,168.39166248299443,162.5329216569953,162.5329216569953,167.94162118499662,162.5329216569953,162.5329216569953,162.5329216569953,162.5329216569953,162.8932192689972,164.1279773589995,162.72909189666487,,164.6696772199939,165.95317244299804,164.50640849666186,,162.5329216569953,167.94162118499662,162.5329216569953,167.94162118499662,167.79402496399416,169.25325359499402,162.5329216569953,1,1,2.2971052900029463,,reldom2_s041,001,2025-03-20_14h09.36.968,practice_test2_AC,2022.2.5,None,
14,First_Order,3.0,audwhere,stimulus/audwhere_stim/dummy.wav,stimulus/audwhere_stim/dummy.wav,stimulus/audwhere_stim/right_away_280h.wav,stimulus/audwhere_stim/right_toward_290h.wav,stimulus/audwhere_stim/blank_white.png,stimulus/audwhere_stim/side_box.png,stimulus/audwhere_stim/side_yes.png,stimulus/audwhere_stim/side_no.png,None,Side,None,Side,1,0.0,0,5.25,0,5.25,0,5.25,0,0.0,0.75,0,0.0,0,0.0,0,0.0,0,0.0,0,0.0,0,0.0,1,0.5,1,2.125,0,,,,,0,18,18,18,,,,,169.25325359499402,169.25325359499402,169.25325359499402,169.25325359499402,169.25325359499402,169.25325359499402,169.25325359499402,169.25325359499402,168.94100256499806,169.25325359499402,169.25325359499402,169.25325359499402,168.94100256499806,169.25325359499402,169.25325359499402,169.25325359499402,171.2786923169988,175.10322961399652,169.25325359499402,169.25325359499402,174.6550145999936,169.25325359499402,169.25325359499402,169.25325359499402,169.25325359499402,169.6203645219939,170.91338869399624,169.45251381866208,,171.2786923169988,172.64541887299856,171.11193355566164,,169.25325359499402,174.6550145999936,169.25325359499402,174.6550145999936,174.5076444169972,175.95847550699546,169.25325359499402,1,1,1.6865887050007586,,reldom2_s041,001,2025-03-20_14h09.36.968,practice_test2_AC,2022.2.5,None,
15,First_Order,3.0,audwhere,stimulus/audwhere_stim/dummy.wav,stimulus/audwhere_stim/dummy.wav,stimulus/audwhere_stim/right_away_270h.wav,stimulus/audwhere_stim/right_toward_300h.wav,stimulus/audwhere_stim/blank_white.png,stimulus/audwhere_stim/side_box.png,stimulus/audwhere_stim/side_yes.png,stimulus/audwhere_stim/side_no.png,None,Side,None,Side,1,0.0,0,5.25,0,5.25,0,5.25,0,0.0,0.75,0,0.0,0,0.0,0,0.0,0,0.0,0,0.0,0,0.0,1,0.5,1,2.125,0,,,,,0,19,19,19,,,,,175.95847550699546,175.95847550699546,175.95847550699546,175.95847550699546,175.95847550699546,175.95847550699546,175.95847550699546,175.95847550699546,175.65325501099724,175.95847550699546,175.95847550699546,175.95847550699546,175.65325501099724,175.95847550699546,175.95847550699546,175.95847550699546,178.01092531699396,181.87965357199573,175.95847550699546,175.95847550699546,181.58242638299998,175.95847550699546,175.95847550699546,175.95847550699546,175.95847550699546,176.32623073399736,177.63915176499722,176.15850360366701,,178.01092531699396,179.2826375509976,177.8360494026604,,175.95847550699546,181.58242638299998,175.95847550699546,181.58242638299998,181.12856857999577,182.59906785299972,175.95847550699546,1,1,1.6062564980020397,,reldom2_s041,001,2025-03-20_14h09.36.968,practice_test2_AC,2022.2.5,None,
16,First_Order,3.0,audwhere,stimulus/audwhere_stim/dummy.wav,stimulus/audwhere_stim/dummy.wav,stimulus/audwhere_stim/right_toward_300h.wav,stimulus/audwhere_stim/right_away_290h.wav,stimulus/audwhere_stim/blank_white.png,stimulus/audwhere_stim/direction_box.png,stimulus/audwhere_stim/direction_yes.png,stimulus/audwhere_stim/direction_no.png,None,Direction,None,Side,2,0.0,0,5.25,0,5.25,0,5.25,0,0.0,0.75,0,0.0,0,0.0,0,0.0,0,0.0,0,0.0,0,0.0,1,0.5,1,2.125,0,,,,,0,20,20,20,,,,,182.59906785299972,182.59906785299972,182.59906785299972,182.59906785299972,182.59906785299972,182.59906785299972,182.59906785299972,182.59906785299972,182.29632023866242,182.59906785299972,182.59906785299972,182.59906785299972,182.29632023866242,182.59906785299972,182.59906785299972,182.59906785299972,184.62892804799776,188.54595845899894,182.59906785299972,182.59906785299972,188.09602900099708,182.59906785299972,182.59906785299972,182.59906785299972,182.59906785299972,182.96570598799735,184.25688149099733,182.79840388566325,,184.62892804799776,185.92594487299357,184.46176963166025,,182.59906785299972,188.09602900099708,182.59906785299972,188.09602900099708,187.76017322999542,189.27258634299506,182.59906785299972,2,1,1.5832522710043122,,reldom2_s041,001,2025-03-20_14h09.36.968,practice_test2_AC,2022.2.5,None,
0,0.0,None,fixation,stimulus/viswhere_stim/blank_white.png,stimulus/viswhere_stim/blank_white.png,stimulus/audwhere_stim/blank_white.png,stimulus/audwhere_stim/blank_white.png,stimulus/viswhere_stim/blank_white.png,stimulus/viswhere_stim/blank_white.png,stimulus/viswhat_stim/blank_white.png,stimulus/viswhat_stim/blank_white.png,0.0,0.0,0.0,0.0,0,0.0,0,0.0,0,0.0,0,0.0,0,0.0,0.0,0,0.0,0,0.0,0,0.0,0,0.0,0,0.0,0,0.0,0,0.0,0,0.0,5,,,,,0,21,21,21,,,,,189.27258634299506,189.27258634299506,189.27258634299506,189.27258634299506,189.27258634299506,189.27258634299506,189.27258634299506,189.27258634299506,188.96262512566562,189.27258634299506,189.27258634299506,189.27258634299506,188.96262512566562,189.27258634299506,189.27258634299506,189.27258634299506,189.27258634299506,189.27258634299506,189.27258634299506,189.27258634299506,189.27258634299506,189.27258634299506,189.27258634299506,189.27258634299506,189.27258634299506,189.27258634299506,189.27258634299506,189.11262512566563,189.27258634299506,189.27258634299506,189.27258634299506,189.11262512566563,189.27258634299506,189.27258634299506,189.27258634299506,189.27258634299506,189.27258634299506,194.41813112199452,194.41813112199452,194.8950589369997,None,0,,,reldom2_s041,001,2025-03-20_14h09.36.968,practice_test2_AC,2022.2.5,None,
17,Second_Order,3.0,audwhere,stimulus/audwhere_stim/right_toward_270h.wav,stimulus/audwhere_stim/left_toward_290h.wav,stimulus/audwhere_stim/left_away_270h.wav,stimulus/audwhere_stim/left_toward_290h.wav,stimulus/viswhat_stim/match_blank.png,stimulus/viswhat_stim/match_box.png,stimulus/viswhat_stim/match_yes.png,stimulus/viswhat_stim/match_no.png,2.0,Match,Direction,Side,2,5.25,0,5.25,0,5.25,0,5.25,0,0.75,0.75,0,0.0,0,0.0,0,0.0,0,0.0,1,0.5,1,2.125,1,0.5,1,2.125,0,,,,,0,22,22,22,,,,,194.8950589369997,200.14921919399785,194.8950589369997,194.8950589369997,194.8950589369997,194.8950589369997,195.25625837199914,196.2690741749975,195.25504292166104,,196.87043273699965,197.88368218999676,196.86625219566147,,200.14921919399785,201.1894161579985,203.19563734399708,207.0717506189976,201.1894161579985,201.1894161579985,206.7025621109933,201.1894161579985,201.1894161579985,201.1894161579985,201.1894161579985,201.71358503699594,203.00773878699692,201.55443368566583,,203.19563734399708,204.48052566899423,203.0244054536636,,201.1894161579985,206.7025621109933,201.1894161579985,206.7025621109933,206.32110774499597,207.48026103399752,201.1894161579985,2,1,1.8966098340024473,,reldom2_s041,001,2025-03-20_14h09.36.968,practice_test2_AC,2022.2.5,None,
18,Second_Order,3.0,audwhere,stimulus/audwhere_stim/left_toward_270h.wav,stimulus/audwhere_stim/right_toward_300h.wav,stimulus/audwhere_stim/right_toward_300h.wav,stimulus/audwhere_stim/right_away_270h.wav,stimulus/viswhat_stim/match_blank.png,stimulus/viswhat_stim/match_box.png,stimulus/viswhat_stim/match_yes.png,stimulus/viswhat_stim/match_no.png,2.0,Match,Direction,Side,2,5.25,0,5.25,0,5.25,0,5.25,0,0.75,0.75,0,0.0,0,0.0,0,0.0,0,0.0,1,0.5,1,2.125,1,0.5,1,2.125,0,,,,,0,23,23,23,,,,,207.48026103399752,212.73174166999524,207.48026103399752,207.48026103399752,207.48026103399752,207.48026103399752,207.8544774740003,208.85884961899865,207.85243556566664,,209.47060933499597,210.47667968499445,209.46580131966428,,212.73174166999524,213.80732816999807,215.94255782199616,219.6424150649982,213.80732816999807,213.80732816999807,219.19675522899342,213.80732816999807,213.80732816999807,213.80732816999807,213.80732816999807,214.17800819099648,215.54049774099985,214.0113487626625,,215.94255782199616,217.13694576099806,215.75527289866685,,213.80732816999807,219.19675522899342,213.80732816999807,219.19675522899342,219.04993878999812,220.5242757429951,213.80732816999807,2,1,1.9362995170013164,,reldom2_s041,001,2025-03-20_14h09.36.968,practice_test2_AC,2022.2.5,None,
0,0.0,None,fixation,stimulus/viswhere_stim/blank_white.png,stimulus/viswhere_stim/blank_white.png,stimulus/audwhere_stim/blank_white.png,stimulus/audwhere_stim/blank_white.png,stimulus/viswhere_stim/blank_white.png,stimulus/viswhere_stim/blank_white.png,stimulus/viswhat_stim/blank_white.png,stimulus/viswhat_stim/blank_white.png,0.0,0.0,0.0,0.0,0,0.0,0,0.0,0,0.0,0,0.0,0,0.0,0.0,0,0.0,0,0.0,0,0.0,0,0.0,0,0.0,0,0.0,0,0.0,0,0.0,5,,,,,0,24,24,24,,,,,220.5242757429951,220.5242757429951,220.5242757429951,220.5242757429951,220.5242757429951,220.5242757429951,220.5242757429951,220.5242757429951,220.20684570966358,220.5242757429951,220.5242757429951,220.5242757429951,220.20684570966358,220.5242757429951,220.5242757429951,220.5242757429951,220.5242757429951,220.5242757429951,220.5242757429951,220.5242757429951,220.5242757429951,220.5242757429951,220.5242757429951,220.5242757429951,220.5242757429951,220.5242757429951,220.5242757429951,220.3568457096636,220.5242757429951,220.5242757429951,220.5242757429951,220.3568457096636,220.5242757429951,220.5242757429951,220.5242757429951,220.5242757429951,220.5242757429951,226.169297937995,226.169297937995,226.169297937995,None,0,,,reldom2_s041,001,2025-03-20_14h09.36.968,practice_test2_AC,2022.2.5,None,
19,First_Order,4.0,viswhere,stimulus/viswhere_stim/blank_white.png,stimulus/viswhere_stim/blank_white.png,stimulus/viswhere_stim/90-deg_dot-right_peru.png,stimulus/viswhere_stim/120-deg_dot-right_slateblue.png,stimulus/viswhere_stim/blank_white.png,stimulus/viswhere_stim/dot_box.png,stimulus/viswhere_stim/dot_yes.png,stimulus/viswhere_stim/dot_no.png,None,Dot,None,Dot,1,0.0,0,5.25,0,5.25,0,5.25,0,0.0,0.75,0,0.0,0,0.0,1,0.5,1,2.125,0,0.0,0,0.0,0,0.0,0,0.0,0,,,,,0,25,25,25,,,,,226.169297937995,226.169297937995,226.169297937995,226.169297937995,226.169297937995,226.169297937995,226.169297937995,226.169297937995,226.02064852566352,226.169297937995,226.169297937995,226.169297937995,226.02064852566352,226.169297937995,226.169297937995,226.169297937995,228.3134697849964,232.11051439999574,226.169297937995,226.169297937995,231.5627310629934,226.65500378999423,227.82833706099336,228.3134697849964,229.48478540799988,226.169297937995,226.169297937995,226.07064852566353,226.169297937995,226.169297937995,226.169297937995,226.07064852566353,226.169297937995,226.169297937995,231.5627310629934,226.169297937995,231.5627310629934,231.35535945699667,232.4831453939987,226.169297937995,1,1,1.3743442070044694,,reldom2_s041,001,2025-03-20_14h09.36.968,practice_test2_AC,2022.2.5,None,
20,First_Order,4.0,viswhere,stimulus/viswhere_stim/blank_white.png,stimulus/viswhere_stim/blank_white.png,stimulus/viswhere_stim/30-deg_dot-right_turquoise.png,stimulus/viswhere_stim/60-deg_dot-right_seagreen.png,stimulus/viswhere_stim/blank_white.png,stimulus/viswhere_stim/line_box.png,stimulus/viswhere_stim/line_yes.png,stimulus/viswhere_stim/line_no.png,None,Line,None,Dot,2,0.0,0,5.25,0,5.25,0,5.25,0,0.0,0.75,0,0.0,0,0.0,1,0.5,1,2.125,0,0.0,0,0.0,0,0.0,0,0.0,0,,,,,0,26,26,26,,,,,232.4831453939987,232.4831453939987,232.4831453939987,232.4831453939987,232.4831453939987,232.4831453939987,232.4831453939987,232.4831453939987,232.34384773332908,232.4831453939987,232.4831453939987,232.4831453939987,232.34384773332908,232.4831453939987,232.4831453939987,232.4831453939987,234.64621092099696,238.4371504439987,232.4831453939987,232.4831453939987,237.86066040799778,232.97757585999352,234.05993925799703,234.64621092099696,235.73422779099928,232.4831453939987,232.4831453939987,232.3938477333291,232.4831453939987,232.4831453939987,232.4831453939987,232.3938477333291,232.4831453939987,232.4831453939987,237.86066040799778,232.4831453939987,237.86066040799778,237.69568657299533,238.79996419599775,232.4831453939987,2,1,0.8175855590015999,,reldom2_s041,001,2025-03-20_14h09.36.968,practice_test2_AC,2022.2.5,None,
21,First_Order,4.0,viswhere,stimulus/viswhere_stim/blank_white.png,stimulus/viswhere_stim/blank_white.png,stimulus/viswhere_stim/120-deg_dot-left_goldenrod.png,stimulus/viswhere_stim/90-deg_dot-left_seagreen.png,stimulus/viswhere_stim/blank_white.png,stimulus/viswhere_stim/line_box.png,stimulus/viswhere_stim/line_yes.png,stimulus/viswhere_stim/line_no.png,None,Line,None,Dot,2,0.0,0,5.25,0,5.25,0,5.25,0,0.0,0.75,0,0.0,0,0.0,1,0.5,1,2.125,0,0.0,0,0.0,0,0.0,0,0.0,0,,,,,0,27,27,27,,,,,238.79996419599775,238.79996419599775,238.79996419599775,238.79996419599775,238.79996419599775,238.79996419599775,238.79996419599775,238.79996419599775,238.67048377733204,238.79996419599775,238.79996419599775,238.79996419599775,238.67048377733204,238.79996419599775,238.79996419599775,238.79996419599775,240.95214557699364,244.74866355599806,238.79996419599775,238.79996419599775,244.11319893600012,239.2922292919975,240.37189399999625,240.95214557699364,242.09371127899794,238.79996419599775,238.79996419599775,238.70381711066537,238.79996419599775,238.79996419599775,238.79996419599775,238.70381711066537,238.79996419599775,238.79996419599775,244.11319893600012,238.79996419599775,244.11319893600012,244.04984555699775,245.17701622099412,238.79996419599775,2,1,0.9099358990060864,,reldom2_s041,001,2025-03-20_14h09.36.968,practice_test2_AC,2022.2.5,None,
22,First_Order,4.0,viswhere,stimulus/viswhere_stim/blank_white.png,stimulus/viswhere_stim/blank_white.png,stimulus/viswhere_stim/150-deg_dot-right_royalblue.png,stimulus/viswhere_stim/150-deg_dot-left_slateblue.png,stimulus/viswhere_stim/blank_white.png,stimulus/viswhere_stim/dot_box.png,stimulus/viswhere_stim/dot_yes.png,stimulus/viswhere_stim/dot_no.png,None,Dot,None,Line,2,0.0,0,5.25,0,5.25,0,5.25,0,0.0,0.75,0,0.0,0,0.0,1,0.5,1,2.125,0,0.0,0,0.0,0,0.0,0,0.0,0,,,,,0,28,28,28,,,,,245.17701622099412,245.17701622099412,245.17701622099412,245.17701622099412,245.17701622099412,245.17701622099412,245.17701622099412,245.17701622099412,245.04570910532834,245.17701622099412,245.17701622099412,245.17701622099412,245.04570910532834,245.17701622099412,245.17701622099412,245.17701622099412,247.32482617599453,251.11997768499714,245.17701622099412,245.17701622099412,250.47945712199726,245.66220999499637,246.83800818299642,247.32482617599453,248.41164360699622,245.17701622099412,245.17701622099412,245.09570910532835,245.17701622099412,245.17701622099412,245.17701622099412,245.09570910532835,245.17701622099412,245.17701622099412,250.47945712199726,245.17701622099412,250.47945712199726,250.4133399239945,251.73891097799788,245.17701622099412,2,1,1.2501082610033336,,reldom2_s041,001,2025-03-20_14h09.36.968,practice_test2_AC,2022.2.5,None,
0,0.0,None,fixation,stimulus/viswhere_stim/blank_white.png,stimulus/viswhere_stim/blank_white.png,stimulus/audwhere_stim/blank_white.png,stimulus/audwhere_stim/blank_white.png,stimulus/viswhere_stim/blank_white.png,stimulus/viswhere_stim/blank_white.png,stimulus/viswhat_stim/blank_white.png,stimulus/viswhat_stim/blank_white.png,0.0,0.0,0.0,0.0,0,0.0,0,0.0,0,0.0,0,0.0,0,0.0,0.0,0,0.0,0,0.0,0,0.0,0,0.0,0,0.0,0,0.0,0,0.0,0,0.0,5,,,,,0,29,29,29,,,,,251.73891097799788,251.73891097799788,251.73891097799788,251.73891097799788,251.73891097799788,251.73891097799788,251.73891097799788,251.73891097799788,251.4166553293287,251.73891097799788,251.73891097799788,251.73891097799788,251.4166553293287,251.73891097799788,251.73891097799788,251.73891097799788,251.73891097799788,251.73891097799788,251.73891097799788,251.73891097799788,251.73891097799788,251.73891097799788,251.73891097799788,251.73891097799788,251.73891097799788,251.73891097799788,251.73891097799788,251.5666553293287,251.73891097799788,251.73891097799788,251.73891097799788,251.5666553293287,251.73891097799788,251.73891097799788,251.73891097799788,251.73891097799788,251.73891097799788,256.8908118959953,256.8908118959953,257.2920837959973,None,0,,,reldom2_s041,001,2025-03-20_14h09.36.968,practice_test2_AC,2022.2.5,None,
23,Second_Order,4.0,viswhere,stimulus/viswhere_stim/150-deg_dot-right_slateblue.png,stimulus/viswhere_stim/150-deg_dot-left_turquoise.png,stimulus/viswhere_stim/90-deg_dot-left_mediumslateblue.png,stimulus/viswhere_stim/90-deg_dot-right_peru.png,stimulus/viswhat_stim/match_blank.png,stimulus/viswhat_stim/match_box.png,stimulus/viswhat_stim/match_yes.png,stimulus/viswhat_stim/match_no.png,1.0,Match,Line,Line,1,5.25,0,5.25,0,5.25,0,5.25,0,0.75,0.75,1,0.5,1,2.125,1,0.5,1,2.125,0,0.0,0,0.0,0,0.0,0,0.0,0,,,,,0,30,30,30,,,,,257.2920837959973,262.5514167509973,257.7133719969934,258.72577663699485,259.33582142099476,260.3688705309978,257.2920837959973,257.2920837959973,257.2741452293286,257.2920837959973,257.2920837959973,257.2920837959973,257.2741452293286,257.2920837959973,262.5514167509973,263.4385998889993,265.57412262499565,269.40647394199914,263.4385998889993,263.4385998889993,268.74371151599917,263.95284299599734,265.03123177999805,265.57412262499565,266.67398485199374,263.4385998889993,263.4385998889993,263.34704372299603,263.4385998889993,263.4385998889993,263.4385998889993,263.34704372299603,263.4385998889993,263.4385998889993,268.74371151599917,263.4385998889993,268.74371151599917,268.6829012819944,269.6638955679955,263.4385998889993,1,1,1.541451554003288,,reldom2_s041,001,2025-03-20_14h09.36.968,practice_test2_AC,2022.2.5,None,
24,Second_Order,4.0,viswhere,stimulus/viswhere_stim/150-deg_dot-right_mediumslateblue.png,stimulus/viswhere_stim/30-deg_dot-right_salmon.png,stimulus/viswhere_stim/120-deg_dot-right_royalblue.png,stimulus/viswhere_stim/120-deg_dot-left_salmon.png,stimulus/viswhat_stim/match_blank.png,stimulus/viswhat_stim/match_box.png,stimulus/viswhat_stim/match_yes.png,stimulus/viswhat_stim/match_no.png,2.0,Match,Dot,Line,2,5.25,0,5.25,0,5.25,0,5.25,0,0.75,0.75,1,0.5,1,2.125,1,0.5,1,2.125,0,0.0,0,0.0,0,0.0,0,0.0,0,,,,,0,31,31,31,,,,,269.6638955679955,274.9301651409987,270.1072906029949,271.1187253099997,271.72231952799484,272.7355075969972,269.6638955679955,269.6638955679955,269.6471305866604,269.6638955679955,269.6638955679955,269.6638955679955,269.6471305866604,269.6638955679955,274.9301651409987,275.8029084509981,277.9381504579942,281.7465541019992,275.8029084509981,275.8029084509981,281.11469917299837,276.31920701099443,277.3957983379951,277.9381504579942,279.04548007300036,275.8029084509981,275.8029084509981,275.7246606939996,275.8029084509981,275.8029084509981,275.8029084509981,275.7246606939996,275.8029084509981,275.8029084509981,281.11469917299837,275.8029084509981,281.11469917299837,281.0558134029998,282.3798727579997,275.8029084509981,2,1,1.4202735880026012,,reldom2_s041,001,2025-03-20_14h09.36.968,practice_test2_AC,2022.2.5,None,
0,0.0,None,fixation,stimulus/viswhere_stim/blank_white.png,stimulus/viswhere_stim/blank_white.png,stimulus/audwhere_stim/blank_white.png,stimulus/audwhere_stim/blank_white.png,stimulus/viswhere_stim/blank_white.png,stimulus/viswhere_stim/blank_white.png,stimulus/viswhat_stim/blank_white.png,stimulus/viswhat_stim/blank_white.png,0.0,0.0,0.0,0.0,0,0.0,0,0.0,0,0.0,0,0.0,0,0.0,0.0,0,0.0,0,0.0,0,0.0,0,0.0,0,0.0,0,0.0,0,0.0,0,0.0,7,,,,,0,32,32,32,,,,,282.3798727579997,282.3798727579997,282.3798727579997,282.3798727579997,282.3798727579997,282.3798727579997,282.3798727579997,282.3798727579997,282.0439804013328,282.3798727579997,282.3798727579997,282.3798727579997,282.0439804013328,282.3798727579997,282.3798727579997,282.3798727579997,282.3798727579997,282.3798727579997,282.3798727579997,282.3798727579997,282.3798727579997,282.3798727579997,282.3798727579997,282.3798727579997,282.3798727579997,282.3798727579997,282.3798727579997,282.2106470679995,282.3798727579997,282.3798727579997,282.3798727579997,282.2106470679995,282.3798727579997,282.3798727579997,282.3798727579997,282.3798727579997,282.3798727579997,287.46431276999647,287.46431276999647,289.9122598969989,None,0,,,reldom2_s041,001,2025-03-20_14h09.36.968,practice_test2_AC,2022.2.5,None,
,,,,,,,,,,,,,,,,,,,,,,,,,,,,,,,,,,,,,,,,,,,,,,,,,,,,,,,,,,,,,,,,,,,,,,,,,,,,,,,,,,,,,,,,,,,,,,,,,,,289.9122598969989,,,,,,,
