Trial,Word1,Word2,Relation,Key,trials.thisRepN,trials.thisTrialN,trials.thisN,trials.thisIndex,text_ready.started,key_resp_ready.started,key_resp_ready.keys,key_resp_ready.corr,key_resp_ready.rt,text_readyX.started,key_press.started,word1.started,word2.started,fixation.started,word1.stopped,word2.stopped,key_press.stopped,fixation.stopped,key_press.keys,key_press.corr,key_press.rt,text.started,key_resp_rest.started,key_resp_rest.keys,key_resp_rest.corr,post_rest_fixation.started,key_resp_rest.rt,participant,session,date,expName,psychopyVersion,frameRate,
,,,,,,,,,15.49124009800289,15.49124009800289,space,0,2.8598150209945743,,,,,,,,,,,,,,,,,,,reldom2_s041,001,2025-03-20_13h36.48.689,Implicit_Encoding-B,2022.2.5,None,
1,cockpit,pilot,place:thing,1,0,0,0,0,,,,,,18.40084746300272,23.43495934400562,23.43495934400562,23.43495934400562,25.890682747005485,25.948353760999453,25.948353760999453,27.402071385004092,27.402071385004092,1,1,1.2046092270029476,27.402071385004092,27.402071385004092,None,0,27.402071385004092,,reldom2_s041,001,2025-03-20_13h36.48.689,Implicit_Encoding-B,2022.2.5,None,
2,factory,machine,place:thing,1,0,1,1,1,,,,,,,27.402071385004092,27.402071385004092,27.402071385004092,29.89702730800491,29.914650748003623,29.914650748003623,31.387880929003586,31.410389276003116,1,1,0.9004755569985718,31.410389276003116,31.410389276003116,None,0,31.410389276003116,,reldom2_s041,001,2025-03-20_13h36.48.689,Implicit_Encoding-B,2022.2.5,None,
3,athlete,sprinter,category:exemplar,1,0,2,2,2,,,,,,,31.410389276003116,31.410389276003116,31.410389276003116,33.90585065500636,33.93160049400467,33.93160049400467,35.396332765005354,35.41989342900342,1,1,1.8559330799980671,35.41989342900342,35.41989342900342,None,0,35.41989342900342,,reldom2_s041,001,2025-03-20_13h36.48.689,Implicit_Encoding-B,2022.2.5,None,
4,coffee,latte,category:exemplar,1,0,3,3,3,,,,,,,35.41989342900342,35.41989342900342,35.41989342900342,37.90655150300154,37.91995387600036,37.91995387600036,39.41826294200291,39.41826294200291,1,1,1.063832805994025,39.41826294200291,39.41826294200291,None,0,39.41826294200291,,reldom2_s041,001,2025-03-20_13h36.48.689,Implicit_Encoding-B,2022.2.5,None,
5,sink,bathroom,part:whole,1,0,4,4,4,,,,,,,39.41826294200291,39.41826294200291,39.41826294200291,41.914744800000335,41.92702405000455,41.92702405000455,43.40917059200001,43.432759369999985,1,1,1.1779242120028357,43.432759369999985,43.432759369999985,None,0,43.432759369999985,,reldom2_s041,001,2025-03-20_13h36.48.689,Implicit_Encoding-B,2022.2.5,None,
6,office,beak,catch,2,0,5,5,5,,,,,,,43.432759369999985,43.432759369999985,43.432759369999985,45.9208713850021,45.93540618500265,45.93540618500265,47.41535979100445,47.43692085100338,2,1,1.1842271759960568,47.43692085100338,47.43692085100338,None,0,47.43692085100338,,reldom2_s041,001,2025-03-20_13h36.48.689,Implicit_Encoding-B,2022.2.5,None,
7,shed,tool,place:thing,1,0,6,6,6,,,,,,,47.43692085100338,47.43692085100338,47.43692085100338,49.93226272100583,49.94324967300054,49.94324967300054,51.43176691300323,51.455065358000866,1,1,1.0701667899993481,51.455065358000866,51.455065358000866,None,0,51.455065358000866,,reldom2_s041,001,2025-03-20_13h36.48.689,Implicit_Encoding-B,2022.2.5,None,
8,employee,pest,catch,2,0,7,7,7,,,,,,,51.455065358000866,51.455065358000866,51.455065358000866,53.942424996006594,53.95631778300594,53.95631778300594,55.48147695700027,55.48147695700027,2,1,1.230845664998924,55.48147695700027,55.48147695700027,None,0,55.48147695700027,,reldom2_s041,001,2025-03-20_13h36.48.689,Implicit_Encoding-B,2022.2.5,None,
9,concert,instrument,place:thing,1,0,8,8,8,,,,,,,55.48147695700027,55.48147695700027,55.48147695700027,57.952787155001715,57.99467838500277,57.99467838500277,59.44958847200178,59.47630209500494,1,1,1.246442774994648,59.47630209500494,59.47630209500494,None,0,59.47630209500494,,reldom2_s041,001,2025-03-20_13h36.48.689,Implicit_Encoding-B,2022.2.5,None,
10,hive,bee,place:thing,1,0,9,9,9,,,,,,,59.47630209500494,59.47630209500494,59.47630209500494,61.971076775000256,61.98694922499999,61.98694922499999,63.471706765005365,63.49687522300519,1,1,0.9202422040034435,63.49687522300519,63.49687522300519,None,0,63.49687522300519,,reldom2_s041,001,2025-03-20_13h36.48.689,Implicit_Encoding-B,2022.2.5,None,
11,cartilage,ear,part:whole,1,0,10,10,10,,,,,,,63.49687522300519,63.49687522300519,63.49687522300519,65.98734270500427,66.01338510100322,66.01338510100322,67.47806352000043,67.50260970800446,1,1,1.3737721749930643,67.50260970800446,67.50260970800446,None,0,67.50260970800446,,reldom2_s041,001,2025-03-20_13h36.48.689,Implicit_Encoding-B,2022.2.5,None,
12,whiskers,cat,part:whole,1,0,11,11,11,,,,,,,67.50260970800446,67.50260970800446,67.50260970800446,69.99855791600567,70.01364740800636,70.01364740800636,71.49245933600469,71.53830630000448,1,1,0.8808243789972039,71.53830630000448,71.53830630000448,None,0,71.53830630000448,,reldom2_s041,001,2025-03-20_13h36.48.689,Implicit_Encoding-B,2022.2.5,None,
13,wall,foot,catch,2,0,12,12,12,,,,,,,71.53830630000448,71.53830630000448,71.53830630000448,74.01510115900601,74.04791050200583,74.04791050200583,75.50922295900091,75.53496496400476,2,1,1.1772057540001697,75.53496496400476,75.53496496400476,None,0,75.53496496400476,,reldom2_s041,001,2025-03-20_13h36.48.689,Implicit_Encoding-B,2022.2.5,None,
14,pigment,orange,category:exemplar,1,0,13,13,13,,,,,,,75.53496496400476,75.53496496400476,75.53496496400476,78.0238194160047,78.03887657700398,78.03887657700398,79.52091794500302,79.54606448300183,1,1,1.4676662649944774,79.54606448300183,79.54606448300183,None,0,79.54606448300183,,reldom2_s041,001,2025-03-20_13h36.48.689,Implicit_Encoding-B,2022.2.5,None,
15,road,driver,place:thing,1,0,14,14,14,,,,,,,79.54606448300183,79.54606448300183,79.54606448300183,82.03379909000068,82.05514806900464,82.05514806900464,83.55142655500094,83.55142655500094,1,1,1.0149737279934925,83.55142655500094,83.55142655500094,None,0,83.55142655500094,,reldom2_s041,001,2025-03-20_13h36.48.689,Implicit_Encoding-B,2022.2.5,None,
16,pool,swimmer,place:thing,1,0,15,15,15,,,,,,,83.55142655500094,83.55142655500094,83.55142655500094,86.03229927700158,86.06651591300033,86.06651591300033,87.55274079600349,87.55274079600349,1,1,1.2545913589929114,87.55274079600349,87.55274079600349,None,0,87.55274079600349,,reldom2_s041,001,2025-03-20_13h36.48.689,Implicit_Encoding-B,2022.2.5,None,
17,parent,family,part:whole,1,0,16,16,16,,,,,,,87.55274079600349,87.55274079600349,87.55274079600349,90.03304314800334,90.0648466920029,90.0648466920029,91.55777783500525,91.55777783500525,1,1,0.9434307309929864,91.55777783500525,91.55777783500525,None,0,91.55777783500525,,reldom2_s041,001,2025-03-20_13h36.48.689,Implicit_Encoding-B,2022.2.5,None,
18,key,piano,part:whole,1,0,17,17,17,,,,,,,91.55777783500525,91.55777783500525,91.55777783500525,94.03819386400573,94.07124356200075,94.07124356200075,95.5571753760014,95.5571753760014,1,1,0.9431081100046868,95.5571753760014,95.5571753760014,None,0,95.5571753760014,,reldom2_s041,001,2025-03-20_13h36.48.689,Implicit_Encoding-B,2022.2.5,None,
19,device,calculator,category:exemplar,1,0,18,18,18,,,,,,,95.5571753760014,95.5571753760014,95.5571753760014,98.0488972910025,98.06548223199934,98.06548223199934,99.57115772800171,99.57115772800171,1,1,1.10800483199273,99.57115772800171,99.57115772800171,None,0,99.57115772800171,,reldom2_s041,001,2025-03-20_13h36.48.689,Implicit_Encoding-B,2022.2.5,None,
20,appliance,refrigerator,category:exemplar,1,0,19,19,19,,,,,,,99.57115772800171,99.57115772800171,99.57115772800171,102.05072295500577,102.09677415800252,102.09677415800252,103.57620181899983,103.57620181899983,1,1,1.0340163849978126,103.57620181899983,103.57620181899983,None,0,103.57620181899983,,reldom2_s041,001,2025-03-20_13h36.48.689,Implicit_Encoding-B,2022.2.5,None,
21,cellar,wine,place:thing,1,0,20,20,20,,,,,,,103.57620181899983,103.57620181899983,103.57620181899983,106.0559842319999,106.08955516700371,106.08955516700371,107.59039421200578,107.59039421200578,1,1,1.002602284992463,107.59039421200578,107.59039421200578,None,0,107.59039421200578,,reldom2_s041,001,2025-03-20_13h36.48.689,Implicit_Encoding-B,2022.2.5,None,
22,underwear,panties,category:exemplar,1,0,21,21,21,,,,,,,107.59039421200578,107.59039421200578,107.59039421200578,110.06527498400101,110.09692152800562,110.09692152800562,111.5809972269999,111.5809972269999,1,1,1.025792933003686,111.5809972269999,111.5809972269999,None,0,111.5809972269999,,reldom2_s041,001,2025-03-20_13h36.48.689,Implicit_Encoding-B,2022.2.5,None,
23,building,currency,catch,2,0,22,22,22,,,,,,,111.5809972269999,111.5809972269999,111.5809972269999,114.063386834001,114.09439005400054,114.09439005400054,115.58290773600311,115.58290773600311,2,1,1.43493941899942,115.58290773600311,115.58290773600311,None,0,115.58290773600311,,reldom2_s041,001,2025-03-20_13h36.48.689,Implicit_Encoding-B,2022.2.5,None,
24,dessert,brownie,category:exemplar,1,0,23,23,23,,,,,,,115.58290773600311,115.58290773600311,115.58290773600311,118.07702355900255,118.09429780700157,118.09429780700157,119.57660507400578,119.60709312700055,1,1,0.6961179809950409,119.60709312700055,119.60709312700055,None,0,119.60709312700055,,reldom2_s041,001,2025-03-20_13h36.48.689,Implicit_Encoding-B,2022.2.5,None,
25,motorbike,wax,catch,2,0,24,24,24,,,,,,,119.60709312700055,119.60709312700055,119.60709312700055,122.099306781005,122.11549206600466,122.11549206600466,123.58681214900571,123.618935960003,2,1,1.257127548000426,123.618935960003,123.618935960003,None,0,123.618935960003,,reldom2_s041,001,2025-03-20_13h36.48.689,Implicit_Encoding-B,2022.2.5,None,
26,saloon,bartender,place:thing,1,0,25,25,25,,,,,,,123.618935960003,123.618935960003,123.618935960003,126.09975063300226,126.1318662870035,126.1318662870035,127.59870293800486,127.63139676300489,2,0,1.1017292980031925,127.63139676300489,127.63139676300489,None,0,127.63139676300489,,reldom2_s041,001,2025-03-20_13h36.48.689,Implicit_Encoding-B,2022.2.5,None,
27,hound,cave,catch,2,0,26,26,26,,,,,,,127.63139676300489,127.63139676300489,127.63139676300489,130.12412528900313,130.13970035100647,130.13970035100647,131.62227934600378,131.65046437000274,2,1,1.387457082993933,131.65046437000274,131.65046437000274,None,0,131.65046437000274,,reldom2_s041,001,2025-03-20_13h36.48.689,Implicit_Encoding-B,2022.2.5,None,
28,teeth,shark,part:whole,1,0,27,27,27,,,,,,,131.65046437000274,131.65046437000274,131.65046437000274,134.14221334200556,134.1592659770031,134.1592659770031,135.64107689400407,135.67112958500365,1,1,1.5115763530047843,135.67112958500365,135.67112958500365,None,0,135.67112958500365,,reldom2_s041,001,2025-03-20_13h36.48.689,Implicit_Encoding-B,2022.2.5,None,
29,pet,hamster,category:exemplar,1,0,28,28,28,,,,,,,135.67112958500365,135.67112958500365,135.67112958500365,138.1729028930058,138.18963314600114,138.18963314600114,139.6488198799998,139.69066574400495,1,1,0.9165701099991566,139.69066574400495,139.69066574400495,None,0,139.69066574400495,,reldom2_s041,001,2025-03-20_13h36.48.689,Implicit_Encoding-B,2022.2.5,None,
30,food,pizza,category:exemplar,1,0,29,29,29,,,,,,,139.69066574400495,139.69066574400495,139.69066574400495,142.17682079500082,142.2094884110047,142.2094884110047,143.67538344600325,143.71457907200238,1,1,1.1184815319938934,143.71457907200238,143.71457907200238,None,0,143.71457907200238,,reldom2_s041,001,2025-03-20_13h36.48.689,Implicit_Encoding-B,2022.2.5,None,
31,surface,desk,part:whole,1,0,30,30,30,,,,,,,143.71457907200238,143.71457907200238,143.71457907200238,146.19031648700184,146.2239706190012,146.2239706190012,147.6872384330054,147.71437159700145,1,1,1.1397247399945627,147.71437159700145,147.71437159700145,None,0,147.71437159700145,,reldom2_s041,001,2025-03-20_13h36.48.689,Implicit_Encoding-B,2022.2.5,None,
32,chocolate,violin,catch,2,0,31,31,31,,,,,,,147.71437159700145,147.71437159700145,147.71437159700145,150.20329616700474,150.21800593800435,150.21800593800435,151.69434122500388,151.7206600740028,2,1,1.007500092004193,151.7206600740028,151.7206600740028,None,0,151.7206600740028,,reldom2_s041,001,2025-03-20_13h36.48.689,Implicit_Encoding-B,2022.2.5,None,
33,livestock,sheep,category:exemplar,1,0,32,32,32,,,,,,,151.7206600740028,151.7206600740028,151.7206600740028,154.21475266800553,154.2334026900062,154.2334026900062,155.7108138110052,155.74798130600539,1,1,1.0167188409977825,155.74798130600539,155.74798130600539,None,0,155.74798130600539,,reldom2_s041,001,2025-03-20_13h36.48.689,Implicit_Encoding-B,2022.2.5,None,
34,bird,robin,category:exemplar,1,0,33,33,33,,,,,,,155.74798130600539,155.74798130600539,155.74798130600539,158.23233125600382,158.2653112400003,158.2653112400003,159.73014135500125,159.75645735900616,1,1,1.078797444992233,159.75645735900616,159.75645735900616,None,0,159.75645735900616,,reldom2_s041,001,2025-03-20_13h36.48.689,Implicit_Encoding-B,2022.2.5,None,
35,shower,shampoo,place:thing,1,0,34,34,34,,,,,,,159.75645735900616,159.75645735900616,159.75645735900616,162.24145522500476,162.27290554100182,162.27290554100182,163.73927239300247,163.77591450800537,1,1,1.130375765998906,163.77591450800537,163.77591450800537,None,0,163.77591450800537,,reldom2_s041,001,2025-03-20_13h36.48.689,Implicit_Encoding-B,2022.2.5,None,
36,orchid,cockroach,catch,2,0,35,35,35,,,,,,,163.77591450800537,163.77591450800537,163.77591450800537,166.26466519600217,166.28171806300088,166.28171806300088,167.75148862400238,167.77766653700382,2,1,1.2182893979988876,167.77766653700382,167.77766653700382,None,0,167.77766653700382,,reldom2_s041,001,2025-03-20_13h36.48.689,Implicit_Encoding-B,2022.2.5,None,
37,basement,storage,place:thing,1,0,36,36,36,,,,,,,167.77766653700382,167.77766653700382,167.77766653700382,170.27278709200618,170.28939754500607,170.28939754500607,171.77044770300563,171.80324737500632,1,1,0.9920910669970908,171.80324737500632,171.80324737500632,None,0,171.80324737500632,,reldom2_s041,001,2025-03-20_13h36.48.689,Implicit_Encoding-B,2022.2.5,None,
38,aquarium,jellyfish,place:thing,1,0,37,37,37,,,,,,,171.80324737500632,171.80324737500632,171.80324737500632,174.2958283420012,174.31364191600005,174.31364191600005,175.78948831600428,175.81900463000056,1,1,1.4205493709960137,175.81900463000056,175.81900463000056,None,0,175.81900463000056,,reldom2_s041,001,2025-03-20_13h36.48.689,Implicit_Encoding-B,2022.2.5,None,
39,medication,pill,category:exemplar,1,0,38,38,38,,,,,,,175.81900463000056,175.81900463000056,175.81900463000056,178.29848449100245,178.3293077490016,178.3293077490016,179.81388721900294,179.81388721900294,1,1,0.9605180529979407,179.81388721900294,179.81388721900294,None,0,179.81388721900294,,reldom2_s041,001,2025-03-20_13h36.48.689,Implicit_Encoding-B,2022.2.5,None,
40,brush,snout,catch,2,0,39,39,39,,,,,,,179.81388721900294,179.81388721900294,179.81388721900294,182.3041703370036,182.31889065400173,182.31889065400173,183.79553302000568,183.8219425250063,2,1,1.350078098999802,183.8219425250063,183.8219425250063,None,0,183.8219425250063,,reldom2_s041,001,2025-03-20_13h36.48.689,Implicit_Encoding-B,2022.2.5,None,
41,engine,vehicle,part:whole,1,0,40,40,40,,,,,,,183.8219425250063,183.8219425250063,183.8219425250063,186.31131259700487,186.3256911740027,186.3256911740027,187.80436457700125,187.83107696200022,1,1,1.2132145749928895,187.83107696200022,187.83107696200022,None,0,187.83107696200022,,reldom2_s041,001,2025-03-20_13h36.48.689,Implicit_Encoding-B,2022.2.5,None,
42,cornea,eye,part:whole,1,0,41,41,41,,,,,,,187.83107696200022,187.83107696200022,187.83107696200022,190.32858795900393,190.34688716200617,190.34688716200617,191.8135453260038,191.86908359700465,1,1,0.9380902879929636,191.86908359700465,191.86908359700465,None,0,191.86908359700465,,reldom2_s041,001,2025-03-20_13h36.48.689,Implicit_Encoding-B,2022.2.5,None,
43,groceries,milk,category:exemplar,1,0,42,42,42,,,,,,,191.86908359700465,191.86908359700465,191.86908359700465,194.3546784640057,194.38516530500056,194.38516530500056,195.85195738699986,195.87973669000348,1,1,1.0460490339974058,195.87973669000348,195.87973669000348,None,0,195.87973669000348,,reldom2_s041,001,2025-03-20_13h36.48.689,Implicit_Encoding-B,2022.2.5,None,
44,market,salmon,place:thing,1,0,43,43,43,,,,,,,195.87973669000348,195.87973669000348,195.87973669000348,198.3657549510026,198.4047402819997,198.4047402819997,199.88423122400127,199.88423122400127,1,1,1.0234967279975535,199.88423122400127,199.88423122400127,None,0,199.88423122400127,,reldom2_s041,001,2025-03-20_13h36.48.689,Implicit_Encoding-B,2022.2.5,None,
45,garage,mechanic,place:thing,1,0,44,44,44,,,,,,,199.88423122400127,199.88423122400127,199.88423122400127,202.37844421100453,202.39776075300324,202.39776075300324,203.86550065200572,203.89235117300268,1,1,1.084327516000485,203.89235117300268,203.89235117300268,None,0,203.89235117300268,,reldom2_s041,001,2025-03-20_13h36.48.689,Implicit_Encoding-B,2022.2.5,None,
46,studio,painting,place:thing,1,0,45,45,45,,,,,,,203.89235117300268,203.89235117300268,203.89235117300268,206.38041278500168,206.39529259200208,206.39529259200208,207.8720936259997,207.89867737400346,1,1,1.1150965499982703,207.89867737400346,207.89867737400346,None,0,207.89867737400346,,reldom2_s041,001,2025-03-20_13h36.48.689,Implicit_Encoding-B,2022.2.5,None,
47,nose,face,part:whole,1,0,46,46,46,,,,,,,207.89867737400346,207.89867737400346,207.89867737400346,210.3857999669999,210.4014265940059,210.4014265940059,211.89515001300606,211.9257663150056,1,1,1.0724694410018856,211.9257663150056,211.9257663150056,None,0,211.9257663150056,,reldom2_s041,001,2025-03-20_13h36.48.689,Implicit_Encoding-B,2022.2.5,None,
48,frosting,cake,part:whole,1,0,47,47,47,,,,,,,211.9257663150056,211.9257663150056,211.9257663150056,214.4043131530052,214.43388926899934,214.43388926899934,215.928129412001,215.928129412001,1,1,1.188284098992881,215.928129412001,215.928129412001,None,0,215.928129412001,,reldom2_s041,001,2025-03-20_13h36.48.689,Implicit_Encoding-B,2022.2.5,None,
49,chipmunk,chef,catch,2,0,48,48,48,,,,,,,215.928129412001,215.928129412001,215.928129412001,218.41392669400375,218.4445041870058,218.4445041870058,219.9349139440019,219.9349139440019,2,1,1.3387769730034051,219.9349139440019,219.9349139440019,None,0,219.9349139440019,,reldom2_s041,001,2025-03-20_13h36.48.689,Implicit_Encoding-B,2022.2.5,None,
50,seafood,cod,category:exemplar,1,0,49,49,49,,,,,,,219.9349139440019,219.9349139440019,219.9349139440019,222.42102612900635,222.45270148599957,222.45270148599957,223.93371446800302,223.93371446800302,1,1,1.1229848290022346,223.93371446800302,223.93371446800302,None,0,223.93371446800302,,reldom2_s041,001,2025-03-20_13h36.48.689,Implicit_Encoding-B,2022.2.5,None,
51,dressing,salad,part:whole,1,0,50,50,50,,,,,,,223.93371446800302,223.93371446800302,223.93371446800302,226.42859172700264,226.44559650200245,226.44559650200245,227.9403279590042,227.9403279590042,1,1,0.8813120589984464,227.9403279590042,227.9403279590042,None,0,227.9403279590042,,reldom2_s041,001,2025-03-20_13h36.48.689,Implicit_Encoding-B,2022.2.5,None,
52,antler,elk,part:whole,1,0,51,51,51,,,,,,,227.9403279590042,227.9403279590042,227.9403279590042,230.42141536599956,230.45237793700653,230.45237793700653,231.94742793100158,231.94742793100158,1,1,1.0546431189941359,231.94742793100158,231.94742793100158,None,0,231.94742793100158,,reldom2_s041,001,2025-03-20_13h36.48.689,Implicit_Encoding-B,2022.2.5,None,
53,petal,toy,catch,2,0,52,52,52,,,,,,,231.94742793100158,231.94742793100158,231.94742793100158,234.4353036370012,234.452361432006,234.452361432006,235.93252194300294,235.9660833060043,2,1,1.0272806720022345,235.9660833060043,235.9660833060043,None,0,235.9660833060043,,reldom2_s041,001,2025-03-20_13h36.48.689,Implicit_Encoding-B,2022.2.5,None,
54,fang,snake,part:whole,1,0,53,53,53,,,,,,,235.9660833060043,235.9660833060043,235.9660833060043,238.45671908499935,238.4737888230011,238.4737888230011,239.94993542500015,239.9802708269999,1,1,1.5598520589992404,239.9802708269999,239.9802708269999,None,0,239.9802708269999,,reldom2_s041,001,2025-03-20_13h36.48.689,Implicit_Encoding-B,2022.2.5,None,
55,bar,alcohol,place:thing,1,0,54,54,54,,,,,,,239.9802708269999,239.9802708269999,239.9802708269999,242.46915241000534,242.49605622400122,242.49605622400122,243.96057448700594,243.99595110200607,1,1,1.0113342179975007,243.99595110200607,243.99595110200607,None,0,243.99595110200607,,reldom2_s041,001,2025-03-20_13h36.48.689,Implicit_Encoding-B,2022.2.5,None,
56,salon,hairstylist,place:thing,1,0,55,55,55,,,,,,,243.99595110200607,243.99595110200607,243.99595110200607,246.4792360030042,246.50762768600543,246.50762768600543,247.97472203900543,248.00160704700102,1,1,0.8552460620048805,248.00160704700102,248.00160704700102,None,0,248.00160704700102,,reldom2_s041,001,2025-03-20_13h36.48.689,Implicit_Encoding-B,2022.2.5,None,
57,cookware,pan,category:exemplar,1,0,56,56,56,,,,,,,248.00160704700102,248.00160704700102,248.00160704700102,250.4944513990049,250.5123156050031,250.5123156050031,251.9859127630043,252.02062307600136,1,1,1.456901626996114,252.02062307600136,252.02062307600136,None,0,252.02062307600136,,reldom2_s041,001,2025-03-20_13h36.48.689,Implicit_Encoding-B,2022.2.5,None,
58,candy,lollipop,category:exemplar,1,0,57,57,57,,,,,,,252.02062307600136,252.02062307600136,252.02062307600136,254.51181960800022,254.52932794300432,254.52932794300432,256.01272831200185,256.0403117750029,1,1,0.7414375609951094,256.0403117750029,256.0403117750029,None,0,256.0403117750029,,reldom2_s041,001,2025-03-20_13h36.48.689,Implicit_Encoding-B,2022.2.5,None,
59,toe,playroom,catch,2,0,58,58,58,,,,,,,256.0403117750029,256.0403117750029,256.0403117750029,258.5377503480049,258.55418603400176,258.55418603400176,260.01952377600537,260.0727139990049,2,1,1.1531934409940732,260.0727139990049,260.0727139990049,None,0,260.0727139990049,,reldom2_s041,001,2025-03-20_13h36.48.689,Implicit_Encoding-B,2022.2.5,None,
60,pond,duck,place:thing,1,0,59,59,59,,,,,,,260.0727139990049,260.0727139990049,260.0727139990049,262.55990432399994,262.5746004620014,262.5746004620014,264.0766691950048,264.0766691950048,1,1,0.8281538079972961,264.0766691950048,264.0766691950048,None,0,264.0766691950048,,reldom2_s041,001,2025-03-20_13h36.48.689,Implicit_Encoding-B,2022.2.5,None,
61,suitcase,peel,catch,2,0,60,60,60,,,,,,,264.0766691950048,264.0766691950048,264.0766691950048,266.56899330099986,266.58586290600215,266.58586290600215,268.0623619110047,268.0863117580011,2,1,1.0194033609950566,268.0863117580011,268.0863117580011,None,0,268.0863117580011,,reldom2_s041,001,2025-03-20_13h36.48.689,Implicit_Encoding-B,2022.2.5,None,
62,blade,propeller,part:whole,1,0,61,61,61,,,,,,,268.0863117580011,268.0863117580011,268.0863117580011,270.5706003939995,270.60022541200306,270.60022541200306,272.06854141400254,272.09384125900397,1,1,1.1395362120019854,272.09384125900397,272.09384125900397,None,0,272.09384125900397,,reldom2_s041,001,2025-03-20_13h36.48.689,Implicit_Encoding-B,2022.2.5,None,
63,tree,pine,category:exemplar,1,0,62,62,62,,,,,,,272.09384125900397,272.09384125900397,272.09384125900397,274.5776084419995,274.60797634100163,274.60797634100163,276.07717866700114,276.1023149180037,1,1,1.0809595919999992,276.1023149180037,276.1023149180037,None,0,276.1023149180037,,reldom2_s041,001,2025-03-20_13h36.48.689,Implicit_Encoding-B,2022.2.5,None,
64,footwear,boot,category:exemplar,1,0,63,63,63,,,,,,,276.1023149180037,276.1023149180037,276.1023149180037,278.6106758340029,278.6288938190046,278.6288938190046,280.0895715430015,280.13048619900655,1,1,1.1729677070034086,280.13048619900655,280.13048619900655,None,0,280.13048619900655,,reldom2_s041,001,2025-03-20_13h36.48.689,Implicit_Encoding-B,2022.2.5,None,
65,kitchen,microwave,place:thing,1,0,64,64,64,,,,,,,280.13048619900655,280.13048619900655,280.13048619900655,282.61454631600645,282.64182848800556,282.64182848800556,284.1292229690007,284.1292229690007,1,1,1.0484746909933165,284.1292229690007,284.1292229690007,None,0,284.1292229690007,,reldom2_s041,001,2025-03-20_13h36.48.689,Implicit_Encoding-B,2022.2.5,None,
66,spaghetti,shopper,catch,2,0,65,65,65,,,,,,,284.1292229690007,284.1292229690007,284.1292229690007,286.61856744700344,286.63503299600416,286.63503299600416,288.1192367110052,288.146107655004,2,1,1.0361671229984495,288.146107655004,288.146107655004,None,0,288.146107655004,,reldom2_s041,001,2025-03-20_13h36.48.689,Implicit_Encoding-B,2022.2.5,None,
67,bedroom,dresser,place:thing,1,0,66,66,66,,,,,,,288.146107655004,288.146107655004,288.146107655004,290.6332709010021,290.64690744900145,290.64690744900145,292.1261367870029,292.1530382790006,1,1,0.8948302649951074,292.1530382790006,292.1530382790006,None,0,292.1530382790006,,reldom2_s041,001,2025-03-20_13h36.48.689,Implicit_Encoding-B,2022.2.5,None,
68,store,cashier,place:thing,1,0,67,67,67,,,,,,,292.1530382790006,292.1530382790006,292.1530382790006,294.6363586780062,294.66685423200397,294.66685423200397,296.1619254480029,296.1619254480029,1,1,0.8822721529941191,296.1619254480029,296.1619254480029,None,0,296.1619254480029,,reldom2_s041,001,2025-03-20_13h36.48.689,Implicit_Encoding-B,2022.2.5,None,
69,makeup,lipstick,category:exemplar,1,0,68,68,68,,,,,,,296.1619254480029,296.1619254480029,296.1619254480029,298.63814027000626,298.6687534790035,298.6687534790035,300.15159086300264,300.15159086300264,1,1,1.3722088079957757,300.15159086300264,300.15159086300264,None,0,300.15159086300264,,reldom2_s041,001,2025-03-20_13h36.48.689,Implicit_Encoding-B,2022.2.5,None,
70,predator,jaguar,category:exemplar,1,0,69,69,69,,,,,,,300.15159086300264,300.15159086300264,300.15159086300264,302.64748690200213,302.66414204700413,302.66414204700413,304.14522053300607,304.1676591600044,1,1,1.338107104995288,304.1676591600044,304.1676591600044,None,0,304.1676591600044,,reldom2_s041,001,2025-03-20_13h36.48.689,Implicit_Encoding-B,2022.2.5,None,
71,dollar,parrot,catch,2,0,70,70,70,,,,,,,304.1676591600044,304.1676591600044,304.1676591600044,306.66289118400164,306.67829943400284,306.67829943400284,308.16194372700556,308.1836270890053,2,1,0.8692524250000133,308.1836270890053,308.1836270890053,None,0,308.1836270890053,,reldom2_s041,001,2025-03-20_13h36.48.689,Implicit_Encoding-B,2022.2.5,None,
72,fish,tuna,category:exemplar,1,0,71,71,71,,,,,,,308.1836270890053,308.1836270890053,308.1836270890053,310.6752753940018,310.6933120870017,310.6933120870017,312.1682318660023,312.1915477060029,1,1,1.1281243259945768,312.1915477060029,312.1915477060029,None,0,312.1915477060029,,reldom2_s041,001,2025-03-20_13h36.48.689,Implicit_Encoding-B,2022.2.5,None,
73,cell,prison,part:whole,1,0,72,72,72,,,,,,,312.1915477060029,312.1915477060029,312.1915477060029,314.6737685920016,314.7027934470025,314.7027934470025,316.1940740800055,316.1940740800055,1,1,1.1542581699977745,316.1940740800055,316.1940740800055,None,0,316.1940740800055,,reldom2_s041,001,2025-03-20_13h36.48.689,Implicit_Encoding-B,2022.2.5,None,
74,mammal,fox,category:exemplar,1,0,73,73,73,,,,,,,316.1940740800055,316.1940740800055,316.1940740800055,318.68757860000187,318.70380098100577,318.70380098100577,320.17979983400437,320.1961368789998,1,1,0.972782210992591,320.1961368789998,320.1961368789998,space,0,327.7728315780041,7.534279799001524,reldom2_s041,001,2025-03-20_13h36.48.689,Implicit_Encoding-B,2022.2.5,None,
75,tulip,bouquet,part:whole,1,0,74,74,74,,,,,,,327.7728315780041,327.7728315780041,327.7728315780041,330.26123471300525,330.2762572210049,330.2762572210049,331.7531181300001,331.7813937890023,1,1,1.0018122870023944,331.7813937890023,331.7813937890023,None,0,331.7813937890023,,reldom2_s041,001,2025-03-20_13h36.48.689,Implicit_Encoding-B,2022.2.5,None,
76,dog,gemstone,catch,2,0,75,75,75,,,,,,,331.7813937890023,331.7813937890023,331.7813937890023,334.27113856399956,334.2851394160025,334.2851394160025,335.76162238700635,335.7785256480056,2,1,0.8923163639919949,335.7785256480056,335.7785256480056,None,0,335.7785256480056,,reldom2_s041,001,2025-03-20_13h36.48.689,Implicit_Encoding-B,2022.2.5,None,
77,backyard,grill,place:thing,1,0,76,76,76,,,,,,,337.29234579900367,337.29234579900367,337.29234579900367,339.7823484360051,339.7979666600004,339.7979666600004,341.2769442909994,341.3021415750045,1,1,0.9496603189982125,341.3021415750045,341.3021415750045,None,0,341.3021415750045,,reldom2_s041,001,2025-03-20_13h36.48.689,Implicit_Encoding-B,2022.2.5,None,
78,knob,door,part:whole,1,0,77,77,77,,,,,,,341.3021415750045,341.3021415750045,341.3021415750045,343.7930308470022,343.80867578900506,343.80867578900506,345.28688360100205,345.3133693090058,1,1,1.0891628509998554,345.3133693090058,345.3133693090058,None,0,345.3133693090058,,reldom2_s041,001,2025-03-20_13h36.48.689,Implicit_Encoding-B,2022.2.5,None,
79,clothing,shirt,category:exemplar,1,0,78,78,78,,,,,,,345.3133693090058,345.3133693090058,345.3133693090058,347.8014801440004,347.8281638890039,347.8281638890039,349.33022275800613,349.33022275800613,1,1,0.7431083119954565,349.33022275800613,349.33022275800613,None,0,349.33022275800613,,reldom2_s041,001,2025-03-20_13h36.48.689,Implicit_Encoding-B,2022.2.5,None,
80,feline,leopard,category:exemplar,1,0,79,79,79,,,,,,,349.33022275800613,349.33022275800613,349.33022275800613,351.8086275280002,351.8409196220018,351.8409196220018,353.3007598990007,353.32576354200137,1,1,2.4640191819999018,353.32576354200137,353.32576354200137,None,0,353.32576354200137,,reldom2_s041,001,2025-03-20_13h36.48.689,Implicit_Encoding-B,2022.2.5,None,
81,shoelace,sneaker,part:whole,1,0,80,80,80,,,,,,,353.32576354200137,353.32576354200137,353.32576354200137,355.8092615220012,355.83868949099997,355.83868949099997,357.3305303260058,357.3305303260058,1,1,1.4221485779999057,357.3305303260058,357.3305303260058,None,0,357.3305303260058,,reldom2_s041,001,2025-03-20_13h36.48.689,Implicit_Encoding-B,2022.2.5,None,
82,handle,broom,part:whole,1,0,81,81,81,,,,,,,357.3305303260058,357.3305303260058,357.3305303260058,359.8238110920065,359.8397834510033,359.8397834510033,361.3227163190022,361.3613938480048,1,1,1.0760079659958137,361.3613938480048,361.3613938480048,None,0,361.3613938480048,,reldom2_s041,001,2025-03-20_13h36.48.689,Implicit_Encoding-B,2022.2.5,None,
83,furniture,sofa,category:exemplar,1,0,82,82,82,,,,,,,361.3613938480048,361.3613938480048,361.3613938480048,363.8391494509997,363.87876266900275,363.87876266900275,365.351899101006,365.351899101006,1,1,1.2714502820017515,365.351899101006,365.351899101006,None,0,365.351899101006,,reldom2_s041,001,2025-03-20_13h36.48.689,Implicit_Encoding-B,2022.2.5,None,
84,fern,human,catch,2,0,83,83,83,,,,,,,365.351899101006,365.351899101006,365.351899101006,367.84851401000196,367.8621727070058,367.8621727070058,369.3442955300052,369.3793483860063,2,1,1.4814565199994831,369.3793483860063,369.3793483860063,None,0,369.3793483860063,,reldom2_s041,001,2025-03-20_13h36.48.689,Implicit_Encoding-B,2022.2.5,None,
85,drugstore,pharmacist,place:thing,1,0,84,84,84,,,,,,,369.3793483860063,369.3793483860063,369.3793483860063,371.85601426300127,371.8871733220003,371.8871733220003,373.3786019180043,373.3786019180043,1,1,1.477320199002861,373.3786019180043,373.3786019180043,None,0,373.3786019180043,,reldom2_s041,001,2025-03-20_13h36.48.689,Implicit_Encoding-B,2022.2.5,None,
86,nursery,infant,place:thing,1,0,85,85,85,,,,,,,373.3786019180043,373.3786019180043,373.3786019180043,375.87194821100275,375.88646885000344,375.88646885000344,377.4008078830011,377.4008078830011,1,1,1.054896119996556,377.4008078830011,377.4008078830011,None,0,377.4008078830011,,reldom2_s041,001,2025-03-20_13h36.48.689,Implicit_Encoding-B,2022.2.5,None,
87,ketchup,burger,part:whole,1,0,86,86,86,,,,,,,377.4008078830011,377.4008078830011,377.4008078830011,379.88354126299964,379.9195595630008,379.9195595630008,381.38043131700397,381.41309226400335,1,1,0.8299164829950314,381.41309226400335,381.41309226400335,None,0,381.41309226400335,,reldom2_s041,001,2025-03-20_13h36.48.689,Implicit_Encoding-B,2022.2.5,None,
88,roof,house,part:whole,1,0,87,87,87,,,,,,,381.41309226400335,381.41309226400335,381.41309226400335,383.89292195900634,383.92495260700525,383.92495260700525,385.4133255640045,385.4133255640045,1,1,0.9988258330049575,385.4133255640045,385.4133255640045,None,0,385.4133255640045,,reldom2_s041,001,2025-03-20_13h36.48.689,Implicit_Encoding-B,2022.2.5,None,
89,utensil,fork,category:exemplar,1,0,88,88,88,,,,,,,385.4133255640045,385.4133255640045,385.4133255640045,387.906094416001,387.9202604750026,387.9202604750026,389.4105944630064,389.4349947640003,1,1,0.8060680790003971,389.4349947640003,389.4349947640003,None,0,389.4349947640003,,reldom2_s041,001,2025-03-20_13h36.48.689,Implicit_Encoding-B,2022.2.5,None,
90,oven,pie,place:thing,1,0,89,89,89,,,,,,,389.4349947640003,389.4349947640003,389.4349947640003,391.91921281800023,391.9544540900024,391.9544540900024,393.437347734005,393.437347734005,1,1,1.1396021359978477,393.437347734005,393.437347734005,None,0,393.437347734005,,reldom2_s041,001,2025-03-20_13h36.48.689,Implicit_Encoding-B,2022.2.5,None,
91,caterpillar,sister,catch,2,0,90,90,90,,,,,,,393.437347734005,393.437347734005,393.437347734005,395.9339952060036,395.9512457450037,395.9512457450037,397.4298519830045,397.4543779440064,2,1,0.936082924992661,397.4543779440064,397.4543779440064,None,0,397.4543779440064,,reldom2_s041,001,2025-03-20_13h36.48.689,Implicit_Encoding-B,2022.2.5,None,
92,farm,tractor,place:thing,1,0,91,91,91,,,,,,,397.4543779440064,397.4543779440064,397.4543779440064,399.94560148200253,399.9619606210035,399.9619606210035,401.4362528510028,401.47107911100466,1,1,0.9195368069995311,401.47107911100466,401.47107911100466,None,0,401.47107911100466,,reldom2_s041,001,2025-03-20_13h36.48.689,Implicit_Encoding-B,2022.2.5,None,
93,fruit,apple,category:exemplar,1,0,92,92,92,,,,,,,401.47107911100466,401.47107911100466,401.47107911100466,403.94788606899965,403.9753927550046,403.9753927550046,405.46562649599946,405.46562649599946,1,1,1.1265235249957186,405.46562649599946,405.46562649599946,None,0,405.46562649599946,,reldom2_s041,001,2025-03-20_13h36.48.689,Implicit_Encoding-B,2022.2.5,None,
94,reptile,chameleon,category:exemplar,1,0,93,93,93,,,,,,,405.46562649599946,405.46562649599946,405.46562649599946,407.9385024120056,407.97007726400625,407.97007726400625,409.46350848000293,409.46350848000293,1,1,1.4011173930048244,409.46350848000293,409.46350848000293,None,0,409.46350848000293,,reldom2_s041,001,2025-03-20_13h36.48.689,Implicit_Encoding-B,2022.2.5,None,
95,patio,cushion,place:thing,1,0,94,94,94,,,,,,,409.46350848000293,409.46350848000293,409.46350848000293,411.9434567690041,411.97826778200397,411.97826778200397,413.46776740100177,413.46776740100177,1,1,0.8204314389950014,413.46776740100177,413.46776740100177,None,0,413.46776740100177,,reldom2_s041,001,2025-03-20_13h36.48.689,Implicit_Encoding-B,2022.2.5,None,
96,bakery,bread,place:thing,1,0,95,95,95,,,,,,,413.46776740100177,413.46776740100177,413.46776740100177,415.948168298004,415.97873017700476,415.97873017700476,417.47178965200146,417.47178965200146,1,1,1.4799644430022454,417.47178965200146,417.47178965200146,None,0,417.47178965200146,,reldom2_s041,001,2025-03-20_13h36.48.689,Implicit_Encoding-B,2022.2.5,None,
97,squirrel,battery,catch,2,0,96,96,96,,,,,,,417.47178965200146,417.47178965200146,417.47178965200146,419.95512659700034,419.9853641190057,419.9853641190057,421.4972139830061,421.4972139830061,2,1,1.6871011009934591,421.4972139830061,421.4972139830061,None,0,421.4972139830061,,reldom2_s041,001,2025-03-20_13h36.48.689,Implicit_Encoding-B,2022.2.5,None,
98,palace,crown,place:thing,1,0,97,97,97,,,,,,,421.4972139830061,421.4972139830061,421.4972139830061,423.96749300100055,424.01486807900073,424.01486807900073,425.46734283000114,425.494958796,1,1,0.7964513179977075,425.494958796,425.494958796,None,0,425.494958796,,reldom2_s041,001,2025-03-20_13h36.48.689,Implicit_Encoding-B,2022.2.5,None,
99,sole,shoe,part:whole,1,0,98,98,98,,,,,,,425.494958796,425.494958796,425.494958796,427.97792824700446,428.0099737250057,428.0099737250057,429.4941803210022,429.4941803210022,1,1,1.1967217290002736,429.4941803210022,429.4941803210022,None,0,429.4941803210022,,reldom2_s041,001,2025-03-20_13h36.48.689,Implicit_Encoding-B,2022.2.5,None,
100,finger,hand,part:whole,1,0,99,99,99,,,,,,,429.4941803210022,429.4941803210022,429.4941803210022,431.99312149300385,432.0131497600014,432.0131497600014,433.4848005090025,433.5195106490064,1,1,0.8891511800029548,433.5195106490064,433.5195106490064,None,0,433.5195106490064,,reldom2_s041,001,2025-03-20_13h36.48.689,Implicit_Encoding-B,2022.2.5,None,
101,sweater,poster,catch,2,0,100,100,100,,,,,,,433.5195106490064,433.5195106490064,433.5195106490064,435.9946114730046,436.03444076000596,436.03444076000596,437.53617487700103,437.53617487700103,2,1,1.0948562510020565,437.53617487700103,437.53617487700103,None,0,437.53617487700103,,reldom2_s041,001,2025-03-20_13h36.48.689,Implicit_Encoding-B,2022.2.5,None,
102,daycare,paint,place:thing,1,0,101,101,101,,,,,,,437.53617487700103,437.53617487700103,437.53617487700103,440.01944165800523,440.0518402480011,440.0518402480011,441.5165697090051,441.54119252700184,2,0,1.5003135109946015,441.54119252700184,441.54119252700184,None,0,441.54119252700184,,reldom2_s041,001,2025-03-20_13h36.48.689,Implicit_Encoding-B,2022.2.5,None,
103,flower,daisy,category:exemplar,1,0,102,102,102,,,,,,,441.54119252700184,441.54119252700184,441.54119252700184,444.0223807950024,444.05371386700426,444.05371386700426,445.52692085400486,445.5501872750028,1,1,1.0458503989939345,445.5501872750028,445.5501872750028,None,0,445.5501872750028,,reldom2_s041,001,2025-03-20_13h36.48.689,Implicit_Encoding-B,2022.2.5,None,
104,shorts,tea,catch,2,0,103,103,103,,,,,,,445.5501872750028,445.5501872750028,445.5501872750028,448.0337476290006,448.06582339700253,448.06582339700253,449.5323893550012,449.5584707290036,2,1,1.4293472749996,449.5584707290036,449.5584707290036,None,0,449.5584707290036,,reldom2_s041,001,2025-03-20_13h36.48.689,Implicit_Encoding-B,2022.2.5,None,
105,metal,gold,category:exemplar,1,0,104,104,104,,,,,,,449.5584707290036,449.5584707290036,449.5584707290036,452.0409750060062,452.07437899700017,452.07437899700017,453.56150215000525,453.56150215000525,1,1,1.1427786760032177,453.56150215000525,453.56150215000525,None,0,453.56150215000525,,reldom2_s041,001,2025-03-20_13h36.48.689,Implicit_Encoding-B,2022.2.5,None,
106,fungus,mushroom,category:exemplar,1,0,105,105,105,,,,,,,453.56150215000525,453.56150215000525,453.56150215000525,456.04731623400585,456.0777421890016,456.0777421890016,457.54147860800003,457.5758117420046,1,1,1.0037861979944864,457.5758117420046,457.5758117420046,None,0,457.5758117420046,,reldom2_s041,001,2025-03-20_13h36.48.689,Implicit_Encoding-B,2022.2.5,None,
107,clinic,therapist,place:thing,1,0,106,106,106,,,,,,,457.5758117420046,457.5758117420046,457.5758117420046,460.06020985299983,460.09459370400145,460.09459370400145,461.582137631005,461.582137631005,1,1,0.8174289130038233,461.582137631005,461.582137631005,None,0,461.582137631005,,reldom2_s041,001,2025-03-20_13h36.48.689,Implicit_Encoding-B,2022.2.5,None,
108,ruby,poodle,catch,2,0,107,107,107,,,,,,,461.582137631005,461.582137631005,461.582137631005,464.06861048400606,464.08411705300387,464.08411705300387,465.5667434390052,465.5902729110021,2,1,1.3168223469983786,465.5902729110021,465.5902729110021,None,0,465.5902729110021,,reldom2_s041,001,2025-03-20_13h36.48.689,Implicit_Encoding-B,2022.2.5,None,
109,lens,camera,part:whole,1,0,108,108,108,,,,,,,465.5902729110021,465.5902729110021,465.5902729110021,468.0830500640004,468.09980599300616,468.09980599300616,469.58132062400546,469.60852055500436,1,1,1.4243627969990484,469.60852055500436,469.60852055500436,None,0,469.60852055500436,,reldom2_s041,001,2025-03-20_13h36.48.689,Implicit_Encoding-B,2022.2.5,None,
110,thread,fabric,part:whole,1,0,109,109,109,,,,,,,469.60852055500436,469.60852055500436,469.60852055500436,472.0849061550034,472.11587523000344,472.11587523000344,473.6018972200036,473.6018972200036,1,1,1.305960765996133,473.6018972200036,473.6018972200036,None,0,473.6018972200036,,reldom2_s041,001,2025-03-20_13h36.48.689,Implicit_Encoding-B,2022.2.5,None,
111,weapon,sword,category:exemplar,1,0,110,110,110,,,,,,,473.6018972200036,473.6018972200036,473.6018972200036,476.0975177229993,476.1152366890019,476.1152366890019,477.5817844780031,477.6208546900016,1,1,0.8417174589994829,477.6208546900016,477.6208546900016,None,0,477.6208546900016,,reldom2_s041,001,2025-03-20_13h36.48.689,Implicit_Encoding-B,2022.2.5,None,
112,poultry,chicken,category:exemplar,1,0,111,111,111,,,,,,,477.6208546900016,477.6208546900016,477.6208546900016,480.10913888500363,480.12334823400306,480.12334823400306,481.6240804400004,481.6240804400004,1,1,1.4660167979964172,481.6240804400004,481.6240804400004,None,0,481.6240804400004,,reldom2_s041,001,2025-03-20_13h36.48.689,Implicit_Encoding-B,2022.2.5,None,
113,button,remote,part:whole,1,0,112,112,112,,,,,,,481.6240804400004,481.6240804400004,481.6240804400004,484.1189109469997,484.13469738300046,484.13469738300046,485.61269456599985,485.6359567010004,1,1,1.2049267389957095,485.6359567010004,485.6359567010004,None,0,485.6359567010004,,reldom2_s041,001,2025-03-20_13h36.48.689,Implicit_Encoding-B,2022.2.5,None,
114,drum,condiment,catch,2,0,113,113,113,,,,,,,485.6359567010004,485.6359567010004,485.6359567010004,488.11998087100073,488.15105535100156,488.15105535100156,489.63230917500186,489.63230917500186,2,1,1.0263707079939195,489.63230917500186,489.63230917500186,None,0,489.63230917500186,,reldom2_s041,001,2025-03-20_13h36.48.689,Implicit_Encoding-B,2022.2.5,None,
115,zipper,jacket,part:whole,1,0,114,114,114,,,,,,,489.63230917500186,489.63230917500186,489.63230917500186,492.130117368004,492.14324633700016,492.14324633700016,493.6145176380014,493.6522600890021,1,1,0.855184908999945,493.6522600890021,493.6522600890021,None,0,493.6522600890021,,reldom2_s041,001,2025-03-20_13h36.48.689,Implicit_Encoding-B,2022.2.5,None,
116,windshield,truck,part:whole,1,0,115,115,115,,,,,,,493.6522600890021,493.6522600890021,493.6522600890021,496.1596109920065,496.1596109920065,496.1596109920065,497.6625077570061,497.6979053190007,1,1,1.6293180200009374,497.6979053190007,497.6979053190007,None,0,497.6979053190007,,reldom2_s041,001,2025-03-20_13h36.48.689,Implicit_Encoding-B,2022.2.5,None,
117,lion,headphones,catch,2,0,116,116,116,,,,,,,497.6979053190007,497.6979053190007,497.6979053190007,500.17992644100013,500.22600771400175,500.22600771400175,501.6740297100041,501.7013664510014,2,1,0.7981008319984539,501.7013664510014,501.7013664510014,None,0,501.7013664510014,,reldom2_s041,001,2025-03-20_13h36.48.689,Implicit_Encoding-B,2022.2.5,None,
118,bug,ant,category:exemplar,1,0,117,117,117,,,,,,,501.7013664510014,501.7013664510014,501.7013664510014,504.19308555300086,504.208192721002,504.208192721002,505.69081979000475,505.711514912,1,1,0.9620164250009111,505.711514912,505.711514912,None,0,505.711514912,,reldom2_s041,001,2025-03-20_13h36.48.689,Implicit_Encoding-B,2022.2.5,None,
119,arcade,kid,place:thing,1,0,118,118,118,,,,,,,505.711514912,505.711514912,505.711514912,508.2007363090015,508.215470946001,508.215470946001,509.69853507399966,509.7240810160001,1,1,1.1678121209915844,509.7240810160001,509.7240810160001,None,0,509.7240810160001,,reldom2_s041,001,2025-03-20_13h36.48.689,Implicit_Encoding-B,2022.2.5,None,
120,closet,dress,place:thing,1,0,119,119,119,,,,,,,509.7240810160001,509.7240810160001,509.7240810160001,512.2192433320015,512.2355904620053,512.2355904620053,513.7131121330021,513.7366204589998,1,1,0.953820144997735,513.7366204589998,513.7366204589998,None,0,513.7366204589998,,reldom2_s041,001,2025-03-20_13h36.48.689,Implicit_Encoding-B,2022.2.5,None,
121,laptop,cucumber,catch,2,0,120,120,120,,,,,,,513.7366204589998,513.7366204589998,513.7366204589998,516.2285427280003,516.2436355300015,516.2436355300015,517.7382110430044,517.7382110430044,2,1,0.7411001290020067,517.7382110430044,517.7382110430044,None,0,517.7382110430044,,reldom2_s041,001,2025-03-20_13h36.48.689,Implicit_Encoding-B,2022.2.5,None,
122,ox,herd,part:whole,1,0,121,121,121,,,,,,,517.7382110430044,517.7382110430044,517.7382110430044,520.2245356010026,520.2394190949999,520.2394190949999,521.7475748150027,521.7475748150027,1,1,1.0436819099995773,521.7475748150027,521.7475748150027,None,0,521.7475748150027,,reldom2_s041,001,2025-03-20_13h36.48.689,Implicit_Encoding-B,2022.2.5,None,
123,apartment,lamp,place:thing,1,0,122,122,122,,,,,,,521.7475748150027,521.7475748150027,521.7475748150027,524.231471294006,524.2586889580052,524.2586889580052,525.7323222780033,525.7575399820053,1,1,1.5888231019998784,525.7575399820053,525.7575399820053,None,0,525.7575399820053,,reldom2_s041,001,2025-03-20_13h36.48.689,Implicit_Encoding-B,2022.2.5,None,
124,museum,tourist,place:thing,1,0,123,123,123,,,,,,,525.7575399820053,525.7575399820053,525.7575399820053,528.2487950260038,528.2605433220015,528.2605433220015,529.7437344890059,529.7651975290064,1,1,1.335150965001958,529.7651975290064,529.7651975290064,None,0,529.7651975290064,,reldom2_s041,001,2025-03-20_13h36.48.689,Implicit_Encoding-B,2022.2.5,None,
125,meat,steak,category:exemplar,1,0,124,124,124,,,,,,,529.7651975290064,529.7651975290064,529.7651975290064,532.2629175890033,532.2756390680006,532.2756390680006,533.7499477350066,533.7760423490035,1,1,0.8331170359961106,533.7760423490035,533.7760423490035,None,0,533.7760423490035,,reldom2_s041,001,2025-03-20_13h36.48.689,Implicit_Encoding-B,2022.2.5,None,
126,watercolor,island,catch,2,0,125,125,125,,,,,,,533.7760423490035,533.7760423490035,533.7760423490035,536.2831819160056,536.3000171810054,536.3000171810054,537.7644725530045,537.8005829110043,2,1,1.1991011849968345,537.8005829110043,537.8005829110043,None,0,537.8005829110043,,reldom2_s041,001,2025-03-20_13h36.48.689,Implicit_Encoding-B,2022.2.5,None,
127,page,book,part:whole,1,0,126,126,126,,,,,,,537.8005829110043,537.8005829110043,537.8005829110043,540.2837493110055,540.3125389790002,540.3125389790002,541.797464866002,541.797464866002,1,1,1.0492896950017894,541.797464866002,541.797464866002,None,0,541.797464866002,,reldom2_s041,001,2025-03-20_13h36.48.689,Implicit_Encoding-B,2022.2.5,None,
128,ink,printer,part:whole,1,0,127,127,127,,,,,,,541.797464866002,541.797464866002,541.797464866002,544.2979009260016,544.3248831230012,544.3248831230012,545.7809568470038,545.8317485880034,1,1,0.9385229739928036,545.8317485880034,545.8317485880034,None,0,545.8317485880034,,reldom2_s041,001,2025-03-20_13h36.48.689,Implicit_Encoding-B,2022.2.5,None,
129,step,ladder,part:whole,1,0,128,128,128,,,,,,,545.8317485880034,545.8317485880034,545.8317485880034,548.3127122530059,548.3432527200057,548.3432527200057,549.8231734490037,549.8231734490037,1,1,0.8130349380007829,549.8231734490037,549.8231734490037,None,0,549.8231734490037,,reldom2_s041,001,2025-03-20_13h36.48.689,Implicit_Encoding-B,2022.2.5,None,
130,mascara,spoon,catch,2,0,129,129,129,,,,,,,549.8231734490037,549.8231734490037,549.8231734490037,552.3180219170026,552.3314401230018,552.3314401230018,553.8086682170033,553.8309823439995,2,1,0.9482726709975395,553.8309823439995,553.8309823439995,None,0,553.8309823439995,,reldom2_s041,001,2025-03-20_13h36.48.689,Implicit_Encoding-B,2022.2.5,None,
131,herb,rosemary,category:exemplar,1,0,130,130,130,,,,,,,553.8309823439995,553.8309823439995,553.8309823439995,556.3325674270018,556.3470548740006,556.3470548740006,557.8262588350044,557.8514693480029,1,1,1.5250121179997222,557.8514693480029,557.8514693480029,None,0,557.8514693480029,,reldom2_s041,001,2025-03-20_13h36.48.689,Implicit_Encoding-B,2022.2.5,None,
132,rodent,mouse,category:exemplar,1,0,131,131,131,,,,,,,557.8514693480029,557.8514693480029,557.8514693480029,560.3584224570004,560.3584224570004,560.3584224570004,561.8422693040047,561.8761260630054,1,1,0.6857118919942877,561.8761260630054,561.8761260630054,None,0,561.8761260630054,,reldom2_s041,001,2025-03-20_13h36.48.689,Implicit_Encoding-B,2022.2.5,None,
133,feather,sparrow,part:whole,1,0,132,132,132,,,,,,,561.8761260630054,561.8761260630054,561.8761260630054,564.3650908880009,564.3790842490052,564.3790842490052,565.8640964380029,565.886896916003,1,1,1.379655354998249,565.886896916003,565.886896916003,None,0,565.886896916003,,reldom2_s041,001,2025-03-20_13h36.48.689,Implicit_Encoding-B,2022.2.5,None,
134,thorn,rose,part:whole,1,0,133,133,133,,,,,,,565.886896916003,565.886896916003,565.886896916003,568.3708287850022,568.3987754900008,568.3987754900008,569.8699917520062,569.8936052280042,1,1,1.1868670069961809,569.8936052280042,569.8936052280042,None,0,569.8936052280042,,reldom2_s041,001,2025-03-20_13h36.48.689,Implicit_Encoding-B,2022.2.5,None,
135,material,plastic,category:exemplar,1,0,134,134,134,,,,,,,569.8936052280042,569.8936052280042,569.8936052280042,572.3931682790062,572.4087077220029,572.4087077220029,573.8893040440016,573.9131091880045,1,1,1.1100212969977292,573.9131091880045,573.9131091880045,None,0,573.9131091880045,,reldom2_s041,001,2025-03-20_13h36.48.689,Implicit_Encoding-B,2022.2.5,None,
136,vegetable,carrot,category:exemplar,1,0,135,135,135,,,,,,,573.9131091880045,573.9131091880045,573.9131091880045,576.397525129003,576.4230061220005,576.4230061220005,577.9234947720033,577.9234947720033,1,1,0.8256774100009352,577.9234947720033,577.9234947720033,None,0,577.9234947720033,,reldom2_s041,001,2025-03-20_13h36.48.689,Implicit_Encoding-B,2022.2.5,None,
137,dormitory,barn,catch,2,0,136,136,136,,,,,,,577.9234947720033,577.9234947720033,577.9234947720033,580.3997941220005,580.4286518220033,580.4286518220033,581.9121009670052,581.9121009670052,2,1,1.1685279270022875,581.9121009670052,581.9121009670052,None,0,581.9121009670052,,reldom2_s041,001,2025-03-20_13h36.48.689,Implicit_Encoding-B,2022.2.5,None,
138,oasis,water,place:thing,1,0,137,137,137,,,,,,,581.9121009670052,581.9121009670052,581.9121009670052,584.4077010020046,584.4215034770023,584.4215034770023,585.8989982610001,585.9223775150022,1,1,1.5405508559924783,585.9223775150022,585.9223775150022,None,0,585.9223775150022,,reldom2_s041,001,2025-03-20_13h36.48.689,Implicit_Encoding-B,2022.2.5,None,
139,speaker,phone,part:whole,1,0,138,138,138,,,,,,,585.9223775150022,585.9223775150022,585.9223775150022,588.4225813490048,588.4374325330064,588.4374325330064,589.9135388490031,589.9403546850008,1,1,0.9531212969959597,589.9403546850008,589.9403546850008,None,0,589.9403546850008,,reldom2_s041,001,2025-03-20_13h36.48.689,Implicit_Encoding-B,2022.2.5,None,
140,brake,bicycle,part:whole,1,0,139,139,139,,,,,,,589.9403546850008,589.9403546850008,589.9403546850008,592.4235042460059,592.4511870280039,592.4511870280039,593.916707825003,593.9418264630003,1,1,1.2656285609991755,593.9418264630003,593.9418264630003,None,0,593.9418264630003,,reldom2_s041,001,2025-03-20_13h36.48.689,Implicit_Encoding-B,2022.2.5,None,
141,animal,elephant,category:exemplar,1,0,140,140,140,,,,,,,593.9418264630003,593.9418264630003,593.9418264630003,596.4388671050037,596.4550058810055,596.4550058810055,597.9396371890034,597.9640549030009,1,1,2.6101751500027603,597.9640549030009,597.9640549030009,None,0,597.9640549030009,,reldom2_s041,001,2025-03-20_13h36.48.689,Implicit_Encoding-B,2022.2.5,None,
142,fort,rifle,place:thing,1,0,141,141,141,,,,,,,597.9640549030009,597.9640549030009,597.9640549030009,600.4452990900027,600.4771280010027,600.4771280010027,601.9636680680051,601.9636680680051,1,1,1.7794852559964056,601.9636680680051,601.9636680680051,None,0,601.9636680680051,,reldom2_s041,001,2025-03-20_13h36.48.689,Implicit_Encoding-B,2022.2.5,None,
143,popcorn,vine,catch,2,0,142,142,142,,,,,,,601.9636680680051,601.9636680680051,601.9636680680051,604.4510149490015,604.4653972390006,604.4653972390006,605.9618088650022,605.9618088650022,2,1,1.851558070993633,605.9618088650022,605.9618088650022,None,0,605.9618088650022,,reldom2_s041,001,2025-03-20_13h36.48.689,Implicit_Encoding-B,2022.2.5,None,
144,castle,knight,place:thing,1,0,143,143,143,,,,,,,605.9618088650022,605.9618088650022,605.9618088650022,608.4506441039994,608.4643997590028,608.4643997590028,609.9443030809998,609.9656352590027,1,1,0.8739386539964471,609.9656352590027,609.9656352590027,None,0,609.9656352590027,,reldom2_s041,001,2025-03-20_13h36.48.689,Implicit_Encoding-B,2022.2.5,None,
145,amphibian,toad,category:exemplar,1,0,144,144,144,,,,,,,609.9656352590027,609.9656352590027,609.9656352590027,612.4637072170008,612.4907525580056,612.4907525580056,613.9574485590056,613.982041893003,1,1,0.929925844000536,613.982041893003,613.982041893003,None,0,613.982041893003,,reldom2_s041,001,2025-03-20_13h36.48.689,Implicit_Encoding-B,2022.2.5,None,
146,beverage,juice,category:exemplar,1,0,145,145,145,,,,,,,613.982041893003,613.982041893003,613.982041893003,616.4671029700039,616.498826189003,616.498826189003,617.9845704280015,617.9845704280015,1,1,1.9806348329948378,617.9845704280015,617.9845704280015,None,0,617.9845704280015,,reldom2_s041,001,2025-03-20_13h36.48.689,Implicit_Encoding-B,2022.2.5,None,
147,cow,student,catch,2,0,146,146,146,,,,,,,617.9845704280015,617.9845704280015,617.9845704280015,620.4782414680012,620.4908897040004,620.4908897040004,621.9656252929999,621.9891669390054,2,1,0.934700140998757,621.9891669390054,621.9891669390054,None,0,621.9891669390054,,reldom2_s041,001,2025-03-20_13h36.48.689,Implicit_Encoding-B,2022.2.5,None,
148,tail,skunk,part:whole,1,0,147,147,147,,,,,,,621.9891669390054,621.9891669390054,621.9891669390054,624.4809632150063,624.4966566660005,624.4966566660005,625.9762014840016,625.9920996800065,1,1,1.1478590129991062,625.9920996800065,625.9920996800065,None,0,625.9920996800065,,reldom2_s041,001,2025-03-20_13h36.48.689,Implicit_Encoding-B,2022.2.5,None,
