Trial,Order,Block,Type,Stimuli_File1,Stimuli_File2,Stimuli_File3,Stimuli_File4,Cue_File1,Cue_File2,Response_File_Yes,Response_File_No,Match,Cue_Dimension,Pair1_Dimension,Pair2_Dimension,Key,Cue1_Duration,Cue1_Onset,Cue2_Duration,Cue2_Onset,ResponseYes_Duration,ResponseYes_Onset,ResponseNo_Duration,ResponseNo_Onset,ITI_Within,ITI_Between,Image1_Duration,Image1_Onset,Image2_Duration,Image2_Onset,Image3_Duration,Image3_Onset,Image4_Duration,Image4_Onset,Sound1_Duration,Sound1_Onset,Sound2_Duration,Sound2_Onset,Sound3_Duration,Sound3_Onset,Sound4_Duration,Sound4_Onset,Fixation_Duration,trials_2.thisRepN,trials_2.thisTrialN,trials_2.thisN,trials_2.thisIndex,trials.thisRepN,trials.thisTrialN,trials.thisN,trials.thisIndex,text_start.started,key_resp_start.started,key_resp_start.keys,key_resp_start.rt,text2.started,key_resp_2.started,key_resp_2.keys,key_resp_2.rt,cue_file1.started,cue_file1.stopped,image_1.started,image_1.stopped,image_2.started,image_2.stopped,sound_icon1.started,sound_icon1.stopped,sound_1.started,sound_1.stopped,sound_icon2.started,sound_icon2.stopped,sound_2.started,sound_2.stopped,image_blank_1.started,image_blank_1.stopped,key_press.started,key_press.stopped,fixation_text.started,cue_file2.started,cue_file2.stopped,image_3.started,image_3.stopped,image_4.started,image_4.stopped,sound_icon3.started,sound_icon3.stopped,sound_3.started,sound_3.stopped,sound_icon4.started,sound_icon4.stopped,sound_4.started,sound_4.stopped,response_yes.started,response_yes.stopped,response_no.started,response_no.stopped,iti_blank.started,iti_blank.stopped,fixation_text.stopped,key_press.keys,key_press.corr,key_press.rt,participant,session,date,expName,psychopyVersion,frameRate,
,,,,,,,,,,,,,,,,,,,,,,,,,,,,,,,,,,,,,,,,,,,,,,,,,,,,7.769145333964843,7.769145333964843,2,1.1236354990396649,,,,,,,,,,,,,,,,,,,,,,,,,,,,,,,,,,,,,,,,,,,,,,,,reldom2_s028,001,2025-03-04_12h23.41.123,Aud-A-Scan_AC,2022.2.5,None,
,,,,,,,,,,,,,,,,,,,,,,,,,,,,,,,,,,,,,,,,,,,,0,0,0,0,,,,,,,,,8.92696229199646,8.92696229199646,5,14.69509116600966,,,,,,,,,,,,,,,,,,,,,,,,,,,,,,,,,,,,,,,,,,,,reldom2_s028,001,2025-03-04_12h23.41.123,Aud-A-Scan_AC,2022.2.5,None,
,,,,,,,,,,,,,,,,,,,,,,,,,,,,,,,,,,,,,,,,,,,,1,0,1,0,,,,,,,,,23.634953667002264,23.634953667002264,5,1.9864117070101202,,,,,,,,,,,,,,,,,,,,,,,,,,,,,,,,,,,,,,,,,,,,reldom2_s028,001,2025-03-04_12h23.41.123,Aud-A-Scan_AC,2022.2.5,None,
,,,,,,,,,,,,,,,,,,,,,,,,,,,,,,,,,,,,,,,,,,,,2,0,2,0,,,,,,,,,25.62835129199084,25.62835129199084,5,1.9922764580114745,,,,,,,,,,,,,,,,,,,,,,,,,,,,,,,,,,,,,,,,,,,,reldom2_s028,001,2025-03-04_12h23.41.123,Aud-A-Scan_AC,2022.2.5,None,
,,,,,,,,,,,,,,,,,,,,,,,,,,,,,,,,,,,,,,,,,,,,3,0,3,0,,,,,,,,,27.63665395899443,27.63665395899443,5,1.9850261240499094,,,,,,,,,,,,,,,,,,,,,,,,,,,,,,,,,,,,,,,,,,,,reldom2_s028,001,2025-03-04_12h23.41.123,Aud-A-Scan_AC,2022.2.5,None,
0,0.0,None,fixation,stimulus/audwhere_stim/blank_white.png,stimulus/audwhere_stim/blank_white.png,stimulus/audwhat_stim/blank_white.png,stimulus/audwhat_stim/blank_white.png,stimulus/audwhere_stim/blank_white.png,stimulus/audwhere_stim/blank_white.png,stimulus/audwhere_stim/blank_white.png,stimulus/audwhere_stim/blank_white.png,0.0,0.0,0.0,0.0,0,0.0,0,0.0,0,0.0,0,0.0,0,0.0,0.0,0,0,0,0,0,0,0,0,0,0.0,0,0.0,0,0.0,0,0.0,16,,,,,0,0,0,0,,,,,,,,,29.850220999971498,29.850220999971498,29.850220999971498,29.850220999971498,29.850220999971498,29.850220999971498,29.850220999971498,29.850220999971498,29.74842683362464,29.850220999971498,29.850220999971498,29.850220999971498,29.74842683362464,29.850220999971498,29.850220999971498,29.850220999971498,29.850220999971498,29.850220999971498,29.850220999971498,29.850220999971498,29.850220999971498,29.850220999971498,29.850220999971498,29.850220999971498,29.850220999971498,29.850220999971498,29.850220999971498,29.815093500291308,29.850220999971498,29.850220999971498,29.850220999971498,29.815093500291308,29.850220999971498,29.850220999971498,29.850220999971498,29.850220999971498,29.850220999971498,35.07124008401297,35.07124008401297,46.075066624965984,None,0,,reldom2_s028,001,2025-03-04_12h23.41.123,Aud-A-Scan_AC,2022.2.5,None,
1,First_Order,1.0,audwhere,stimulus/audwhere_stim/dummy.wav,stimulus/audwhere_stim/dummy.wav,stimulus/audwhere_stim/left_away_280h.wav,stimulus/audwhere_stim/right_away_290h.wav,stimulus/audwhere_stim/blank_white.png,stimulus/audwhere_stim/direction_box.png,stimulus/audwhere_stim/direction_yes.png,stimulus/audwhere_stim/direction_no.png,None,Direction,None,Direction,1,0.0,0,5.125,0,5.125,0,5.125,0,0.0,0.625,0,0,0,0,0,0,0,0,0,0.0,0,0.0,1,0.5,1,2.125,0,,,,,0,1,1,1,,,,,,,,,46.075066624965984,46.075066624965984,46.075066624965984,46.075066624965984,46.075066624965984,46.075066624965984,46.075066624965984,46.075066624965984,46.00331241699168,46.075066624965984,46.075066624965984,46.075066624965984,46.00331241699168,46.075066624965984,46.075066624965984,46.075066624965984,48.17102775000967,52.1967320839758,46.075066624965984,46.075066624965984,51.26693874999182,46.075066624965984,46.075066624965984,46.075066624965984,46.075066624965984,46.530658875009976,47.57819212495815,46.50158133363972,,48.17102775000967,49.217625958961435,48.14145791664875,,46.075066624965984,51.26693874999182,46.075066624965984,51.26693874999182,51.30728495900985,51.989181375014596,46.075066624965984,1,1,1.2302496240008622,reldom2_s028,001,2025-03-04_12h23.41.123,Aud-A-Scan_AC,2022.2.5,None,
2,First_Order,1.0,audwhere,stimulus/audwhere_stim/dummy.wav,stimulus/audwhere_stim/dummy.wav,stimulus/audwhere_stim/left_away_270h.wav,stimulus/audwhere_stim/left_toward_270h.wav,stimulus/audwhere_stim/blank_white.png,stimulus/audwhere_stim/direction_box.png,stimulus/audwhere_stim/direction_yes.png,stimulus/audwhere_stim/direction_no.png,None,Direction,None,Side,2,0.0,0,5.125,0,5.125,0,5.125,0,0.0,0.625,0,0,0,0,0,0,0,0,0,0.0,0,0.0,1,0.5,1,2.125,0,,,,,0,2,2,2,,,,,,,,,52.1967320839758,52.1967320839758,52.1967320839758,52.1967320839758,52.1967320839758,52.1967320839758,52.1967320839758,52.1967320839758,52.12251470834793,52.1967320839758,52.1967320839758,52.1967320839758,52.12251470834793,52.1967320839758,52.1967320839758,52.1967320839758,54.29884183401009,,52.1967320839758,52.1967320839758,57.36856787500437,52.1967320839758,52.1967320839758,52.1967320839758,52.1967320839758,52.65350929199485,53.70520179200685,52.62426050065939,,54.29884183401009,55.35523658397142,54.269287875682735,,52.1967320839758,57.36856787500437,52.1967320839758,57.36856787500437,57.40961174998665,58.09557462501107,52.1967320839758,2,1,0.883098998980131,reldom2_s028,001,2025-03-04_12h23.41.123,Aud-A-Scan_AC,2022.2.5,None,
3,First_Order,1.0,audwhere,stimulus/audwhere_stim/dummy.wav,stimulus/audwhere_stim/dummy.wav,stimulus/audwhere_stim/left_toward_300h.wav,stimulus/audwhere_stim/left_away_280h.wav,stimulus/audwhere_stim/blank_white.png,stimulus/audwhere_stim/direction_box.png,stimulus/audwhere_stim/direction_yes.png,stimulus/audwhere_stim/direction_no.png,None,Direction,None,Side,2,0.0,0,5.125,0,5.125,0,5.125,0,0.0,0.625,0,0,0,0,0,0,0,0,0,0.0,0,0.0,1,0.5,1,2.125,0,,,,,0,3,3,3,,,,,,,,,58.304877916991245,58.304877916991245,58.304877916991245,58.304877916991245,58.304877916991245,58.304877916991245,58.304877916991245,58.304877916991245,58.2289079583444,58.304877916991245,58.304877916991245,58.304877916991245,58.2289079583444,58.304877916991245,58.304877916991245,58.304877916991245,60.419123958970886,64.43231058400124,58.304877916991245,58.304877916991245,63.49560016696341,58.304877916991245,58.304877916991245,58.304877916991245,58.304877916991245,58.76393737498438,59.82320395897841,58.73430454166761,,60.419123958970886,61.475818959006574,60.389536333681704,,58.304877916991245,63.49560016696341,58.304877916991245,63.49560016696341,63.536504167015664,64.22353249997832,58.304877916991245,2,1,2.4077886659651995,reldom2_s028,001,2025-03-04_12h23.41.123,Aud-A-Scan_AC,2022.2.5,None,
4,First_Order,1.0,audwhere,stimulus/audwhere_stim/dummy.wav,stimulus/audwhere_stim/dummy.wav,stimulus/audwhere_stim/left_away_270h.wav,stimulus/audwhere_stim/left_toward_290h.wav,stimulus/audwhere_stim/blank_white.png,stimulus/audwhere_stim/side_box.png,stimulus/audwhere_stim/side_yes.png,stimulus/audwhere_stim/side_no.png,None,Side,None,Side,1,0.0,0,5.125,0,5.125,0,5.125,0,0.0,0.625,0,0,0,0,0,0,0,0,0,0.0,0,0.0,1,0.5,1,2.125,0,,,,,0,4,4,4,,,,,,,,,64.43231058400124,64.43231058400124,64.43231058400124,64.43231058400124,64.43231058400124,64.43231058400124,64.43231058400124,64.43231058400124,64.35686583331164,64.43231058400124,64.43231058400124,64.43231058400124,64.35686583331164,64.43231058400124,64.43231058400124,64.43231058400124,66.54001658398192,70.56567749998067,64.43231058400124,64.43231058400124,69.60735737497453,64.43231058400124,64.43231058400124,64.43231058400124,64.43231058400124,64.88857899996219,65.94416445901152,64.85994212562606,,66.54001658398192,67.59454162500333,66.51077312563235,,64.43231058400124,69.60735737497453,64.43231058400124,69.60735737497453,69.6482430420001,70.33652037498541,64.43231058400124,1,1,2.133944123983383,reldom2_s028,001,2025-03-04_12h23.41.123,Aud-A-Scan_AC,2022.2.5,None,
0,0.0,None,fixation,stimulus/audwhere_stim/blank_white.png,stimulus/audwhere_stim/blank_white.png,stimulus/audwhat_stim/blank_white.png,stimulus/audwhat_stim/blank_white.png,stimulus/audwhere_stim/blank_white.png,stimulus/audwhere_stim/blank_white.png,stimulus/audwhere_stim/blank_white.png,stimulus/audwhere_stim/blank_white.png,0.0,0.0,0.0,0.0,0,0.0,0,0.0,0,0.0,0,0.0,0,0.0,0.0,0,0,0,0,0,0,0,0,0,0.0,0,0.0,0,0.0,0,0.0,9,,,,,0,5,5,5,,,,,,,,,70.56567749998067,70.56567749998067,70.56567749998067,70.56567749998067,70.56567749998067,70.56567749998067,70.56567749998067,70.56567749998067,70.46985370831874,70.56567749998067,70.56567749998067,70.56567749998067,70.46985370831874,70.56567749998067,70.56567749998067,70.56567749998067,70.56567749998067,70.56567749998067,70.56567749998067,70.56567749998067,70.56567749998067,70.56567749998067,70.56567749998067,70.56567749998067,70.56567749998067,70.56567749998067,70.56567749998067,70.51985370831875,70.56567749998067,70.56567749998067,70.56567749998067,70.51985370831875,70.56567749998067,70.56567749998067,70.56567749998067,70.56567749998067,70.56567749998067,75.75574341701576,75.75574341701576,79.71554741699947,None,0,,reldom2_s028,001,2025-03-04_12h23.41.123,Aud-A-Scan_AC,2022.2.5,None,
5,Second_Order,1.0,audwhere,stimulus/audwhere_stim/left_away_290h.wav,stimulus/audwhere_stim/right_away_300h.wav,stimulus/audwhere_stim/right_toward_290h.wav,stimulus/audwhere_stim/left_toward_300h.wav,stimulus/audwhere_stim/match_blank.png,stimulus/audwhere_stim/match_box.png,stimulus/audwhere_stim/match_yes.png,stimulus/audwhere_stim/match_no.png,1.0,Match,Direction,Direction,1,5.125,0,5.125,0,5.125,0,5.125,0,0.75,0.75,0,0,0,0,0,0,0,0,1,0.5,1,2.125,1,0.5,1,2.125,0,,,,,0,6,6,6,,,,,,,,,79.71554741699947,84.83060420898255,79.71554741699947,79.71554741699947,79.71554741699947,79.71554741699947,80.16913470899453,81.1677795840078,80.1821123336597,81.17156925000018,81.78995537495939,82.78804979199776,81.80265870865357,,84.83060420898255,85.68320479197428,87.7361731249839,,85.68320479197428,85.68320479197428,90.84579991700593,85.68320479197428,85.68320479197428,85.68320479197428,85.68320479197428,86.13692241697572,87.18542212498141,86.10782908363423,,87.7361731249839,88.78970299998764,87.70675408363265,,85.68320479197428,90.84579991700593,85.68320479197428,90.84579991700593,90.84579991700593,,85.68320479197428,1,1,0.9510272910119966,reldom2_s028,001,2025-03-04_12h23.41.123,Aud-A-Scan_AC,2022.2.5,None,
6,Second_Order,1.0,audwhere,stimulus/audwhere_stim/left_away_280h.wav,stimulus/audwhere_stim/right_away_280h.wav,stimulus/audwhere_stim/left_away_300h.wav,stimulus/audwhere_stim/left_toward_280h.wav,stimulus/audwhere_stim/match_blank.png,stimulus/audwhere_stim/match_box.png,stimulus/audwhere_stim/match_yes.png,stimulus/audwhere_stim/match_no.png,2.0,Match,Direction,Side,2,5.125,0,5.125,0,5.125,0,5.125,0,0.625,0.625,0,0,0,0,0,0,0,0,1,0.5,1,2.125,1,0.5,1,2.125,0,,,,,0,7,7,7,,,,,,,,,91.6478261249722,96.77064050000627,91.6478261249722,91.6478261249722,91.6478261249722,91.6478261249722,92.09471383399796,93.08221733401297,92.10910245863876,,93.72988233400974,94.71949454199057,93.7333728756678,,96.77064050000627,97.50667941698339,99.54547408397775,,97.50667941698339,97.50667941698339,102.68856508401223,97.50667941698339,97.50667941698339,97.50667941698339,97.50667941698339,97.95729687501444,98.99927550001303,97.9287710416286,,99.54547408397775,100.5958223749767,99.51712854166205,,97.50667941698339,102.68856508401223,97.50667941698339,102.68856508401223,102.68856508401223,103.36764412501361,97.50667941698339,2,1,0.8368167909793556,reldom2_s028,001,2025-03-04_12h23.41.123,Aud-A-Scan_AC,2022.2.5,None,
0,0.0,None,fixation,stimulus/audwhere_stim/blank_white.png,stimulus/audwhere_stim/blank_white.png,stimulus/audwhat_stim/blank_white.png,stimulus/audwhat_stim/blank_white.png,stimulus/audwhere_stim/blank_white.png,stimulus/audwhere_stim/blank_white.png,stimulus/audwhere_stim/blank_white.png,stimulus/audwhere_stim/blank_white.png,0.0,0.0,0.0,0.0,0,0.0,0,0.0,0,0.0,0,0.0,0,0.0,0.0,0,0,0,0,0,0,0,0,0,0.0,0,0.0,0,0.0,0,0.0,10,,,,,0,8,8,8,,,,,,,,,103.59773979196325,103.59773979196325,103.59773979196325,103.59773979196325,103.59773979196325,103.59773979196325,103.59773979196325,103.59773979196325,103.50097745834694,103.59773979196325,103.59773979196325,103.59773979196325,103.50097745834694,103.59773979196325,103.59773979196325,103.59773979196325,103.59773979196325,103.59773979196325,103.59773979196325,103.59773979196325,103.59773979196325,103.59773979196325,103.59773979196325,103.59773979196325,103.59773979196325,103.59773979196325,103.59773979196325,103.55097745834695,103.59773979196325,103.59773979196325,103.59773979196325,103.55097745834695,103.59773979196325,103.59773979196325,103.59773979196325,103.59773979196325,103.59773979196325,108.79140683397418,108.79140683397418,113.85740016697673,None,0,,reldom2_s028,001,2025-03-04_12h23.41.123,Aud-A-Scan_AC,2022.2.5,None,
7,First_Order,2.0,audwhere,stimulus/audwhere_stim/dummy.wav,stimulus/audwhere_stim/dummy.wav,stimulus/audwhere_stim/left_away_300h.wav,stimulus/audwhere_stim/right_away_300h.wav,stimulus/audwhere_stim/blank_white.png,stimulus/audwhere_stim/side_box.png,stimulus/audwhere_stim/side_yes.png,stimulus/audwhere_stim/side_no.png,None,Side,None,Direction,2,0.0,0,5.125,0,5.125,0,5.125,0,0.0,0.625,0,0,0,0,0,0,0,0,0,0.0,0,0.0,1,0.5,1,2.125,0,,,,,0,9,9,9,,,,,,,,,113.85740016697673,113.85740016697673,113.85740016697673,113.85740016697673,113.85740016697673,113.85740016697673,113.85740016697673,113.85740016697673,113.7867193336521,113.85740016697673,113.85740016697673,113.85740016697673,113.7867193336521,113.85740016697673,113.85740016697673,113.85740016697673,115.96993141697021,,113.85740016697673,113.85740016697673,119.0475642500096,113.85740016697673,113.85740016697673,113.85740016697673,113.85740016697673,114.31507549999515,115.37140316696605,114.2855537086764,,115.96993141697021,117.02890054200543,115.94049762568126,,113.85740016697673,119.0475642500096,113.85740016697673,119.0475642500096,119.0475642500096,119.73611058399547,113.85740016697673,2,1,0.6394941660109907,reldom2_s028,001,2025-03-04_12h23.41.123,Aud-A-Scan_AC,2022.2.5,None,
8,First_Order,2.0,audwhere,stimulus/audwhere_stim/dummy.wav,stimulus/audwhere_stim/dummy.wav,stimulus/audwhere_stim/left_away_280h.wav,stimulus/audwhere_stim/right_away_270h.wav,stimulus/audwhere_stim/blank_white.png,stimulus/audwhere_stim/side_box.png,stimulus/audwhere_stim/side_yes.png,stimulus/audwhere_stim/side_no.png,None,Side,None,Direction,2,0.0,0,5.125,0,5.125,0,5.125,0,0.0,0.625,0,0,0,0,0,0,0,0,0,0.0,0,0.0,1,0.5,1,2.125,0,,,,,0,10,10,10,,,,,,,,,119.94812554196687,119.94812554196687,119.94812554196687,119.94812554196687,119.94812554196687,119.94812554196687,119.94812554196687,119.94812554196687,119.8694439173288,119.94812554196687,119.94812554196687,119.94812554196687,119.8694439173288,119.94812554196687,119.94812554196687,119.94812554196687,122.06253958400339,,119.94812554196687,119.94812554196687,125.10347845900105,119.94812554196687,119.94812554196687,119.94812554196687,119.94812554196687,120.40614529198501,121.46463775000302,120.37641325063693,,122.06253958400339,123.12392204196658,122.03330995864623,,119.94812554196687,125.10347845900105,119.94812554196687,125.10347845900105,125.14420579199214,125.83269008400384,119.94812554196687,2,1,1.6089878749917261,reldom2_s028,001,2025-03-04_12h23.41.123,Aud-A-Scan_AC,2022.2.5,None,
9,First_Order,2.0,audwhere,stimulus/audwhere_stim/dummy.wav,stimulus/audwhere_stim/dummy.wav,stimulus/audwhere_stim/left_away_280h.wav,stimulus/audwhere_stim/right_away_300h.wav,stimulus/audwhere_stim/blank_white.png,stimulus/audwhere_stim/direction_box.png,stimulus/audwhere_stim/direction_yes.png,stimulus/audwhere_stim/direction_no.png,None,Direction,None,Direction,1,0.0,0,5.125,0,5.125,0,5.125,0,0.0,0.625,0,0,0,0,0,0,0,0,0,0.0,0,0.0,1,0.5,1,2.125,0,,,,,0,11,11,11,,,,,,,,,126.0444284999976,126.0444284999976,126.0444284999976,126.0444284999976,126.0444284999976,126.0444284999976,126.0444284999976,126.0444284999976,125.96602341733717,126.0444284999976,126.0444284999976,126.0444284999976,125.96602341733717,126.0444284999976,126.0444284999976,126.0444284999976,128.1309401249746,,126.0444284999976,126.0444284999976,131.19392991700443,126.0444284999976,126.0444284999976,126.0444284999976,126.0444284999976,126.5060559589765,127.57154487498337,126.47618804168111,,128.1309401249746,129.20054458396044,128.10089495865785,,126.0444284999976,131.19392991700443,126.0444284999976,131.19392991700443,131.23536599997897,131.89226779196179,126.0444284999976,1,1,1.0199770409963094,reldom2_s028,001,2025-03-04_12h23.41.123,Aud-A-Scan_AC,2022.2.5,None,
10,First_Order,2.0,audwhere,stimulus/audwhere_stim/dummy.wav,stimulus/audwhere_stim/dummy.wav,stimulus/audwhere_stim/right_away_270h.wav,stimulus/audwhere_stim/right_toward_300h.wav,stimulus/audwhere_stim/blank_white.png,stimulus/audwhere_stim/side_box.png,stimulus/audwhere_stim/side_yes.png,stimulus/audwhere_stim/side_no.png,None,Side,None,Side,1,0.0,0,5.125,0,5.125,0,5.125,0,0.0,0.625,0,0,0,0,0,0,0,0,0,0.0,0,0.0,1,0.5,1,2.125,0,,,,,0,12,12,12,,,,,,,,,132.14519574999576,132.14519574999576,132.14519574999576,132.14519574999576,132.14519574999576,132.14519574999576,132.14519574999576,132.14519574999576,132.06640400030497,132.14519574999576,132.14519574999576,132.14519574999576,132.06640400030497,132.14519574999576,132.14519574999576,132.14519574999576,134.22497824998572,138.27973129198654,132.14519574999576,132.14519574999576,137.3168171250145,132.14519574999576,132.14519574999576,132.14519574999576,132.14519574999576,132.60828104196116,133.6716040839674,132.57857158367213,,134.22497824998572,135.28839345899178,134.1950987506464,,132.14519574999576,137.3168171250145,132.14519574999576,137.3168171250145,137.35785420896718,138.0071902089985,132.14519574999576,1,1,1.2382830820279196,reldom2_s028,001,2025-03-04_12h23.41.123,Aud-A-Scan_AC,2022.2.5,None,
0,0.0,None,fixation,stimulus/audwhere_stim/blank_white.png,stimulus/audwhere_stim/blank_white.png,stimulus/audwhat_stim/blank_white.png,stimulus/audwhat_stim/blank_white.png,stimulus/audwhere_stim/blank_white.png,stimulus/audwhere_stim/blank_white.png,stimulus/audwhere_stim/blank_white.png,stimulus/audwhere_stim/blank_white.png,0.0,0.0,0.0,0.0,0,0.0,0,0.0,0,0.0,0,0.0,0,0.0,0.0,0,0,0,0,0,0,0,0,0,0.0,0,0.0,0,0.0,0,0.0,8,,,,,0,13,13,13,,,,,,,,,138.27973129198654,138.27973129198654,138.27973129198654,138.27973129198654,138.27973129198654,138.27973129198654,138.27973129198654,138.27973129198654,138.18124683332476,138.27973129198654,138.27973129198654,138.27973129198654,138.18124683332476,138.27973129198654,138.27973129198654,138.27973129198654,138.27973129198654,138.27973129198654,138.27973129198654,138.27973129198654,138.27973129198654,138.27973129198654,138.27973129198654,138.27973129198654,138.27973129198654,138.27973129198654,138.27973129198654,138.23124683332475,138.27973129198654,138.27973129198654,138.27973129198654,138.23124683332475,138.27973129198654,138.27973129198654,138.27973129198654,138.27973129198654,138.27973129198654,143.49542762496276,143.49542762496276,146.4095161249861,None,0,,reldom2_s028,001,2025-03-04_12h23.41.123,Aud-A-Scan_AC,2022.2.5,None,
11,Second_Order,2.0,audwhere,stimulus/audwhere_stim/left_away_280h.wav,stimulus/audwhere_stim/left_toward_280h.wav,stimulus/audwhere_stim/right_toward_280h.wav,stimulus/audwhere_stim/left_toward_270h.wav,stimulus/audwhere_stim/match_blank.png,stimulus/audwhere_stim/match_box.png,stimulus/audwhere_stim/match_yes.png,stimulus/audwhere_stim/match_no.png,2.0,Match,Side,Direction,2,5.125,0,5.125,0,5.125,0,5.125,0,0.75,0.75,0,0,0,0,0,0,0,0,1,0.5,1,2.125,1,0.5,1,2.125,0,,,,,0,14,14,14,,,,,,,,,146.4095161249861,151.53452045901213,146.4095161249861,146.4095161249861,146.4095161249861,146.4095161249861,146.85639116697712,147.85489112499636,146.86929000064654,,148.49506366701098,149.4920348749729,148.5067242506814,,151.53452045901213,152.38473279197933,154.4487304170034,158.38176033401396,152.38473279197933,152.38473279197933,157.57719499996165,152.38473279197933,152.38473279197933,152.38473279197933,152.38473279197933,152.84063279198017,153.8971762919682,152.8117755416354,,154.4487304170034,155.5099172089831,154.4192186256444,,152.38473279197933,157.57719499996165,152.38473279197933,157.57719499996165,157.57719499996165,,152.38473279197933,2,1,1.2143005410325713,reldom2_s028,001,2025-03-04_12h23.41.123,Aud-A-Scan_AC,2022.2.5,None,
12,Second_Order,2.0,audwhere,stimulus/audwhere_stim/left_away_300h.wav,stimulus/audwhere_stim/right_away_270h.wav,stimulus/audwhere_stim/left_toward_280h.wav,stimulus/audwhere_stim/right_toward_280h.wav,stimulus/audwhere_stim/match_blank.png,stimulus/audwhere_stim/match_box.png,stimulus/audwhere_stim/match_yes.png,stimulus/audwhere_stim/match_no.png,1.0,Match,Direction,Direction,1,5.125,0,5.125,0,5.125,0,5.125,0,0.625,0.625,0,0,0,0,0,0,0,0,1,0.5,1,2.125,1,0.5,1,2.125,0,,,,,0,15,15,15,,,,,,,,,158.38176033401396,163.4961865840014,158.38176033401396,158.38176033401396,158.38176033401396,158.38176033401396,158.83346262498526,159.81975583400344,158.84729537566116,,160.45529070898192,161.45406120899133,160.4676170006317,,163.4961865840014,164.2226003750111,166.27164429199183,170.3403707089601,164.2226003750111,164.2226003750111,169.38578800001414,164.2226003750111,164.2226003750111,164.2226003750111,164.2226003750111,164.67549074999988,165.7253044169629,164.6465574586803,,166.27164429199183,167.3270067499834,166.24226750067126,,164.2226003750111,169.38578800001414,164.2226003750111,169.38578800001414,169.38578800001414,170.07037279196084,164.2226003750111,1,1,0.8402156660449691,reldom2_s028,001,2025-03-04_12h23.41.123,Aud-A-Scan_AC,2022.2.5,None,
0,0.0,None,fixation,stimulus/audwhere_stim/blank_white.png,stimulus/audwhere_stim/blank_white.png,stimulus/audwhat_stim/blank_white.png,stimulus/audwhat_stim/blank_white.png,stimulus/audwhere_stim/blank_white.png,stimulus/audwhere_stim/blank_white.png,stimulus/audwhere_stim/blank_white.png,stimulus/audwhere_stim/blank_white.png,0.0,0.0,0.0,0.0,0,0.0,0,0.0,0,0.0,0,0.0,0,0.0,0.0,0,0,0,0,0,0,0,0,0,0.0,0,0.0,0,0.0,0,0.0,8,,,,,0,16,16,16,,,,,,,,,170.3403707089601,170.3403707089601,170.3403707089601,170.3403707089601,170.3403707089601,170.3403707089601,170.3403707089601,170.3403707089601,170.24393154229816,170.3403707089601,170.3403707089601,170.3403707089601,170.24393154229816,170.3403707089601,170.3403707089601,170.3403707089601,170.3403707089601,170.3403707089601,170.3403707089601,170.3403707089601,170.3403707089601,170.3403707089601,170.3403707089601,170.3403707089601,170.3403707089601,170.3403707089601,170.3403707089601,170.29393154229814,170.3403707089601,170.3403707089601,170.3403707089601,170.29393154229814,170.3403707089601,170.3403707089601,170.3403707089601,170.3403707089601,170.3403707089601,175.55842675000895,175.55842675000895,178.596817291982,None,0,,reldom2_s028,001,2025-03-04_12h23.41.123,Aud-A-Scan_AC,2022.2.5,None,
13,First_Order,3.0,audwhat,stimulus/audwhat_stim/dummy.wav,stimulus/audwhat_stim/dummy.wav,stimulus/audwhat_stim/percussion xylophone_high-pitch_F_loud.wav,stimulus/audwhat_stim/percussion mallet_low-pitch_Dtri_loud.wav,stimulus/audwhat_stim/blank_white.png,stimulus/audwhat_stim/category_box.png,stimulus/audwhat_stim/category_yes.png,stimulus/audwhat_stim/category_no.png,None,Category,None,Category,1,0.0,0,5.125,0,5.125,0,5.125,0,0.0,0.625,0,0,0,0,0,0,0,0,0,0.0,0,0.0,1,0.5,1,2.125,0,,,,,0,17,17,17,,,,,,,,,178.596817291982,178.596817291982,178.596817291982,178.596817291982,178.596817291982,178.596817291982,178.596817291982,178.596817291982,178.52506591662922,178.596817291982,178.596817291982,178.596817291982,178.52506591662922,178.596817291982,178.596817291982,178.596817291982,180.67901529197115,184.72524237498874,178.596817291982,178.596817291982,183.78201704198727,178.596817291982,178.596817291982,178.596817291982,178.596817291982,179.0581946669845,180.12328008399345,179.02798987564555,180.07687137497123,180.67901529197115,181.7463984999922,180.6490871666504,,178.596817291982,183.78201704198727,178.596817291982,183.78201704198727,183.82260462496197,184.47243562497897,178.596817291982,1,1,1.106322750041727,reldom2_s028,001,2025-03-04_12h23.41.123,Aud-A-Scan_AC,2022.2.5,None,
14,First_Order,3.0,audwhat,stimulus/audwhat_stim/dummy.wav,stimulus/audwhat_stim/dummy.wav,stimulus/audwhat_stim/string cello_low-pitch_Ftri_loud.wav,stimulus/audwhat_stim/string viola_high-pitch_F_loud.wav,stimulus/audwhat_stim/blank_white.png,stimulus/audwhat_stim/category_box.png,stimulus/audwhat_stim/category_yes.png,stimulus/audwhat_stim/category_no.png,None,Category,None,Category,1,0.0,0,5.125,0,5.125,0,5.125,0,0.0,0.625,0,0,0,0,0,0,0,0,0,0.0,0,0.0,1,0.5,1,2.125,0,,,,,0,18,18,18,,,,,,,,,184.72524237498874,184.72524237498874,184.72524237498874,184.72524237498874,184.72524237498874,184.72524237498874,184.72524237498874,184.72524237498874,184.64611587531013,184.72524237498874,184.72524237498874,184.72524237498874,184.64611587531013,184.72524237498874,184.72524237498874,184.72524237498874,186.8122953749844,,184.72524237498874,184.72524237498874,189.87938591698185,184.72524237498874,184.72524237498874,184.72524237498874,184.72524237498874,185.18859987496398,186.2545645419741,185.15870233363628,,186.8122953749844,187.88594283396378,186.78235295863513,,184.72524237498874,189.87938591698185,184.72524237498874,189.87938591698185,189.92014150001341,190.57178708398715,184.72524237498874,1,1,0.7411699990043417,reldom2_s028,001,2025-03-04_12h23.41.123,Aud-A-Scan_AC,2022.2.5,None,
15,First_Order,3.0,audwhat,stimulus/audwhat_stim/dummy.wav,stimulus/audwhat_stim/dummy.wav,stimulus/audwhat_stim/string viola_low-pitch_D_loud.wav,stimulus/audwhat_stim/percussion mallet_low-pitch_D_loud.wav,stimulus/audwhat_stim/blank_white.png,stimulus/audwhat_stim/pitch_box.png,stimulus/audwhat_stim/pitch_yes.png,stimulus/audwhat_stim/pitch_no.png,None,Pitch,None,Pitch,1,0.0,0,5.125,0,5.125,0,5.125,0,0.0,0.625,0,0,0,0,0,0,0,0,0,0.0,0,0.0,1,0.5,1,2.125,0,,,,,0,19,19,19,,,,,,,,,190.8245899999747,190.8245899999747,190.8245899999747,190.8245899999747,190.8245899999747,190.8245899999747,190.8245899999747,190.8245899999747,190.74516929229335,190.8245899999747,190.8245899999747,190.8245899999747,190.74516929229335,190.8245899999747,190.8245899999747,190.8245899999747,192.90702345897444,,190.8245899999747,190.8245899999747,196.0174337499775,190.8245899999747,190.8245899999747,190.8245899999747,190.8245899999747,191.28700112499064,192.35156387498137,191.25739483366877,,192.90702345897444,193.97609658399597,192.87728495867148,,190.8245899999747,196.0174337499775,190.8245899999747,196.0174337499775,196.0174337499775,196.66796424996573,190.8245899999747,1,1,1.8613946250407025,reldom2_s028,001,2025-03-04_12h23.41.123,Aud-A-Scan_AC,2022.2.5,None,
16,First_Order,3.0,audwhat,stimulus/audwhat_stim/dummy.wav,stimulus/audwhat_stim/dummy.wav,stimulus/audwhat_stim/string cello_low-pitch_D_loud.wav,stimulus/audwhat_stim/string viola_high-pitch_Dtri_loud.wav,stimulus/audwhat_stim/blank_white.png,stimulus/audwhat_stim/pitch_box.png,stimulus/audwhat_stim/pitch_yes.png,stimulus/audwhat_stim/pitch_no.png,None,Pitch,None,Category,2,0.0,0,5.125,0,5.125,0,5.125,0,0.0,0.625,0,0,0,0,0,0,0,0,0,0.0,0,0.0,1,0.5,1,2.125,0,,,,,0,20,20,20,,,,,,,,,196.92105641699163,196.92105641699163,196.92105641699163,196.92105641699163,196.92105641699163,196.92105641699163,196.92105641699163,196.92105641699163,196.84204587529726,196.92105641699163,196.92105641699163,196.92105641699163,196.84204587529726,196.92105641699163,196.92105641699163,196.92105641699163,199.00638566695852,,196.92105641699163,196.92105641699163,202.11029416701058,196.92105641699163,196.92105641699163,196.92105641699163,196.92105641699163,197.38429262500722,198.45138099999167,197.35438012564944,,199.00638566695852,200.0736876669689,198.97626629163668,,196.92105641699163,202.11029416701058,196.92105641699163,202.11029416701058,202.15147395897657,202.8031312089879,196.92105641699163,2,1,1.039663958013989,reldom2_s028,001,2025-03-04_12h23.41.123,Aud-A-Scan_AC,2022.2.5,None,
0,0.0,None,fixation,stimulus/audwhere_stim/blank_white.png,stimulus/audwhere_stim/blank_white.png,stimulus/audwhat_stim/blank_white.png,stimulus/audwhat_stim/blank_white.png,stimulus/audwhere_stim/blank_white.png,stimulus/audwhere_stim/blank_white.png,stimulus/audwhere_stim/blank_white.png,stimulus/audwhere_stim/blank_white.png,0.0,0.0,0.0,0.0,0,0.0,0,0.0,0,0.0,0,0.0,0,0.0,0.0,0,0,0,0,0,0,0,0,0,0.0,0,0.0,0,0.0,0,0.0,8,,,,,0,21,21,21,,,,,,,,,203.03567045897944,203.03567045897944,203.03567045897944,203.03567045897944,203.03567045897944,203.03567045897944,203.03567045897944,203.03567045897944,202.93646454232126,203.03567045897944,203.03567045897944,203.03567045897944,202.93646454232126,203.03567045897944,203.03567045897944,203.03567045897944,203.03567045897944,203.03567045897944,203.03567045897944,203.03567045897944,203.03567045897944,203.03567045897944,203.03567045897944,203.03567045897944,203.03567045897944,203.03567045897944,203.03567045897944,202.98646454232124,203.03567045897944,203.03567045897944,203.03567045897944,202.98646454232124,203.03567045897944,203.03567045897944,203.03567045897944,203.03567045897944,203.03567045897944,208.2629495000001,208.2629495000001,211.1825342499651,None,0,,reldom2_s028,001,2025-03-04_12h23.41.123,Aud-A-Scan_AC,2022.2.5,None,
17,Second_Order,3.0,audwhat,stimulus/audwhat_stim/percussion mallet_high-pitch_F_loud.wav,stimulus/audwhat_stim/string viola_high-pitch_F_loud.wav,stimulus/audwhat_stim/string cello_low-pitch_Ftri_loud.wav,stimulus/audwhat_stim/string cello_high-pitch_Dtri_loud.wav,stimulus/audwhere_stim/match_blank.png,stimulus/audwhat_stim/match_box.png,stimulus/audwhere_stim/match_yes.png,stimulus/audwhere_stim/match_no.png,2.0,Match,Pitch,Category,2,5.125,0,5.125,0,5.125,0,5.125,0,0.75,0.75,0,0,0,0,0,0,0,0,1,0.5,1,2.125,1,0.5,1,2.125,0,,,,,0,22,22,22,,,,,,,,,211.1825342499651,216.30117487499956,211.1825342499651,211.1825342499651,211.1825342499651,211.1825342499651,211.63975687499624,212.63824541697977,211.65188570868148,,213.26000712497625,214.25847025000257,213.27244954166625,,216.30117487499956,217.1512769589899,219.21468945901142,223.15166695899097,217.1512769589899,217.1512769589899,222.30362187500577,217.1512769589899,217.1512769589899,217.1512769589899,217.1512769589899,217.6064208750031,218.6644818749628,217.57781429164268,,219.21468945901142,220.2781427919981,219.1850867086362,,217.1512769589899,222.30362187500577,217.1512769589899,222.30362187500577,222.3447625839617,,217.1512769589899,2,1,0.9670184580027126,reldom2_s028,001,2025-03-04_12h23.41.123,Aud-A-Scan_AC,2022.2.5,None,
18,Second_Order,3.0,audwhat,stimulus/audwhat_stim/string viola_low-pitch_F_loud.wav,stimulus/audwhat_stim/percussion mallet_low-pitch_F_loud.wav,stimulus/audwhat_stim/percussion mallet_high-pitch_Ftri_loud.wav,stimulus/audwhat_stim/string cello_high-pitch_Ftri_loud.wav,stimulus/audwhere_stim/match_blank.png,stimulus/audwhat_stim/match_box.png,stimulus/audwhere_stim/match_yes.png,stimulus/audwhere_stim/match_no.png,1.0,Match,Pitch,Pitch,1,5.125,0,5.125,0,5.125,0,5.125,0,0.625,0.625,0,0,0,0,0,0,0,0,1,0.5,1,2.125,1,0.5,1,2.125,0,,,,,0,23,23,23,,,,,,,,,223.15166695899097,228.2742415840039,223.15166695899097,223.15166695899097,223.15166695899097,223.15166695899097,223.59925591701176,224.587027208996,223.61350004165823,,225.23379045899492,226.22388633398805,225.23714529164525,,228.2742415840039,229.008242958982,231.05839679198107,,229.008242958982,229.008242958982,234.1742300419719,229.008242958982,229.008242958982,229.008242958982,229.008242958982,229.46031920897076,230.51046979200328,229.43128333363373,,231.05839679198107,232.11428887496004,231.02902770863537,,229.008242958982,234.1742300419719,229.008242958982,234.1742300419719,234.1742300419719,234.82270195899764,229.008242958982,1,1,0.8821433740085922,reldom2_s028,001,2025-03-04_12h23.41.123,Aud-A-Scan_AC,2022.2.5,None,
0,0.0,None,fixation,stimulus/audwhere_stim/blank_white.png,stimulus/audwhere_stim/blank_white.png,stimulus/audwhat_stim/blank_white.png,stimulus/audwhat_stim/blank_white.png,stimulus/audwhere_stim/blank_white.png,stimulus/audwhere_stim/blank_white.png,stimulus/audwhere_stim/blank_white.png,stimulus/audwhere_stim/blank_white.png,0.0,0.0,0.0,0.0,0,0.0,0,0.0,0,0.0,0,0.0,0,0.0,0.0,0,0,0,0,0,0,0,0,0,0.0,0,0.0,0,0.0,0,0.0,9,,,,,0,24,24,24,,,,,,,,,235.0942827090039,235.0942827090039,235.0942827090039,235.0942827090039,235.0942827090039,235.0942827090039,235.0942827090039,235.0942827090039,234.99637875033855,235.0942827090039,235.0942827090039,235.0942827090039,234.99637875033855,235.0942827090039,235.0942827090039,235.0942827090039,235.0942827090039,235.0942827090039,235.0942827090039,235.0942827090039,235.0942827090039,235.0942827090039,235.0942827090039,235.0942827090039,235.0942827090039,235.0942827090039,235.0942827090039,235.04637875033853,235.0942827090039,235.0942827090039,235.0942827090039,235.04637875033853,235.0942827090039,235.0942827090039,235.0942827090039,235.0942827090039,235.0942827090039,240.27746124996338,240.27746124996338,244.3247333340114,None,0,,reldom2_s028,001,2025-03-04_12h23.41.123,Aud-A-Scan_AC,2022.2.5,None,
19,First_Order,4.0,audwhat,stimulus/audwhat_stim/dummy.wav,stimulus/audwhat_stim/dummy.wav,stimulus/audwhat_stim/percussion mallet_low-pitch_D_loud.wav,stimulus/audwhat_stim/string viola_low-pitch_D_loud.wav,stimulus/audwhat_stim/blank_white.png,stimulus/audwhat_stim/category_box.png,stimulus/audwhat_stim/category_yes.png,stimulus/audwhat_stim/category_no.png,None,Category,None,Pitch,2,0.0,0,5.125,0,5.125,0,5.125,0,0.0,0.625,0,0,0,0,0,0,0,0,0,0.0,0,0.0,1,0.5,1,2.125,0,,,,,0,25,25,25,,,,,,,,,244.3247333340114,244.3247333340114,244.3247333340114,244.3247333340114,244.3247333340114,244.3247333340114,244.3247333340114,244.3247333340114,244.2540170416275,244.3247333340114,244.3247333340114,244.3247333340114,244.2540170416275,244.3247333340114,244.3247333340114,244.3247333340114,246.41715445899172,,244.3247333340114,244.3247333340114,249.47820620896528,244.3247333340114,244.3247333340114,244.3247333340114,244.3247333340114,244.7906748749665,245.86123941699043,244.76104087563388,,246.41715445899172,247.48536670900648,246.3870330416287,,244.3247333340114,249.47820620896528,244.3247333340114,249.47820620896528,249.51974641700508,250.17488529201364,244.3247333340114,2,1,1.777817290974781,reldom2_s028,001,2025-03-04_12h23.41.123,Aud-A-Scan_AC,2022.2.5,None,
20,First_Order,4.0,audwhat,stimulus/audwhat_stim/dummy.wav,stimulus/audwhat_stim/dummy.wav,stimulus/audwhat_stim/percussion xylophone_high-pitch_Dtri_loud.wav,stimulus/audwhat_stim/string cello_high-pitch_Dtri_loud.wav,stimulus/audwhat_stim/blank_white.png,stimulus/audwhat_stim/pitch_box.png,stimulus/audwhat_stim/pitch_yes.png,stimulus/audwhat_stim/pitch_no.png,None,Pitch,None,Pitch,1,0.0,0,5.125,0,5.125,0,5.125,0,0.0,0.625,0,0,0,0,0,0,0,0,0,0.0,0,0.0,1,0.5,1,2.125,0,,,,,0,26,26,26,,,,,,,,,250.43011458398541,250.43011458398541,250.43011458398541,250.43011458398541,250.43011458398541,250.43011458398541,250.43011458398541,250.43011458398541,250.3481681673167,250.43011458398541,250.43011458398541,250.43011458398541,250.3481681673167,250.43011458398541,250.43011458398541,250.43011458398541,252.5110587499803,256.5530574999866,250.43011458398541,250.43011458398541,255.60501216701232,250.43011458398541,250.43011458398541,250.43011458398541,250.43011458398541,250.89234383398434,251.95665120898047,250.86249008367693,251.91043445898686,252.5110587499803,253.57782287499867,252.48141479166614,,250.43011458398541,255.60501216701232,250.43011458398541,255.60501216701232,255.64733112498652,256.2995225840132,250.43011458398541,1,1,0.7649569989880547,reldom2_s028,001,2025-03-04_12h23.41.123,Aud-A-Scan_AC,2022.2.5,None,
21,First_Order,4.0,audwhat,stimulus/audwhat_stim/dummy.wav,stimulus/audwhat_stim/dummy.wav,stimulus/audwhat_stim/string viola_low-pitch_D_loud.wav,stimulus/audwhat_stim/percussion mallet_low-pitch_D_loud.wav,stimulus/audwhat_stim/blank_white.png,stimulus/audwhat_stim/category_box.png,stimulus/audwhat_stim/category_yes.png,stimulus/audwhat_stim/category_no.png,None,Category,None,Pitch,2,0.0,0,5.125,0,5.125,0,5.125,0,0.0,0.625,0,0,0,0,0,0,0,0,0,0.0,0,0.0,1,0.5,1,2.125,0,,,,,0,27,27,27,,,,,,,,,256.5530574999866,256.5530574999866,256.5530574999866,256.5530574999866,256.5530574999866,256.5530574999866,256.5530574999866,256.5530574999866,256.473278792315,256.5530574999866,256.5530574999866,256.5530574999866,256.473278792315,256.5530574999866,256.5530574999866,256.5530574999866,258.64703229197767,262.66887041699374,256.5530574999866,256.5530574999866,261.71793845901266,256.5530574999866,256.5530574999866,256.5530574999866,256.5530574999866,257.01972916699015,258.0894605839858,256.9896296666741,,258.64703229197767,259.7188014590065,258.61725766666154,,256.5530574999866,261.71793845901266,256.5530574999866,261.71793845901266,261.7589467089856,262.41401349997614,256.5530574999866,2,1,1.5790815830114298,reldom2_s028,001,2025-03-04_12h23.41.123,Aud-A-Scan_AC,2022.2.5,None,
22,First_Order,4.0,audwhat,stimulus/audwhat_stim/dummy.wav,stimulus/audwhat_stim/dummy.wav,stimulus/audwhat_stim/string viola_low-pitch_Ftri_loud.wav,stimulus/audwhat_stim/string cello_high-pitch_D_loud.wav,stimulus/audwhat_stim/blank_white.png,stimulus/audwhat_stim/pitch_box.png,stimulus/audwhat_stim/pitch_yes.png,stimulus/audwhat_stim/pitch_no.png,None,Pitch,None,Category,2,0.0,0,5.125,0,5.125,0,5.125,0,0.0,0.625,0,0,0,0,0,0,0,0,0,0.0,0,0.0,1,0.5,1,2.125,0,,,,,0,28,28,28,,,,,,,,,262.66887041699374,262.66887041699374,262.66887041699374,262.66887041699374,262.66887041699374,262.66887041699374,262.66887041699374,262.66887041699374,262.5883583753331,262.66887041699374,262.66887041699374,262.66887041699374,262.5883583753331,262.66887041699374,262.66887041699374,262.66887041699374,264.75321608397644,,262.66887041699374,262.66887041699374,267.8578849170008,262.66887041699374,262.66887041699374,262.66887041699374,262.66887041699374,263.1314617919852,264.1976100419997,263.10142970865513,,264.75321608397644,265.82290029199794,264.72324612562466,,262.66887041699374,267.8578849170008,262.66887041699374,267.8578849170008,267.8578849170008,268.5138851669617,262.66887041699374,1,0,3.6666074990062043,reldom2_s028,001,2025-03-04_12h23.41.123,Aud-A-Scan_AC,2022.2.5,None,
0,0.0,None,fixation,stimulus/audwhere_stim/blank_white.png,stimulus/audwhere_stim/blank_white.png,stimulus/audwhat_stim/blank_white.png,stimulus/audwhat_stim/blank_white.png,stimulus/audwhere_stim/blank_white.png,stimulus/audwhere_stim/blank_white.png,stimulus/audwhere_stim/blank_white.png,stimulus/audwhere_stim/blank_white.png,0.0,0.0,0.0,0.0,0,0.0,0,0.0,0,0.0,0,0.0,0,0.0,0.0,0,0,0,0,0,0,0,0,0,0.0,0,0.0,0,0.0,0,0.0,10,,,,,0,29,29,29,,,,,,,,,268.7883267090074,268.7883267090074,268.7883267090074,268.7883267090074,268.7883267090074,268.7883267090074,268.7883267090074,268.7883267090074,268.68786808333437,268.7883267090074,268.7883267090074,268.7883267090074,268.68786808333437,268.7883267090074,268.7883267090074,268.7883267090074,268.7883267090074,268.7883267090074,268.7883267090074,268.7883267090074,268.7883267090074,268.7883267090074,268.7883267090074,268.7883267090074,268.7883267090074,268.7883267090074,268.7883267090074,268.7378680833344,268.7883267090074,268.7883267090074,268.7883267090074,268.7378680833344,268.7883267090074,268.7883267090074,268.7883267090074,268.7883267090074,268.7883267090074,273.9743953750003,273.9743953750003,278.92713324999204,None,0,,reldom2_s028,001,2025-03-04_12h23.41.123,Aud-A-Scan_AC,2022.2.5,None,
23,Second_Order,4.0,audwhat,stimulus/audwhat_stim/string cello_low-pitch_F_loud.wav,stimulus/audwhat_stim/string cello_high-pitch_Ftri_loud.wav,stimulus/audwhat_stim/percussion mallet_high-pitch_Ftri_loud.wav,stimulus/audwhat_stim/percussion mallet_low-pitch_F_loud.wav,stimulus/audwhere_stim/match_blank.png,stimulus/audwhat_stim/match_box.png,stimulus/audwhere_stim/match_yes.png,stimulus/audwhere_stim/match_no.png,1.0,Match,Category,Category,1,5.125,0,5.125,0,5.125,0,5.125,0,0.75,0.75,0,0,0,0,0,0,0,0,1,0.5,1,2.125,1,0.5,1,2.125,0,,,,,0,30,30,30,,,,,,,,,278.92713324999204,284.0409957499942,278.92713324999204,278.92713324999204,278.92713324999204,278.92713324999204,279.3794305839692,280.3781957089668,279.39232958364687,,281.0001388749806,281.99835612496827,281.0124700836643,,284.0409957499942,284.8916175419581,286.96075312496396,,284.8916175419581,284.8916175419581,290.05719962500734,284.8916175419581,284.8916175419581,284.8916175419581,284.8916175419581,285.3496815839899,286.40919112501433,285.3202792916602,,286.96075312496396,288.0265579589759,286.93115020863866,,284.8916175419581,290.05719962500734,284.8916175419581,290.05719962500734,290.05719962500734,,284.8916175419581,1,1,1.0764888320118189,reldom2_s028,001,2025-03-04_12h23.41.123,Aud-A-Scan_AC,2022.2.5,None,
24,Second_Order,4.0,audwhat,stimulus/audwhat_stim/percussion xylophone_high-pitch_Dtri_loud.wav,stimulus/audwhat_stim/percussion mallet_low-pitch_D_loud.wav,stimulus/audwhat_stim/string cello_low-pitch_Ftri_loud.wav,stimulus/audwhat_stim/string viola_high-pitch_D_loud.wav,stimulus/audwhere_stim/match_blank.png,stimulus/audwhat_stim/match_box.png,stimulus/audwhere_stim/match_yes.png,stimulus/audwhere_stim/match_no.png,1.0,Match,Category,Category,1,5.125,0,5.125,0,5.125,0,5.125,0,0.625,0.625,0,0,0,0,0,0,0,0,1,0.5,1,2.125,1,0.5,1,2.125,0,,,,,0,31,31,31,,,,,,,,,290.8656493749586,295.9860950419679,290.8656493749586,290.8656493749586,290.8656493749586,290.8656493749586,291.3240032090107,292.3220428749919,291.3367352086391,292.3253949590144,292.9452923749923,293.9423728749971,292.95706050063404,,295.9860950419679,296.71353137498954,298.76790954195894,,296.71353137498954,296.71353137498954,301.8895836250158,296.71353137498954,296.71353137498954,296.71353137498954,296.71353137498954,297.1681750419666,298.21986695897067,297.13935262564723,,298.76790954195894,299.8261334169656,298.7384671256334,,296.71353137498954,301.8895836250158,296.71353137498954,301.8895836250158,301.8895836250158,302.5739957090118,296.71353137498954,1,1,1.860920790990349,reldom2_s028,001,2025-03-04_12h23.41.123,Aud-A-Scan_AC,2022.2.5,None,
0,0.0,None,fixation,stimulus/audwhere_stim/blank_white.png,stimulus/audwhere_stim/blank_white.png,stimulus/audwhat_stim/blank_white.png,stimulus/audwhat_stim/blank_white.png,stimulus/audwhere_stim/blank_white.png,stimulus/audwhere_stim/blank_white.png,stimulus/audwhere_stim/blank_white.png,stimulus/audwhere_stim/blank_white.png,0.0,0.0,0.0,0.0,0,0.0,0,0.0,0,0.0,0,0.0,0,0.0,0.0,0,0,0,0,0,0,0,0,0,0.0,0,0.0,0,0.0,0,0.0,9,,,,,0,32,32,32,,,,,,,,,302.8050007089623,302.8050007089623,302.8050007089623,302.8050007089623,302.8050007089623,302.8050007089623,302.8050007089623,302.8050007089623,302.7073290423451,302.8050007089623,302.8050007089623,302.8050007089623,302.7073290423451,302.8050007089623,302.8050007089623,302.8050007089623,302.8050007089623,302.8050007089623,302.8050007089623,302.8050007089623,302.8050007089623,302.8050007089623,302.8050007089623,302.8050007089623,302.8050007089623,302.8050007089623,302.8050007089623,302.75732904234513,302.8050007089623,302.8050007089623,302.8050007089623,302.75732904234513,302.8050007089623,302.8050007089623,302.8050007089623,302.8050007089623,302.8050007089623,307.99415375001263,307.99415375001263,312.05961875000503,None,0,,reldom2_s028,001,2025-03-04_12h23.41.123,Aud-A-Scan_AC,2022.2.5,None,
25,First_Order,5.0,audwhere,stimulus/audwhere_stim/dummy.wav,stimulus/audwhere_stim/dummy.wav,stimulus/audwhere_stim/right_away_300h.wav,stimulus/audwhere_stim/right_toward_300h.wav,stimulus/audwhere_stim/blank_white.png,stimulus/audwhere_stim/direction_box.png,stimulus/audwhere_stim/direction_yes.png,stimulus/audwhere_stim/direction_no.png,None,Direction,None,Side,2,0.0,0,5.125,0,5.125,0,5.125,0,0.0,0.625,0,0,0,0,0,0,0,0,0,0.0,0,0.0,1,0.5,1,2.125,0,,,,,0,33,33,33,,,,,,,,,312.05961875000503,312.05961875000503,312.05961875000503,312.05961875000503,312.05961875000503,312.05961875000503,312.05961875000503,312.05961875000503,311.989379333662,312.05961875000503,312.05961875000503,312.05961875000503,311.989379333662,312.05961875000503,312.05961875000503,312.05961875000503,314.1538999999757,,312.05961875000503,312.05961875000503,317.21914066700265,312.05961875000503,312.05961875000503,312.05961875000503,312.05961875000503,312.5246934170136,313.5946145839989,312.4946713336433,,314.1538999999757,315.22280774998944,314.1237714166675,,312.05961875000503,317.21914066700265,312.05961875000503,317.21914066700265,317.2605012920103,317.91710208397126,312.05961875000503,2,1,2.115267540968489,reldom2_s028,001,2025-03-04_12h23.41.123,Aud-A-Scan_AC,2022.2.5,None,
26,First_Order,5.0,audwhere,stimulus/audwhere_stim/dummy.wav,stimulus/audwhere_stim/dummy.wav,stimulus/audwhere_stim/right_away_280h.wav,stimulus/audwhere_stim/left_away_270h.wav,stimulus/audwhere_stim/blank_white.png,stimulus/audwhere_stim/side_box.png,stimulus/audwhere_stim/side_yes.png,stimulus/audwhere_stim/side_no.png,None,Side,None,Direction,2,0.0,0,5.125,0,5.125,0,5.125,0,0.0,0.625,0,0,0,0,0,0,0,0,0,0.0,0,0.0,1,0.5,1,2.125,0,,,,,0,34,34,34,,,,,,,,,318.1701526250108,318.1701526250108,318.1701526250108,318.1701526250108,318.1701526250108,318.1701526250108,318.1701526250108,318.1701526250108,318.0912863753348,318.1701526250108,318.1701526250108,318.1701526250108,318.0912863753348,318.1701526250108,318.1701526250108,318.1701526250108,320.25160183396656,324.30038066697307,318.1701526250108,318.1701526250108,323.35386204201495,318.1701526250108,318.1701526250108,318.1701526250108,318.1701526250108,318.6333801249857,319.6983238749672,318.60339008365213,,320.25160183396656,321.31987637496786,320.221954000652,,318.1701526250108,323.35386204201495,318.1701526250108,323.35386204201495,323.3949725839775,324.04755395901157,318.1701526250108,2,1,0.5372747080400586,reldom2_s028,001,2025-03-04_12h23.41.123,Aud-A-Scan_AC,2022.2.5,None,
27,First_Order,5.0,audwhere,stimulus/audwhere_stim/dummy.wav,stimulus/audwhere_stim/dummy.wav,stimulus/audwhere_stim/left_away_300h.wav,stimulus/audwhere_stim/right_away_290h.wav,stimulus/audwhere_stim/blank_white.png,stimulus/audwhere_stim/direction_box.png,stimulus/audwhere_stim/direction_yes.png,stimulus/audwhere_stim/direction_no.png,None,Direction,None,Direction,1,0.0,0,5.125,0,5.125,0,5.125,0,0.0,0.625,0,0,0,0,0,0,0,0,0,0.0,0,0.0,1,0.5,1,2.125,0,,,,,0,35,35,35,,,,,,,,,324.30038066697307,324.30038066697307,324.30038066697307,324.30038066697307,324.30038066697307,324.30038066697307,324.30038066697307,324.30038066697307,324.2216117503432,324.30038066697307,324.30038066697307,324.30038066697307,324.2216117503432,324.30038066697307,324.30038066697307,324.30038066697307,326.3973786669667,330.4266614589724,324.30038066697307,324.30038066697307,329.4740179589717,324.30038066697307,324.30038066697307,324.30038066697307,324.30038066697307,324.76589429198066,325.8394937500125,324.7357588756752,,326.3973786669667,327.47031337500084,326.367154458658,,324.30038066697307,329.4740179589717,324.30038066697307,329.4740179589717,329.5150474999682,330.17264800000703,324.30038066697307,1,1,2.260459666023962,reldom2_s028,001,2025-03-04_12h23.41.123,Aud-A-Scan_AC,2022.2.5,None,
28,First_Order,5.0,audwhere,stimulus/audwhere_stim/dummy.wav,stimulus/audwhere_stim/dummy.wav,stimulus/audwhere_stim/left_away_290h.wav,stimulus/audwhere_stim/right_away_280h.wav,stimulus/audwhere_stim/blank_white.png,stimulus/audwhere_stim/direction_box.png,stimulus/audwhere_stim/direction_yes.png,stimulus/audwhere_stim/direction_no.png,None,Direction,None,Direction,1,0.0,0,5.125,0,5.125,0,5.125,0,0.0,0.625,0,0,0,0,0,0,0,0,0,0.0,0,0.0,1,0.5,1,2.125,0,,,,,0,36,36,36,,,,,,,,,330.4266614589724,330.4266614589724,330.4266614589724,330.4266614589724,330.4266614589724,330.4266614589724,330.4266614589724,330.4266614589724,330.3469336673462,330.4266614589724,330.4266614589724,330.4266614589724,330.3469336673462,330.4266614589724,330.4266614589724,330.4266614589724,332.52203466696665,336.5657874169992,330.4266614589724,330.4266614589724,335.5913668340072,330.4266614589724,330.4266614589724,330.4266614589724,330.4266614589724,330.8915432089707,331.96418720897054,330.8616143756701,,332.52203466696665,333.5942227090127,332.49179958366244,,330.4266614589724,335.5913668340072,330.4266614589724,335.5913668340072,335.63394295901526,336.2913960000151,330.4266614589724,1,1,1.3946925819618627,reldom2_s028,001,2025-03-04_12h23.41.123,Aud-A-Scan_AC,2022.2.5,None,
0,0.0,None,fixation,stimulus/audwhere_stim/blank_white.png,stimulus/audwhere_stim/blank_white.png,stimulus/audwhat_stim/blank_white.png,stimulus/audwhat_stim/blank_white.png,stimulus/audwhere_stim/blank_white.png,stimulus/audwhere_stim/blank_white.png,stimulus/audwhere_stim/blank_white.png,stimulus/audwhere_stim/blank_white.png,0.0,0.0,0.0,0.0,0,0.0,0,0.0,0,0.0,0,0.0,0,0.0,0.0,0,0,0,0,0,0,0,0,0,0.0,0,0.0,0,0.0,0,0.0,9,,,,,0,37,37,37,,,,,,,,,336.5657874169992,336.5657874169992,336.5657874169992,336.5657874169992,336.5657874169992,336.5657874169992,336.5657874169992,336.5657874169992,336.4654694583461,336.5657874169992,336.5657874169992,336.5657874169992,336.4654694583461,336.5657874169992,336.5657874169992,336.5657874169992,336.5657874169992,336.5657874169992,336.5657874169992,336.5657874169992,336.5657874169992,336.5657874169992,336.5657874169992,336.5657874169992,336.5657874169992,336.5657874169992,336.5657874169992,336.5154694583461,336.5657874169992,336.5657874169992,336.5657874169992,336.5154694583461,336.5657874169992,336.5657874169992,336.5657874169992,336.5657874169992,336.5657874169992,341.7531432500109,341.7531432500109,345.69503379199887,None,0,,reldom2_s028,001,2025-03-04_12h23.41.123,Aud-A-Scan_AC,2022.2.5,None,
29,Second_Order,5.0,audwhere,stimulus/audwhere_stim/right_toward_270h.wav,stimulus/audwhere_stim/right_away_280h.wav,stimulus/audwhere_stim/left_toward_290h.wav,stimulus/audwhere_stim/left_away_290h.wav,stimulus/audwhere_stim/match_blank.png,stimulus/audwhere_stim/match_box.png,stimulus/audwhere_stim/match_yes.png,stimulus/audwhere_stim/match_no.png,1.0,Match,Side,Side,1,5.125,0,5.125,0,5.125,0,5.125,0,0.75,0.75,0,0,0,0,0,0,0,0,1,0.5,1,2.125,1,0.5,1,2.125,0,,,,,0,38,38,38,,,,,,,,,345.69503379199887,350.81292858399684,345.69503379199887,345.69503379199887,345.69503379199887,345.69503379199887,346.15007149998564,347.14888208400225,346.163300416669,,347.7721611249726,348.7696257089847,347.7838640416778,,350.81292858399684,351.66194770898437,353.7366845419747,,351.66194770898437,351.66194770898437,356.8247621249757,351.66194770898437,351.66194770898437,351.66194770898437,351.66194770898437,352.12120779196266,353.1805104169762,352.09101758368,,353.7366845419747,354.79906287498306,353.70682304166644,,351.66194770898437,356.8247621249757,351.66194770898437,356.8247621249757,356.8247621249757,,351.66194770898437,1,1,1.587450416001957,reldom2_s028,001,2025-03-04_12h23.41.123,Aud-A-Scan_AC,2022.2.5,None,
30,Second_Order,5.0,audwhere,stimulus/audwhere_stim/left_toward_300h.wav,stimulus/audwhere_stim/left_away_290h.wav,stimulus/audwhere_stim/right_away_290h.wav,stimulus/audwhere_stim/right_toward_280h.wav,stimulus/audwhere_stim/match_blank.png,stimulus/audwhere_stim/match_box.png,stimulus/audwhere_stim/match_yes.png,stimulus/audwhere_stim/match_no.png,1.0,Match,Side,Side,1,5.125,0,5.125,0,5.125,0,5.125,0,0.625,0.625,0,0,0,0,0,0,0,0,1,0.5,1,2.125,1,0.5,1,2.125,0,,,,,0,39,39,39,,,,,,,,,357.6320975839626,362.75193387496984,357.6320975839626,357.6320975839626,357.6320975839626,357.6320975839626,358.0911412499845,359.07722033397295,358.09328345867493,,359.71514787495835,360.713581042015,359.7279310006454,,362.75193387496984,363.4836738340091,365.5534957089694,,363.4836738340091,363.4836738340091,368.6428922499763,363.4836738340091,363.4836738340091,363.4836738340091,363.4836738340091,363.9418973340071,364.9996534169768,363.91331308364556,,365.5534957089694,366.6191122090095,365.5236598336526,,363.4836738340091,368.6428922499763,363.4836738340091,368.6428922499763,368.68327508401126,369.33154766698135,363.4836738340091,1,1,0.9848692490486428,reldom2_s028,001,2025-03-04_12h23.41.123,Aud-A-Scan_AC,2022.2.5,None,
0,0.0,None,fixation,stimulus/audwhere_stim/blank_white.png,stimulus/audwhere_stim/blank_white.png,stimulus/audwhat_stim/blank_white.png,stimulus/audwhat_stim/blank_white.png,stimulus/audwhere_stim/blank_white.png,stimulus/audwhere_stim/blank_white.png,stimulus/audwhere_stim/blank_white.png,stimulus/audwhere_stim/blank_white.png,0.0,0.0,0.0,0.0,0,0.0,0,0.0,0,0.0,0,0.0,0,0.0,0.0,0,0,0,0,0,0,0,0,0,0.0,0,0.0,0,0.0,0,0.0,9,,,,,0,40,40,40,,,,,,,,,369.5630075839581,369.5630075839581,369.5630075839581,369.5630075839581,369.5630075839581,369.5630075839581,369.5630075839581,369.5630075839581,369.4648810003147,369.5630075839581,369.5630075839581,369.5630075839581,369.4648810003147,369.5630075839581,369.5630075839581,369.5630075839581,369.5630075839581,369.5630075839581,369.5630075839581,369.5630075839581,369.5630075839581,369.5630075839581,369.5630075839581,369.5630075839581,369.5630075839581,369.5630075839581,369.5630075839581,369.5148810003147,369.5630075839581,369.5630075839581,369.5630075839581,369.5148810003147,369.5630075839581,369.5630075839581,369.5630075839581,369.5630075839581,369.5630075839581,374.771750874992,374.771750874992,378.7927242500009,None,0,,reldom2_s028,001,2025-03-04_12h23.41.123,Aud-A-Scan_AC,2022.2.5,None,
31,First_Order,6.0,audwhere,stimulus/audwhere_stim/dummy.wav,stimulus/audwhere_stim/dummy.wav,stimulus/audwhere_stim/left_away_300h.wav,stimulus/audwhere_stim/left_toward_300h.wav,stimulus/audwhere_stim/blank_white.png,stimulus/audwhere_stim/side_box.png,stimulus/audwhere_stim/side_yes.png,stimulus/audwhere_stim/side_no.png,None,Side,None,Side,1,0.0,0,5.125,0,5.125,0,5.125,0,0.0,0.625,0,0,0,0,0,0,0,0,0,0.0,0,0.0,1,0.5,1,2.125,0,,,,,0,41,41,41,,,,,,,,,378.7927242500009,378.7927242500009,378.7927242500009,378.7927242500009,378.7927242500009,378.7927242500009,378.7927242500009,378.7927242500009,378.72111158367863,378.7927242500009,378.7927242500009,378.7927242500009,378.72111158367863,378.7927242500009,378.7927242500009,378.7927242500009,380.8707901670132,384.91577999998117,378.7927242500009,378.7927242500009,383.97106166696176,378.7927242500009,378.7927242500009,378.7927242500009,378.7927242500009,379.25528774998384,380.3189491669764,379.22541479167216,,380.8707901670132,381.93619770900114,380.8412281666572,,378.7927242500009,383.97106166696176,378.7927242500009,383.97106166696176,384.01220904197544,384.6632695000153,378.7927242500009,1,1,1.3501786660053767,reldom2_s028,001,2025-03-04_12h23.41.123,Aud-A-Scan_AC,2022.2.5,None,
32,First_Order,6.0,audwhere,stimulus/audwhere_stim/dummy.wav,stimulus/audwhere_stim/dummy.wav,stimulus/audwhere_stim/right_away_270h.wav,stimulus/audwhere_stim/left_away_280h.wav,stimulus/audwhere_stim/blank_white.png,stimulus/audwhere_stim/side_box.png,stimulus/audwhere_stim/side_yes.png,stimulus/audwhere_stim/side_no.png,None,Side,None,Direction,2,0.0,0,5.125,0,5.125,0,5.125,0,0.0,0.625,0,0,0,0,0,0,0,0,0,0.0,0,0.0,1,0.5,1,2.125,0,,,,,0,42,42,42,,,,,,,,,384.91577999998117,384.91577999998117,384.91577999998117,384.91577999998117,384.91577999998117,384.91577999998117,384.91577999998117,384.91577999998117,384.83749250034646,384.91577999998117,384.91577999998117,384.91577999998117,384.83749250034646,384.91577999998117,384.91577999998117,384.91577999998117,386.9975360839744,,384.91577999998117,384.91577999998117,390.103517792013,384.91577999998117,384.91577999998117,384.91577999998117,384.91577999998117,385.37717058398994,386.4435603339807,385.3479174166607,,386.9975360839744,388.06476083397865,386.96766362566655,,384.91577999998117,390.103517792013,384.91577999998117,390.103517792013,390.1442831669701,390.7950563749764,384.91577999998117,2,1,1.3228411240270361,reldom2_s028,001,2025-03-04_12h23.41.123,Aud-A-Scan_AC,2022.2.5,None,
33,First_Order,6.0,audwhere,stimulus/audwhere_stim/dummy.wav,stimulus/audwhere_stim/dummy.wav,stimulus/audwhere_stim/left_toward_270h.wav,stimulus/audwhere_stim/left_away_270h.wav,stimulus/audwhere_stim/blank_white.png,stimulus/audwhere_stim/direction_box.png,stimulus/audwhere_stim/direction_yes.png,stimulus/audwhere_stim/direction_no.png,None,Direction,None,Side,2,0.0,0,5.125,0,5.125,0,5.125,0,0.0,0.625,0,0,0,0,0,0,0,0,0,0.0,0,0.0,1,0.5,1,2.125,0,,,,,0,43,43,43,,,,,,,,,391.00750033400254,391.00750033400254,391.00750033400254,391.00750033400254,391.00750033400254,391.00750033400254,391.00750033400254,391.00750033400254,390.92838970830974,391.00750033400254,391.00750033400254,391.00750033400254,390.92838970830974,391.00750033400254,391.00750033400254,391.00750033400254,393.106825291994,397.1343285419862,391.00750033400254,391.00750033400254,396.18422266701236,391.00750033400254,391.00750033400254,391.00750033400254,391.00750033400254,391.4736845419975,392.54814600001555,391.44332937564855,,393.106825291994,394.13660445896676,393.0767340416826,,391.00750033400254,396.18422266701236,391.00750033400254,396.18422266701236,396.2255793340155,396.8813129590126,391.00750033400254,2,1,2.139426000008825,reldom2_s028,001,2025-03-04_12h23.41.123,Aud-A-Scan_AC,2022.2.5,None,
34,First_Order,6.0,audwhere,stimulus/audwhere_stim/dummy.wav,stimulus/audwhere_stim/dummy.wav,stimulus/audwhere_stim/left_toward_300h.wav,stimulus/audwhere_stim/left_away_300h.wav,stimulus/audwhere_stim/blank_white.png,stimulus/audwhere_stim/side_box.png,stimulus/audwhere_stim/side_yes.png,stimulus/audwhere_stim/side_no.png,None,Side,None,Side,1,0.0,0,5.125,0,5.125,0,5.125,0,0.0,0.625,0,0,0,0,0,0,0,0,0,0.0,0,0.0,1,0.5,1,2.125,0,,,,,0,44,44,44,,,,,,,,,397.1343285419862,397.1343285419862,397.1343285419862,397.1343285419862,397.1343285419862,397.1343285419862,397.1343285419862,397.1343285419862,397.05553633332795,397.1343285419862,397.1343285419862,397.1343285419862,397.05553633332795,397.1343285419862,397.1343285419862,397.1343285419862,399.2181712919846,,397.1343285419862,397.1343285419862,402.32767670898465,397.1343285419862,397.1343285419862,397.1343285419862,397.1343285419862,397.5973185420153,398.66420866700355,397.56744637567704,,399.2181712919846,400.28705624997383,399.18844975065826,,397.1343285419862,402.32767670898465,397.1343285419862,402.32767670898465,402.32767670898465,402.98134258401114,397.1343285419862,1,1,1.4563218740513548,reldom2_s028,001,2025-03-04_12h23.41.123,Aud-A-Scan_AC,2022.2.5,None,
0,0.0,None,fixation,stimulus/audwhere_stim/blank_white.png,stimulus/audwhere_stim/blank_white.png,stimulus/audwhat_stim/blank_white.png,stimulus/audwhat_stim/blank_white.png,stimulus/audwhere_stim/blank_white.png,stimulus/audwhere_stim/blank_white.png,stimulus/audwhere_stim/blank_white.png,stimulus/audwhere_stim/blank_white.png,0.0,0.0,0.0,0.0,0,0.0,0,0.0,0,0.0,0,0.0,0,0.0,0.0,0,0,0,0,0,0,0,0,0,0.0,0,0.0,0,0.0,0,0.0,10,,,,,0,45,45,45,,,,,,,,,403.25554729200667,403.25554729200667,403.25554729200667,403.25554729200667,403.25554729200667,403.25554729200667,403.25554729200667,403.25554729200667,403.1553760423286,403.25554729200667,403.25554729200667,403.25554729200667,403.1553760423286,403.25554729200667,403.25554729200667,403.25554729200667,403.25554729200667,403.25554729200667,403.25554729200667,403.25554729200667,403.25554729200667,403.25554729200667,403.25554729200667,403.25554729200667,403.25554729200667,403.25554729200667,403.25554729200667,403.2053760423286,403.25554729200667,403.25554729200667,403.25554729200667,403.2053760423286,403.25554729200667,403.25554729200667,403.25554729200667,403.25554729200667,403.25554729200667,408.4449504999793,408.4449504999793,413.3966781249619,None,0,,reldom2_s028,001,2025-03-04_12h23.41.123,Aud-A-Scan_AC,2022.2.5,None,
35,Second_Order,6.0,audwhere,stimulus/audwhere_stim/left_away_280h.wav,stimulus/audwhere_stim/left_toward_300h.wav,stimulus/audwhere_stim/right_away_280h.wav,stimulus/audwhere_stim/right_toward_300h.wav,stimulus/audwhere_stim/match_blank.png,stimulus/audwhere_stim/match_box.png,stimulus/audwhere_stim/match_yes.png,stimulus/audwhere_stim/match_no.png,1.0,Match,Side,Side,1,5.125,0,5.125,0,5.125,0,5.125,0,0.75,0.75,0,0,0,0,0,0,0,0,1,0.5,1,2.125,1,0.5,1,2.125,0,,,,,0,46,46,46,,,,,,,,,413.3966781249619,418.51782062498387,413.3966781249619,413.3966781249619,413.3966781249619,413.3966781249619,413.85541879199445,414.84184070897754,413.86929100065413,,415.47755366697675,416.4756913749734,415.49012937565954,,418.51782062498387,419.36791874998016,421.4412311670021,,419.36791874998016,419.36791874998016,424.5422166250064,419.36791874998016,419.36791874998016,419.36791874998016,419.36791874998016,419.78423808398657,420.8422882499872,419.7545158336327,,421.4412311670021,422.50908541696845,421.41222908365694,,419.36791874998016,424.5422166250064,419.36791874998016,424.5422166250064,424.5422166250064,,419.36791874998016,1,1,0.8142646240303293,reldom2_s028,001,2025-03-04_12h23.41.123,Aud-A-Scan_AC,2022.2.5,None,
36,Second_Order,6.0,audwhere,stimulus/audwhere_stim/left_away_290h.wav,stimulus/audwhere_stim/left_toward_270h.wav,stimulus/audwhere_stim/left_toward_290h.wav,stimulus/audwhere_stim/right_toward_270h.wav,stimulus/audwhere_stim/match_blank.png,stimulus/audwhere_stim/match_box.png,stimulus/audwhere_stim/match_yes.png,stimulus/audwhere_stim/match_no.png,2.0,Match,Side,Direction,2,5.125,0,5.125,0,5.125,0,5.125,0,0.625,0.625,0,0,0,0,0,0,0,0,1,0.5,1,2.125,1,0.5,1,2.125,0,,,,,0,47,47,47,,,,,,,,,425.3500747499638,430.4628122500144,425.3500747499638,425.3500747499638,425.3500747499638,425.3500747499638,425.80037316697417,426.7866512920009,425.8133833336799,,427.4343494590139,428.4237869589706,427.4385093336498,428.43661691696616,430.4628122500144,431.1921438749996,433.25457358401036,437.29856679198565,431.1921438749996,431.1921438749996,436.340126916999,431.1921438749996,431.1921438749996,431.1921438749996,431.1921438749996,431.64883683400694,432.7040050419746,431.6183969166634,,433.25457358401036,434.3126556669595,433.22540779167707,,431.1921438749996,436.340126916999,431.1921438749996,436.340126916999,436.3811636249884,437.0681544590043,431.1921438749996,2,1,1.7880265819840133,reldom2_s028,001,2025-03-04_12h23.41.123,Aud-A-Scan_AC,2022.2.5,None,
0,0.0,None,fixation,stimulus/audwhere_stim/blank_white.png,stimulus/audwhere_stim/blank_white.png,stimulus/audwhat_stim/blank_white.png,stimulus/audwhat_stim/blank_white.png,stimulus/audwhere_stim/blank_white.png,stimulus/audwhere_stim/blank_white.png,stimulus/audwhere_stim/blank_white.png,stimulus/audwhere_stim/blank_white.png,0.0,0.0,0.0,0.0,0,0.0,0,0.0,0,0.0,0,0.0,0,0.0,0.0,0,0,0,0,0,0,0,0,0,0.0,0,0.0,0,0.0,0,0.0,9,,,,,0,48,48,48,,,,,,,,,437.29856679198565,437.29856679198565,437.29856679198565,437.29856679198565,437.29856679198565,437.29856679198565,437.29856679198565,437.29856679198565,437.2014877923376,437.29856679198565,437.29856679198565,437.29856679198565,437.2014877923376,437.29856679198565,437.29856679198565,437.29856679198565,437.29856679198565,437.29856679198565,437.29856679198565,437.29856679198565,437.29856679198565,437.29856679198565,437.29856679198565,437.29856679198565,437.29856679198565,437.29856679198565,437.29856679198565,437.2514877923376,437.29856679198565,437.29856679198565,437.29856679198565,437.2514877923376,437.29856679198565,437.29856679198565,437.29856679198565,437.29856679198565,437.29856679198565,442.5005796669866,442.5005796669866,446.56827816698933,None,0,,reldom2_s028,001,2025-03-04_12h23.41.123,Aud-A-Scan_AC,2022.2.5,None,
37,First_Order,7.0,audwhat,stimulus/audwhat_stim/dummy.wav,stimulus/audwhat_stim/dummy.wav,stimulus/audwhat_stim/string cello_low-pitch_Ftri_loud.wav,stimulus/audwhat_stim/string cello_high-pitch_D_loud.wav,stimulus/audwhat_stim/blank_white.png,stimulus/audwhat_stim/pitch_box.png,stimulus/audwhat_stim/pitch_yes.png,stimulus/audwhat_stim/pitch_no.png,None,Pitch,None,Category,2,0.0,0,5.125,0,5.125,0,5.125,0,0.0,0.625,0,0,0,0,0,0,0,0,0,0.0,0,0.0,1,0.5,1,2.125,0,,,,,0,49,49,49,,,,,,,,,446.56827816698933,446.56827816698933,446.56827816698933,446.56827816698933,446.56827816698933,446.56827816698933,446.56827816698933,446.56827816698933,446.496171333633,446.56827816698933,446.56827816698933,446.56827816698933,446.496171333633,446.56827816698933,446.56827816698933,446.56827816698933,448.6485402919934,452.6891711250064,446.56827816698933,446.56827816698933,451.7456970419735,446.56827816698933,446.56827816698933,446.56827816698933,446.56827816698933,447.0300927920034,448.094578624994,447.00027712562974,,448.6485402919934,449.715383792005,448.6186232086659,,446.56827816698933,451.7456970419735,446.56827816698933,451.7456970419735,451.7868969999836,452.4362470000051,446.56827816698933,2,1,0.9675082490430214,reldom2_s028,001,2025-03-04_12h23.41.123,Aud-A-Scan_AC,2022.2.5,None,
38,First_Order,7.0,audwhat,stimulus/audwhat_stim/dummy.wav,stimulus/audwhat_stim/dummy.wav,stimulus/audwhat_stim/string cello_low-pitch_D_loud.wav,stimulus/audwhat_stim/string cello_high-pitch_Ftri_loud.wav,stimulus/audwhat_stim/blank_white.png,stimulus/audwhat_stim/pitch_box.png,stimulus/audwhat_stim/pitch_yes.png,stimulus/audwhat_stim/pitch_no.png,None,Pitch,None,Category,2,0.0,0,5.125,0,5.125,0,5.125,0,0.0,0.625,0,0,0,0,0,0,0,0,0,0.0,0,0.0,1,0.5,1,2.125,0,,,,,0,50,50,50,,,,,,,,,452.6891711250064,452.6891711250064,452.6891711250064,452.6891711250064,452.6891711250064,452.6891711250064,452.6891711250064,452.6891711250064,452.6102819172976,452.6891711250064,452.6891711250064,452.6891711250064,452.6102819172976,452.6891711250064,452.6891711250064,452.6891711250064,454.76813445898006,458.8177366249729,452.6891711250064,452.6891711250064,457.8708847499802,452.6891711250064,452.6891711250064,452.6891711250064,452.6891711250064,453.1511448340025,454.21550333400955,453.1216177916542,,454.76813445898006,455.83499562495854,454.73895262566316,,452.6891711250064,457.8708847499802,452.6891711250064,457.8708847499802,457.9116962919943,458.5642225840129,452.6891711250064,2,1,2.1402134159579873,reldom2_s028,001,2025-03-04_12h23.41.123,Aud-A-Scan_AC,2022.2.5,None,
39,First_Order,7.0,audwhat,stimulus/audwhat_stim/dummy.wav,stimulus/audwhat_stim/dummy.wav,stimulus/audwhat_stim/percussion xylophone_high-pitch_Dtri_loud.wav,stimulus/audwhat_stim/string cello_high-pitch_Dtri_loud.wav,stimulus/audwhat_stim/blank_white.png,stimulus/audwhat_stim/pitch_box.png,stimulus/audwhat_stim/pitch_yes.png,stimulus/audwhat_stim/pitch_no.png,None,Pitch,None,Pitch,1,0.0,0,5.125,0,5.125,0,5.125,0,0.0,0.625,0,0,0,0,0,0,0,0,0,0.0,0,0.0,1,0.5,1,2.125,0,,,,,0,51,51,51,,,,,,,,,458.8177366249729,458.8177366249729,458.8177366249729,458.8177366249729,458.8177366249729,458.8177366249729,458.8177366249729,458.8177366249729,458.73854087534903,458.8177366249729,458.8177366249729,458.8177366249729,458.73854087534903,458.8177366249729,458.8177366249729,458.8177366249729,460.90416979196016,,458.8177366249729,458.8177366249729,464.01256508397637,458.8177366249729,458.8177366249729,458.8177366249729,458.8177366249729,459.28094637498725,460.3479249589727,459.251023125664,460.3015112919966,460.90416979196016,461.9755642499658,460.8738482086376,,458.8177366249729,464.01256508397637,458.8177366249729,464.01256508397637,464.01256508397637,464.6661014590063,458.8177366249729,1,1,0.7965098330168985,reldom2_s028,001,2025-03-04_12h23.41.123,Aud-A-Scan_AC,2022.2.5,None,
40,First_Order,7.0,audwhat,stimulus/audwhat_stim/dummy.wav,stimulus/audwhat_stim/dummy.wav,stimulus/audwhat_stim/string cello_low-pitch_D_loud.wav,stimulus/audwhat_stim/percussion mallet_low-pitch_D_loud.wav,stimulus/audwhat_stim/blank_white.png,stimulus/audwhat_stim/pitch_box.png,stimulus/audwhat_stim/pitch_yes.png,stimulus/audwhat_stim/pitch_no.png,None,Pitch,None,Pitch,1,0.0,0,5.125,0,5.125,0,5.125,0,0.0,0.625,0,0,0,0,0,0,0,0,0,0.0,0,0.0,1,0.5,1,2.125,0,,,,,0,52,52,52,,,,,,,,,464.91930358397076,464.91930358397076,464.91930358397076,464.91930358397076,464.91930358397076,464.91930358397076,464.91930358397076,464.91930358397076,464.84018762529206,464.91930358397076,464.91930358397076,464.91930358397076,464.84018762529206,464.91930358397076,464.91930358397076,464.91930358397076,467.00319804198807,,464.91930358397076,464.91930358397076,470.1134493339923,464.91930358397076,464.91930358397076,464.91930358397076,464.91930358397076,465.38147374999244,466.4478946249583,465.3523996256447,,467.00319804198807,468.0731911669718,466.9730385006444,,464.91930358397076,470.1134493339923,464.91930358397076,470.1134493339923,470.1134493339923,470.76775649999036,464.91930358397076,1,1,1.8029478750540875,reldom2_s028,001,2025-03-04_12h23.41.123,Aud-A-Scan_AC,2022.2.5,None,
0,0.0,None,fixation,stimulus/audwhere_stim/blank_white.png,stimulus/audwhere_stim/blank_white.png,stimulus/audwhat_stim/blank_white.png,stimulus/audwhat_stim/blank_white.png,stimulus/audwhere_stim/blank_white.png,stimulus/audwhere_stim/blank_white.png,stimulus/audwhere_stim/blank_white.png,stimulus/audwhere_stim/blank_white.png,0.0,0.0,0.0,0.0,0,0.0,0,0.0,0,0.0,0,0.0,0,0.0,0.0,0,0,0,0,0,0,0,0,0,0.0,0,0.0,0,0.0,0,0.0,10,,,,,0,53,53,53,,,,,,,,,471.04116416699253,471.04116416699253,471.04116416699253,471.04116416699253,471.04116416699253,471.04116416699253,471.04116416699253,471.04116416699253,470.94137233330014,471.04116416699253,471.04116416699253,471.04116416699253,470.94137233330014,471.04116416699253,471.04116416699253,471.04116416699253,471.04116416699253,471.04116416699253,471.04116416699253,471.04116416699253,471.04116416699253,471.04116416699253,471.04116416699253,471.04116416699253,471.04116416699253,471.04116416699253,471.04116416699253,470.99137233330015,471.04116416699253,471.04116416699253,471.04116416699253,470.99137233330015,471.04116416699253,471.04116416699253,471.04116416699253,471.04116416699253,471.04116416699253,476.22774012497393,476.22774012497393,481.1860692919581,None,0,,reldom2_s028,001,2025-03-04_12h23.41.123,Aud-A-Scan_AC,2022.2.5,None,
41,Second_Order,7.0,audwhat,stimulus/audwhat_stim/percussion xylophone_high-pitch_Ftri_loud.wav,stimulus/audwhat_stim/percussion mallet_low-pitch_Dtri_loud.wav,stimulus/audwhat_stim/string viola_low-pitch_Ftri_loud.wav,stimulus/audwhat_stim/percussion mallet_low-pitch_Ftri_loud.wav,stimulus/audwhere_stim/match_blank.png,stimulus/audwhat_stim/match_box.png,stimulus/audwhere_stim/match_yes.png,stimulus/audwhere_stim/match_no.png,2.0,Match,Category,Pitch,2,5.125,0,5.125,0,5.125,0,5.125,0,0.75,0.75,0,0,0,0,0,0,0,0,1,0.5,1,2.125,1,0.5,1,2.125,0,,,,,0,54,54,54,,,,,,,,,481.1860692919581,486.3095884589711,481.1860692919581,481.1860692919581,481.1860692919581,481.1860692919581,481.64237537496956,482.63196195900673,481.6481251666594,482.6451106669847,483.2683220420149,484.2657971669687,483.2801220416479,,486.3095884589711,487.1581097089802,489.23327500000596,493.1456325839972,487.1581097089802,487.1581097089802,492.33732358401176,487.1581097089802,487.1581097089802,487.1581097089802,487.1581097089802,487.6177059590118,488.67885929200565,487.5882126256513,,489.23327500000596,490.3045003750012,489.2037139586794,,487.1581097089802,492.33732358401176,487.1581097089802,492.33732358401176,492.33732358401176,,487.1581097089802,2,1,0.49761054100235924,reldom2_s028,001,2025-03-04_12h23.41.123,Aud-A-Scan_AC,2022.2.5,None,
42,Second_Order,7.0,audwhat,stimulus/audwhat_stim/string cello_high-pitch_Dtri_loud.wav,stimulus/audwhat_stim/percussion mallet_high-pitch_Dtri_loud.wav,stimulus/audwhat_stim/percussion mallet_low-pitch_D_loud.wav,stimulus/audwhat_stim/string cello_low-pitch_D_loud.wav,stimulus/audwhere_stim/match_blank.png,stimulus/audwhat_stim/match_box.png,stimulus/audwhere_stim/match_yes.png,stimulus/audwhere_stim/match_no.png,1.0,Match,Pitch,Pitch,1,5.125,0,5.125,0,5.125,0,5.125,0,0.625,0.625,0,0,0,0,0,0,0,0,1,0.5,1,2.125,1,0.5,1,2.125,0,,,,,0,55,55,55,,,,,,,,,493.1456325839972,498.2688432499999,493.1456325839972,493.1456325839972,493.1456325839972,493.1456325839972,493.6037059169612,494.5932800839655,493.60725020867926,,495.22889299999224,496.22677787498105,495.24101945863026,496.23028241697466,498.2688432499999,498.99721266695997,501.0574067090056,505.1091203339747,498.99721266695997,498.99721266695997,504.18981645896565,498.99721266695997,498.99721266695997,498.99721266695997,498.99721266695997,499.4535192499752,500.5061270419974,499.4240742916629,,501.0574067090056,502.11958058399614,501.0279700416761,,498.99721266695997,504.18981645896565,498.99721266695997,504.18981645896565,504.18981645896565,504.8378262500046,498.99721266695997,1,1,1.7084877910092473,reldom2_s028,001,2025-03-04_12h23.41.123,Aud-A-Scan_AC,2022.2.5,None,
0,0.0,None,fixation,stimulus/audwhere_stim/blank_white.png,stimulus/audwhere_stim/blank_white.png,stimulus/audwhat_stim/blank_white.png,stimulus/audwhat_stim/blank_white.png,stimulus/audwhere_stim/blank_white.png,stimulus/audwhere_stim/blank_white.png,stimulus/audwhere_stim/blank_white.png,stimulus/audwhere_stim/blank_white.png,0.0,0.0,0.0,0.0,0,0.0,0,0.0,0,0.0,0,0.0,0,0.0,0.0,0,0,0,0,0,0,0,0,0,0.0,0,0.0,0,0.0,0,0.0,9,,,,,0,56,56,56,,,,,,,,,505.1091203339747,505.1091203339747,505.1091203339747,505.1091203339747,505.1091203339747,505.1091203339747,505.1091203339747,505.1091203339747,505.01124904232177,505.1091203339747,505.1091203339747,505.1091203339747,505.01124904232177,505.1091203339747,505.1091203339747,505.1091203339747,505.1091203339747,505.1091203339747,505.1091203339747,505.1091203339747,505.1091203339747,505.1091203339747,505.1091203339747,505.1091203339747,505.1091203339747,505.1091203339747,505.1091203339747,505.0612490423218,505.1091203339747,505.1091203339747,505.1091203339747,505.0612490423218,505.1091203339747,505.1091203339747,505.1091203339747,505.1091203339747,505.1091203339747,510.3130220840103,510.3130220840103,514.382009916997,None,0,,reldom2_s028,001,2025-03-04_12h23.41.123,Aud-A-Scan_AC,2022.2.5,None,
43,First_Order,8.0,audwhat,stimulus/audwhat_stim/dummy.wav,stimulus/audwhat_stim/dummy.wav,stimulus/audwhat_stim/string viola_low-pitch_F_loud.wav,stimulus/audwhat_stim/percussion mallet_low-pitch_F_loud.wav,stimulus/audwhat_stim/blank_white.png,stimulus/audwhat_stim/category_box.png,stimulus/audwhat_stim/category_yes.png,stimulus/audwhat_stim/category_no.png,None,Category,None,Pitch,2,0.0,0,5.125,0,5.125,0,5.125,0,0.0,0.625,0,0,0,0,0,0,0,0,0,0.0,0,0.0,1,0.5,1,2.125,0,,,,,0,57,57,57,,,,,,,,,514.382009916997,514.382009916997,514.382009916997,514.382009916997,514.382009916997,514.382009916997,514.382009916997,514.382009916997,514.3098187086676,514.382009916997,514.382009916997,514.382009916997,514.3098187086676,514.382009916997,514.382009916997,514.382009916997,516.4738321249606,,514.382009916997,514.382009916997,519.5398177920142,514.382009916997,514.382009916997,514.382009916997,514.382009916997,514.8475375419948,515.9161257499945,514.8177122916716,,516.4738321249606,517.542886167008,516.4434763756619,,514.382009916997,519.5398177920142,514.382009916997,519.5398177920142,519.5804947089637,520.2343491250067,514.382009916997,2,1,1.0787807080196217,reldom2_s028,001,2025-03-04_12h23.41.123,Aud-A-Scan_AC,2022.2.5,None,
44,First_Order,8.0,audwhat,stimulus/audwhat_stim/dummy.wav,stimulus/audwhat_stim/dummy.wav,stimulus/audwhat_stim/percussion mallet_low-pitch_Dtri_loud.wav,stimulus/audwhat_stim/percussion xylophone_high-pitch_F_loud.wav,stimulus/audwhat_stim/blank_white.png,stimulus/audwhat_stim/category_box.png,stimulus/audwhat_stim/category_yes.png,stimulus/audwhat_stim/category_no.png,None,Category,None,Category,1,0.0,0,5.125,0,5.125,0,5.125,0,0.0,0.625,0,0,0,0,0,0,0,0,0,0.0,0,0.0,1,0.5,1,2.125,0,,,,,0,58,58,58,,,,,,,,,520.4886904589948,520.4886904589948,520.4886904589948,520.4886904589948,520.4886904589948,520.4886904589948,520.4886904589948,520.4886904589948,520.4087794583485,520.4886904589948,520.4886904589948,520.4886904589948,520.4087794583485,520.4886904589948,520.4886904589948,520.4886904589948,522.5814165839693,526.6022769169649,520.4886904589948,520.4886904589948,525.6520911249681,520.4886904589948,520.4886904589948,520.4886904589948,520.4886904589948,520.9527754999581,522.0231764999917,520.923162125637,,522.5814165839693,523.6526308339671,522.5515044586539,523.6052793340059,520.4886904589948,525.6520911249681,520.4886904589948,525.6520911249681,525.6938857499626,526.3483752089669,520.4886904589948,1,1,1.2544225829769857,reldom2_s028,001,2025-03-04_12h23.41.123,Aud-A-Scan_AC,2022.2.5,None,
45,First_Order,8.0,audwhat,stimulus/audwhat_stim/dummy.wav,stimulus/audwhat_stim/dummy.wav,stimulus/audwhat_stim/string cello_high-pitch_Dtri_loud.wav,stimulus/audwhat_stim/percussion xylophone_high-pitch_Dtri_loud.wav,stimulus/audwhat_stim/blank_white.png,stimulus/audwhat_stim/category_box.png,stimulus/audwhat_stim/category_yes.png,stimulus/audwhat_stim/category_no.png,None,Category,None,Pitch,2,0.0,0,5.125,0,5.125,0,5.125,0,0.0,0.625,0,0,0,0,0,0,0,0,0,0.0,0,0.0,1,0.5,1,2.125,0,,,,,0,59,59,59,,,,,,,,,526.6022769169649,526.6022769169649,526.6022769169649,526.6022769169649,526.6022769169649,526.6022769169649,526.6022769169649,526.6022769169649,526.5225694583224,526.6022769169649,526.6022769169649,526.6022769169649,526.5225694583224,526.6022769169649,526.6022769169649,526.6022769169649,528.6992800000007,532.7255960839684,526.6022769169649,526.6022769169649,531.7759513339843,526.6022769169649,526.6022769169649,526.6022769169649,526.6022769169649,527.0677266250132,528.1395223750151,527.0376960006581,,528.6992800000007,529.728934667015,528.6693651256539,529.728934667015,526.6022769169649,531.7759513339843,526.6022769169649,531.7759513339843,531.817357708991,532.4713800419704,526.6022769169649,2,1,1.116599291039165,reldom2_s028,001,2025-03-04_12h23.41.123,Aud-A-Scan_AC,2022.2.5,None,
46,First_Order,8.0,audwhat,stimulus/audwhat_stim/dummy.wav,stimulus/audwhat_stim/dummy.wav,stimulus/audwhat_stim/percussion mallet_low-pitch_Ftri_loud.wav,stimulus/audwhat_stim/percussion mallet_high-pitch_F_loud.wav,stimulus/audwhat_stim/blank_white.png,stimulus/audwhat_stim/category_box.png,stimulus/audwhat_stim/category_yes.png,stimulus/audwhat_stim/category_no.png,None,Category,None,Category,1,0.0,0,5.125,0,5.125,0,5.125,0,0.0,0.625,0,0,0,0,0,0,0,0,0,0.0,0,0.0,1,0.5,1,2.125,0,,,,,0,60,60,60,,,,,,,,,532.7255960839684,532.7255960839684,532.7255960839684,532.7255960839684,532.7255960839684,532.7255960839684,532.7255960839684,532.7255960839684,532.6453858753395,532.7255960839684,532.7255960839684,532.7255960839684,532.6453858753395,532.7255960839684,532.7255960839684,532.7255960839684,534.8213964999886,538.87012924999,532.7255960839684,532.7255960839684,537.8990482919617,532.7255960839684,532.7255960839684,532.7255960839684,532.7255960839684,533.1905404169811,534.2639683340094,533.1600994166258,,534.8213964999886,535.8510770419962,534.7911765416541,,532.7255960839684,537.8990482919617,532.7255960839684,537.8990482919617,537.9403311669594,538.5956509999814,532.7255960839684,1,1,0.7347393319942057,reldom2_s028,001,2025-03-04_12h23.41.123,Aud-A-Scan_AC,2022.2.5,None,
0,0.0,None,fixation,stimulus/audwhere_stim/blank_white.png,stimulus/audwhere_stim/blank_white.png,stimulus/audwhat_stim/blank_white.png,stimulus/audwhat_stim/blank_white.png,stimulus/audwhere_stim/blank_white.png,stimulus/audwhere_stim/blank_white.png,stimulus/audwhere_stim/blank_white.png,stimulus/audwhere_stim/blank_white.png,0.0,0.0,0.0,0.0,0,0.0,0,0.0,0,0.0,0,0.0,0,0.0,0.0,0,0,0,0,0,0,0,0,0,0.0,0,0.0,0,0.0,0,0.0,8,,,,,0,61,61,61,,,,,,,,,538.87012924999,538.87012924999,538.87012924999,538.87012924999,538.87012924999,538.87012924999,538.87012924999,538.87012924999,538.7695567923093,538.87012924999,538.87012924999,538.87012924999,538.7695567923093,538.87012924999,538.87012924999,538.87012924999,538.87012924999,538.87012924999,538.87012924999,538.87012924999,538.87012924999,538.87012924999,538.87012924999,538.87012924999,538.87012924999,538.87012924999,538.87012924999,538.8195567923093,538.87012924999,538.87012924999,538.87012924999,538.8195567923093,538.87012924999,538.87012924999,538.87012924999,538.87012924999,538.87012924999,544.0650104999659,544.0650104999659,547.0452878340147,None,0,,reldom2_s028,001,2025-03-04_12h23.41.123,Aud-A-Scan_AC,2022.2.5,None,
47,Second_Order,8.0,audwhat,stimulus/audwhat_stim/string cello_high-pitch_F_loud.wav,stimulus/audwhat_stim/string viola_low-pitch_D_loud.wav,stimulus/audwhat_stim/percussion mallet_low-pitch_Ftri_loud.wav,stimulus/audwhat_stim/percussion xylophone_high-pitch_F_loud.wav,stimulus/audwhere_stim/match_blank.png,stimulus/audwhat_stim/match_box.png,stimulus/audwhere_stim/match_yes.png,stimulus/audwhere_stim/match_no.png,1.0,Match,Category,Category,1,5.125,0,5.125,0,5.125,0,5.125,0,0.75,0.75,0,0,0,0,0,0,0,0,1,0.5,1,2.125,1,0.5,1,2.125,0,,,,,0,62,62,62,,,,,,,,,547.0452878340147,552.160512375005,547.0452878340147,547.0452878340147,547.0452878340147,547.0452878340147,547.4981872090138,548.485181541997,547.511329000645,,549.1201235000044,550.1178547089803,549.1321007506378,,552.160512375005,553.0097398749785,555.0876747089787,558.9972159999888,553.0097398749785,553.0097398749785,558.1878103750059,553.0097398749785,553.0097398749785,553.0097398749785,553.0097398749785,553.4689521669643,554.5327985420008,553.439158458674,,555.0876747089787,556.1546469999594,555.0577090006593,556.1084205419756,553.0097398749785,558.1878103750059,553.0097398749785,558.1878103750059,558.1878103750059,,553.0097398749785,1,1,0.5984983749804087,reldom2_s028,001,2025-03-04_12h23.41.123,Aud-A-Scan_AC,2022.2.5,None,
48,Second_Order,8.0,audwhat,stimulus/audwhat_stim/percussion mallet_high-pitch_Ftri_loud.wav,stimulus/audwhat_stim/percussion mallet_low-pitch_D_loud.wav,stimulus/audwhat_stim/string cello_high-pitch_Ftri_loud.wav,stimulus/audwhat_stim/percussion xylophone_high-pitch_Ftri_loud.wav,stimulus/audwhere_stim/match_blank.png,stimulus/audwhat_stim/match_box.png,stimulus/audwhere_stim/match_yes.png,stimulus/audwhere_stim/match_no.png,2.0,Match,Category,Pitch,2,5.125,0,5.125,0,5.125,0,5.125,0,0.625,0.625,0,0,0,0,0,0,0,0,1,0.5,1,2.125,1,0.5,1,2.125,0,,,,,0,63,63,63,,,,,,,,,558.9972159999888,564.1204554169672,558.9972159999888,558.9972159999888,558.9972159999888,558.9972159999888,559.4565079589956,560.4446025419747,559.4583267506716,,561.0807541249669,562.078665625013,561.0931851256794,,564.1204554169672,564.8520801669802,566.9104957919917,570.9615591670154,564.8520801669802,564.8520801669802,570.0414217090001,564.8520801669802,564.8520801669802,564.8520801669802,564.8520801669802,565.3075105840107,566.3607463340159,565.2785762916358,,566.9104957919917,567.968524249969,566.8813450416822,567.9228592090076,564.8520801669802,570.0414217090001,564.8520801669802,570.0414217090001,570.0414217090001,570.7294884590083,564.8520801669802,2,1,2.0184641660307534,reldom2_s028,001,2025-03-04_12h23.41.123,Aud-A-Scan_AC,2022.2.5,None,
0,0.0,None,fixation,stimulus/audwhere_stim/blank_white.png,stimulus/audwhere_stim/blank_white.png,stimulus/audwhat_stim/blank_white.png,stimulus/audwhat_stim/blank_white.png,stimulus/audwhere_stim/blank_white.png,stimulus/audwhere_stim/blank_white.png,stimulus/audwhere_stim/blank_white.png,stimulus/audwhere_stim/blank_white.png,0.0,0.0,0.0,0.0,0,0.0,0,0.0,0,0.0,0,0.0,0,0.0,0.0,0,0,0,0,0,0,0,0,0,0.0,0,0.0,0,0.0,0,0.0,16,,,,,0,64,64,64,,,,,,,,,570.9615591670154,570.9615591670154,570.9615591670154,570.9615591670154,570.9615591670154,570.9615591670154,570.9615591670154,570.9615591670154,570.8628217923416,570.9615591670154,570.9615591670154,570.9615591670154,570.8628217923416,570.9615591670154,570.9615591670154,570.9615591670154,570.9615591670154,570.9615591670154,570.9615591670154,570.9615591670154,570.9615591670154,570.9615591670154,570.9615591670154,570.9615591670154,570.9615591670154,570.9615591670154,570.9615591670154,570.9128217923416,570.9615591670154,570.9615591670154,570.9615591670154,570.9128217923416,570.9615591670154,570.9615591670154,570.9615591670154,570.9615591670154,570.9615591670154,576.1974542919779,576.1974542919779,587.0948887919658,None,0,,reldom2_s028,001,2025-03-04_12h23.41.123,Aud-A-Scan_AC,2022.2.5,None,
