Trial,Order,Block,Type,Stimuli_File1,Stimuli_File2,Stimuli_File3,Stimuli_File4,Cue_File1,Cue_File2,Response_File_Yes,Response_File_No,Match,Cue_Dimension,Pair1_Dimension,Pair2_Dimension,Key,Cue1_Duration,Cue1_Onset,Cue2_Duration,Cue2_Onset,ResponseYes_Duration,ResponseYes_Onset,ResponseNo_Duration,ResponseNo_Onset,ITI_Within,ITI_Between,Image1_Duration,Image1_Onset,Image2_Duration,Image2_Onset,Image3_Duration,Image3_Onset,Image4_Duration,Image4_Onset,Sound1_Duration,Sound1_Onset,Sound2_Duration,Sound2_Onset,Sound3_Duration,Sound3_Onset,Sound4_Duration,Sound4_Onset,Fixation_Duration,trials_2.thisRepN,trials_2.thisTrialN,trials_2.thisN,trials_2.thisIndex,trials.thisRepN,trials.thisTrialN,trials.thisN,trials.thisIndex,text_start.started,key_resp_start.started,key_resp_start.keys,key_resp_start.rt,text2.started,key_resp_2.started,key_resp_2.keys,key_resp_2.rt,cue_file1.started,cue_file1.stopped,image_1.started,image_1.stopped,image_2.started,image_2.stopped,sound_icon1.started,sound_icon1.stopped,sound_1.started,sound_1.stopped,sound_icon2.started,sound_icon2.stopped,sound_2.started,sound_2.stopped,image_blank_1.started,image_blank_1.stopped,key_press.started,key_press.stopped,fixation_text.started,cue_file2.started,cue_file2.stopped,image_3.started,image_3.stopped,image_4.started,image_4.stopped,sound_icon3.started,sound_icon3.stopped,sound_3.started,sound_3.stopped,sound_icon4.started,sound_icon4.stopped,sound_4.started,sound_4.stopped,response_yes.started,response_yes.stopped,response_no.started,response_no.stopped,iti_blank.started,iti_blank.stopped,fixation_text.stopped,key_press.keys,key_press.corr,key_press.rt,participant,session,date,expName,psychopyVersion,frameRate,
,,,,,,,,,,,,,,,,,,,,,,,,,,,,,,,,,,,,,,,,,,,,,,,,,,,,8.577990582969505,8.577990582969505,2,1.2146769580431283,,,,,,,,,,,,,,,,,,,,,,,,,,,,,,,,,,,,,,,,,,,,,,,,reldom2_s028,001,2025-03-04_12h01.22.935,What-A-Scan_AC,2022.2.5,None,
,,,,,,,,,,,,,,,,,,,,,,,,,,,,,,,,,,,,,,,,,,,,0,0,0,0,,,,,,,,,9.833685749967117,9.833685749967117,5,17.222477375005838,,,,,,,,,,,,,,,,,,,,,,,,,,,,,,,,,,,,,,,,,,,,reldom2_s028,001,2025-03-04_12h01.22.935,What-A-Scan_AC,2022.2.5,None,
,,,,,,,,,,,,,,,,,,,,,,,,,,,,,,,,,,,,,,,,,,,,1,0,1,0,,,,,,,,,27.072561832959764,27.072561832959764,5,1.9822108740336262,,,,,,,,,,,,,,,,,,,,,,,,,,,,,,,,,,,,,,,,,,,,reldom2_s028,001,2025-03-04_12h01.22.935,What-A-Scan_AC,2022.2.5,None,
,,,,,,,,,,,,,,,,,,,,,,,,,,,,,,,,,,,,,,,,,,,,2,0,2,0,,,,,,,,,29.07041591696907,29.07041591696907,5,1.9884420410380699,,,,,,,,,,,,,,,,,,,,,,,,,,,,,,,,,,,,,,,,,,,,reldom2_s028,001,2025-03-04_12h01.22.935,What-A-Scan_AC,2022.2.5,None,
,,,,,,,,,,,,,,,,,,,,,,,,,,,,,,,,,,,,,,,,,,,,3,0,3,0,,,,,,,,,31.071969749988057,31.071969749988057,5,1.9835514580481686,,,,,,,,,,,,,,,,,,,,,,,,,,,,,,,,,,,,,,,,,,,,reldom2_s028,001,2025-03-04_12h01.22.935,What-A-Scan_AC,2022.2.5,None,
0,0.0,None,fixation,stimulus/audwhat_stim/blank_white.png,stimulus/audwhat_stim/blank_white.png,stimulus/viswhat_stim/blank_white.png,stimulus/viswhat_stim/blank_white.png,stimulus/audwhat_stim/blank_white.png,stimulus/audwhat_stim/blank_white.png,stimulus/audwhat_stim/blank_white.png,stimulus/audwhat_stim/blank_white.png,0.0,0.0,0.0,0.0,0,0.0,0,0.0,0,0.0,0,0.0,0,0.0,0.0,0,0.0,0,0.0,0,0.0,0,0.0,0,0.0,0,0.0,0,0.0,0,0.0,16,,,,,0,0,0,0,,,,,,,,,33.26620633300627,33.26620633300627,33.26620633300627,33.26620633300627,33.26620633300627,33.26620633300627,33.26620633300627,33.26620633300627,33.176627208680536,33.26620633300627,33.26620633300627,33.26620633300627,33.176627208680536,33.26620633300627,33.26620633300627,33.26620633300627,33.26620633300627,33.26620633300627,33.26620633300627,33.26620633300627,33.26620633300627,33.26620633300627,33.26620633300627,33.26620633300627,33.26620633300627,33.26620633300627,33.26620633300627,33.22662720868053,33.26620633300627,33.26620633300627,33.26620633300627,33.22662720868053,33.26620633300627,33.26620633300627,33.26620633300627,33.26620633300627,33.26620633300627,38.482507916982286,38.482507916982286,49.48021050001262,None,0,,reldom2_s028,001,2025-03-04_12h01.22.935,What-A-Scan_AC,2022.2.5,None,
1,First_Order,1.0,audwhat,stimulus/audwhat_stim/dummy.wav,stimulus/audwhat_stim/dummy.wav,stimulus/audwhat_stim/percussion mallet_low-pitch_Dtri_loud.wav,stimulus/audwhat_stim/percussion xylophone_high-pitch_F_loud.wav,stimulus/audwhat_stim/blank_white.png,stimulus/audwhat_stim/pitch_box.png,stimulus/audwhat_stim/pitch_yes.png,stimulus/audwhat_stim/pitch_no.png,None,Pitch,None,Category,2,0.0,0,5.125,0,5.125,0,5.125,0,0.0,0.625,0,0.0,0,0.0,0,0.0,0,0.0,0,0.0,0,0.0,1,0.5,1,2.125,0,,,,,0,1,1,1,,,,,,,,,49.48021050001262,49.48021050001262,49.48021050001262,49.48021050001262,49.48021050001262,49.48021050001262,49.48021050001262,49.48021050001262,49.41123704196652,49.48021050001262,49.48021050001262,49.48021050001262,49.41123704196652,49.48021050001262,49.48021050001262,49.48021050001262,51.585214041988365,,49.48021050001262,49.48021050001262,54.64729754196014,49.48021050001262,49.48021050001262,49.48021050001262,49.48021050001262,49.96312879200559,51.01446425000904,49.93555412465163,,51.585214041988365,52.639364291972015,51.55774329166549,52.595182207995094,49.48021050001262,54.64729754196014,49.48021050001262,54.64729754196014,54.686124333005864,55.34369454201078,49.48021050001262,2,1,0.9378685830743052,reldom2_s028,001,2025-03-04_12h01.22.935,What-A-Scan_AC,2022.2.5,None,
2,First_Order,1.0,audwhat,stimulus/audwhat_stim/dummy.wav,stimulus/audwhat_stim/dummy.wav,stimulus/audwhat_stim/percussion xylophone_high-pitch_Dtri_loud.wav,stimulus/audwhat_stim/percussion mallet_low-pitch_D_loud.wav,stimulus/audwhat_stim/blank_white.png,stimulus/audwhat_stim/pitch_box.png,stimulus/audwhat_stim/pitch_yes.png,stimulus/audwhat_stim/pitch_no.png,None,Pitch,None,Category,2,0.0,0,5.125,0,5.125,0,5.125,0,0.0,0.625,0,0.0,0,0.0,0,0.0,0,0.0,0,0.0,0,0.0,1,0.5,1,2.125,0,,,,,0,2,2,2,,,,,,,,,55.58937195799081,55.58937195799081,55.58937195799081,55.58937195799081,55.58937195799081,55.58937195799081,55.58937195799081,55.58937195799081,55.51561295832119,55.58937195799081,55.58937195799081,55.58937195799081,55.51561295832119,55.58937195799081,55.58937195799081,55.58937195799081,57.69384479196742,61.707442999992054,55.58937195799081,55.58937195799081,60.768773291958496,55.58937195799081,55.58937195799081,55.58937195799081,55.58937195799081,56.07157258299412,57.12369983299868,56.04435374966512,57.07931654196,57.69384479196742,58.750492958002724,57.66659920866756,,55.58937195799081,60.768773291958496,55.58937195799081,60.768773291958496,60.80757933296263,61.46702174999518,55.58937195799081,2,1,0.8957940830150619,reldom2_s028,001,2025-03-04_12h01.22.935,What-A-Scan_AC,2022.2.5,None,
3,First_Order,1.0,audwhat,stimulus/audwhat_stim/dummy.wav,stimulus/audwhat_stim/dummy.wav,stimulus/audwhat_stim/percussion mallet_low-pitch_F_loud.wav,stimulus/audwhat_stim/percussion xylophone_high-pitch_Ftri_loud.wav,stimulus/audwhat_stim/blank_white.png,stimulus/audwhat_stim/category_box.png,stimulus/audwhat_stim/category_yes.png,stimulus/audwhat_stim/category_no.png,None,Category,None,Category,1,0.0,0,5.125,0,5.125,0,5.125,0,0.0,0.625,0,0.0,0,0.0,0,0.0,0,0.0,0,0.0,0,0.0,1,0.5,1,2.125,0,,,,,0,3,3,3,,,,,,,,,61.707442999992054,61.707442999992054,61.707442999992054,61.707442999992054,61.707442999992054,61.707442999992054,61.707442999992054,61.707442999992054,61.63891312529643,61.707442999992054,61.707442999992054,61.707442999992054,61.63891312529643,61.707442999992054,61.707442999992054,61.707442999992054,63.78865962498821,67.83242583298124,61.707442999992054,61.707442999992054,66.88858974998584,61.707442999992054,61.707442999992054,61.707442999992054,61.707442999992054,62.19303933298215,63.25770879199263,62.16549091664298,,63.78865962498821,64.85135341697605,63.76105379168099,64.80714895797428,61.707442999992054,66.88858974998584,61.707442999992054,66.88858974998584,66.92767433298286,67.59038800001144,61.707442999992054,1,1,1.1059609990334138,reldom2_s028,001,2025-03-04_12h01.22.935,What-A-Scan_AC,2022.2.5,None,
4,First_Order,1.0,audwhat,stimulus/audwhat_stim/dummy.wav,stimulus/audwhat_stim/dummy.wav,stimulus/audwhat_stim/percussion mallet_low-pitch_Dtri_loud.wav,stimulus/audwhat_stim/percussion mallet_high-pitch_F_loud.wav,stimulus/audwhat_stim/blank_white.png,stimulus/audwhat_stim/category_box.png,stimulus/audwhat_stim/category_yes.png,stimulus/audwhat_stim/category_no.png,None,Category,None,Category,1,0.0,0,5.125,0,5.125,0,5.125,0,0.0,0.625,0,0.0,0,0.0,0,0.0,0,0.0,0,0.0,0,0.0,1,0.5,1,2.125,0,,,,,0,4,4,4,,,,,,,,,67.83242583298124,67.83242583298124,67.83242583298124,67.83242583298124,67.83242583298124,67.83242583298124,67.83242583298124,67.83242583298124,67.76233033332585,67.83242583298124,67.83242583298124,67.83242583298124,67.76233033332585,67.83242583298124,67.83242583298124,67.83242583298124,69.91490812500706,,67.83242583298124,67.83242583298124,72.98012954200385,67.83242583298124,67.83242583298124,67.83242583298124,67.83242583298124,68.31935808301205,69.38379870797507,68.29156616668139,,69.91490812500706,70.9850889169611,69.88736191665909,,67.83242583298124,72.98012954200385,67.83242583298124,72.98012954200385,73.05810683296295,73.7212796669919,67.83242583298124,1,1,0.7829259170684963,reldom2_s028,001,2025-03-04_12h01.22.935,What-A-Scan_AC,2022.2.5,None,
0,0.0,None,fixation,stimulus/audwhat_stim/blank_white.png,stimulus/audwhat_stim/blank_white.png,stimulus/viswhat_stim/blank_white.png,stimulus/viswhat_stim/blank_white.png,stimulus/audwhat_stim/blank_white.png,stimulus/audwhat_stim/blank_white.png,stimulus/audwhat_stim/blank_white.png,stimulus/audwhat_stim/blank_white.png,0.0,0.0,0.0,0.0,0,0.0,0,0.0,0,0.0,0,0.0,0,0.0,0.0,0,0.0,0,0.0,0,0.0,0,0.0,0,0.0,0,0.0,0,0.0,0,0.0,10,,,,,0,5,5,5,,,,,,,,,73.94296562497038,73.94296562497038,73.94296562497038,73.94296562497038,73.94296562497038,73.94296562497038,73.94296562497038,73.94296562497038,73.85461300032523,73.94296562497038,73.94296562497038,73.94296562497038,73.85461300032523,73.94296562497038,73.94296562497038,73.94296562497038,73.94296562497038,73.94296562497038,73.94296562497038,73.94296562497038,73.94296562497038,73.94296562497038,73.94296562497038,73.94296562497038,73.94296562497038,73.94296562497038,73.94296562497038,73.90461300032524,73.94296562497038,73.94296562497038,73.94296562497038,73.90461300032524,73.94296562497038,73.94296562497038,73.94296562497038,73.94296562497038,73.94296562497038,79.16598712495761,79.16598712495761,84.08449041697895,None,0,,reldom2_s028,001,2025-03-04_12h01.22.935,What-A-Scan_AC,2022.2.5,None,
5,Second_Order,1.0,audwhat,stimulus/audwhat_stim/string cello_low-pitch_D_loud.wav,stimulus/audwhat_stim/string viola_high-pitch_Dtri_loud.wav,stimulus/audwhat_stim/percussion mallet_low-pitch_D_loud.wav,stimulus/audwhat_stim/string viola_low-pitch_D_loud.wav,stimulus/audwhat_stim/match_blank.png,stimulus/audwhat_stim/match_box.png,stimulus/audwhat_stim/match_yes.png,stimulus/audwhat_stim/match_no.png,2.0,Match,Category,Pitch,2,5.125,0,5.125,0,5.125,0,5.125,0,0.75,0.75,0,0.0,0,0.0,0,0.0,0,0.0,1,0.5,1,2.125,1,0.5,1,2.125,0,,,,,0,6,6,6,,,,,,,,,84.08449041697895,89.20613312500063,84.08449041697895,84.08449041697895,84.08449041697895,84.08449041697895,84.5328089579707,85.53098962496733,84.54527641664414,,86.16554891696433,87.15483466698788,86.16937541665199,,89.20613312500063,90.06104095798219,92.09577579196775,,90.06104095798219,90.06104095798219,95.24616308300756,90.06104095798219,90.06104095798219,90.06104095798219,90.06104095798219,90.50302499998361,91.56640354200499,90.4754112496778,,92.09577579196775,93.16266087500844,92.06799616665036,,90.06104095798219,95.24616308300756,90.06104095798219,95.24616308300756,95.24616308300756,,90.06104095798219,2,1,1.0144907500362024,reldom2_s028,001,2025-03-04_12h01.22.935,What-A-Scan_AC,2022.2.5,None,
6,Second_Order,1.0,audwhat,stimulus/audwhat_stim/string cello_high-pitch_Dtri_loud.wav,stimulus/audwhat_stim/percussion mallet_high-pitch_Dtri_loud.wav,stimulus/audwhat_stim/percussion mallet_low-pitch_Ftri_loud.wav,stimulus/audwhat_stim/string cello_low-pitch_Ftri_loud.wav,stimulus/audwhat_stim/match_blank.png,stimulus/audwhat_stim/match_box.png,stimulus/audwhat_stim/match_yes.png,stimulus/audwhat_stim/match_no.png,1.0,Match,Pitch,Pitch,1,5.125,0,5.125,0,5.125,0,5.125,0,0.625,0.625,0,0.0,0,0.0,0,0.0,0,0.0,1,0.5,1,2.125,1,0.5,1,2.125,0,,,,,0,7,7,7,,,,,,,,,96.02304558298783,101.13871099997777,96.02304558298783,96.02304558298783,96.02304558298783,96.02304558298783,96.47473104199162,97.4616403330001,96.489212708668,,98.0976550419582,99.09540504199686,98.11008083366711,,101.13871099997777,101.86983770801453,103.94254354201257,107.9641377920052,101.86983770801453,101.86983770801453,107.04058787500253,101.86983770801453,101.86983770801453,101.86983770801453,101.86983770801453,102.30993925000075,103.37022670800798,102.28245487466144,,103.94254354201257,105.00712616700912,103.91500366665811,,101.86983770801453,107.04058787500253,101.86983770801453,107.04058787500253,107.04058787500253,107.70319337496767,101.86983770801453,1,1,0.9346010830486193,reldom2_s028,001,2025-03-04_12h01.22.935,What-A-Scan_AC,2022.2.5,None,
0,0.0,None,fixation,stimulus/audwhat_stim/blank_white.png,stimulus/audwhat_stim/blank_white.png,stimulus/viswhat_stim/blank_white.png,stimulus/viswhat_stim/blank_white.png,stimulus/audwhat_stim/blank_white.png,stimulus/audwhat_stim/blank_white.png,stimulus/audwhat_stim/blank_white.png,stimulus/audwhat_stim/blank_white.png,0.0,0.0,0.0,0.0,0,0.0,0,0.0,0,0.0,0,0.0,0,0.0,0.0,0,0.0,0,0.0,0,0.0,0,0.0,0,0.0,0,0.0,0,0.0,0,0.0,9,,,,,0,8,8,8,,,,,,,,,107.9641377920052,107.9641377920052,107.9641377920052,107.9641377920052,107.9641377920052,107.9641377920052,107.9641377920052,107.9641377920052,107.87543558332447,107.9641377920052,107.9641377920052,107.9641377920052,107.87543558332447,107.9641377920052,107.9641377920052,107.9641377920052,107.9641377920052,107.9641377920052,107.9641377920052,107.9641377920052,107.9641377920052,107.9641377920052,107.9641377920052,107.9641377920052,107.9641377920052,107.9641377920052,107.9641377920052,107.92543558332449,107.9641377920052,107.9641377920052,107.9641377920052,107.92543558332449,107.9641377920052,107.9641377920052,107.9641377920052,107.9641377920052,107.9641377920052,113.19009549997281,113.19009549997281,117.17829112499021,None,0,,reldom2_s028,001,2025-03-04_12h01.22.935,What-A-Scan_AC,2022.2.5,None,
7,First_Order,2.0,audwhat,stimulus/audwhat_stim/dummy.wav,stimulus/audwhat_stim/dummy.wav,stimulus/audwhat_stim/string cello_low-pitch_F_loud.wav,stimulus/audwhat_stim/percussion mallet_low-pitch_F_loud.wav,stimulus/audwhat_stim/blank_white.png,stimulus/audwhat_stim/pitch_box.png,stimulus/audwhat_stim/pitch_yes.png,stimulus/audwhat_stim/pitch_no.png,None,Pitch,None,Pitch,1,0.0,0,5.125,0,5.125,0,5.125,0,0.0,0.625,0,0.0,0,0.0,0,0.0,0,0.0,0,0.0,0,0.0,1,0.5,1,2.125,0,,,,,0,9,9,9,,,,,,,,,117.17829112499021,117.17829112499021,117.17829112499021,117.17829112499021,117.17829112499021,117.17829112499021,117.17829112499021,117.17829112499021,117.09926045800094,117.17829112499021,117.17829112499021,117.17829112499021,117.09926045800094,117.17829112499021,117.17829112499021,117.17829112499021,119.2708824169822,123.30083929200191,117.17829112499021,117.17829112499021,122.34932733298047,117.17829112499021,117.17829112499021,117.17829112499021,117.17829112499021,117.66676104196813,118.73469304200262,117.63910199964108,,119.2708824169822,120.29885887500132,119.24281820864805,,117.17829112499021,122.34932733298047,117.17829112499021,122.34932733298047,122.38876162498491,123.05454437498702,117.17829112499021,1,1,1.182882332999725,reldom2_s028,001,2025-03-04_12h01.22.935,What-A-Scan_AC,2022.2.5,None,
8,First_Order,2.0,audwhat,stimulus/audwhat_stim/dummy.wav,stimulus/audwhat_stim/dummy.wav,stimulus/audwhat_stim/string cello_low-pitch_Dtri_loud.wav,stimulus/audwhat_stim/percussion mallet_low-pitch_Dtri_loud.wav,stimulus/audwhat_stim/blank_white.png,stimulus/audwhat_stim/category_box.png,stimulus/audwhat_stim/category_yes.png,stimulus/audwhat_stim/category_no.png,None,Category,None,Pitch,2,0.0,0,5.125,0,5.125,0,5.125,0,0.0,0.625,0,0.0,0,0.0,0,0.0,0,0.0,0,0.0,0,0.0,1,0.5,1,2.125,0,,,,,0,10,10,10,,,,,,,,,123.30083929200191,123.30083929200191,123.30083929200191,123.30083929200191,123.30083929200191,123.30083929200191,123.30083929200191,123.30083929200191,123.22790816633108,123.30083929200191,123.30083929200191,123.30083929200191,123.22790816633108,123.30083929200191,123.30083929200191,123.30083929200191,125.4125156669761,129.42695799999638,123.30083929200191,123.30083929200191,128.4703439999721,123.30083929200191,123.30083929200191,123.30083929200191,123.30083929200191,123.74985862500034,124.7833393329638,123.7212029166442,,125.4125156669761,126.45236724999268,125.38328266668056,,123.30083929200191,128.4703439999721,123.30083929200191,128.4703439999721,128.5097578749992,129.18016212497605,123.30083929200191,2,1,0.6762370000360534,reldom2_s028,001,2025-03-04_12h01.22.935,What-A-Scan_AC,2022.2.5,None,
9,First_Order,2.0,audwhat,stimulus/audwhat_stim/dummy.wav,stimulus/audwhat_stim/dummy.wav,stimulus/audwhat_stim/string cello_high-pitch_F_loud.wav,stimulus/audwhat_stim/percussion mallet_high-pitch_F_loud.wav,stimulus/audwhat_stim/blank_white.png,stimulus/audwhat_stim/pitch_box.png,stimulus/audwhat_stim/pitch_yes.png,stimulus/audwhat_stim/pitch_no.png,None,Pitch,None,Pitch,1,0.0,0,5.125,0,5.125,0,5.125,0,0.0,0.625,0,0.0,0,0.0,0,0.0,0,0.0,0,0.0,0,0.0,1,0.5,1,2.125,0,,,,,0,11,11,11,,,,,,,,,129.42695799999638,129.42695799999638,129.42695799999638,129.42695799999638,129.42695799999638,129.42695799999638,129.42695799999638,129.42695799999638,129.35297720830036,129.42695799999638,129.42695799999638,129.42695799999638,129.35297720830036,129.42695799999638,129.42695799999638,129.42695799999638,131.53854845796013,,129.42695799999638,129.42695799999638,134.5947420829907,129.42695799999638,129.42695799999638,129.42695799999638,129.42695799999638,129.87421104201348,130.90756929200143,129.84586999967385,,131.53854845796013,132.57496150000952,131.5101400836759,,129.42695799999638,134.5947420829907,129.42695799999638,134.5947420829907,134.63467370800208,135.30934095795965,129.42695799999638,1,1,0.6716983750229701,reldom2_s028,001,2025-03-04_12h01.22.935,What-A-Scan_AC,2022.2.5,None,
10,First_Order,2.0,audwhat,stimulus/audwhat_stim/dummy.wav,stimulus/audwhat_stim/dummy.wav,stimulus/audwhat_stim/percussion xylophone_high-pitch_D_loud.wav,stimulus/audwhat_stim/string cello_high-pitch_D_loud.wav,stimulus/audwhat_stim/blank_white.png,stimulus/audwhat_stim/category_box.png,stimulus/audwhat_stim/category_yes.png,stimulus/audwhat_stim/category_no.png,None,Category,None,Pitch,2,0.0,0,5.125,0,5.125,0,5.125,0,0.0,0.625,0,0.0,0,0.0,0,0.0,0,0.0,0,0.0,0,0.0,1,0.5,1,2.125,0,,,,,0,12,12,12,,,,,,,,,135.51558083295822,135.51558083295822,135.51558083295822,135.51558083295822,135.51558083295822,135.51558083295822,135.51558083295822,135.51558083295822,135.442674291293,135.51558083295822,135.51558083295822,135.51558083295822,135.442674291293,135.51558083295822,135.51558083295822,135.51558083295822,137.59710754198022,141.65856825001538,135.51558083295822,135.51558083295822,140.67232908296864,135.51558083295822,135.51558083295822,135.51558083295822,135.51558083295822,135.9690892919898,137.00842062500305,135.94027566665707,137.00842062500305,137.59710754198022,138.6404517919873,137.56841999967972,,135.51558083295822,140.67232908296864,135.51558083295822,140.67232908296864,140.71231695800088,141.39114999998128,135.51558083295822,2,1,0.733809708035551,reldom2_s028,001,2025-03-04_12h01.22.935,What-A-Scan_AC,2022.2.5,None,
0,0.0,None,fixation,stimulus/audwhat_stim/blank_white.png,stimulus/audwhat_stim/blank_white.png,stimulus/viswhat_stim/blank_white.png,stimulus/viswhat_stim/blank_white.png,stimulus/audwhat_stim/blank_white.png,stimulus/audwhat_stim/blank_white.png,stimulus/audwhat_stim/blank_white.png,stimulus/audwhat_stim/blank_white.png,0.0,0.0,0.0,0.0,0,0.0,0,0.0,0,0.0,0,0.0,0,0.0,0.0,0,0.0,0,0.0,0,0.0,0,0.0,0,0.0,0,0.0,0,0.0,0,0.0,10,,,,,0,13,13,13,,,,,,,,,141.65856825001538,141.65856825001538,141.65856825001538,141.65856825001538,141.65856825001538,141.65856825001538,141.65856825001538,141.65856825001538,141.56413883334804,141.65856825001538,141.65856825001538,141.65856825001538,141.56413883334804,141.65856825001538,141.65856825001538,141.65856825001538,141.65856825001538,141.65856825001538,141.65856825001538,141.65856825001538,141.65856825001538,141.65856825001538,141.65856825001538,141.65856825001538,141.65856825001538,141.65856825001538,141.65856825001538,141.61413883334802,141.65856825001538,141.65856825001538,141.65856825001538,141.61413883334802,141.65856825001538,141.65856825001538,141.65856825001538,141.65856825001538,141.65856825001538,146.8869175419677,146.8869175419677,151.80379400000675,None,0,,reldom2_s028,001,2025-03-04_12h01.22.935,What-A-Scan_AC,2022.2.5,None,
11,Second_Order,2.0,audwhat,stimulus/audwhat_stim/string viola_high-pitch_D_loud.wav,stimulus/audwhat_stim/percussion xylophone_high-pitch_D_loud.wav,stimulus/audwhat_stim/percussion mallet_low-pitch_F_loud.wav,stimulus/audwhat_stim/string viola_low-pitch_F_loud.wav,stimulus/audwhat_stim/match_blank.png,stimulus/audwhat_stim/match_box.png,stimulus/audwhat_stim/match_yes.png,stimulus/audwhat_stim/match_no.png,1.0,Match,Pitch,Pitch,1,5.125,0,5.125,0,5.125,0,5.125,0,0.75,0.75,0,0.0,0,0.0,0,0.0,0,0.0,1,0.5,1,2.125,1,0.5,1,2.125,0,,,,,0,14,14,14,,,,,,,,,151.80379400000675,156.916807667003,151.80379400000675,151.80379400000675,151.80379400000675,151.80379400000675,152.25366404198576,153.2401811669697,152.26807154162478,,153.87642920797225,154.87433033296838,153.88879395864595,154.87821824999992,156.916807667003,157.76762925001094,159.82390149997082,,157.76762925001094,157.76762925001094,162.91914408298908,157.76762925001094,157.76762925001094,157.76762925001094,157.76762925001094,158.21399424999254,159.24164579197532,158.18563558365375,,159.82390149997082,160.85512424999615,159.79555674962856,,157.76762925001094,162.91914408298908,157.76762925001094,162.91914408298908,162.9585209999932,,157.76762925001094,1,1,0.9056042080046609,reldom2_s028,001,2025-03-04_12h01.22.935,What-A-Scan_AC,2022.2.5,None,
12,Second_Order,2.0,audwhat,stimulus/audwhat_stim/percussion mallet_high-pitch_Dtri_loud.wav,stimulus/audwhat_stim/string viola_high-pitch_Dtri_loud.wav,stimulus/audwhat_stim/string viola_low-pitch_Dtri_loud.wav,stimulus/audwhat_stim/percussion mallet_low-pitch_Dtri_loud.wav,stimulus/audwhat_stim/match_blank.png,stimulus/audwhat_stim/match_box.png,stimulus/audwhat_stim/match_yes.png,stimulus/audwhat_stim/match_no.png,1.0,Match,Pitch,Pitch,1,5.125,0,5.125,0,5.125,0,5.125,0,0.625,0.625,0,0.0,0,0.0,0,0.0,0,0.0,1,0.5,1,2.125,1,0.5,1,2.125,0,,,,,0,15,15,15,,,,,,,,,163.74447120795958,168.86163341696374,163.74447120795958,163.74447120795958,163.74447120795958,163.74447120795958,164.19993408297887,165.19827545800945,164.21243187465396,,165.8202278749668,166.81854254199425,165.83264266665017,,168.86163341696374,169.59043416701024,171.63846229197225,175.69886254199082,169.59043416701024,169.59043416701024,174.7663691669586,169.59043416701024,169.59043416701024,169.59043416701024,169.59043416701024,170.03541033295915,171.10478329198668,170.0076188336282,,171.63846229197225,172.6664040829637,171.61035758367896,,169.59043416701024,174.7663691669586,169.59043416701024,174.7663691669586,174.7663691669586,175.43495004199212,169.59043416701024,1,1,1.55716837401269,reldom2_s028,001,2025-03-04_12h01.22.935,What-A-Scan_AC,2022.2.5,None,
0,0.0,None,fixation,stimulus/audwhat_stim/blank_white.png,stimulus/audwhat_stim/blank_white.png,stimulus/viswhat_stim/blank_white.png,stimulus/viswhat_stim/blank_white.png,stimulus/audwhat_stim/blank_white.png,stimulus/audwhat_stim/blank_white.png,stimulus/audwhat_stim/blank_white.png,stimulus/audwhat_stim/blank_white.png,0.0,0.0,0.0,0.0,0,0.0,0,0.0,0,0.0,0,0.0,0,0.0,0.0,0,0.0,0,0.0,0,0.0,0,0.0,0,0.0,0,0.0,0,0.0,0,0.0,8,,,,,0,16,16,16,,,,,,,,,175.69886254199082,175.69886254199082,175.69886254199082,175.69886254199082,175.69886254199082,175.69886254199082,175.69886254199082,175.69886254199082,175.60781458331817,175.69886254199082,175.69886254199082,175.69886254199082,175.60781458331817,175.69886254199082,175.69886254199082,175.69886254199082,175.69886254199082,175.69886254199082,175.69886254199082,175.69886254199082,175.69886254199082,175.69886254199082,175.69886254199082,175.69886254199082,175.69886254199082,175.69886254199082,175.69886254199082,175.65781458331816,175.69886254199082,175.69886254199082,175.69886254199082,175.65781458331816,175.69886254199082,175.69886254199082,175.69886254199082,175.69886254199082,175.69886254199082,180.93643333297223,180.93643333297223,184.0781742919935,None,0,,reldom2_s028,001,2025-03-04_12h01.22.935,What-A-Scan_AC,2022.2.5,None,
13,First_Order,3.0,viswhat,stimulus/viswhat_stim/blank_white.png,stimulus/viswhat_stim/blank_white.png,stimulus/viswhat_stim/water_vehicle-cruiseship.png,stimulus/viswhat_stim/land_vehicle-pickuptruck.png,stimulus/viswhat_stim/blank_white.png,stimulus/viswhat_stim/type_box.png,stimulus/viswhat_stim/type_yes.png,stimulus/viswhat_stim/type_no.png,None,Type,None,Type,1,0.0,0,5.125,0,5.125,0,5.125,0,0.0,0.625,0,0.0,0,0.0,1,0.5,1,2.125,0,0.0,0,0.0,0,0.0,0,0.0,0,,,,,0,17,17,17,,,,,,,,,184.0781742919935,184.0781742919935,184.0781742919935,184.0781742919935,184.0781742919935,184.0781742919935,184.0781742919935,184.0781742919935,183.87231216699584,184.0781742919935,184.0781742919935,184.0781742919935,183.87231216699584,184.0781742919935,184.0781742919935,184.0781742919935,186.08153999998467,190.53059316700092,184.0781742919935,184.0781742919935,189.32511391700245,184.4605244579725,185.6062077920069,186.08153999998467,187.2289964169613,184.0781742919935,184.0781742919935,183.98897883366251,184.0781742919935,184.0781742919935,184.0781742919935,183.98897883366251,184.0781742919935,184.0781742919935,189.32511391700245,184.0781742919935,189.32511391700245,189.23552270798245,190.53059316700092,184.0781742919935,1,1,1.3722084580804221,reldom2_s028,001,2025-03-04_12h01.22.935,What-A-Scan_AC,2022.2.5,None,
14,First_Order,3.0,viswhat,stimulus/viswhat_stim/blank_white.png,stimulus/viswhat_stim/blank_white.png,stimulus/viswhat_stim/water_animal-lobster.png,stimulus/viswhat_stim/water_vehicle-cruiseship.png,stimulus/viswhat_stim/blank_white.png,stimulus/viswhat_stim/location_box.png,stimulus/viswhat_stim/location_yes.png,stimulus/viswhat_stim/location_no.png,None,Location,None,Location,1,0.0,0,5.125,0,5.125,0,5.125,0,0.0,0.625,0,0.0,0,0.0,1,0.5,1,2.125,0,0.0,0,0.0,0,0.0,0,0.0,0,,,,,0,18,18,18,,,,,,,,,190.53059316700092,190.53059316700092,190.53059316700092,190.53059316700092,190.53059316700092,190.53059316700092,190.53059316700092,190.53059316700092,190.09650741633573,190.53059316700092,190.53059316700092,190.53059316700092,190.09650741633573,190.53059316700092,190.53059316700092,190.53059316700092,192.4908783750143,,190.53059316700092,190.53059316700092,195.9740652499604,190.9657968750107,192.2730974580045,192.4908783750143,193.80023295799037,190.53059316700092,190.53059316700092,190.3131740830024,190.53059316700092,190.53059316700092,190.53059316700092,190.3131740830024,190.53059316700092,190.53059316700092,195.9740652499604,190.53059316700092,195.9740652499604,195.5427552079782,,190.53059316700092,1,1,0.9545807490358129,reldom2_s028,001,2025-03-04_12h01.22.935,What-A-Scan_AC,2022.2.5,None,
15,First_Order,3.0,viswhat,stimulus/viswhat_stim/blank_white.png,stimulus/viswhat_stim/blank_white.png,stimulus/viswhat_stim/water_vehicle-cruiseship.png,stimulus/viswhat_stim/land_vehicle-bus.png,stimulus/viswhat_stim/blank_white.png,stimulus/viswhat_stim/location_box.png,stimulus/viswhat_stim/location_yes.png,stimulus/viswhat_stim/location_no.png,None,Location,None,Type,2,0.0,0,5.125,0,5.125,0,5.125,0,0.0,0.625,0,0.0,0,0.0,1,0.5,1,2.125,0,0.0,0,0.0,0,0.0,0,0.0,0,,,,,0,19,19,19,,,,,,,,,196.64786283299327,196.64786283299327,196.64786283299327,196.64786283299327,196.64786283299327,196.64786283299327,196.64786283299327,196.64786283299327,196.45739858329375,196.64786283299327,196.64786283299327,196.64786283299327,196.45739858329375,196.64786283299327,196.64786283299327,196.64786283299327,198.65501304197824,,196.64786283299327,196.64786283299327,201.8612176249735,197.04867516696686,198.1539904579986,198.65501304197824,199.75858008296927,196.64786283299327,196.64786283299327,196.55739858329375,196.64786283299327,196.64786283299327,196.64786283299327,196.55739858329375,196.64786283299327,196.64786283299327,201.8612176249735,196.64786283299327,201.8612176249735,201.8612176249735,,196.64786283299327,2,1,1.3700892500346527,reldom2_s028,001,2025-03-04_12h01.22.935,What-A-Scan_AC,2022.2.5,None,
16,First_Order,3.0,viswhat,stimulus/viswhat_stim/blank_white.png,stimulus/viswhat_stim/blank_white.png,stimulus/viswhat_stim/land_vehicle-oldcar.png,stimulus/viswhat_stim/water_vehicle-pirateship.png,stimulus/viswhat_stim/blank_white.png,stimulus/viswhat_stim/type_box.png,stimulus/viswhat_stim/type_yes.png,stimulus/viswhat_stim/type_no.png,None,Type,None,Type,1,0.0,0,5.125,0,5.125,0,5.125,0,0.0,0.625,0,0.0,0,0.0,1,0.5,1,2.125,0,0.0,0,0.0,0,0.0,0,0.0,0,,,,,0,20,20,20,,,,,,,,,202.74337795795873,202.74337795795873,202.74337795795873,202.74337795795873,202.74337795795873,202.74337795795873,202.74337795795873,202.74337795795873,202.6778789999662,202.74337795795873,202.74337795795873,202.74337795795873,202.6778789999662,202.74337795795873,202.74337795795873,202.74337795795873,204.82570508297067,,202.74337795795873,202.74337795795873,207.93036449997453,203.21302070800448,204.27550487499684,204.82570508297067,205.89176658296492,202.74337795795873,202.74337795795873,202.71121233329956,202.74337795795873,202.74337795795873,202.74337795795873,202.71121233329956,202.74337795795873,202.74337795795873,207.93036449997453,202.74337795795873,207.93036449997453,207.96729545795824,208.63344179198612,202.74337795795873,1,1,1.1621995000168681,reldom2_s028,001,2025-03-04_12h01.22.935,What-A-Scan_AC,2022.2.5,None,
0,0.0,None,fixation,stimulus/audwhat_stim/blank_white.png,stimulus/audwhat_stim/blank_white.png,stimulus/viswhat_stim/blank_white.png,stimulus/viswhat_stim/blank_white.png,stimulus/audwhat_stim/blank_white.png,stimulus/audwhat_stim/blank_white.png,stimulus/audwhat_stim/blank_white.png,stimulus/audwhat_stim/blank_white.png,0.0,0.0,0.0,0.0,0,0.0,0,0.0,0,0.0,0,0.0,0,0.0,0.0,0,0.0,0,0.0,0,0.0,0,0.0,0,0.0,0,0.0,0,0.0,0,0.0,9,,,,,0,21,21,21,,,,,,,,,208.85888029198395,208.85888029198395,208.85888029198395,208.85888029198395,208.85888029198395,208.85888029198395,208.85888029198395,208.85888029198395,208.76677512531947,208.85888029198395,208.85888029198395,208.85888029198395,208.76677512531947,208.85888029198395,208.85888029198395,208.85888029198395,208.85888029198395,208.85888029198395,208.85888029198395,208.85888029198395,208.85888029198395,208.85888029198395,208.85888029198395,208.85888029198395,208.85888029198395,208.85888029198395,208.85888029198395,208.81677512531945,208.85888029198395,208.85888029198395,208.85888029198395,208.81677512531945,208.85888029198395,208.85888029198395,208.85888029198395,208.85888029198395,208.85888029198395,214.0795211250079,214.0795211250079,217.9827945829602,None,0,,reldom2_s028,001,2025-03-04_12h01.22.935,What-A-Scan_AC,2022.2.5,None,
17,Second_Order,3.0,viswhat,stimulus/viswhat_stim/water_animal-shark.png,stimulus/viswhat_stim/water_vehicle-pirateship.png,stimulus/viswhat_stim/water_animal-squid.png,stimulus/viswhat_stim/land_animal-elephant.png,stimulus/audwhat_stim/match_blank.png,stimulus/audwhat_stim/match_box.png,stimulus/audwhat_stim/match_yes.png,stimulus/audwhat_stim/match_no.png,2.0,Match,Location,Type,2,5.125,0,5.125,0,5.125,0,5.125,0,0.75,0.75,1,0.5,1,2.125,1,0.5,1,2.125,0,0.0,0,0.0,0,0.0,0,0.0,0,,,,,0,22,22,22,,,,,,,,,217.9827945829602,223.10425666696392,218.44189158297377,219.43998741696123,220.0630622919998,221.06065504200524,217.9827945829602,217.9827945829602,217.99564295801102,217.9827945829602,217.9827945829602,217.9827945829602,217.99564295801102,217.9827945829602,223.10425666696392,223.99472691700794,226.02288491697982,229.97207183297724,223.99472691700794,223.99472691700794,229.17388916696655,224.45029137498932,225.49875158298528,226.02288491697982,227.0784817499807,223.99472691700794,223.99472691700794,223.9374354579719,223.99472691700794,223.99472691700794,223.99472691700794,223.9374354579719,223.99472691700794,223.99472691700794,229.17388916696655,223.99472691700794,229.17388916696655,229.17388916696655,,223.99472691700794,2,1,0.7001655830536038,reldom2_s028,001,2025-03-04_12h01.22.935,What-A-Scan_AC,2022.2.5,None,
18,Second_Order,3.0,viswhat,stimulus/viswhat_stim/land_vehicle-pickuptruck.png,stimulus/viswhat_stim/water_vehicle-pirateship.png,stimulus/viswhat_stim/water_animal-jellyfish.png,stimulus/viswhat_stim/land_animal-snake.png,stimulus/audwhat_stim/match_blank.png,stimulus/audwhat_stim/match_box.png,stimulus/audwhat_stim/match_yes.png,stimulus/audwhat_stim/match_no.png,1.0,Match,Type,Type,1,5.125,0,5.125,0,5.125,0,5.125,0,0.625,0.625,1,0.5,1,2.125,1,0.5,1,2.125,0,0.0,0,0.0,0,0.0,0,0.0,0,,,,,0,23,23,23,,,,,,,,,229.97207183297724,235.09331383300014,230.4530227080104,231.45171320799273,232.07378920796327,233.0720539999893,229.97207183297724,229.97207183297724,229.98671437500744,229.97207183297724,229.97207183297724,229.97207183297724,229.98671437500744,229.97207183297724,235.09331383300014,235.7920691249892,237.8715029169689,241.9024199579726,235.7920691249892,235.7920691249892,240.93030562496278,236.22199762496166,237.25065233296482,237.8715029169689,238.90087154199136,235.7920691249892,235.7920691249892,235.76112762496342,235.7920691249892,235.7920691249892,235.7920691249892,235.76112762496342,235.7920691249892,235.7920691249892,240.93030562496278,235.7920691249892,240.93030562496278,240.97357904200908,241.6228113329853,235.7920691249892,1,1,1.0455940830288455,reldom2_s028,001,2025-03-04_12h01.22.935,What-A-Scan_AC,2022.2.5,None,
0,0.0,None,fixation,stimulus/audwhat_stim/blank_white.png,stimulus/audwhat_stim/blank_white.png,stimulus/viswhat_stim/blank_white.png,stimulus/viswhat_stim/blank_white.png,stimulus/audwhat_stim/blank_white.png,stimulus/audwhat_stim/blank_white.png,stimulus/audwhat_stim/blank_white.png,stimulus/audwhat_stim/blank_white.png,0.0,0.0,0.0,0.0,0,0.0,0,0.0,0,0.0,0,0.0,0,0.0,0.0,0,0.0,0,0.0,0,0.0,0,0.0,0,0.0,0,0.0,0,0.0,0,0.0,8,,,,,0,24,24,24,,,,,,,,,241.9024199579726,241.9024199579726,241.9024199579726,241.9024199579726,241.9024199579726,241.9024199579726,241.9024199579726,241.9024199579726,241.80770416699818,241.9024199579726,241.9024199579726,241.9024199579726,241.80770416699818,241.9024199579726,241.9024199579726,241.9024199579726,241.9024199579726,241.9024199579726,241.9024199579726,241.9024199579726,241.9024199579726,241.9024199579726,241.9024199579726,241.9024199579726,241.9024199579726,241.9024199579726,241.9024199579726,241.85770416699816,241.9024199579726,241.9024199579726,241.9024199579726,241.85770416699816,241.9024199579726,241.9024199579726,241.9024199579726,241.9024199579726,241.9024199579726,247.12442633300088,247.12442633300088,250.12930629198672,None,0,,reldom2_s028,001,2025-03-04_12h01.22.935,What-A-Scan_AC,2022.2.5,None,
19,First_Order,4.0,viswhat,stimulus/viswhat_stim/blank_white.png,stimulus/viswhat_stim/blank_white.png,stimulus/viswhat_stim/land_animal-wolf.png,stimulus/viswhat_stim/water_animal-squid.png,stimulus/viswhat_stim/blank_white.png,stimulus/viswhat_stim/location_box.png,stimulus/viswhat_stim/location_yes.png,stimulus/viswhat_stim/location_no.png,None,Location,None,Type,2,0.0,0,5.125,0,5.125,0,5.125,0,0.0,0.625,0,0.0,0,0.0,1,0.5,1,2.125,0,0.0,0,0.0,0,0.0,0,0.0,0,,,,,0,25,25,25,,,,,,,,,250.12930629198672,250.12930629198672,250.12930629198672,250.12930629198672,250.12930629198672,250.12930629198672,250.12930629198672,250.12930629198672,250.07446212499636,250.12930629198672,250.12930629198672,250.12930629198672,250.07446212499636,250.12930629198672,250.12930629198672,250.12930629198672,252.23444887500955,256.2015764999669,250.12930629198672,250.12930629198672,255.27878387499368,250.60985770798288,251.6339194579632,252.23444887500955,253.26259266701527,250.12930629198672,250.12930629198672,250.1077954583297,250.12930629198672,250.12930629198672,250.12930629198672,250.1077954583297,250.12930629198672,250.12930629198672,255.27878387499368,250.12930629198672,255.27878387499368,255.35194845800288,255.98583366698585,250.12930629198672,2,1,1.4323945830692537,reldom2_s028,001,2025-03-04_12h01.22.935,What-A-Scan_AC,2022.2.5,None,
20,First_Order,4.0,viswhat,stimulus/viswhat_stim/blank_white.png,stimulus/viswhat_stim/blank_white.png,stimulus/viswhat_stim/water_animal-jellyfish.png,stimulus/viswhat_stim/water_vehicle-motorboatraft.png,stimulus/viswhat_stim/blank_white.png,stimulus/viswhat_stim/location_box.png,stimulus/viswhat_stim/location_yes.png,stimulus/viswhat_stim/location_no.png,None,Location,None,Location,1,0.0,0,5.125,0,5.125,0,5.125,0,0.0,0.625,0,0.0,0,0.0,1,0.5,1,2.125,0,0.0,0,0.0,0,0.0,0,0.0,0,,,,,0,26,26,26,,,,,,,,,256.2015764999669,256.2015764999669,256.2015764999669,256.2015764999669,256.2015764999669,256.2015764999669,256.2015764999669,256.2015764999669,256.15886429199014,256.2015764999669,256.2015764999669,256.2015764999669,256.15886429199014,256.2015764999669,256.2015764999669,256.2015764999669,258.3109045419842,262.37703262496507,256.2015764999669,256.2015764999669,261.34374412498437,256.6873531669844,257.71695908298716,258.3109045419842,259.3429625830031,256.2015764999669,256.2015764999669,256.17553095865685,256.2015764999669,256.2015764999669,256.2015764999669,256.17553095865685,256.2015764999669,256.2015764999669,261.34374412498437,256.2015764999669,261.34374412498437,261.429192749958,262.0692914999672,256.2015764999669,1,1,1.1415457910043187,reldom2_s028,001,2025-03-04_12h01.22.935,What-A-Scan_AC,2022.2.5,None,
21,First_Order,4.0,viswhat,stimulus/viswhat_stim/blank_white.png,stimulus/viswhat_stim/blank_white.png,stimulus/viswhat_stim/land_animal-elephant.png,stimulus/viswhat_stim/land_vehicle-buldozer.png,stimulus/viswhat_stim/blank_white.png,stimulus/viswhat_stim/type_box.png,stimulus/viswhat_stim/type_yes.png,stimulus/viswhat_stim/type_no.png,None,Type,None,Location,2,0.0,0,5.125,0,5.125,0,5.125,0,0.0,0.625,0,0.0,0,0.0,1,0.5,1,2.125,0,0.0,0,0.0,0,0.0,0,0.0,0,,,,,0,27,27,27,,,,,,,,,262.37703262496507,262.37703262496507,262.37703262496507,262.37703262496507,262.37703262496507,262.37703262496507,262.37703262496507,262.37703262496507,262.25494279196715,262.37703262496507,262.37703262496507,262.37703262496507,262.25494279196715,262.37703262496507,262.37703262496507,262.37703262496507,264.45147583296057,,262.37703262496507,262.37703262496507,267.5702420829912,262.8596287079854,263.96809641696746,264.45147583296057,265.563483542006,262.37703262496507,262.37703262496507,262.3216094586338,262.37703262496507,262.37703262496507,262.37703262496507,262.3216094586338,262.37703262496507,262.37703262496507,267.5702420829912,262.37703262496507,267.5702420829912,267.5702420829912,268.4726168329944,262.37703262496507,2,1,1.0324038740363903,reldom2_s028,001,2025-03-04_12h01.22.935,What-A-Scan_AC,2022.2.5,None,
22,First_Order,4.0,viswhat,stimulus/viswhat_stim/blank_white.png,stimulus/viswhat_stim/blank_white.png,stimulus/viswhat_stim/water_animal-shark.png,stimulus/viswhat_stim/water_vehicle-cabincruiser.png,stimulus/viswhat_stim/blank_white.png,stimulus/viswhat_stim/type_box.png,stimulus/viswhat_stim/type_yes.png,stimulus/viswhat_stim/type_no.png,None,Type,None,Location,2,0.0,0,5.125,0,5.125,0,5.125,0,0.0,0.625,0,0.0,0,0.0,1,0.5,1,2.125,0,0.0,0,0.0,0,0.0,0,0.0,0,,,,,0,28,28,28,,,,,,,,,268.4726168329944,268.4726168329944,268.4726168329944,268.4726168329944,268.4726168329944,268.4726168329944,268.4726168329944,268.4726168329944,268.39133612530617,268.4726168329944,268.4726168329944,268.4726168329944,268.39133612530617,268.4726168329944,268.4726168329944,268.4726168329944,270.55762574996334,,268.4726168329944,268.4726168329944,273.6377327920054,268.94515829201555,269.9906479999772,270.55762574996334,271.6040931249736,268.4726168329944,268.4726168329944,268.4413361253061,268.4726168329944,268.4726168329944,268.4726168329944,268.4413361253061,268.4726168329944,268.4726168329944,273.6377327920054,268.4726168329944,273.6377327920054,273.6798616669839,274.3472659169929,268.4726168329944,2,1,1.6922236250247806,reldom2_s028,001,2025-03-04_12h01.22.935,What-A-Scan_AC,2022.2.5,None,
0,0.0,None,fixation,stimulus/audwhat_stim/blank_white.png,stimulus/audwhat_stim/blank_white.png,stimulus/viswhat_stim/blank_white.png,stimulus/viswhat_stim/blank_white.png,stimulus/audwhat_stim/blank_white.png,stimulus/audwhat_stim/blank_white.png,stimulus/audwhat_stim/blank_white.png,stimulus/audwhat_stim/blank_white.png,0.0,0.0,0.0,0.0,0,0.0,0,0.0,0,0.0,0,0.0,0,0.0,0.0,0,0.0,0,0.0,0,0.0,0,0.0,0,0.0,0,0.0,0,0.0,0,0.0,9,,,,,0,29,29,29,,,,,,,,,274.5825302079902,274.5825302079902,274.5825302079902,274.5825302079902,274.5825302079902,274.5825302079902,274.5825302079902,274.5825302079902,274.48059925032624,274.5825302079902,274.5825302079902,274.5825302079902,274.48059925032624,274.5825302079902,274.5825302079902,274.5825302079902,274.5825302079902,274.5825302079902,274.5825302079902,274.5825302079902,274.5825302079902,274.5825302079902,274.5825302079902,274.5825302079902,274.5825302079902,274.5825302079902,274.5825302079902,274.53059925032625,274.5825302079902,274.5825302079902,274.5825302079902,274.53059925032625,274.5825302079902,274.5825302079902,274.5825302079902,274.5825302079902,274.5825302079902,279.7835109999869,279.7835109999869,283.699327291979,None,0,,reldom2_s028,001,2025-03-04_12h01.22.935,What-A-Scan_AC,2022.2.5,None,
23,Second_Order,4.0,viswhat,stimulus/viswhat_stim/water_vehicle-canoe(1).png,stimulus/viswhat_stim/land_vehicle-vespa.png,stimulus/viswhat_stim/land_animal-dog.png,stimulus/viswhat_stim/water_animal-jellyfish.png,stimulus/audwhat_stim/match_blank.png,stimulus/audwhat_stim/match_box.png,stimulus/audwhat_stim/match_yes.png,stimulus/audwhat_stim/match_no.png,1.0,Match,Type,Type,1,5.125,0,5.125,0,5.125,0,5.125,0,0.75,0.75,1,0.5,1,2.125,1,0.5,1,2.125,0,0.0,0,0.0,0,0.0,0,0.0,0,,,,,0,30,30,30,,,,,,,,,283.699327291979,288.821943332965,284.15988904197,285.15880162495887,285.7825339999981,286.7791602499783,283.699327291979,283.699327291979,283.6995791253013,283.699327291979,283.699327291979,283.699327291979,283.6995791253013,283.699327291979,288.821943332965,289.63893008296145,291.6958316669916,295.61048304196447,289.63893008296145,289.63893008296145,294.7804928330006,290.0884210419608,291.1035620829789,291.6958316669916,292.71955179196084,289.63893008296145,289.63893008296145,289.60537704197924,289.63893008296145,289.63893008296145,289.63893008296145,289.60537704197924,289.63893008296145,289.63893008296145,294.7804928330006,289.63893008296145,294.7804928330006,294.8260674579651,,289.63893008296145,1,1,0.7080139580648392,reldom2_s028,001,2025-03-04_12h01.22.935,What-A-Scan_AC,2022.2.5,None,
24,Second_Order,4.0,viswhat,stimulus/viswhat_stim/land_vehicle-tank.png,stimulus/viswhat_stim/water_vehicle-canoe(1).png,stimulus/viswhat_stim/water_animal-orka.png,stimulus/viswhat_stim/water_vehicle-cabincruiser.png,stimulus/audwhat_stim/match_blank.png,stimulus/audwhat_stim/match_box.png,stimulus/audwhat_stim/match_yes.png,stimulus/audwhat_stim/match_no.png,2.0,Match,Type,Location,2,5.125,0,5.125,0,5.125,0,5.125,0,0.625,0.625,1,0.5,1,2.125,1,0.5,1,2.125,0,0.0,0,0.0,0,0.0,0,0.0,0,,,,,0,31,31,31,,,,,,,,,295.61048304196447,300.7325212919968,296.08792166697094,297.0860691249836,297.70990158297354,298.7067053329665,295.61048304196447,295.61048304196447,295.6202548746524,295.61048304196447,295.61048304196447,295.61048304196447,295.6202548746524,295.61048304196447,300.7325212919968,301.52571037499,303.57358566700714,307.63566562498454,301.52571037499,301.52571037499,306.7736617079936,301.9769888749579,303.04123604198685,303.57358566700714,304.6418870000052,301.52571037499,301.52571037499,301.46299441667895,301.52571037499,301.52571037499,301.52571037499,301.46299441667895,301.52571037499,301.52571037499,306.7736617079936,301.52571037499,306.7736617079936,306.7029128749855,307.63566562498454,301.52571037499,2,1,1.618532500055153,reldom2_s028,001,2025-03-04_12h01.22.935,What-A-Scan_AC,2022.2.5,None,
0,0.0,None,fixation,stimulus/audwhat_stim/blank_white.png,stimulus/audwhat_stim/blank_white.png,stimulus/viswhat_stim/blank_white.png,stimulus/viswhat_stim/blank_white.png,stimulus/audwhat_stim/blank_white.png,stimulus/audwhat_stim/blank_white.png,stimulus/audwhat_stim/blank_white.png,stimulus/audwhat_stim/blank_white.png,0.0,0.0,0.0,0.0,0,0.0,0,0.0,0,0.0,0,0.0,0,0.0,0.0,0,0.0,0,0.0,0,0.0,0,0.0,0,0.0,0,0.0,0,0.0,0,0.0,9,,,,,0,32,32,32,,,,,,,,,307.63566562498454,307.63566562498454,307.63566562498454,307.63566562498454,307.63566562498454,307.63566562498454,307.63566562498454,307.63566562498454,307.54062387497396,307.63566562498454,307.63566562498454,307.63566562498454,307.54062387497396,307.63566562498454,307.63566562498454,307.63566562498454,307.63566562498454,307.63566562498454,307.63566562498454,307.63566562498454,307.63566562498454,307.63566562498454,307.63566562498454,307.63566562498454,307.63566562498454,307.63566562498454,307.63566562498454,307.59062387497397,307.63566562498454,307.63566562498454,307.63566562498454,307.59062387497397,307.63566562498454,307.63566562498454,307.63566562498454,307.63566562498454,307.63566562498454,312.8246639170102,312.8246639170102,316.85989916697145,None,0,,reldom2_s028,001,2025-03-04_12h01.22.935,What-A-Scan_AC,2022.2.5,None,
25,First_Order,5.0,audwhat,stimulus/audwhat_stim/dummy.wav,stimulus/audwhat_stim/dummy.wav,stimulus/audwhat_stim/string cello_low-pitch_Dtri_loud.wav,stimulus/audwhat_stim/percussion mallet_low-pitch_Dtri_loud.wav,stimulus/audwhat_stim/blank_white.png,stimulus/audwhat_stim/pitch_box.png,stimulus/audwhat_stim/pitch_yes.png,stimulus/audwhat_stim/pitch_no.png,None,Pitch,None,Pitch,1,0.0,0,5.125,0,5.125,0,5.125,0,0.0,0.625,0,0.0,0,0.0,0,0.0,0,0.0,0,0.0,0,0.0,1,0.5,1,2.125,0,,,,,0,33,33,33,,,,,,,,,316.85989916697145,316.85989916697145,316.85989916697145,316.85989916697145,316.85989916697145,316.85989916697145,316.85989916697145,316.85989916697145,316.7930841246658,316.85989916697145,316.85989916697145,316.85989916697145,316.7930841246658,316.85989916697145,316.85989916697145,316.85989916697145,318.95520829199813,322.98432337498525,316.85989916697145,316.85989916697145,322.05332845798694,316.85989916697145,316.85989916697145,316.85989916697145,316.85989916697145,317.31481675000396,318.3641514579649,317.2856125836299,,318.95520829199813,320.00279683299595,318.9260977496781,,316.85989916697145,322.05332845798694,316.85989916697145,322.05332845798694,322.05332845798694,322.73512337496504,316.85989916697145,1,1,1.8394949580542743,reldom2_s028,001,2025-03-04_12h01.22.935,What-A-Scan_AC,2022.2.5,None,
26,First_Order,5.0,audwhat,stimulus/audwhat_stim/dummy.wav,stimulus/audwhat_stim/dummy.wav,stimulus/audwhat_stim/string cello_low-pitch_F_loud.wav,stimulus/audwhat_stim/percussion mallet_low-pitch_F_loud.wav,stimulus/audwhat_stim/blank_white.png,stimulus/audwhat_stim/pitch_box.png,stimulus/audwhat_stim/pitch_yes.png,stimulus/audwhat_stim/pitch_no.png,None,Pitch,None,Pitch,1,0.0,0,5.125,0,5.125,0,5.125,0,0.0,0.625,0,0.0,0,0.0,0,0.0,0,0.0,0,0.0,0,0.0,1,0.5,1,2.125,0,,,,,0,34,34,34,,,,,,,,,322.98432337498525,322.98432337498525,322.98432337498525,322.98432337498525,322.98432337498525,322.98432337498525,322.98432337498525,322.98432337498525,322.90871729134426,322.98432337498525,322.98432337498525,322.98432337498525,322.90871729134426,322.98432337498525,322.98432337498525,322.98432337498525,325.0833942919853,,322.98432337498525,322.98432337498525,328.14396762498654,322.98432337498525,322.98432337498525,322.98432337498525,322.98432337498525,323.44267370796297,324.49017020798055,323.4136474166337,,325.0833942919853,326.135293875006,325.05299820867754,,322.98432337498525,328.14396762498654,322.98432337498525,328.14396762498654,328.1847187500098,328.8651680829935,322.98432337498525,1,1,2.143295833026059,reldom2_s028,001,2025-03-04_12h01.22.935,What-A-Scan_AC,2022.2.5,None,
27,First_Order,5.0,audwhat,stimulus/audwhat_stim/dummy.wav,stimulus/audwhat_stim/dummy.wav,stimulus/audwhat_stim/string cello_high-pitch_D_loud.wav,stimulus/audwhat_stim/percussion mallet_high-pitch_D_loud.wav,stimulus/audwhat_stim/blank_white.png,stimulus/audwhat_stim/category_box.png,stimulus/audwhat_stim/category_yes.png,stimulus/audwhat_stim/category_no.png,None,Category,None,Pitch,2,0.0,0,5.125,0,5.125,0,5.125,0,0.0,0.625,0,0.0,0,0.0,0,0.0,0,0.0,0,0.0,0,0.0,1,0.5,1,2.125,0,,,,,0,35,35,35,,,,,,,,,329.0763090829714,329.0763090829714,329.0763090829714,329.0763090829714,329.0763090829714,329.0763090829714,329.0763090829714,329.0763090829714,328.9985014163268,329.0763090829714,329.0763090829714,329.0763090829714,328.9985014163268,329.0763090829714,329.0763090829714,329.0763090829714,331.1884557919693,335.20413633296266,329.0763090829714,329.0763090829714,334.265636791999,329.0763090829714,329.0763090829714,329.0763090829714,329.0763090829714,329.5364035000093,330.590727666975,329.50725924963285,,331.1884557919693,332.24597554199863,331.1587728746274,,329.0763090829714,334.265636791999,329.0763090829714,334.265636791999,334.265636791999,334.9517267079791,329.0763090829714,2,1,0.9750390410190448,reldom2_s028,001,2025-03-04_12h01.22.935,What-A-Scan_AC,2022.2.5,None,
28,First_Order,5.0,audwhat,stimulus/audwhat_stim/dummy.wav,stimulus/audwhat_stim/dummy.wav,stimulus/audwhat_stim/percussion mallet_low-pitch_Ftri_loud.wav,stimulus/audwhat_stim/percussion mallet_high-pitch_F_loud.wav,stimulus/audwhat_stim/blank_white.png,stimulus/audwhat_stim/category_box.png,stimulus/audwhat_stim/category_yes.png,stimulus/audwhat_stim/category_no.png,None,Category,None,Category,1,0.0,0,5.125,0,5.125,0,5.125,0,0.0,0.625,0,0.0,0,0.0,0,0.0,0,0.0,0,0.0,0,0.0,1,0.5,1,2.125,0,,,,,0,36,36,36,,,,,,,,,335.20413633296266,335.20413633296266,335.20413633296266,335.20413633296266,335.20413633296266,335.20413633296266,335.20413633296266,335.20413633296266,335.1256117913018,335.20413633296266,335.20413633296266,335.20413633296266,335.1256117913018,335.20413633296266,335.20413633296266,335.20413633296266,337.3187559169601,,335.20413633296266,335.20413633296266,340.3570446249796,335.20413633296266,335.20413633296266,335.20413633296266,335.20413633296266,335.6639860419673,336.7190524999751,335.6346762916694,,337.3187559169601,338.3798476670054,337.28947129164976,,335.20413633296266,340.3570446249796,335.20413633296266,340.3570446249796,340.3979707919643,341.0842605829821,335.20413633296266,1,1,0.7641794999944977,reldom2_s028,001,2025-03-04_12h01.22.935,What-A-Scan_AC,2022.2.5,None,
0,0.0,None,fixation,stimulus/audwhat_stim/blank_white.png,stimulus/audwhat_stim/blank_white.png,stimulus/viswhat_stim/blank_white.png,stimulus/viswhat_stim/blank_white.png,stimulus/audwhat_stim/blank_white.png,stimulus/audwhat_stim/blank_white.png,stimulus/audwhat_stim/blank_white.png,stimulus/audwhat_stim/blank_white.png,0.0,0.0,0.0,0.0,0,0.0,0,0.0,0,0.0,0,0.0,0,0.0,0.0,0,0.0,0,0.0,0,0.0,0,0.0,0,0.0,0,0.0,0,0.0,0,0.0,8,,,,,0,37,37,37,,,,,,,,,341.31542045797687,341.31542045797687,341.31542045797687,341.31542045797687,341.31542045797687,341.31542045797687,341.31542045797687,341.31542045797687,341.2175939163154,341.31542045797687,341.31542045797687,341.31542045797687,341.2175939163154,341.31542045797687,341.31542045797687,341.31542045797687,341.31542045797687,341.31542045797687,341.31542045797687,341.31542045797687,341.31542045797687,341.31542045797687,341.31542045797687,341.31542045797687,341.31542045797687,341.31542045797687,341.31542045797687,341.26759391631543,341.31542045797687,341.31542045797687,341.31542045797687,341.26759391631543,341.31542045797687,341.31542045797687,341.31542045797687,341.31542045797687,341.31542045797687,346.5359417499858,346.5359417499858,349.4797763749957,None,0,,reldom2_s028,001,2025-03-04_12h01.22.935,What-A-Scan_AC,2022.2.5,None,
29,Second_Order,5.0,audwhat,stimulus/audwhat_stim/percussion xylophone_high-pitch_Dtri_loud.wav,stimulus/audwhat_stim/percussion mallet_low-pitch_Ftri_loud.wav,stimulus/audwhat_stim/string viola_high-pitch_Ftri_loud.wav,stimulus/audwhat_stim/string viola_low-pitch_Dtri_loud.wav,stimulus/audwhat_stim/match_blank.png,stimulus/audwhat_stim/match_box.png,stimulus/audwhat_stim/match_yes.png,stimulus/audwhat_stim/match_no.png,1.0,Match,Category,Category,1,5.125,0,5.125,0,5.125,0,5.125,0,0.75,0.75,0,0.0,0,0.0,0,0.0,0,0.0,1,0.5,1,2.125,1,0.5,1,2.125,0,,,,,0,38,38,38,,,,,,,,,349.4797763749957,354.6023951669922,349.4797763749957,349.4797763749957,349.4797763749957,349.4797763749957,349.9293875420117,350.9275453329901,349.9422495416404,350.9313850419712,351.56239762500627,352.55132195795886,351.56704116665446,,354.6023951669922,355.4555415419745,357.4972294999752,,355.4555415419745,355.4555415419745,360.63361849996727,355.4555415419745,355.4555415419745,355.4555415419745,355.4555415419745,355.9086217500153,356.9518057499663,355.87973870867086,,357.4972294999752,358.5457319999696,357.4685912916359,,355.4555415419745,360.63361849996727,355.4555415419745,360.63361849996727,360.63361849996727,,355.4555415419745,1,1,0.7421807909850031,reldom2_s028,001,2025-03-04_12h01.22.935,What-A-Scan_AC,2022.2.5,None,
30,Second_Order,5.0,audwhat,stimulus/audwhat_stim/percussion mallet_low-pitch_F_loud.wav,stimulus/audwhat_stim/percussion mallet_high-pitch_Ftri_loud.wav,stimulus/audwhat_stim/string viola_low-pitch_F_loud.wav,stimulus/audwhat_stim/string viola_high-pitch_Ftri_loud.wav,stimulus/audwhat_stim/match_blank.png,stimulus/audwhat_stim/match_box.png,stimulus/audwhat_stim/match_yes.png,stimulus/audwhat_stim/match_no.png,1.0,Match,Category,Category,1,5.125,0,5.125,0,5.125,0,5.125,0,0.625,0.625,0,0.0,0,0.0,0,0.0,0,0.0,1,0.5,1,2.125,1,0.5,1,2.125,0,,,,,0,39,39,39,,,,,,,,,361.432733582973,366.551100666984,361.432733582973,361.432733582973,361.432733582973,361.432733582973,361.8898138749646,362.88860766700236,361.9024404166305,,363.5108427919913,364.50883704196895,363.5228364996767,,366.551100666984,367.2797750419704,369.3507479169639,,367.2797750419704,367.2797750419704,372.4690569170052,367.2797750419704,367.2797750419704,367.2797750419704,367.2797750419704,367.7276022500009,368.7613958750153,367.6996305836403,,369.3507479169639,370.3937469579978,369.3217995416528,,367.2797750419704,372.4690569170052,367.2797750419704,372.4690569170052,372.4690569170052,373.14598141697934,367.2797750419704,1,1,0.7785747080342844,reldom2_s028,001,2025-03-04_12h01.22.935,What-A-Scan_AC,2022.2.5,None,
0,0.0,None,fixation,stimulus/audwhat_stim/blank_white.png,stimulus/audwhat_stim/blank_white.png,stimulus/viswhat_stim/blank_white.png,stimulus/viswhat_stim/blank_white.png,stimulus/audwhat_stim/blank_white.png,stimulus/audwhat_stim/blank_white.png,stimulus/audwhat_stim/blank_white.png,stimulus/audwhat_stim/blank_white.png,0.0,0.0,0.0,0.0,0,0.0,0,0.0,0,0.0,0,0.0,0,0.0,0.0,0,0.0,0,0.0,0,0.0,0,0.0,0,0.0,0,0.0,0,0.0,0,0.0,9,,,,,0,40,40,40,,,,,,,,,373.3740510829957,373.3740510829957,373.3740510829957,373.3740510829957,373.3740510829957,373.3740510829957,373.3740510829957,373.3740510829957,373.27931475031266,373.3740510829957,373.3740510829957,373.3740510829957,373.27931475031266,373.3740510829957,373.3740510829957,373.3740510829957,373.3740510829957,373.3740510829957,373.3740510829957,373.3740510829957,373.3740510829957,373.3740510829957,373.3740510829957,373.3740510829957,373.3740510829957,373.3740510829957,373.3740510829957,373.3293147503127,373.3740510829957,373.3740510829957,373.3740510829957,373.3293147503127,373.3740510829957,373.3740510829957,373.3740510829957,373.3740510829957,373.3740510829957,378.58310366701335,378.58310366701335,382.63169654196827,None,0,,reldom2_s028,001,2025-03-04_12h01.22.935,What-A-Scan_AC,2022.2.5,None,
31,First_Order,6.0,audwhat,stimulus/audwhat_stim/dummy.wav,stimulus/audwhat_stim/dummy.wav,stimulus/audwhat_stim/string viola_high-pitch_F_loud.wav,stimulus/audwhat_stim/percussion xylophone_high-pitch_F_loud.wav,stimulus/audwhat_stim/blank_white.png,stimulus/audwhat_stim/category_box.png,stimulus/audwhat_stim/category_yes.png,stimulus/audwhat_stim/category_no.png,None,Category,None,Pitch,2,0.0,0,5.125,0,5.125,0,5.125,0,0.0,0.625,0,0.0,0,0.0,0,0.0,0,0.0,0,0.0,0,0.0,1,0.5,1,2.125,0,,,,,0,41,41,41,,,,,,,,,382.63169654196827,382.63169654196827,382.63169654196827,382.63169654196827,382.63169654196827,382.63169654196827,382.63169654196827,382.63169654196827,382.56245070862735,382.63169654196827,382.63169654196827,382.63169654196827,382.56245070862735,382.63169654196827,382.63169654196827,382.63169654196827,384.73974070796976,388.74932808300946,382.63169654196827,382.63169654196827,387.8134499999578,382.63169654196827,382.63169654196827,382.63169654196827,382.63169654196827,383.090609167004,384.1454993750085,383.0602365416746,,384.73974070796976,385.79479308298323,384.71029683365873,385.7494860829902,382.63169654196827,387.8134499999578,382.63169654196827,387.8134499999578,387.85386983299395,388.5395077500143,382.63169654196827,2,1,1.9119360420154408,reldom2_s028,001,2025-03-04_12h01.22.935,What-A-Scan_AC,2022.2.5,None,
32,First_Order,6.0,audwhat,stimulus/audwhat_stim/dummy.wav,stimulus/audwhat_stim/dummy.wav,stimulus/audwhat_stim/percussion mallet_high-pitch_F_loud.wav,stimulus/audwhat_stim/percussion mallet_low-pitch_D_loud.wav,stimulus/audwhat_stim/blank_white.png,stimulus/audwhat_stim/pitch_box.png,stimulus/audwhat_stim/pitch_yes.png,stimulus/audwhat_stim/pitch_no.png,None,Pitch,None,Category,2,0.0,0,5.125,0,5.125,0,5.125,0,0.0,0.625,0,0.0,0,0.0,0,0.0,0,0.0,0,0.0,0,0.0,1,0.5,1,2.125,0,,,,,0,42,42,42,,,,,,,,,388.74932808300946,388.74932808300946,388.74932808300946,388.74932808300946,388.74932808300946,388.74932808300946,388.74932808300946,388.74932808300946,388.67284108334763,388.74932808300946,388.74932808300946,388.74932808300946,388.67284108334763,388.74932808300946,388.74932808300946,388.74932808300946,390.8545821249718,394.85947454196867,388.74932808300946,388.74932808300946,393.92335591698065,388.74932808300946,388.74932808300946,388.74932808300946,388.74932808300946,389.2088547499734,390.25944145797985,389.1794889166524,,390.8545821249718,391.91300479200436,390.8252244996295,,388.74932808300946,393.92335591698065,388.74932808300946,393.92335591698065,393.96394754201174,394.6491320419591,388.74932808300946,2,1,0.8779924580012448,reldom2_s028,001,2025-03-04_12h01.22.935,What-A-Scan_AC,2022.2.5,None,
33,First_Order,6.0,audwhat,stimulus/audwhat_stim/dummy.wav,stimulus/audwhat_stim/dummy.wav,stimulus/audwhat_stim/string cello_high-pitch_D_loud.wav,stimulus/audwhat_stim/string cello_low-pitch_Dtri_loud.wav,stimulus/audwhat_stim/blank_white.png,stimulus/audwhat_stim/category_box.png,stimulus/audwhat_stim/category_yes.png,stimulus/audwhat_stim/category_no.png,None,Category,None,Category,1,0.0,0,5.125,0,5.125,0,5.125,0,0.0,0.625,0,0.0,0,0.0,0,0.0,0,0.0,0,0.0,0,0.0,1,0.5,1,2.125,0,,,,,0,43,43,43,,,,,,,,,394.85947454196867,394.85947454196867,394.85947454196867,394.85947454196867,394.85947454196867,394.85947454196867,394.85947454196867,394.85947454196867,394.7824653752924,394.85947454196867,394.85947454196867,394.85947454196867,394.7824653752924,394.85947454196867,394.85947454196867,394.85947454196867,396.9328733329894,,394.85947454196867,394.85947454196867,400.0225663749734,394.85947454196867,394.85947454196867,394.85947454196867,394.85947454196867,395.32329920795746,396.38216104201274,395.2936620836301,,396.9328733329894,397.9926128750085,396.9030757496405,,394.85947454196867,400.0225663749734,394.85947454196867,400.0225663749734,400.06331749999663,400.75161074998323,394.85947454196867,1,1,0.9397297080140561,reldom2_s028,001,2025-03-04_12h01.22.935,What-A-Scan_AC,2022.2.5,None,
34,First_Order,6.0,audwhat,stimulus/audwhat_stim/dummy.wav,stimulus/audwhat_stim/dummy.wav,stimulus/audwhat_stim/string cello_high-pitch_F_loud.wav,stimulus/audwhat_stim/string viola_low-pitch_Ftri_loud.wav,stimulus/audwhat_stim/blank_white.png,stimulus/audwhat_stim/pitch_box.png,stimulus/audwhat_stim/pitch_yes.png,stimulus/audwhat_stim/pitch_no.png,None,Pitch,None,Category,2,0.0,0,5.125,0,5.125,0,5.125,0,0.0,0.625,0,0.0,0,0.0,0,0.0,0,0.0,0,0.0,0,0.0,1,0.5,1,2.125,0,,,,,0,44,44,44,,,,,,,,,400.9642040419858,400.9642040419858,400.9642040419858,400.9642040419858,400.9642040419858,400.9642040419858,400.9642040419858,400.9642040419858,400.88494408331655,400.9642040419858,400.9642040419858,400.9642040419858,400.88494408331655,400.9642040419858,400.9642040419858,400.9642040419858,403.03518687497126,,400.9642040419858,400.9642040419858,406.1153952080058,400.9642040419858,400.9642040419858,400.9642040419858,400.9642040419858,401.42615329200635,402.4837935830001,401.39652191667506,,403.03518687497126,404.09998920798535,403.0058034166616,,400.9642040419858,406.1153952080058,400.9642040419858,406.1153952080058,406.15603758295765,406.8048723330139,400.9642040419858,2,1,0.7496413330663927,reldom2_s028,001,2025-03-04_12h01.22.935,What-A-Scan_AC,2022.2.5,None,
0,0.0,None,fixation,stimulus/audwhat_stim/blank_white.png,stimulus/audwhat_stim/blank_white.png,stimulus/viswhat_stim/blank_white.png,stimulus/viswhat_stim/blank_white.png,stimulus/audwhat_stim/blank_white.png,stimulus/audwhat_stim/blank_white.png,stimulus/audwhat_stim/blank_white.png,stimulus/audwhat_stim/blank_white.png,0.0,0.0,0.0,0.0,0,0.0,0,0.0,0,0.0,0,0.0,0,0.0,0.0,0,0.0,0,0.0,0,0.0,0,0.0,0,0.0,0,0.0,0,0.0,0,0.0,10,,,,,0,45,45,45,,,,,,,,,407.07806291698944,407.07806291698944,407.07806291698944,407.07806291698944,407.07806291698944,407.07806291698944,407.07806291698944,407.07806291698944,406.97832091633074,407.07806291698944,407.07806291698944,407.07806291698944,406.97832091633074,407.07806291698944,407.07806291698944,407.07806291698944,407.07806291698944,407.07806291698944,407.07806291698944,407.07806291698944,407.07806291698944,407.07806291698944,407.07806291698944,407.07806291698944,407.07806291698944,407.07806291698944,407.07806291698944,407.02832091633076,407.07806291698944,407.07806291698944,407.07806291698944,407.02832091633076,407.07806291698944,407.07806291698944,407.07806291698944,407.07806291698944,407.07806291698944,412.26659420796204,412.26659420796204,417.23366020800313,None,0,,reldom2_s028,001,2025-03-04_12h01.22.935,What-A-Scan_AC,2022.2.5,None,
35,Second_Order,6.0,audwhat,stimulus/audwhat_stim/percussion xylophone_high-pitch_D_loud.wav,stimulus/audwhat_stim/string viola_high-pitch_D_loud.wav,stimulus/audwhat_stim/percussion mallet_high-pitch_Dtri_loud.wav,stimulus/audwhat_stim/percussion mallet_low-pitch_D_loud.wav,stimulus/audwhat_stim/match_blank.png,stimulus/audwhat_stim/match_box.png,stimulus/audwhat_stim/match_yes.png,stimulus/audwhat_stim/match_no.png,2.0,Match,Pitch,Category,2,5.125,0,5.125,0,5.125,0,5.125,0,0.75,0.75,0,0.0,0,0.0,0,0.0,0,0.0,1,0.5,1,2.125,1,0.5,1,2.125,0,,,,,0,46,46,46,,,,,,,,,417.23366020800313,422.34720924997237,417.23366020800313,417.23366020800313,417.23366020800313,417.23366020800313,417.68327174999285,418.6704865419888,417.6977315836741,418.68765108298976,419.3069628329831,420.304307082959,419.31846433366104,,422.34720924997237,423.1931462499779,425.2384805830079,429.18585504201474,423.1931462499779,423.1931462499779,428.38657908298774,423.1931462499779,423.1931462499779,423.1931462499779,423.1931462499779,423.6468803329626,424.69149825000204,423.618027291672,424.6458500419976,425.2384805830079,426.2903878329671,425.20917474967814,,423.1931462499779,428.38657908298774,423.1931462499779,428.38657908298774,428.38657908298774,,423.1931462499779,2,1,0.6070580829982646,reldom2_s028,001,2025-03-04_12h01.22.935,What-A-Scan_AC,2022.2.5,None,
36,Second_Order,6.0,audwhat,stimulus/audwhat_stim/percussion mallet_high-pitch_Dtri_loud.wav,stimulus/audwhat_stim/string viola_high-pitch_Dtri_loud.wav,stimulus/audwhat_stim/string cello_high-pitch_Dtri_loud.wav,stimulus/audwhat_stim/string viola_low-pitch_F_loud.wav,stimulus/audwhat_stim/match_blank.png,stimulus/audwhat_stim/match_box.png,stimulus/audwhat_stim/match_yes.png,stimulus/audwhat_stim/match_no.png,2.0,Match,Pitch,Category,2,5.125,0,5.125,0,5.125,0,5.125,0,0.625,0.625,0,0.0,0,0.0,0,0.0,0,0.0,1,0.5,1,2.125,1,0.5,1,2.125,0,,,,,0,47,47,47,,,,,,,,,429.18585504201474,434.3081785829854,429.18585504201474,429.18585504201474,429.18585504201474,429.18585504201474,429.64593162498204,430.6446977079613,429.65887649963065,,431.2675152499578,432.2651589169982,431.2796317086361,,434.3081785829854,435.03838495799573,437.1157688749954,441.1435880420031,435.03838495799573,435.03838495799573,440.1983237499953,435.03838495799573,435.03838495799573,435.03838495799573,435.03838495799573,435.4902406670153,436.52690758300014,435.4615190416264,,437.1157688749954,438.1605553330155,437.08644854167164,,435.03838495799573,440.1983237499953,435.03838495799573,440.1983237499953,440.1983237499953,440.8740142500028,435.03838495799573,2,1,0.7309156660339795,reldom2_s028,001,2025-03-04_12h01.22.935,What-A-Scan_AC,2022.2.5,None,
0,0.0,None,fixation,stimulus/audwhat_stim/blank_white.png,stimulus/audwhat_stim/blank_white.png,stimulus/viswhat_stim/blank_white.png,stimulus/viswhat_stim/blank_white.png,stimulus/audwhat_stim/blank_white.png,stimulus/audwhat_stim/blank_white.png,stimulus/audwhat_stim/blank_white.png,stimulus/audwhat_stim/blank_white.png,0.0,0.0,0.0,0.0,0,0.0,0,0.0,0,0.0,0,0.0,0,0.0,0.0,0,0.0,0,0.0,0,0.0,0,0.0,0,0.0,0,0.0,0,0.0,0,0.0,8,,,,,0,48,48,48,,,,,,,,,441.1435880420031,441.1435880420031,441.1435880420031,441.1435880420031,441.1435880420031,441.1435880420031,441.1435880420031,441.1435880420031,441.04694704132464,441.1435880420031,441.1435880420031,441.1435880420031,441.04694704132464,441.1435880420031,441.1435880420031,441.1435880420031,441.1435880420031,441.1435880420031,441.1435880420031,441.1435880420031,441.1435880420031,441.1435880420031,441.1435880420031,441.1435880420031,441.1435880420031,441.1435880420031,441.1435880420031,441.09694704132465,441.1435880420031,441.1435880420031,441.1435880420031,441.09694704132465,441.1435880420031,441.1435880420031,441.1435880420031,441.1435880420031,441.1435880420031,446.3750575829763,446.3750575829763,449.36317999998573,None,0,,reldom2_s028,001,2025-03-04_12h01.22.935,What-A-Scan_AC,2022.2.5,None,
37,First_Order,7.0,viswhat,stimulus/viswhat_stim/blank_white.png,stimulus/viswhat_stim/blank_white.png,stimulus/viswhat_stim/land_animal-zebra.png,stimulus/viswhat_stim/water_animal-squid.png,stimulus/viswhat_stim/blank_white.png,stimulus/viswhat_stim/type_box.png,stimulus/viswhat_stim/type_yes.png,stimulus/viswhat_stim/type_no.png,None,Type,None,Type,1,0.0,0,5.125,0,5.125,0,5.125,0,0.0,0.625,0,0.0,0,0.0,1,0.5,1,2.125,0,0.0,0,0.0,0,0.0,0,0.0,0,,,,,0,49,49,49,,,,,,,,,449.36317999998573,449.36317999998573,449.36317999998573,449.36317999998573,449.36317999998573,449.36317999998573,449.36317999998573,449.36317999998573,449.3188149166332,449.36317999998573,449.36317999998573,449.36317999998573,449.3188149166332,449.36317999998573,449.36317999998573,449.36317999998573,451.4522937919828,455.6914411250036,449.36317999998573,449.36317999998573,454.52834174997406,449.84396249998827,450.87188616697676,451.4522937919828,452.4799463750096,449.36317999998573,449.36317999998573,449.3354815832999,449.36317999998573,449.36317999998573,449.36317999998573,449.3354815832999,449.36317999998573,449.36317999998573,454.52834174997406,449.36317999998573,454.52834174997406,454.58114745799685,455.2177750419942,449.36317999998573,1,1,1.7011133750202134,reldom2_s028,001,2025-03-04_12h01.22.935,What-A-Scan_AC,2022.2.5,None,
38,First_Order,7.0,viswhat,stimulus/viswhat_stim/blank_white.png,stimulus/viswhat_stim/blank_white.png,stimulus/viswhat_stim/water_vehicle-submarine.png,stimulus/viswhat_stim/water_animal-lobster.png,stimulus/viswhat_stim/blank_white.png,stimulus/viswhat_stim/location_box.png,stimulus/viswhat_stim/location_yes.png,stimulus/viswhat_stim/location_no.png,None,Location,None,Location,1,0.0,0,5.125,0,5.125,0,5.125,0,0.0,0.625,0,0.0,0,0.0,1,0.5,1,2.125,0,0.0,0,0.0,0,0.0,0,0.0,0,,,,,0,50,50,50,,,,,,,,,455.6914411250036,455.6914411250036,455.6914411250036,455.6914411250036,455.6914411250036,455.6914411250036,455.6914411250036,455.6914411250036,455.3965715829632,455.6914411250036,455.6914411250036,455.6914411250036,455.3965715829632,455.6914411250036,455.6914411250036,455.6914411250036,457.79254958301317,461.79320874996483,455.6914411250036,455.6914411250036,461.0921602079761,456.14207983296365,457.3427553329966,457.79254958301317,458.99360995797906,455.6914411250036,455.6914411250036,455.5465715829632,455.6914411250036,455.6914411250036,455.6914411250036,455.5465715829632,455.6914411250036,455.6914411250036,461.0921602079761,455.6914411250036,461.0921602079761,460.79649366700323,,455.6914411250036,1,1,1.2603799580829218,reldom2_s028,001,2025-03-04_12h01.22.935,What-A-Scan_AC,2022.2.5,None,
39,First_Order,7.0,viswhat,stimulus/viswhat_stim/blank_white.png,stimulus/viswhat_stim/blank_white.png,stimulus/viswhat_stim/land_vehicle-vespa.png,stimulus/viswhat_stim/water_vehicle-yacht.png,stimulus/viswhat_stim/blank_white.png,stimulus/viswhat_stim/location_box.png,stimulus/viswhat_stim/location_yes.png,stimulus/viswhat_stim/location_no.png,None,Location,None,Type,2,0.0,0,5.125,0,5.125,0,5.125,0,0.0,0.625,0,0.0,0,0.0,1,0.5,1,2.125,0,0.0,0,0.0,0,0.0,0,0.0,0,,,,,0,51,51,51,,,,,,,,,461.79320874996483,461.79320874996483,461.79320874996483,461.79320874996483,461.79320874996483,461.79320874996483,461.79320874996483,461.79320874996483,461.7298304579686,461.79320874996483,461.79320874996483,461.79320874996483,461.7298304579686,461.79320874996483,461.79320874996483,461.79320874996483,463.8849256669637,467.8755973749794,461.79320874996483,461.79320874996483,466.9429496669909,462.2523152079666,463.3007045419654,463.8849256669637,464.93609483301407,461.79320874996483,461.79320874996483,461.76316379130196,461.79320874996483,461.79320874996483,461.79320874996483,461.76316379130196,461.79320874996483,461.79320874996483,466.9429496669909,461.79320874996483,466.9429496669909,467.01582799997414,467.66922479198547,461.79320874996483,2,1,0.6733637489960529,reldom2_s028,001,2025-03-04_12h01.22.935,What-A-Scan_AC,2022.2.5,None,
40,First_Order,7.0,viswhat,stimulus/viswhat_stim/blank_white.png,stimulus/viswhat_stim/blank_white.png,stimulus/viswhat_stim/water_vehicle-canoe.png,stimulus/viswhat_stim/water_animal-whale (1).png,stimulus/viswhat_stim/blank_white.png,stimulus/viswhat_stim/location_box.png,stimulus/viswhat_stim/location_yes.png,stimulus/viswhat_stim/location_no.png,None,Location,None,Location,1,0.0,0,5.125,0,5.125,0,5.125,0,0.0,0.625,0,0.0,0,0.0,1,0.5,1,2.125,0,0.0,0,0.0,0,0.0,0,0.0,0,,,,,0,52,52,52,,,,,,,,,467.8755973749794,467.8755973749794,467.8755973749794,467.8755973749794,467.8755973749794,467.8755973749794,467.8755973749794,467.8755973749794,467.8387420003147,467.8755973749794,467.8755973749794,467.8755973749794,467.8387420003147,467.8755973749794,467.8755973749794,467.8755973749794,469.97361608297797,474.0089431249653,467.8755973749794,467.8755973749794,473.01025908300653,468.34149712498765,469.36335437500384,469.97361608297797,471.00053066696273,467.8755973749794,467.8755973749794,467.85540866698136,467.8755973749794,467.8755973749794,467.8755973749794,467.85540866698136,467.8755973749794,467.8755973749794,473.01025908300653,467.8755973749794,473.01025908300653,473.0819643329596,473.7148683749838,467.8755973749794,1,1,0.6822373740142211,reldom2_s028,001,2025-03-04_12h01.22.935,What-A-Scan_AC,2022.2.5,None,
0,0.0,None,fixation,stimulus/audwhat_stim/blank_white.png,stimulus/audwhat_stim/blank_white.png,stimulus/viswhat_stim/blank_white.png,stimulus/viswhat_stim/blank_white.png,stimulus/audwhat_stim/blank_white.png,stimulus/audwhat_stim/blank_white.png,stimulus/audwhat_stim/blank_white.png,stimulus/audwhat_stim/blank_white.png,0.0,0.0,0.0,0.0,0,0.0,0,0.0,0,0.0,0,0.0,0,0.0,0.0,0,0.0,0,0.0,0,0.0,0,0.0,0,0.0,0,0.0,0,0.0,0,0.0,10,,,,,0,53,53,53,,,,,,,,,474.0089431249653,474.0089431249653,474.0089431249653,474.0089431249653,474.0089431249653,474.0089431249653,474.0089431249653,474.0089431249653,473.908659125003,474.0089431249653,474.0089431249653,474.0089431249653,473.908659125003,474.0089431249653,474.0089431249653,474.0089431249653,474.0089431249653,474.0089431249653,474.0089431249653,474.0089431249653,474.0089431249653,474.0089431249653,474.0089431249653,474.0089431249653,474.0089431249653,474.0089431249653,474.0089431249653,473.958659125003,474.0089431249653,474.0089431249653,474.0089431249653,473.958659125003,474.0089431249653,474.0089431249653,474.0089431249653,474.0089431249653,474.0089431249653,479.211317416979,479.211317416979,484.209808124986,None,0,,reldom2_s028,001,2025-03-04_12h01.22.935,What-A-Scan_AC,2022.2.5,None,
41,Second_Order,7.0,viswhat,stimulus/viswhat_stim/water_vehicle-cruiser.png,stimulus/viswhat_stim/land_vehicle-bus.png,stimulus/viswhat_stim/land_animal-fox.png,stimulus/viswhat_stim/water_animal-dolphin.png,stimulus/audwhat_stim/match_blank.png,stimulus/audwhat_stim/match_box.png,stimulus/audwhat_stim/match_yes.png,stimulus/audwhat_stim/match_no.png,1.0,Match,Type,Type,1,5.125,0,5.125,0,5.125,0,5.125,0,0.75,0.75,1,0.5,1,2.125,1,0.5,1,2.125,0,0.0,0,0.0,0,0.0,0,0.0,0,,,,,0,54,54,54,,,,,,,,,484.209808124986,489.3345055420068,484.63928508298704,485.6254889169941,486.2610777079826,487.2588521669968,484.209808124986,484.209808124986,484.22357220829775,484.209808124986,484.209808124986,484.209808124986,484.22357220829775,484.209808124986,489.3345055420068,490.1456023749779,492.2046792919864,496.13467895798385,490.1456023749779,490.1456023749779,495.2908930419944,490.5881215420086,491.60484566696687,492.2046792919864,493.23083700001007,490.1456023749779,490.1456023749779,490.1191272079712,490.1456023749779,490.1456023749779,490.1456023749779,490.1191272079712,490.1456023749779,490.1456023749779,495.2908930419944,490.1456023749779,495.2908930419944,495.33179970795754,496.13467895798385,490.1456023749779,1,1,0.8969002910307609,reldom2_s028,001,2025-03-04_12h01.22.935,What-A-Scan_AC,2022.2.5,None,
42,Second_Order,7.0,viswhat,stimulus/viswhat_stim/water_animal-whale.png,stimulus/viswhat_stim/water_vehicle-ferryboat.png,stimulus/viswhat_stim/land_vehicle-tank.png,stimulus/viswhat_stim/land_animal-wolf.png,stimulus/audwhat_stim/match_blank.png,stimulus/audwhat_stim/match_box.png,stimulus/audwhat_stim/match_yes.png,stimulus/audwhat_stim/match_no.png,1.0,Match,Location,Location,1,5.125,0,5.125,0,5.125,0,5.125,0,0.625,0.625,1,0.5,1,2.125,1,0.5,1,2.125,0,0.0,0,0.0,0,0.0,0,0.0,0,,,,,0,55,55,55,,,,,,,,,496.13467895798385,501.2582634999999,496.6008323749993,497.5996264999849,498.22195845795795,499.2200528329704,496.13467895798385,496.13467895798385,496.13395416662485,496.13467895798385,496.13467895798385,496.13467895798385,496.13395416662485,496.13467895798385,501.2582634999999,501.93821262498386,504.01075750001473,508.0590782079962,501.93821262498386,501.93821262498386,507.07538749999367,502.39932395797223,503.40392312500626,504.01075750001473,505.0225339999888,501.93821262498386,501.93821262498386,501.90927250032155,501.93821262498386,501.93821262498386,501.93821262498386,501.90927250032155,501.93821262498386,501.93821262498386,507.07538749999367,501.93821262498386,507.07538749999367,507.13987204199657,507.7746207920136,501.93821262498386,1,1,0.7769020830164663,reldom2_s028,001,2025-03-04_12h01.22.935,What-A-Scan_AC,2022.2.5,None,
0,0.0,None,fixation,stimulus/audwhat_stim/blank_white.png,stimulus/audwhat_stim/blank_white.png,stimulus/viswhat_stim/blank_white.png,stimulus/viswhat_stim/blank_white.png,stimulus/audwhat_stim/blank_white.png,stimulus/audwhat_stim/blank_white.png,stimulus/audwhat_stim/blank_white.png,stimulus/audwhat_stim/blank_white.png,0.0,0.0,0.0,0.0,0,0.0,0,0.0,0,0.0,0,0.0,0,0.0,0.0,0,0.0,0,0.0,0,0.0,0,0.0,0,0.0,0,0.0,0,0.0,0,0.0,9,,,,,0,56,56,56,,,,,,,,,508.0590782079962,508.0590782079962,508.0590782079962,508.0590782079962,508.0590782079962,508.0590782079962,508.0590782079962,508.0590782079962,507.9578256663129,508.0590782079962,508.0590782079962,508.0590782079962,507.9578256663129,508.0590782079962,508.0590782079962,508.0590782079962,508.0590782079962,508.0590782079962,508.0590782079962,508.0590782079962,508.0590782079962,508.0590782079962,508.0590782079962,508.0590782079962,508.0590782079962,508.0590782079962,508.0590782079962,508.0078256663129,508.0590782079962,508.0590782079962,508.0590782079962,508.0078256663129,508.0590782079962,508.0590782079962,508.0590782079962,508.0590782079962,508.0590782079962,513.2450328329578,513.2450328329578,517.2894933749922,None,0,,reldom2_s028,001,2025-03-04_12h01.22.935,What-A-Scan_AC,2022.2.5,None,
43,First_Order,8.0,viswhat,stimulus/viswhat_stim/blank_white.png,stimulus/viswhat_stim/blank_white.png,stimulus/viswhat_stim/water_vehicle-canoe.png,stimulus/viswhat_stim/water_animal-octopus.png,stimulus/viswhat_stim/blank_white.png,stimulus/viswhat_stim/type_box.png,stimulus/viswhat_stim/type_yes.png,stimulus/viswhat_stim/type_no.png,None,Type,None,Location,2,0.0,0,5.125,0,5.125,0,5.125,0,0.0,0.625,0,0.0,0,0.0,1,0.5,1,2.125,0,0.0,0,0.0,0,0.0,0,0.0,0,,,,,0,57,57,57,,,,,,,,,517.2894933749922,517.2894933749922,517.2894933749922,517.2894933749922,517.2894933749922,517.2894933749922,517.2894933749922,517.2894933749922,517.2412429996572,517.2894933749922,517.2894933749922,517.2894933749922,517.2412429996572,517.2894933749922,517.2894933749922,517.2894933749922,519.3927871249616,523.3837914169999,517.2894933749922,517.2894933749922,522.4559309169999,517.7640764169628,518.7810987079865,519.3927871249616,520.4158879999886,517.2894933749922,517.2894933749922,517.2579096663238,517.2894933749922,517.2894933749922,517.2894933749922,517.2579096663238,517.2894933749922,517.2894933749922,522.4559309169999,517.2894933749922,522.4559309169999,522.5130573330098,523.1689761669841,517.2894933749922,2,1,1.1207669160794467,reldom2_s028,001,2025-03-04_12h01.22.935,What-A-Scan_AC,2022.2.5,None,
44,First_Order,8.0,viswhat,stimulus/viswhat_stim/blank_white.png,stimulus/viswhat_stim/blank_white.png,stimulus/viswhat_stim/water_animal-octopus.png,stimulus/viswhat_stim/land_animal-snake.png,stimulus/viswhat_stim/blank_white.png,stimulus/viswhat_stim/type_box.png,stimulus/viswhat_stim/type_yes.png,stimulus/viswhat_stim/type_no.png,None,Type,None,Type,1,0.0,0,5.125,0,5.125,0,5.125,0,0.0,0.625,0,0.0,0,0.0,1,0.5,1,2.125,0,0.0,0,0.0,0,0.0,0,0.0,0,,,,,0,58,58,58,,,,,,,,,523.3837914169999,523.3837914169999,523.3837914169999,523.3837914169999,523.3837914169999,523.3837914169999,523.3837914169999,523.3837914169999,523.3423492086275,523.3837914169999,523.3837914169999,523.3837914169999,523.3423492086275,523.3837914169999,523.3837914169999,523.3837914169999,525.4908953749691,529.4577442499576,523.3837914169999,523.3837914169999,528.5286715829861,523.848029292014,524.8698168330011,525.4908953749691,526.5153015420074,523.3837914169999,523.3837914169999,523.3590158752942,523.3837914169999,523.3837914169999,523.3837914169999,523.3590158752942,523.3837914169999,523.3837914169999,528.5286715829861,523.3837914169999,528.5286715829861,528.6051265000133,529.2384169169818,523.3837914169999,1,1,1.1479812080506235,reldom2_s028,001,2025-03-04_12h01.22.935,What-A-Scan_AC,2022.2.5,None,
45,First_Order,8.0,viswhat,stimulus/viswhat_stim/blank_white.png,stimulus/viswhat_stim/blank_white.png,stimulus/viswhat_stim/land_vehicle-schoolbus.png,stimulus/viswhat_stim/land_animal-pig.png,stimulus/viswhat_stim/blank_white.png,stimulus/viswhat_stim/type_box.png,stimulus/viswhat_stim/type_yes.png,stimulus/viswhat_stim/type_no.png,None,Type,None,Location,2,0.0,0,5.125,0,5.125,0,5.125,0,0.0,0.625,0,0.0,0,0.0,1,0.5,1,2.125,0,0.0,0,0.0,0,0.0,0,0.0,0,,,,,0,59,59,59,,,,,,,,,529.4577442499576,529.4577442499576,529.4577442499576,529.4577442499576,529.4577442499576,529.4577442499576,529.4577442499576,529.4577442499576,529.4139649169753,529.4577442499576,529.4577442499576,529.4577442499576,529.4139649169753,529.4577442499576,529.4577442499576,529.4577442499576,531.5618632499827,535.5655507500051,529.4577442499576,529.4577442499576,534.5913504579803,529.929048207996,530.9564705420053,531.5618632499827,532.5938062499627,529.4577442499576,529.4577442499576,529.4472982503086,529.4577442499576,529.4577442499576,529.4577442499576,529.4472982503086,529.4577442499576,529.4577442499576,534.5913504579803,529.4577442499576,534.5913504579803,534.674155457993,535.3196022500051,529.4577442499576,2,1,0.9070108330342919,reldom2_s028,001,2025-03-04_12h01.22.935,What-A-Scan_AC,2022.2.5,None,
46,First_Order,8.0,viswhat,stimulus/viswhat_stim/blank_white.png,stimulus/viswhat_stim/blank_white.png,stimulus/viswhat_stim/land_vehicle-oldcar.png,stimulus/viswhat_stim/water_vehicle-powercruiser.png,stimulus/viswhat_stim/blank_white.png,stimulus/viswhat_stim/location_box.png,stimulus/viswhat_stim/location_yes.png,stimulus/viswhat_stim/location_no.png,None,Location,None,Type,2,0.0,0,5.125,0,5.125,0,5.125,0,0.0,0.625,0,0.0,0,0.0,1,0.5,1,2.125,0,0.0,0,0.0,0,0.0,0,0.0,0,,,,,0,60,60,60,,,,,,,,,535.5655507500051,535.5655507500051,535.5655507500051,535.5655507500051,535.5655507500051,535.5655507500051,535.5655507500051,535.5655507500051,535.5018391669961,535.5655507500051,535.5655507500051,535.5655507500051,535.5018391669961,535.5655507500051,535.5655507500051,535.5655507500051,537.6636342499987,541.7134182499722,535.5655507500051,535.5655507500051,540.7462012079777,536.0185438749613,537.047034416988,537.6636342499987,538.6946937079774,535.5655507500051,535.5655507500051,535.5351725003294,535.5655507500051,535.5655507500051,535.5655507500051,535.5351725003294,535.5655507500051,535.5655507500051,540.7462012079777,535.5655507500051,540.7462012079777,540.7816913750139,541.4548769170069,535.5655507500051,2,1,0.80954216606915,reldom2_s028,001,2025-03-04_12h01.22.935,What-A-Scan_AC,2022.2.5,None,
0,0.0,None,fixation,stimulus/audwhat_stim/blank_white.png,stimulus/audwhat_stim/blank_white.png,stimulus/viswhat_stim/blank_white.png,stimulus/viswhat_stim/blank_white.png,stimulus/audwhat_stim/blank_white.png,stimulus/audwhat_stim/blank_white.png,stimulus/audwhat_stim/blank_white.png,stimulus/audwhat_stim/blank_white.png,0.0,0.0,0.0,0.0,0,0.0,0,0.0,0,0.0,0,0.0,0,0.0,0.0,0,0.0,0,0.0,0,0.0,0,0.0,0,0.0,0,0.0,0,0.0,0,0.0,9,,,,,0,61,61,61,,,,,,,,,541.7134182499722,541.7134182499722,541.7134182499722,541.7134182499722,541.7134182499722,541.7134182499722,541.7134182499722,541.7134182499722,541.6232225413279,541.7134182499722,541.7134182499722,541.7134182499722,541.6232225413279,541.7134182499722,541.7134182499722,541.7134182499722,541.7134182499722,541.7134182499722,541.7134182499722,541.7134182499722,541.7134182499722,541.7134182499722,541.7134182499722,541.7134182499722,541.7134182499722,541.7134182499722,541.7134182499722,541.6732225413278,541.7134182499722,541.7134182499722,541.7134182499722,541.6732225413278,541.7134182499722,541.7134182499722,541.7134182499722,541.7134182499722,541.7134182499722,546.9289740829845,546.9289740829845,550.9115973329754,None,0,,reldom2_s028,001,2025-03-04_12h01.22.935,What-A-Scan_AC,2022.2.5,None,
47,Second_Order,8.0,viswhat,stimulus/viswhat_stim/water_animal-dolphin.png,stimulus/viswhat_stim/water_vehicle-cruiseship.png,stimulus/viswhat_stim/land_vehicle-oldcar.png,stimulus/viswhat_stim/land_animal-giraffe.png,stimulus/audwhat_stim/match_blank.png,stimulus/audwhat_stim/match_box.png,stimulus/audwhat_stim/match_yes.png,stimulus/audwhat_stim/match_no.png,1.0,Match,Location,Location,1,5.125,0,5.125,0,5.125,0,5.125,0,0.75,0.75,1,0.5,1,2.125,1,0.5,1,2.125,0,0.0,0,0.0,0,0.0,0,0.0,0,,,,,0,62,62,62,,,,,,,,,550.9115973329754,556.034595916979,551.3084932919592,552.2959837499657,552.9327837500023,553.9296238750103,550.9115973329754,550.9115973329754,550.9103354170103,550.9115973329754,550.9115973329754,550.9115973329754,550.9103354170103,550.9115973329754,556.034595916979,556.9290811250103,558.9769524579751,562.9182805420132,556.9290811250103,556.9290811250103,562.1600599169615,557.3255787919625,558.3812806669739,558.9769524579751,560.0432830830105,556.9290811250103,556.9290811250103,556.8695927079767,556.9290811250103,556.9290811250103,556.9290811250103,556.8695927079767,556.9290811250103,556.9290811250103,562.1600599169615,556.9290811250103,562.1600599169615,562.0990473330021,,556.9290811250103,1,1,0.7150053330115043,reldom2_s028,001,2025-03-04_12h01.22.935,What-A-Scan_AC,2022.2.5,None,
48,Second_Order,8.0,viswhat,stimulus/viswhat_stim/land_animal-ostrich.png,stimulus/viswhat_stim/water_animal-shark.png,stimulus/viswhat_stim/water_animal-whale.png,stimulus/viswhat_stim/water_vehicle-cargoboat.png,stimulus/audwhat_stim/match_blank.png,stimulus/audwhat_stim/match_box.png,stimulus/audwhat_stim/match_yes.png,stimulus/audwhat_stim/match_no.png,2.0,Match,Type,Location,2,5.125,0,5.125,0,5.125,0,5.125,0,0.625,0.625,1,0.5,1,2.125,1,0.5,1,2.125,0,0.0,0,0.0,0,0.0,0,0.0,0,,,,,0,63,63,63,,,,,,,,,562.9182805420132,568.0337994999718,563.3716957079596,564.3705577499932,565.0106091669877,566.0077205830021,562.9182805420132,562.9182805420132,562.9169858749723,562.9182805420132,562.9182805420132,562.9182805420132,562.9169858749723,562.9182805420132,568.0337994999718,568.7251761669759,570.8064630829613,574.845312749967,568.7251761669759,568.7251761669759,573.8558800420142,569.1734952919651,570.2027190829976,570.8064630829613,571.8186349999742,568.7251761669759,568.7251761669759,568.696953791962,568.7251761669759,568.7251761669759,568.7251761669759,568.696953791962,568.7251761669759,568.7251761669759,573.8558800420142,568.7251761669759,573.8558800420142,573.9187384999823,574.5642850419972,568.7251761669759,2,1,0.6110305830370635,reldom2_s028,001,2025-03-04_12h01.22.935,What-A-Scan_AC,2022.2.5,None,
0,0.0,None,fixation,stimulus/audwhat_stim/blank_white.png,stimulus/audwhat_stim/blank_white.png,stimulus/viswhat_stim/blank_white.png,stimulus/viswhat_stim/blank_white.png,stimulus/audwhat_stim/blank_white.png,stimulus/audwhat_stim/blank_white.png,stimulus/audwhat_stim/blank_white.png,stimulus/audwhat_stim/blank_white.png,0.0,0.0,0.0,0.0,0,0.0,0,0.0,0,0.0,0,0.0,0,0.0,0.0,0,0.0,0,0.0,0,0.0,0,0.0,0,0.0,0,0.0,0,0.0,0,0.0,16,,,,,0,64,64,64,,,,,,,,,574.845312749967,574.845312749967,574.845312749967,574.845312749967,574.845312749967,574.845312749967,574.845312749967,574.845312749967,574.7472899999935,574.845312749967,574.845312749967,574.845312749967,574.7472899999935,574.845312749967,574.845312749967,574.845312749967,574.845312749967,574.845312749967,574.845312749967,574.845312749967,574.845312749967,574.845312749967,574.845312749967,574.845312749967,574.845312749967,574.845312749967,574.845312749967,574.7972899999935,574.845312749967,574.845312749967,574.845312749967,574.7972899999935,574.845312749967,574.845312749967,574.845312749967,574.845312749967,574.845312749967,580.0486765829846,580.0486765829846,590.9978802499827,None,0,,reldom2_s028,001,2025-03-04_12h01.22.935,What-A-Scan_AC,2022.2.5,None,
